bandit,trials.thisRepN,trials.thisTrialN,trials.thisN,trials.thisIndex,instru_img1.started,instru_resp.started,instru_resp.keys,instru_resp.rt,instru_img2.started,instru_resp2.started,instru_resp2.keys,instru_resp2.rt,fixbefore_2.started,rest_response.keys,red.started,green.started,yellow.started,blue.started,choose_bandit.started,Fixation.started,choose_bandit.keys,choose_bandit.rt,black.started,red_2.started,green_2.started,yellow_2.started,blue_2.started,fixation_2.started,docs.started,image_2.started,docs.stopped,image_2.stopped,black.stopped,red_2.stopped,green_2.stopped,yellow_2.stopped,blue_2.stopped,fixation_2.stopped,black_com.started,reward_sub.started,palyerb.started,reward__sub.started,compare.started,red_compare.started,green_com.started,yellow_com.started,blue_com.started,image_3.started,slider.started,text.started,image_4.started,image_5.started,rewardyellow,rewardred,rewardblue,rewardgreen,subchoose,playerb,slider.response,slider.rt,intertrialfix.started,intertrialfix.stopped,bigx.started,bigx.stopped,rest_image.started,rest_response.started,rest_response.rt,image.started,key_resp.started,key_resp.keys,participant,Gender,Age,date,expName,psychopyVersion,frameRate,
,,,,,953.7531188998837,953.7531188998837,space,68.53154630004428,,,,,,,,,,,,,,,,,,,,,,,,,,,,,,,,,,,,,,,,,,,,,,,,,,,,,,,,,,,,,,,110,f,24,2022-11-25_17h05.18.125,RL,2022.2.4,60.16058069614163,
,,,,,,,,,1022.3123178000096,1022.3123178000096,space,70.8119001002051,,,,,,,,,,,,,,,,,,,,,,,,,,,,,,,,,,,,,,,,,,,,,,,,,,,,,,,,,,,110,f,24,2022-11-25_17h05.18.125,RL,2022.2.4,60.16058069614163,
1,0,0,0,0,,,,,,,,,1093.1417801999487,None,1094.1571265999228,1094.1571265999228,1094.1571265999228,1094.1571265999228,1094.1571265999228,1094.1571265999228,r,1.102144500007853,1095.3543004998937,1095.3543004998937,1095.3543004998937,1095.3543004998937,1095.3543004998937,1095.3543004998937,1095.5863934999797,1095.5863934999797,1097.4973076998722,1097.4973076998722,1097.5794961000793,1097.5794961000793,1097.5794961000793,1097.5794961000793,1097.5794961000793,1097.5794961000793,1097.5794961000793,1097.5794961000793,1097.5794961000793,1097.5794961000793,1097.5794961000793,1097.5794961000793,1097.5794961000793,1097.5794961000793,1097.5794961000793,1100.0737077000085,1100.0737077000085,1100.0737077000085,1100.0737077000085,1100.0737077000085,60,60,31,47,60,72,4.0,4.121080700075254,1104.3216305000242,1106.0409991999622,,,,,,,,,110,f,24,2022-11-25_17h05.18.125,RL,2022.2.4,60.16058069614163,
1,1,0,1,0,,,,,,,,,,None,1106.0409991999622,1106.0409991999622,1106.0409991999622,1106.0409991999622,1106.0409991999622,1106.0409991999622,i,1.0872874001506716,1107.1550614000298,1107.1550614000298,1107.1550614000298,1107.1550614000298,1107.1550614000298,1107.1550614000298,1107.4539506998844,1107.4539506998844,1108.8505639000796,1108.8505639000796,1108.8505639000796,1108.8505639000796,1108.8505639000796,1108.8505639000796,1108.8505639000796,1108.8505639000796,1108.8505639000796,1108.8505639000796,1108.8505639000796,1108.8505639000796,1108.8505639000796,1108.8505639000796,1108.8505639000796,1108.8505639000796,1108.8505639000796,1111.3591934998985,1111.3591934998985,1111.3591934998985,1111.3591934998985,1111.3591934998985,52,69,33,46,33,52,3.0,1.5785760001745075,1112.95458530006,1114.634079999989,,,,,,,,,110,f,24,2022-11-25_17h05.18.125,RL,2022.2.4,60.16058069614163,
1,2,0,2,0,,,,,,,,,,None,1114.634079999989,1114.634079999989,1114.634079999989,1114.634079999989,1114.634079999989,1114.634079999989,f,0.9090543000493199,1115.5727840999607,1115.5727840999607,1115.5727840999607,1115.5727840999607,1115.5727840999607,1115.5727840999607,1115.8640119000338,1115.8640119000338,1116.8446166000795,1116.8446166000795,1116.8626562000718,1116.8626562000718,1116.8626562000718,1116.8626562000718,1116.8626562000718,1116.8626562000718,1116.8626562000718,1116.8626562000718,1116.8626562000718,1116.8626562000718,1116.8626562000718,1116.8626562000718,1116.8626562000718,1116.8626562000718,1116.8626562000718,1119.3706177999265,1119.3706177999265,1119.3706177999265,1119.3706177999265,1119.3706177999265,50,60,22,44,60,38,4.0,1.380767700029537,1120.7663880998734,1122.695476199966,,,,,,,,,110,f,24,2022-11-25_17h05.18.125,RL,2022.2.4,60.16058069614163,
1,3,0,3,0,,,,,,,,,,None,1122.695476199966,1122.695476199966,1122.695476199966,1122.695476199966,1122.695476199966,1122.695476199966,i,0.9613377000205219,1123.6794169999193,1123.6794169999193,1123.6794169999193,1123.6794169999193,1123.6794169999193,1123.6794169999193,1123.975391899934,1123.975391899934,1125.2885205999482,1125.2885205999482,1125.2885205999482,1125.2885205999482,1125.2885205999482,1125.2885205999482,1125.2885205999482,1125.2885205999482,1125.2885205999482,1125.2885205999482,1125.2885205999482,1125.2885205999482,1125.2885205999482,1125.2885205999482,1125.2885205999482,1125.2885205999482,1125.2885205999482,1127.7974709998816,1127.7974709998816,1127.7974709998816,1127.7974709998816,1127.7974709998816,49,62,30,47,30,56,3.0,1.0624298001639545,1128.8793601000216,1130.7405465000775,,,,,,,,,110,f,24,2022-11-25_17h05.18.125,RL,2022.2.4,60.16058069614163,
1,4,0,4,0,,,,,,,,,,None,1130.7405465000775,1130.7405465000775,1130.7405465000775,1130.7405465000775,1130.7405465000775,1130.7405465000775,j,0.945559199899435,1131.705344100017,1131.705344100017,1131.705344100017,1131.705344100017,1131.705344100017,1131.705344100017,1132.003560299985,1132.003560299985,1133.2830214998685,1133.2830214998685,1133.2830214998685,1133.2830214998685,1133.2830214998685,1133.2830214998685,1133.2830214998685,1133.2830214998685,1133.2830214998685,1133.2830214998685,1133.2830214998685,1133.2830214998685,1133.2830214998685,1133.2830214998685,1133.2830214998685,1133.2830214998685,1133.2830214998685,1135.7926741000265,1135.7926741000265,1135.7926741000265,1135.7926741000265,1135.7926741000265,39,66,21,35,35,61,3.0,0.6642900998704135,1136.4736055000685,1138.3358231000602,,,,,,,,,110,f,24,2022-11-25_17h05.18.125,RL,2022.2.4,60.16058069614163,
1,5,0,5,0,,,,,,,,,,None,1138.3358231000602,1138.3358231000602,1138.3358231000602,1138.3358231000602,1138.3358231000602,1138.3358231000602,None,,,,,,,,,,,,,,,,,,,,,,,,,,,,,,,,42,64,24,41,0,**,None,None,1144.3690758000594,1146.1645778999664,1139.8582806000486,1144.3690758000594,,,,,,,110,f,24,2022-11-25_17h05.18.125,RL,2022.2.4,60.16058069614163,
1,6,0,6,0,,,,,,,,,,None,1146.1645778999664,1146.1645778999664,1146.1645778999664,1146.1645778999664,1146.1645778999664,1146.1645778999664,r,0.930618799990043,1147.1165068000555,1147.1165068000555,1147.1165068000555,1147.1165068000555,1147.1165068000555,1147.1165068000555,1147.4116243999451,1147.4116243999451,1149.389365100069,1149.389365100069,1149.389365100069,1149.389365100069,1149.389365100069,1149.389365100069,1149.389365100069,1149.389365100069,1149.389365100069,1149.389365100069,1149.389365100069,1149.389365100069,1149.389365100069,1149.389365100069,1149.389365100069,1149.389365100069,1149.389365100069,1151.8986696999054,1151.8986696999054,1151.8986696999054,1151.8986696999054,1151.8986696999054,45,58,32,42,45,35,3.0,1.7282749000005424,1153.643933000043,1155.4225464998744,,,,,,,,,110,f,24,2022-11-25_17h05.18.125,RL,2022.2.4,60.16058069614163,
1,7,0,7,0,,,,,,,,,,None,1155.4225464998744,1155.4225464998744,1155.4225464998744,1155.4225464998744,1155.4225464998744,1155.4225464998744,f,0.7074762999545783,1156.1547093000263,1156.1547093000263,1156.1547093000263,1156.1547093000263,1156.1547093000263,1156.1547093000263,1156.4536603000015,1156.4536603000015,1157.8661408000626,1157.8661408000626,1157.8661408000626,1157.8661408000626,1157.8661408000626,1157.8661408000626,1157.8661408000626,1157.8661408000626,1157.8661408000626,1157.8661408000626,1157.8661408000626,1157.8661408000626,1157.8661408000626,1157.8661408000626,1157.8661408000626,1157.8661408000626,1157.8661408000626,1160.3769048000686,1160.3769048000686,1160.3769048000686,1160.3769048000686,1160.3769048000686,50,51,31,37,51,56,3.0,1.2625937000848353,1161.6550980000757,1163.4674585999455,,,,,,,,,110,f,24,2022-11-25_17h05.18.125,RL,2022.2.4,60.16058069614163,
1,8,0,8,0,,,,,,,,,,None,1163.4674585999455,1163.4674585999455,1163.4674585999455,1163.4674585999455,1163.4674585999455,1163.4674585999455,f,0.44646570016629994,1163.9360451998655,1163.9360451998655,1163.9360451998655,1163.9360451998655,1163.9360451998655,1163.9360451998655,1164.2322613999713,1164.2322613999713,1165.6946626000572,1165.6946626000572,1165.6946626000572,1165.6946626000572,1165.6946626000572,1165.6946626000572,1165.6946626000572,1165.6946626000572,1165.6946626000572,1165.6946626000572,1165.6946626000572,1165.6946626000572,1165.6946626000572,1165.6946626000572,1165.6946626000572,1165.6946626000572,1165.6946626000572,1168.2038026000373,1168.2038026000373,1168.2038026000373,1168.2038026000373,1168.2038026000373,51,61,32,35,61,53,4.0,1.462224300019443,1169.6840818000492,1171.3456949000247,,,,,,,,,110,f,24,2022-11-25_17h05.18.125,RL,2022.2.4,60.16058069614163,
1,9,0,9,0,,,,,,,,,,None,1171.3456949000247,1171.3456949000247,1171.3456949000247,1171.3456949000247,1171.3456949000247,1171.3456949000247,i,0.5225134999491274,1171.905799600063,1171.905799600063,1171.905799600063,1171.905799600063,1171.905799600063,1171.905799600063,1172.1941225999035,1172.1941225999035,1173.3405408998951,1173.3405408998951,1173.3571387000848,1173.3571387000848,1173.3571387000848,1173.3571387000848,1173.3571387000848,1173.3571387000848,1173.3571387000848,1173.3571387000848,1173.3571387000848,1173.3571387000848,1173.3571387000848,1173.3571387000848,1173.3571387000848,1173.3571387000848,1173.3571387000848,1175.8663083999418,1175.8663083999418,1175.8663083999418,1175.8663083999418,1175.8663083999418,46,56,39,37,39,63,3.0,1.5442150000017136,1177.428554999875,1179.0746778999455,,,,,,,,,110,f,24,2022-11-25_17h05.18.125,RL,2022.2.4,60.16058069614163,
1,10,0,10,0,,,,,,,,,,None,1179.0746778999455,1179.0746778999455,1179.0746778999455,1179.0746778999455,1179.0746778999455,1179.0746778999455,f,0.42875800002366304,1179.5239021000452,1179.5239021000452,1179.5239021000452,1179.5239021000452,1179.5239021000452,1179.5239021000452,1179.8065148000605,1179.8065148000605,1181.5680911999661,1181.5680911999661,1181.5847479000222,1181.5847479000222,1181.5847479000222,1181.5847479000222,1181.5847479000222,1181.5847479000222,1181.5847479000222,1181.5847479000222,1181.5847479000222,1181.5847479000222,1181.5847479000222,1181.5847479000222,1181.5847479000222,1181.5847479000222,1181.5847479000222,1184.0938166000415,1184.0938166000415,1184.0938166000415,1184.0938166000415,1184.0938166000415,38,54,37,35,54,60,3.0,1.4947661000769585,1185.6066059998702,1187.6030693000648,,,,,,,,,110,f,24,2022-11-25_17h05.18.125,RL,2022.2.4,60.16058069614163,
1,11,0,11,0,,,,,,,,,,None,1187.6030693000648,1187.6030693000648,1187.6030693000648,1187.6030693000648,1187.6030693000648,1187.6030693000648,j,0.7482215999625623,1188.384852600051,1188.384852600051,1188.384852600051,1188.384852600051,1188.384852600051,1188.384852600051,1188.6820950000547,1188.6820950000547,1189.9952920998912,1189.9952920998912,1189.9952920998912,1189.9952920998912,1189.9952920998912,1189.9952920998912,1189.9952920998912,1189.9952920998912,1189.9952920998912,1189.9952920998912,1189.9952920998912,1189.9952920998912,1189.9952920998912,1189.9952920998912,1189.9952920998912,1189.9952920998912,1189.9952920998912,1192.5041586000007,1192.5041586000007,1192.5041586000007,1192.5041586000007,1192.5041586000007,34,49,43,43,43,67,3.0,0.8302750999573618,1193.351959799882,1194.9483497999609,,,,,,,,,110,f,24,2022-11-25_17h05.18.125,RL,2022.2.4,60.16058069614163,
1,12,0,12,0,,,,,,,,,,None,1194.9483497999609,1194.9483497999609,1194.9483497999609,1194.9483497999609,1194.9483497999609,1194.9483497999609,f,0.47367749991826713,1195.4476653998718,1195.4476653998718,1195.4476653998718,1195.4476653998718,1195.4476653998718,1195.4476653998718,1195.746099999873,1195.746099999873,1196.828250600025,1196.828250600025,1196.828250600025,1196.828250600025,1196.828250600025,1196.828250600025,1196.828250600025,1196.828250600025,1196.828250600025,1196.828250600025,1196.828250600025,1196.828250600025,1196.828250600025,1196.828250600025,1196.828250600025,1196.828250600025,1196.828250600025,1199.3354758000933,1199.3354758000933,1199.3354758000933,1199.3354758000933,1199.3354758000933,40,47,42,44,47,35,4.0,1.0640922000166029,1200.4161485000513,1202.359080000082,,,,,,,,,110,f,24,2022-11-25_17h05.18.125,RL,2022.2.4,60.16058069614163,
1,13,0,13,0,,,,,,,,,,None,1202.359080000082,1202.359080000082,1202.359080000082,1202.359080000082,1202.359080000082,1202.359080000082,f,0.3172411001287401,1202.6958596999757,1202.6958596999757,1202.6958596999757,1202.6958596999757,1202.6958596999757,1202.6958596999757,1202.9932518000714,1202.9932518000714,1204.5559773000423,1204.5559773000423,1204.5559773000423,1204.5559773000423,1204.5559773000423,1204.5559773000423,1204.5559773000423,1204.5559773000423,1204.5559773000423,1204.5559773000423,1204.5559773000423,1204.5559773000423,1204.5559773000423,1204.5559773000423,1204.5559773000423,1204.5559773000423,1204.5559773000423,1207.0645067000296,1207.0645067000296,1207.0645067000296,1207.0645067000296,1207.0645067000296,32,53,44,41,53,67,4.0,0.6310913998167962,1207.7127479000483,1209.5915973000228,,,,,,,,,110,f,24,2022-11-25_17h05.18.125,RL,2022.2.4,60.16058069614163,
1,14,0,14,0,,,,,,,,,,None,1209.5915973000228,1209.5915973000228,1209.5915973000228,1209.5915973000228,1209.5915973000228,1209.5915973000228,f,0.3195652000140399,1209.94104039995,1209.94104039995,1209.94104039995,1209.94104039995,1209.94104039995,1209.94104039995,1210.241114600096,1210.241114600096,1211.187693099957,1211.187693099957,1211.187693099957,1211.187693099957,1211.187693099957,1211.187693099957,1211.187693099957,1211.187693099957,1211.187693099957,1211.187693099957,1211.187693099957,1211.187693099957,1211.187693099957,1211.187693099957,1211.187693099957,1211.187693099957,1211.187693099957,1213.6964004999027,1213.6964004999027,1213.6964004999027,1213.6964004999027,1213.6964004999027,36,48,47,40,48,68,4.0,1.1954264000523835,1214.9097068998963,1216.9050402999856,,,,,,,,,110,f,24,2022-11-25_17h05.18.125,RL,2022.2.4,60.16058069614163,
1,15,0,15,0,,,,,,,,,,None,1216.9050402999856,1216.9050402999856,1216.9050402999856,1216.9050402999856,1216.9050402999856,1216.9050402999856,i,0.655947000021115,1217.5909609000664,1217.5909609000664,1217.5909609000664,1217.5909609000664,1217.5909609000664,1217.5909609000664,1217.8865316000301,1217.8865316000301,1218.999378300039,1218.999378300039,1218.999378300039,1218.999378300039,1218.999378300039,1218.999378300039,1218.999378300039,1218.999378300039,1218.999378300039,1218.999378300039,1218.999378300039,1218.999378300039,1218.999378300039,1218.999378300039,1218.999378300039,1218.999378300039,1218.999378300039,1221.5085829999298,1221.5085829999298,1221.5085829999298,1221.5085829999298,1221.5085829999298,42,50,43,31,43,63,3.0,1.2124941998627037,1222.7383018999826,1224.7006083000451,,,,,,,,,110,f,24,2022-11-25_17h05.18.125,RL,2022.2.4,60.16058069614163,
1,16,0,16,0,,,,,,,,,,None,1224.7006083000451,1224.7006083000451,1224.7006083000451,1224.7006083000451,1224.7006083000451,1224.7006083000451,f,0.45616369997151196,1225.1854300999548,1225.1854300999548,1225.1854300999548,1225.1854300999548,1225.1854300999548,1225.1854300999548,1225.4818245000206,1225.4818245000206,1227.2446973000187,1227.2446973000187,1227.2602415999863,1227.2602415999863,1227.2602415999863,1227.2602415999863,1227.2602415999863,1227.2602415999863,1227.2602415999863,1227.2602415999863,1227.2602415999863,1227.2602415999863,1227.2602415999863,1227.2602415999863,1227.2602415999863,1227.2602415999863,1227.2602415999863,1229.7693461000454,1229.7693461000454,1229.7693461000454,1229.7693461000454,1229.7693461000454,39,47,45,35,47,61,3.0,1.3481445000506938,1231.1323762999382,1232.9612698000856,,,,,,,,,110,f,24,2022-11-25_17h05.18.125,RL,2022.2.4,60.16058069614163,
1,17,0,17,0,,,,,,,,,,None,1232.9612698000856,1232.9612698000856,1232.9612698000856,1232.9612698000856,1232.9612698000856,1232.9612698000856,r,0.719069599872455,1233.7099715999793,1233.7099715999793,1233.7099715999793,1233.7099715999793,1233.7099715999793,1233.7099715999793,1234.0089829999488,1234.0089829999488,1235.6541448000353,1235.6541448000353,1235.6541448000353,1235.6541448000353,1235.6541448000353,1235.6541448000353,1235.6541448000353,1235.6541448000353,1235.6541448000353,1235.6541448000353,1235.6541448000353,1235.6541448000353,1235.6541448000353,1235.6541448000353,1235.6541448000353,1235.6541448000353,1235.6541448000353,1238.1631883999798,1238.1631883999798,1238.1631883999798,1238.1631883999798,1238.1631883999798,42,52,59,44,42,49,3.0,1.3627724999096245,1239.5428867998999,1241.5210086000152,,,,,,,,,110,f,24,2022-11-25_17h05.18.125,RL,2022.2.4,60.16058069614163,
1,18,0,18,0,,,,,,,,,,None,1241.5210086000152,1241.5210086000152,1241.5210086000152,1241.5210086000152,1241.5210086000152,1241.5210086000152,f,0.29344609985128045,1241.8409019000828,1241.8409019000828,1241.8409019000828,1241.8409019000828,1241.8409019000828,1241.8409019000828,1242.1379305000883,1242.1379305000883,1243.4332039,1243.4332039,1243.4332039,1243.4332039,1243.4332039,1243.4332039,1243.4332039,1243.4332039,1243.4332039,1243.4332039,1243.4332039,1243.4332039,1243.4332039,1243.4332039,1243.4332039,1243.4332039,1243.4332039,1245.9419821000192,1245.9419821000192,1245.9419821000192,1245.9419821000192,1245.9419821000192,41,51,56,43,51,64,3.0,0.7972450000233948,1246.7560775999445,1248.3524625999853,,,,,,,,,110,f,24,2022-11-25_17h05.18.125,RL,2022.2.4,60.16058069614163,
1,19,0,19,0,,,,,,,,,,None,1248.3524625999853,1248.3524625999853,1248.3524625999853,1248.3524625999853,1248.3524625999853,1248.3524625999853,j,0.9967862998601049,1249.3689989999402,1249.3689989999402,1249.3689989999402,1249.3689989999402,1249.3689989999402,1249.3689989999402,1249.6657561999746,1249.6657561999746,1251.2946985999588,1251.2946985999588,1251.2946985999588,1251.2946985999588,1251.2946985999588,1251.2946985999588,1251.2946985999588,1251.2946985999588,1251.2946985999588,1251.2946985999588,1251.2946985999588,1251.2946985999588,1251.2946985999588,1251.2946985999588,1251.2946985999588,1251.2946985999588,1251.2946985999588,1253.8039438000415,1253.8039438000415,1253.8039438000415,1253.8039438000415,1253.8039438000415,47,52,53,28,28,62,2.0,1.179563800105825,1255.0002905998845,1256.7961331000552,,,,,,,,,110,f,24,2022-11-25_17h05.18.125,RL,2022.2.4,60.16058069614163,
1,20,0,20,0,,,,,,,,,,None,1256.7961331000552,1256.7961331000552,1256.7961331000552,1256.7961331000552,1256.7961331000552,1256.7961331000552,f,0.3437453000806272,1257.162258299999,1257.162258299999,1257.162258299999,1257.162258299999,1257.162258299999,1257.162258299999,1257.4611617999617,1257.4611617999617,1259.0567858000286,1259.0567858000286,1259.0567858000286,1259.0567858000286,1259.0567858000286,1259.0567858000286,1259.0567858000286,1259.0567858000286,1259.0567858000286,1259.0567858000286,1259.0567858000286,1259.0567858000286,1259.0567858000286,1259.0567858000286,1259.0567858000286,1259.0567858000286,1259.0567858000286,1261.5660381999332,1261.5660381999332,1261.5660381999332,1261.5660381999332,1261.5660381999332,49,52,52,40,52,59,2.0,1.3947028999682516,1262.9785623999778,1264.6744572999887,,,,,,,,,110,f,24,2022-11-25_17h05.18.125,RL,2022.2.4,60.16058069614163,
1,21,0,21,0,,,,,,,,,,None,1264.6744572999887,1264.6744572999887,1264.6744572999887,1264.6744572999887,1264.6744572999887,1264.6744572999887,f,0.6634535000193864,1265.356542200083,1265.356542200083,1265.356542200083,1265.356542200083,1265.356542200083,1265.356542200083,1265.6560883999337,1265.6560883999337,1267.1190011000726,1267.1190011000726,1267.1190011000726,1267.1190011000726,1267.1190011000726,1267.1190011000726,1267.1190011000726,1267.1190011000726,1267.1190011000726,1267.1190011000726,1267.1190011000726,1267.1190011000726,1267.1190011000726,1267.1190011000726,1267.1190011000726,1267.1190011000726,1267.1190011000726,1269.6275299999397,1269.6275299999397,1269.6275299999397,1269.6275299999397,1269.6275299999397,38,52,60,38,52,47,2.0,0.7133609000593424,1270.3584648000542,1271.9546085000038,,,,,,,,,110,f,24,2022-11-25_17h05.18.125,RL,2022.2.4,60.16058069614163,
1,22,0,22,0,,,,,,,,,,None,1271.9546085000038,1271.9546085000038,1271.9546085000038,1271.9546085000038,1271.9546085000038,1271.9546085000038,f,0.6435142999980599,1272.6204337000381,1272.6204337000381,1272.6204337000381,1272.6204337000381,1272.6204337000381,1272.6204337000381,1272.9190136999823,1272.9190136999823,1274.2653628999833,1274.2653628999833,1274.2653628999833,1274.2653628999833,1274.2653628999833,1274.2653628999833,1274.2653628999833,1274.2653628999833,1274.2653628999833,1274.2653628999833,1274.2653628999833,1274.2653628999833,1274.2653628999833,1274.2653628999833,1274.2653628999833,1274.2653628999833,1274.2653628999833,1276.7746071999427,1276.7746071999427,1276.7746071999427,1276.7746071999427,1276.7746071999427,51,43,52,38,43,71,2.0,0.5642420998774469,1277.3562666999642,1279.168285700027,,,,,,,,,110,f,24,2022-11-25_17h05.18.125,RL,2022.2.4,60.16058069614163,
1,23,0,23,0,,,,,,,,,,None,1279.168285700027,1279.168285700027,1279.168285700027,1279.168285700027,1279.168285700027,1279.168285700027,r,1.0040485002100468,1280.202610899927,1280.202610899927,1280.202610899927,1280.202610899927,1280.202610899927,1280.202610899927,1280.4983973999042,1280.4983973999042,1282.4614426000044,1282.4614426000044,1282.4614426000044,1282.4614426000044,1282.4614426000044,1282.4614426000044,1282.4614426000044,1282.4614426000044,1282.4614426000044,1282.4614426000044,1282.4614426000044,1282.4614426000044,1282.4614426000044,1282.4614426000044,1282.4614426000044,1282.4614426000044,1282.4614426000044,1284.9688196000643,1284.9688196000643,1284.9688196000643,1284.9688196000643,1284.9688196000643,31,45,58,36,31,61,2.0,0.7634608000516891,1285.7499237998854,1287.3293892000802,,,,,,,,,110,f,24,2022-11-25_17h05.18.125,RL,2022.2.4,60.16058069614163,
1,24,0,24,0,,,,,,,,,,None,1287.3293892000802,1287.3293892000802,1287.3293892000802,1287.3293892000802,1287.3293892000802,1287.3293892000802,f,0.5238623998593539,1287.8810375998728,1287.8810375998728,1287.8810375998728,1287.8810375998728,1287.8810375998728,1287.8810375998728,1288.1780868999194,1288.1780868999194,1290.1886791998986,1290.1886791998986,1290.1886791998986,1290.1886791998986,1290.1886791998986,1290.1886791998986,1290.1886791998986,1290.1886791998986,1290.1886791998986,1290.1886791998986,1290.1886791998986,1290.1886791998986,1290.1886791998986,1290.1886791998986,1290.1886791998986,1290.1886791998986,1290.1886791998986,1292.69777050009,1292.69777050009,1292.69777050009,1292.69777050009,1292.69777050009,34,43,51,29,43,57,2.0,0.9613448001910001,1293.6784043998923,1295.5568880999926,,,,,,,,,110,f,24,2022-11-25_17h05.18.125,RL,2022.2.4,60.16058069614163,
1,25,0,25,0,,,,,,,,,,None,1295.5568880999926,1295.5568880999926,1295.5568880999926,1295.5568880999926,1295.5568880999926,1295.5568880999926,f,0.6654598000459373,1296.2556551999878,1296.2556551999878,1296.2556551999878,1296.2556551999878,1296.2556551999878,1296.2556551999878,1296.5547263000626,1296.5547263000626,1298.2000044998713,1298.2000044998713,1298.2000044998713,1298.2000044998713,1298.2000044998713,1298.2000044998713,1298.2000044998713,1298.2000044998713,1298.2000044998713,1298.2000044998713,1298.2000044998713,1298.2000044998713,1298.2000044998713,1298.2000044998713,1298.2000044998713,1298.2000044998713,1298.2000044998713,1300.7089897000697,1300.7089897000697,1300.7089897000697,1300.7089897000697,1300.7089897000697,36,39,53,35,39,56,2.0,0.9468050999566913,1301.6729999000672,1303.56883689994,,,,,,,,,110,f,24,2022-11-25_17h05.18.125,RL,2022.2.4,60.16058069614163,
1,26,0,26,0,,,,,,,,,,None,1303.56883689994,1303.56883689994,1303.56883689994,1303.56883689994,1303.56883689994,1303.56883689994,i,0.6321562000084668,1304.2337692000438,1304.2337692000438,1304.2337692000438,1304.2337692000438,1304.2337692000438,1304.2337692000438,1304.5331627998967,1304.5331627998967,1305.6960926998872,1305.6960926998872,1305.6960926998872,1305.6960926998872,1305.6960926998872,1305.6960926998872,1305.6960926998872,1305.6960926998872,1305.6960926998872,1305.6960926998872,1305.6960926998872,1305.6960926998872,1305.6960926998872,1305.6960926998872,1305.6960926998872,1305.6960926998872,1305.6960926998872,1308.2052893999498,1308.2052893999498,1308.2052893999498,1308.2052893999498,1308.2052893999498,39,39,53,42,53,60,3.0,1.1797710000537336,1309.402054599952,1311.0813094999176,,,,,,,,,110,f,24,2022-11-25_17h05.18.125,RL,2022.2.4,60.16058069614163,
1,27,0,27,0,,,,,,,,,,None,1311.0813094999176,1311.0813094999176,1311.0813094999176,1311.0813094999176,1311.0813094999176,1311.0813094999176,r,0.5598651000764221,1311.6674480999354,1311.6674480999354,1311.6674480999354,1311.6674480999354,1311.6674480999354,1311.6674480999354,1311.9628991000354,1311.9628991000354,1313.5248052999377,1313.5248052999377,1313.5414149998687,1313.5414149998687,1313.5414149998687,1313.5414149998687,1313.5414149998687,1313.5414149998687,1313.5414149998687,1313.5414149998687,1313.5414149998687,1313.5414149998687,1313.5414149998687,1313.5414149998687,1313.5414149998687,1313.5414149998687,1313.5414149998687,1316.050714999903,1316.050714999903,1316.050714999903,1316.050714999903,1316.050714999903,31,43,54,37,31,43,2.0,1.4131248001940548,1317.4799651999492,1319.3256695000455,,,,,,,,,110,f,24,2022-11-25_17h05.18.125,RL,2022.2.4,60.16058069614163,
1,28,0,28,0,,,,,,,,,,None,1319.3256695000455,1319.3256695000455,1319.3256695000455,1319.3256695000455,1319.3256695000455,1319.3256695000455,f,0.36993709998205304,1319.7250244999304,1319.7250244999304,1319.7250244999304,1319.7250244999304,1319.7250244999304,1319.7250244999304,1320.0243110999,1320.0243110999,1320.9548044998664,1320.9548044998664,1320.9548044998664,1320.9548044998664,1320.9548044998664,1320.9548044998664,1320.9548044998664,1320.9548044998664,1320.9548044998664,1320.9548044998664,1320.9548044998664,1320.9548044998664,1320.9548044998664,1320.9548044998664,1320.9548044998664,1320.9548044998664,1320.9548044998664,1323.4637297000736,1323.4637297000736,1323.4637297000736,1323.4637297000736,1323.4637297000736,25,48,59,45,48,40,2.0,0.8966566999442875,1324.377882000059,1326.0572484000586,,,,,,,,,110,f,24,2022-11-25_17h05.18.125,RL,2022.2.4,60.16058069614163,
1,29,0,29,0,,,,,,,,,,None,1326.0572484000586,1326.0572484000586,1326.0572484000586,1326.0572484000586,1326.0572484000586,1326.0572484000586,f,0.7727912999689579,1326.8556275998708,1326.8556275998708,1326.8556275998708,1326.8556275998708,1326.8556275998708,1326.8556275998708,1327.1547962999903,1327.1547962999903,1328.1847540999297,1328.1847540999297,1328.1847540999297,1328.1847540999297,1328.1847540999297,1328.1847540999297,1328.1847540999297,1328.1847540999297,1328.1847540999297,1328.1847540999297,1328.1847540999297,1328.1847540999297,1328.1847540999297,1328.1847540999297,1328.1847540999297,1328.1847540999297,1328.1847540999297,1330.6939745000564,1330.6939745000564,1330.6939745000564,1330.6939745000564,1330.6939745000564,23,46,52,44,46,45,3.0,2.2112956000491977,1332.921372300014,1334.4841233000625,,,,,,,,,110,f,24,2022-11-25_17h05.18.125,RL,2022.2.4,60.16058069614163,
1,30,0,30,0,,,,,,,,,,None,1334.4841233000625,1334.4841233000625,1334.4841233000625,1334.4841233000625,1334.4841233000625,1334.4841233000625,f,0.32065310003235936,1334.8365583999548,1334.8365583999548,1334.8365583999548,1334.8365583999548,1334.8365583999548,1334.8365583999548,1335.1326752998866,1335.1326752998866,1336.5123016999569,1336.5123016999569,1336.5123016999569,1336.5123016999569,1336.5123016999569,1336.5123016999569,1336.5123016999569,1336.5123016999569,1336.5123016999569,1336.5123016999569,1336.5123016999569,1336.5123016999569,1336.5123016999569,1336.5123016999569,1336.5123016999569,1336.5123016999569,1336.5123016999569,1339.0210239998996,1339.0210239998996,1339.0210239998996,1339.0210239998996,1339.0210239998996,31,43,55,48,43,53,3.0,0.5296994999516755,1339.5697540000547,1341.3488211999647,,,,,,,,,110,f,24,2022-11-25_17h05.18.125,RL,2022.2.4,60.16058069614163,
1,31,0,31,0,,,,,,,,,,None,1341.3488211999647,1341.3488211999647,1341.3488211999647,1341.3488211999647,1341.3488211999647,1341.3488211999647,f,0.6228332000318915,1341.9992903000675,1341.9992903000675,1341.9992903000675,1341.9992903000675,1341.9992903000675,1341.9992903000675,1342.2965732999146,1342.2965732999146,1344.224942700006,1344.224942700006,1344.224942700006,1344.224942700006,1344.224942700006,1344.224942700006,1344.224942700006,1344.224942700006,1344.224942700006,1344.224942700006,1344.224942700006,1344.224942700006,1344.224942700006,1344.224942700006,1344.224942700006,1344.224942700006,1344.224942700006,1346.7339031000156,1346.7339031000156,1346.7339031000156,1346.7339031000156,1346.7339031000156,29,55,55,40,55,40,3.0,0.6973433000966907,1347.44870180008,1349.3606801000424,,,,,,,,,110,f,24,2022-11-25_17h05.18.125,RL,2022.2.4,60.16058069614163,
1,32,0,32,0,,,,,,,,,,None,1349.3606801000424,1349.3606801000424,1349.3606801000424,1349.3606801000424,1349.3606801000424,1349.3606801000424,f,0.4499645000323653,1349.842911100015,1349.842911100015,1349.842911100015,1349.842911100015,1349.842911100015,1349.842911100015,1350.1415907999035,1350.1415907999035,1351.6543393998872,1351.6543393998872,1351.6543393998872,1351.6543393998872,1351.6543393998872,1351.6543393998872,1351.6543393998872,1351.6543393998872,1351.6543393998872,1351.6543393998872,1351.6543393998872,1351.6543393998872,1351.6543393998872,1351.6543393998872,1351.6543393998872,1351.6543393998872,1351.6543393998872,1354.1631777998991,1354.1631777998991,1354.1631777998991,1354.1631777998991,1354.1631777998991,22,51,52,27,51,46,4.0,0.9965649999212474,1355.1788673999254,1356.9231018999126,,,,,,,,,110,f,24,2022-11-25_17h05.18.125,RL,2022.2.4,60.16058069614163,
1,33,0,33,0,,,,,,,,,,None,1356.9231018999126,1356.9231018999126,1356.9231018999126,1356.9231018999126,1356.9231018999126,1356.9231018999126,f,0.6530745001509786,1357.6065167000052,1357.6065167000052,1357.6065167000052,1357.6065167000052,1357.6065167000052,1357.6065167000052,1357.9039660999551,1357.9039660999551,1358.7348273999523,1358.7348273999523,1358.7348273999523,1358.7348273999523,1358.7348273999523,1358.7348273999523,1358.7348273999523,1358.7348273999523,1358.7348273999523,1358.7348273999523,1358.7348273999523,1358.7348273999523,1358.7348273999523,1358.7348273999523,1358.7348273999523,1358.7348273999523,1358.7348273999523,1361.24391989992,1361.24391989992,1361.24391989992,1361.24391989992,1361.24391989992,18,53,55,26,53,68,3.0,3.472533999942243,1364.7342129999306,1366.6465253999922,,,,,,,,,110,f,24,2022-11-25_17h05.18.125,RL,2022.2.4,60.16058069614163,
1,34,0,34,0,,,,,,,,,,None,1366.6465253999922,1366.6465253999922,1366.6465253999922,1366.6465253999922,1366.6465253999922,1366.6465253999922,f,0.6530522999819368,1367.3375708998647,1367.3375708998647,1367.3375708998647,1367.3375708998647,1367.3375708998647,1367.3375708998647,1367.6274589998648,1367.6274589998648,1369.4558311998844,1369.4558311998844,1369.472255300032,1369.472255300032,1369.472255300032,1369.472255300032,1369.472255300032,1369.472255300032,1369.472255300032,1369.472255300032,1369.472255300032,1369.472255300032,1369.472255300032,1369.472255300032,1369.472255300032,1369.472255300032,1369.472255300032,1371.9815118999686,1371.9815118999686,1371.9815118999686,1371.9815118999686,1371.9815118999686,31,50,47,26,50,54,3.0,0.731057200115174,1372.7295095999725,1374.641132599907,,,,,,,,,110,f,24,2022-11-25_17h05.18.125,RL,2022.2.4,60.16058069614163,
1,35,0,35,0,,,,,,,,,,None,1374.641132599907,1374.641132599907,1374.641132599907,1374.641132599907,1374.641132599907,1374.641132599907,f,0.6480715000070632,1375.3239521000069,1375.3239521000069,1375.3239521000069,1375.3239521000069,1375.3239521000069,1375.3239521000069,1375.6226582000963,1375.6226582000963,1376.6526224999689,1376.6526224999689,1376.6526224999689,1376.6526224999689,1376.6526224999689,1376.6526224999689,1376.6526224999689,1376.6526224999689,1376.6526224999689,1376.6526224999689,1376.6526224999689,1376.6526224999689,1376.6526224999689,1376.6526224999689,1376.6526224999689,1376.6526224999689,1376.6526224999689,1379.161540800007,1379.161540800007,1379.161540800007,1379.161540800007,1379.161540800007,17,51,38,34,51,65,3.0,1.0483752998989075,1380.2253737000283,1381.7384913000278,,,,,,,,,110,f,24,2022-11-25_17h05.18.125,RL,2022.2.4,60.16058069614163,
1,36,0,36,0,,,,,,,,,,None,1381.7384913000278,1381.7384913000278,1381.7384913000278,1381.7384913000278,1381.7384913000278,1381.7384913000278,f,0.6710346001200378,1382.4371656000149,1382.4371656000149,1382.4371656000149,1382.4371656000149,1382.4371656000149,1382.4371656000149,1382.736120000016,1382.736120000016,1384.36507719988,1384.36507719988,1384.36507719988,1384.36507719988,1384.36507719988,1384.36507719988,1384.36507719988,1384.36507719988,1384.36507719988,1384.36507719988,1384.36507719988,1384.36507719988,1384.36507719988,1384.36507719988,1384.36507719988,1384.36507719988,1384.36507719988,1386.8740739000496,1386.8740739000496,1386.8740739000496,1386.8740739000496,1386.8740739000496,31,56,48,28,56,46,4.0,1.0784307001158595,1387.971140400041,1389.7167273000814,,,,,,,,,110,f,24,2022-11-25_17h05.18.125,RL,2022.2.4,60.16058069614163,
1,37,0,37,0,,,,,,,,,,None,1389.7167273000814,1389.7167273000814,1389.7167273000814,1389.7167273000814,1389.7167273000814,1389.7167273000814,f,0.35804690001532435,1390.0994970998727,1390.0994970998727,1390.0994970998727,1390.0994970998727,1390.0994970998727,1390.0994970998727,1390.3985518999398,1390.3985518999398,1391.4288876000792,1391.4288876000792,1391.4288876000792,1391.4288876000792,1391.4288876000792,1391.4288876000792,1391.4288876000792,1391.4288876000792,1391.4288876000792,1391.4288876000792,1391.4288876000792,1391.4288876000792,1391.4288876000792,1391.4288876000792,1391.4288876000792,1391.4288876000792,1391.4288876000792,1393.9380047000013,1393.9380047000013,1393.9380047000013,1393.9380047000013,1393.9380047000013,30,61,38,31,61,71,3.0,1.2291623998899013,1395.1849032999016,1396.9638868998736,,,,,,,,,110,f,24,2022-11-25_17h05.18.125,RL,2022.2.4,60.16058069614163,
1,38,0,38,0,,,,,,,,,,None,1396.9638868998736,1396.9638868998736,1396.9638868998736,1396.9638868998736,1396.9638868998736,1396.9638868998736,j,0.8151271000970155,1397.8134584999643,1397.8134584999643,1397.8134584999643,1397.8134584999643,1397.8134584999643,1397.8134584999643,1398.112002799986,1398.112002799986,1399.5901202000678,1399.5901202000678,1399.5901202000678,1399.5901202000678,1399.5901202000678,1399.5901202000678,1399.5901202000678,1399.5901202000678,1399.5901202000678,1399.5901202000678,1399.5901202000678,1399.5901202000678,1399.5901202000678,1399.5901202000678,1399.5901202000678,1399.5901202000678,1399.5901202000678,1402.0993508000392,1402.0993508000392,1402.0993508000392,1402.0993508000392,1402.0993508000392,25,63,48,36,36,75,2.0,0.697974800132215,1402.8137465000618,1404.3768026998732,,,,,,,,,110,f,24,2022-11-25_17h05.18.125,RL,2022.2.4,60.16058069614163,
1,39,0,39,0,,,,,,,,,,None,1404.3768026998732,1404.3768026998732,1404.3768026998732,1404.3768026998732,1404.3768026998732,1404.3768026998732,f,0.3481821999885142,1404.7538089998998,1404.7538089998998,1404.7538089998998,1404.7538089998998,1404.7538089998998,1404.7538089998998,1405.0420037999284,1405.0420037999284,1406.1056882999837,1406.1056882999837,1406.1226798999123,1406.1226798999123,1406.1226798999123,1406.1226798999123,1406.1226798999123,1406.1226798999123,1406.1226798999123,1406.1226798999123,1406.1226798999123,1406.1226798999123,1406.1226798999123,1406.1226798999123,1406.1226798999123,1406.1226798999123,1406.1226798999123,1408.6312136000488,1408.6312136000488,1408.6312136000488,1408.6312136000488,1408.6312136000488,35,54,40,32,54,56,2.0,0.7301876998972148,1409.3795171999373,1411.0085024000145,,,,,,,,,110,f,24,2022-11-25_17h05.18.125,RL,2022.2.4,60.16058069614163,
1,40,0,40,0,,,,,,,,,,None,1411.0085024000145,1411.0085024000145,1411.0085024000145,1411.0085024000145,1411.0085024000145,1411.0085024000145,f,0.8371397000737488,1411.8745375000872,1411.8745375000872,1411.8745375000872,1411.8745375000872,1411.8745375000872,1411.8745375000872,1412.172522699926,1412.172522699926,1413.967515300028,1413.967515300028,1413.967515300028,1413.967515300028,1413.967515300028,1413.967515300028,1413.967515300028,1413.967515300028,1413.967515300028,1413.967515300028,1413.967515300028,1413.967515300028,1413.967515300028,1413.967515300028,1413.967515300028,1413.967515300028,1413.967515300028,1416.4761580000632,1416.4761580000632,1416.4761580000632,1416.4761580000632,1416.4761580000632,31,62,34,40,62,55,3.0,0.879192000022158,1417.374093099963,1419.1199024999514,,,,,,,,,110,f,24,2022-11-25_17h05.18.125,RL,2022.2.4,60.16058069614163,
1,41,0,41,0,,,,,,,,,,None,1419.1199024999514,1419.1199024999514,1419.1199024999514,1419.1199024999514,1419.1199024999514,1419.1199024999514,f,0.4715372999198735,1419.6217028000392,1419.6217028000392,1419.6217028000392,1419.6217028000392,1419.6217028000392,1419.6217028000392,1419.9183539000805,1419.9183539000805,1420.7327515000943,1420.7327515000943,1420.7327515000943,1420.7327515000943,1420.7327515000943,1420.7327515000943,1420.7327515000943,1420.7327515000943,1420.7327515000943,1420.7327515000943,1420.7327515000943,1420.7327515000943,1420.7327515000943,1420.7327515000943,1420.7327515000943,1420.7327515000943,1420.7327515000943,1423.2415362000465,1423.2415362000465,1423.2415362000465,1423.2415362000465,1423.2415362000465,29,60,29,38,60,69,3.0,0.7477307000663131,1424.0059897999745,1425.5858984000515,,,,,,,,,110,f,24,2022-11-25_17h05.18.125,RL,2022.2.4,60.16058069614163,
1,42,0,42,0,,,,,,,,,,None,1425.5858984000515,1425.5858984000515,1425.5858984000515,1425.5858984000515,1425.5858984000515,1425.5858984000515,f,0.3562921001575887,1425.975728899939,1425.975728899939,1425.975728899939,1425.975728899939,1425.975728899939,1425.975728899939,1426.2673943000846,1426.2673943000846,1428.2119499999098,1428.2119499999098,1428.2119499999098,1428.2119499999098,1428.2119499999098,1428.2119499999098,1428.2119499999098,1428.2119499999098,1428.2119499999098,1428.2119499999098,1428.2119499999098,1428.2119499999098,1428.2119499999098,1428.2119499999098,1428.2119499999098,1428.2119499999098,1428.2119499999098,1430.7210434998851,1430.7210434998851,1430.7210434998851,1430.7210434998851,1430.7210434998851,27,60,46,36,60,42,4.0,0.9139473999384791,1431.6518043999095,1433.5969714999665,,,,,,,,,110,f,24,2022-11-25_17h05.18.125,RL,2022.2.4,60.16058069614163,
1,43,0,43,0,,,,,,,,,,None,1433.5969714999665,1433.5969714999665,1433.5969714999665,1433.5969714999665,1433.5969714999665,1433.5969714999665,f,0.385273199994117,1434.0152233000845,1434.0152233000845,1434.0152233000845,1434.0152233000845,1434.0152233000845,1434.0152233000845,1434.3123588999733,1434.3123588999733,1435.7912804998923,1435.7912804998923,1435.7912804998923,1435.7912804998923,1435.7912804998923,1435.7912804998923,1435.7912804998923,1435.7912804998923,1435.7912804998923,1435.7912804998923,1435.7912804998923,1435.7912804998923,1435.7912804998923,1435.7912804998923,1435.7912804998923,1435.7912804998923,1435.7912804998923,1438.300448300084,1438.300448300084,1438.300448300084,1438.300448300084,1438.300448300084,28,50,43,44,50,46,4.0,0.9992118999361992,1439.3141473999713,1441.0100282998756,,,,,,,,,110,f,24,2022-11-25_17h05.18.125,RL,2022.2.4,60.16058069614163,
1,44,0,44,0,,,,,,,,,,None,1441.0100282998756,1441.0100282998756,1441.0100282998756,1441.0100282998756,1441.0100282998756,1441.0100282998756,f,0.5212477000895888,1441.5592986999545,1441.5592986999545,1441.5592986999545,1441.5592986999545,1441.5592986999545,1441.5592986999545,1441.8581717999186,1441.8581717999186,1443.6202024999075,1443.6202024999075,1443.6202024999075,1443.6202024999075,1443.6202024999075,1443.6202024999075,1443.6202024999075,1443.6202024999075,1443.6202024999075,1443.6202024999075,1443.6202024999075,1443.6202024999075,1443.6202024999075,1443.6202024999075,1443.6202024999075,1443.6202024999075,1443.6202024999075,1446.129316000035,1446.129316000035,1446.129316000035,1446.129316000035,1446.129316000035,30,52,51,41,52,44,4.0,0.597938499879092,1446.743920299923,1448.2572691000532,,,,,,,,,110,f,24,2022-11-25_17h05.18.125,RL,2022.2.4,60.16058069614163,
1,45,0,45,0,,,,,,,,,,None,1448.2572691000532,1448.2572691000532,1448.2572691000532,1448.2572691000532,1448.2572691000532,1448.2572691000532,f,0.32490660017356277,1448.6137107000686,1448.6137107000686,1448.6137107000686,1448.6137107000686,1448.6137107000686,1448.6137107000686,1448.9057213000488,1448.9057213000488,1450.4513357998803,1450.4513357998803,1450.4513357998803,1450.4513357998803,1450.4513357998803,1450.4513357998803,1450.4513357998803,1450.4513357998803,1450.4513357998803,1450.4513357998803,1450.4513357998803,1450.4513357998803,1450.4513357998803,1450.4513357998803,1450.4513357998803,1450.4513357998803,1450.4513357998803,1452.9602884000633,1452.9602884000633,1452.9602884000633,1452.9602884000633,1452.9602884000633,22,50,54,48,50,45,4.0,0.5148869000840932,1453.4922746999655,1455.321124699898,,,,,,,,,110,f,24,2022-11-25_17h05.18.125,RL,2022.2.4,60.16058069614163,
1,46,0,46,0,,,,,,,,,,None,1455.321124699898,1455.321124699898,1455.321124699898,1455.321124699898,1455.321124699898,1455.321124699898,f,0.31584050017409027,1455.6738094000611,1455.6738094000611,1455.6738094000611,1455.6738094000611,1455.6738094000611,1455.6738094000611,1455.9700925000943,1455.9700925000943,1457.2327063998673,1457.2327063998673,1457.2327063998673,1457.2327063998673,1457.2327063998673,1457.2327063998673,1457.2327063998673,1457.2327063998673,1457.2327063998673,1457.2327063998673,1457.2327063998673,1457.2327063998673,1457.2327063998673,1457.2327063998673,1457.2327063998673,1457.2327063998673,1457.2327063998673,1459.7418543999083,1459.7418543999083,1459.7418543999083,1459.7418543999083,1459.7418543999083,19,51,48,46,51,58,4.0,0.7969420000445098,1460.5561420000158,1462.185935500078,,,,,,,,,110,f,24,2022-11-25_17h05.18.125,RL,2022.2.4,60.16058069614163,
1,47,0,47,0,,,,,,,,,,None,1462.185935500078,1462.185935500078,1462.185935500078,1462.185935500078,1462.185935500078,1462.185935500078,f,0.396807299926877,1462.603297200054,1462.603297200054,1462.603297200054,1462.603297200054,1462.603297200054,1462.603297200054,1462.9011005999055,1462.9011005999055,1464.0642546999734,1464.0642546999734,1464.0642546999734,1464.0642546999734,1464.0642546999734,1464.0642546999734,1464.0642546999734,1464.0642546999734,1464.0642546999734,1464.0642546999734,1464.0642546999734,1464.0642546999734,1464.0642546999734,1464.0642546999734,1464.0642546999734,1464.0642546999734,1464.0642546999734,1466.573259799974,1466.573259799974,1466.573259799974,1466.573259799974,1466.573259799974,19,48,54,39,48,72,3.0,1.2612226998899132,1467.8538130999077,1469.6988305998966,,,,,,,,,110,f,24,2022-11-25_17h05.18.125,RL,2022.2.4,60.16058069614163,
1,48,0,48,0,,,,,,,,,,None,1469.6988305998966,1469.6988305998966,1469.6988305998966,1469.6988305998966,1469.6988305998966,1469.6988305998966,i,0.8240187999326736,1470.5472699000966,1470.5472699000966,1470.5472699000966,1470.5472699000966,1470.5472699000966,1470.5472699000966,1470.8457635000814,1470.8457635000814,1471.8098049000837,1471.8098049000837,1471.8098049000837,1471.8098049000837,1471.8098049000837,1471.8098049000837,1471.8098049000837,1471.8098049000837,1471.8098049000837,1471.8098049000837,1471.8098049000837,1471.8098049000837,1471.8098049000837,1471.8098049000837,1471.8098049000837,1471.8098049000837,1471.8098049000837,1474.3191748000681,1474.3191748000681,1474.3191748000681,1474.3191748000681,1474.3191748000681,25,45,54,44,54,82,2.0,0.697619799990207,1475.0334989998955,1476.8790909999516,,,,,,,,,110,f,24,2022-11-25_17h05.18.125,RL,2022.2.4,60.16058069614163,
1,49,0,49,0,,,,,,,,,,None,1476.8790909999516,1476.8790909999516,1476.8790909999516,1476.8790909999516,1476.8790909999516,1476.8790909999516,None,,,,,,,,,,,,,,,,,,,,,,,,,,,,,,,,27,42,50,53,0,**,None,None,1482.912625500001,1484.5081750000827,1478.4025304000825,1482.912625500001,,,,,,,110,f,24,2022-11-25_17h05.18.125,RL,2022.2.4,60.16058069614163,
1,50,0,50,0,,,,,,,,,,None,1484.5081750000827,1484.5081750000827,1484.5081750000827,1484.5081750000827,1484.5081750000827,1484.5081750000827,f,0.43936250009573996,1484.9746741999406,1484.9746741999406,1484.9746741999406,1484.9746741999406,1484.9746741999406,1484.9746741999406,1485.2733857000712,1485.2733857000712,1486.6361281999853,1486.6361281999853,1486.6361281999853,1486.6361281999853,1486.6361281999853,1486.6361281999853,1486.6361281999853,1486.6361281999853,1486.6361281999853,1486.6361281999853,1486.6361281999853,1486.6361281999853,1486.6361281999853,1486.6361281999853,1486.6361281999853,1486.6361281999853,1486.6361281999853,1489.1459836000577,1489.1459836000577,1489.1459836000577,1489.1459836000577,1489.1459836000577,27,37,59,31,37,73,1.0,0.8302309999708086,1489.9926414000802,1491.6718711000867,,,,,,,,,110,f,24,2022-11-25_17h05.18.125,RL,2022.2.4,60.16058069614163,
1,51,0,51,0,,,,,,,,,,None,1491.6718711000867,1491.6718711000867,1491.6718711000867,1491.6718711000867,1491.6718711000867,1491.6718711000867,f,0.5346395000815392,1492.2382207999472,1492.2382207999472,1492.2382207999472,1492.2382207999472,1492.2382207999472,1492.2382207999472,1492.5368125000969,1492.5368125000969,1494.4479515000712,1494.4479515000712,1494.4479515000712,1494.4479515000712,1494.4479515000712,1494.4479515000712,1494.4479515000712,1494.4479515000712,1494.4479515000712,1494.4479515000712,1494.4479515000712,1494.4479515000712,1494.4479515000712,1494.4479515000712,1494.4479515000712,1494.4479515000712,1494.4479515000712,1496.9570832999889,1496.9570832999889,1496.9570832999889,1496.9570832999889,1496.9570832999889,29,46,61,40,46,48,3.0,1.2628952998202294,1498.2367807999253,1500.08217040007,,,,,,,,,110,f,24,2022-11-25_17h05.18.125,RL,2022.2.4,60.16058069614163,
1,52,0,52,0,,,,,,,,,,None,1500.08217040007,1500.08217040007,1500.08217040007,1500.08217040007,1500.08217040007,1500.08217040007,f,0.3287757998332381,1500.4322009000462,1500.4322009000462,1500.4322009000462,1500.4322009000462,1500.4322009000462,1500.4322009000462,1500.7315344999079,1500.7315344999079,1502.4095111999195,1502.4095111999195,1502.4095111999195,1502.4095111999195,1502.4095111999195,1502.4095111999195,1502.4095111999195,1502.4095111999195,1502.4095111999195,1502.4095111999195,1502.4095111999195,1502.4095111999195,1502.4095111999195,1502.4095111999195,1502.4095111999195,1502.4095111999195,1502.4095111999195,1504.9186007999815,1504.9186007999815,1504.9186007999815,1504.9186007999815,1504.9186007999815,31,51,59,42,51,79,2.0,0.7307074998971075,1505.6664938998874,1507.313241600059,,,,,,,,,110,f,24,2022-11-25_17h05.18.125,RL,2022.2.4,60.16058069614163,
1,53,0,53,0,,,,,,,,,,None,1507.313241600059,1507.313241600059,1507.313241600059,1507.313241600059,1507.313241600059,1507.313241600059,f,0.47231149999424815,1507.8132199998945,1507.8132199998945,1507.8132199998945,1507.8132199998945,1507.8132199998945,1507.8132199998945,1508.1110868998803,1508.1110868998803,1509.7727025998756,1509.7727025998756,1509.7727025998756,1509.7727025998756,1509.7727025998756,1509.7727025998756,1509.7727025998756,1509.7727025998756,1509.7727025998756,1509.7727025998756,1509.7727025998756,1509.7727025998756,1509.7727025998756,1509.7727025998756,1509.7727025998756,1509.7727025998756,1509.7727025998756,1512.2864349999,1512.2864349999,1512.2864349999,1512.2864349999,1512.2864349999,23,53,55,43,53,85,1.0,1.3147187000140548,1513.6289369000588,1515.274564200081,,,,,,,,,110,f,24,2022-11-25_17h05.18.125,RL,2022.2.4,60.16058069614163,
1,54,0,54,0,,,,,,,,,,None,1515.274564200081,1515.274564200081,1515.274564200081,1515.274564200081,1515.274564200081,1515.274564200081,r,0.6514808998908848,1515.9560803999193,1515.9560803999193,1515.9560803999193,1515.9560803999193,1515.9560803999193,1515.9560803999193,1516.2552718000952,1516.2552718000952,1517.4030285000335,1517.4030285000335,1517.4030285000335,1517.4030285000335,1517.4030285000335,1517.4030285000335,1517.4030285000335,1517.4030285000335,1517.4030285000335,1517.4030285000335,1517.4030285000335,1517.4030285000335,1517.4030285000335,1517.4030285000335,1517.4030285000335,1517.4030285000335,1517.4030285000335,1519.9109292000066,1519.9109292000066,1519.9109292000066,1519.9109292000066,1519.9109292000066,25,52,59,51,25,78,1.0,0.5481603001244366,1520.4762351999525,1522.0225434000604,,,,,,,,,110,f,24,2022-11-25_17h05.18.125,RL,2022.2.4,60.16058069614163,
1,55,0,55,0,,,,,,,,,,None,1522.0225434000604,1522.0225434000604,1522.0225434000604,1522.0225434000604,1522.0225434000604,1522.0225434000604,f,0.37291290005669,1522.422162800096,1522.422162800096,1522.422162800096,1522.422162800096,1522.422162800096,1522.422162800096,1522.720963000087,1522.720963000087,1523.6682803998701,1523.6682803998701,1523.6682803998701,1523.6682803998701,1523.6682803998701,1523.6682803998701,1523.6682803998701,1523.6682803998701,1523.6682803998701,1523.6682803998701,1523.6682803998701,1523.6682803998701,1523.6682803998701,1523.6682803998701,1523.6682803998701,1523.6682803998701,1523.6682803998701,1526.1771758000832,1526.1771758000832,1526.1771758000832,1526.1771758000832,1526.1771758000832,29,50,51,41,50,86,2.0,0.647926100064069,1526.842124500079,1528.7213324999902,,,,,,,,,110,f,24,2022-11-25_17h05.18.125,RL,2022.2.4,60.16058069614163,
1,56,0,56,0,,,,,,,,,,None,1528.7213324999902,1528.7213324999902,1528.7213324999902,1528.7213324999902,1528.7213324999902,1528.7213324999902,f,0.8489101999439299,1529.6050934998784,1529.6050934998784,1529.6050934998784,1529.6050934998784,1529.6050934998784,1529.6050934998784,1529.9013888998888,1529.9013888998888,1531.8959518999327,1531.8959518999327,1531.8959518999327,1531.8959518999327,1531.8959518999327,1531.8959518999327,1531.8959518999327,1531.8959518999327,1531.8959518999327,1531.8959518999327,1531.8959518999327,1531.8959518999327,1531.8959518999327,1531.8959518999327,1531.8959518999327,1531.8959518999327,1531.8959518999327,1534.4049891000614,1534.4049891000614,1534.4049891000614,1534.4049891000614,1534.4049891000614,29,47,58,35,47,80,1.0,0.8139736000448465,1535.235811199993,1537.0316067999229,,,,,,,,,110,f,24,2022-11-25_17h05.18.125,RL,2022.2.4,60.16058069614163,
1,57,0,57,0,,,,,,,,,,None,1537.0316067999229,1537.0316067999229,1537.0316067999229,1537.0316067999229,1537.0316067999229,1537.0316067999229,f,0.46837019990198314,1537.5320941000246,1537.5320941000246,1537.5320941000246,1537.5320941000246,1537.5320941000246,1537.5320941000246,1537.829713099869,1537.829713099869,1538.7104487998877,1538.7104487998877,1538.7273198999465,1538.7273198999465,1538.7273198999465,1538.7273198999465,1538.7273198999465,1538.7273198999465,1538.7273198999465,1538.7273198999465,1538.7273198999465,1538.7273198999465,1538.7273198999465,1538.7273198999465,1538.7273198999465,1538.7273198999465,1538.7273198999465,1541.2365490999073,1541.2365490999073,1541.2365490999073,1541.2365490999073,1541.2365490999073,31,54,59,45,54,69,1.0,1.2480966998264194,1542.4994614999741,1544.345052599907,,,,,,,,,110,f,24,2022-11-25_17h05.18.125,RL,2022.2.4,60.16058069614163,
1,58,0,58,0,,,,,,,,,,None,1544.345052599907,1544.345052599907,1544.345052599907,1544.345052599907,1544.345052599907,1544.345052599907,i,0.4712692000903189,1544.8442617000546,1544.8442617000546,1544.8442617000546,1544.8442617000546,1544.8442617000546,1544.8442617000546,1545.1431078999303,1545.1431078999303,1546.1900438999292,1546.1900438999292,1546.1900438999292,1546.1900438999292,1546.1900438999292,1546.1900438999292,1546.1900438999292,1546.1900438999292,1546.1900438999292,1546.1900438999292,1546.1900438999292,1546.1900438999292,1546.1900438999292,1546.1900438999292,1546.1900438999292,1546.1900438999292,1546.1900438999292,1548.699542999966,1548.699542999966,1548.699542999966,1548.699542999966,1548.699542999966,47,54,75,42,75,88,2.0,0.5814394999761134,1549.2975806000177,1551.060310299974,,,,,,,,,110,f,24,2022-11-25_17h05.18.125,RL,2022.2.4,60.16058069614163,
1,59,0,59,0,,,,,,,,,,None,1551.060310299974,1551.060310299974,1551.060310299974,1551.060310299974,1551.060310299974,1551.060310299974,i,0.5412304999772459,1551.6307500000112,1551.6307500000112,1551.6307500000112,1551.6307500000112,1551.6307500000112,1551.6307500000112,1551.924643999897,1551.924643999897,1553.785927799996,1553.785927799996,1553.785927799996,1553.785927799996,1553.785927799996,1553.785927799996,1553.785927799996,1553.785927799996,1553.785927799996,1553.785927799996,1553.785927799996,1553.785927799996,1553.785927799996,1553.785927799996,1553.785927799996,1553.785927799996,1553.785927799996,1556.295157799963,1556.295157799963,1556.295157799963,1556.295157799963,1556.295157799963,43,50,65,38,65,91,2.0,0.614734899951145,1556.9266842000652,1558.7390479999594,,,,,,,,,110,f,24,2022-11-25_17h05.18.125,RL,2022.2.4,60.16058069614163,
1,60,0,60,0,,,,,,,,,,None,1558.7390479999594,1558.7390479999594,1558.7390479999594,1558.7390479999594,1558.7390479999594,1558.7390479999594,f,0.5169313000515103,1559.2882773000747,1559.2882773000747,1559.2882773000747,1559.2882773000747,1559.2882773000747,1559.2882773000747,1559.5870121999178,1559.5870121999178,1560.7834904999472,1560.7834904999472,1560.7834904999472,1560.7834904999472,1560.7834904999472,1560.7834904999472,1560.7834904999472,1560.7834904999472,1560.7834904999472,1560.7834904999472,1560.7834904999472,1560.7834904999472,1560.7834904999472,1560.7834904999472,1560.7834904999472,1560.7834904999472,1560.7834904999472,1563.2929988999385,1563.2929988999385,1563.2929988999385,1563.2929988999385,1563.2929988999385,35,57,66,51,57,41,3.0,0.6767080998979509,1563.9742411000188,1565.7531707000453,,,,,,,,,110,f,24,2022-11-25_17h05.18.125,RL,2022.2.4,60.16058069614163,
1,61,0,61,0,,,,,,,,,,None,1565.7531707000453,1565.7531707000453,1565.7531707000453,1565.7531707000453,1565.7531707000453,1565.7531707000453,f,0.4683129999320954,1566.2544791998807,1566.2544791998807,1566.2544791998807,1566.2544791998807,1566.2544791998807,1566.2544791998807,1566.5515425999183,1566.5515425999183,1568.3961795999203,1568.3961795999203,1568.4132834000047,1568.4132834000047,1568.4132834000047,1568.4132834000047,1568.4132834000047,1568.4132834000047,1568.4132834000047,1568.4132834000047,1568.4132834000047,1568.4132834000047,1568.4132834000047,1568.4132834000047,1568.4132834000047,1568.4132834000047,1568.4132834000047,1570.9220324000344,1570.9220324000344,1570.9220324000344,1570.9220324000344,1570.9220324000344,42,51,53,47,51,84,1.0,1.080541200004518,1572.0190453999676,1573.7811076999642,,,,,,,,,110,f,24,2022-11-25_17h05.18.125,RL,2022.2.4,60.16058069614163,
1,62,0,62,0,,,,,,,,,,None,1573.7811076999642,1573.7811076999642,1573.7811076999642,1573.7811076999642,1573.7811076999642,1573.7811076999642,i,0.43475180002860725,1574.2473076998722,1574.2473076998722,1574.2473076998722,1574.2473076998722,1574.2473076998722,1574.2473076998722,1574.5295672998764,1574.5295672998764,1575.7595931000542,1575.7595931000542,1575.7764478998724,1575.7764478998724,1575.7764478998724,1575.7764478998724,1575.7764478998724,1575.7764478998724,1575.7764478998724,1575.7764478998724,1575.7764478998724,1575.7764478998724,1575.7764478998724,1575.7764478998724,1575.7764478998724,1575.7764478998724,1575.7764478998724,1578.285405700095,1578.285405700095,1578.285405700095,1578.285405700095,1578.285405700095,38,54,68,49,68,48,3.0,0.730580999981612,1579.033049199963,1580.845485100057,,,,,,,,,110,f,24,2022-11-25_17h05.18.125,RL,2022.2.4,60.16058069614163,
1,63,0,63,0,,,,,,,,,,None,1580.845485100057,1580.845485100057,1580.845485100057,1580.845485100057,1580.845485100057,1580.845485100057,i,0.43132500001229346,1581.294855899876,1581.294855899876,1581.294855899876,1581.294855899876,1581.294855899876,1581.294855899876,1581.5937576999422,1581.5937576999422,1583.5879502999596,1583.5879502999596,1583.6045836999547,1583.6045836999547,1583.6045836999547,1583.6045836999547,1583.6045836999547,1583.6045836999547,1583.6045836999547,1583.6045836999547,1583.6045836999547,1583.6045836999547,1583.6045836999547,1583.6045836999547,1583.6045836999547,1583.6045836999547,1583.6045836999547,1586.1138869998977,1586.1138869998977,1586.1138869998977,1586.1138869998977,1586.1138869998977,41,57,58,38,58,80,2.0,0.8969131000339985,1587.0282433000393,1588.890091399895,,,,,,,,,110,f,24,2022-11-25_17h05.18.125,RL,2022.2.4,60.16058069614163,
1,64,0,64,0,,,,,,,,,,None,1588.890091399895,1588.890091399895,1588.890091399895,1588.890091399895,1588.890091399895,1588.890091399895,f,0.2858928998466581,1589.20665930002,1589.20665930002,1589.20665930002,1589.20665930002,1589.20665930002,1589.20665930002,1589.5053628000896,1589.5053628000896,1591.2505238999147,1591.2505238999147,1591.2505238999147,1591.2505238999147,1591.2505238999147,1591.2505238999147,1591.2505238999147,1591.2505238999147,1591.2505238999147,1591.2505238999147,1591.2505238999147,1591.2505238999147,1591.2505238999147,1591.2505238999147,1591.2505238999147,1591.2505238999147,1591.2505238999147,1593.7596298998687,1593.7596298998687,1593.7596298998687,1593.7596298998687,1593.7596298998687,45,58,63,38,58,76,1.0,0.9624813001137227,1594.740597799886,1596.5194566999562,,,,,,,,,110,f,24,2022-11-25_17h05.18.125,RL,2022.2.4,60.16058069614163,
1,65,0,65,0,,,,,,,,,,None,1596.5194566999562,1596.5194566999562,1596.5194566999562,1596.5194566999562,1596.5194566999562,1596.5194566999562,f,0.9421985999215394,1597.483925800072,1597.483925800072,1597.483925800072,1597.483925800072,1597.483925800072,1597.483925800072,1597.7835093999747,1597.7835093999747,1599.5446391999722,1599.5446391999722,1599.5446391999722,1599.5446391999722,1599.5446391999722,1599.5446391999722,1599.5446391999722,1599.5446391999722,1599.5446391999722,1599.5446391999722,1599.5446391999722,1599.5446391999722,1599.5446391999722,1599.5446391999722,1599.5446391999722,1599.5446391999722,1599.5446391999722,1602.053612299962,1602.053612299962,1602.053612299962,1602.053612299962,1602.053612299962,40,60,53,41,60,75,2.0,0.8286317000165582,1602.9012823998928,1604.4310113999527,,,,,,,,,110,f,24,2022-11-25_17h05.18.125,RL,2022.2.4,60.16058069614163,
1,66,0,66,0,,,,,,,,,,None,1604.4310113999527,1604.4310113999527,1604.4310113999527,1604.4310113999527,1604.4310113999527,1604.4310113999527,j,0.7200267999432981,1605.1794694000855,1605.1794694000855,1605.1794694000855,1605.1794694000855,1605.1794694000855,1605.1794694000855,1605.4788796000648,1605.4788796000648,1607.2906378998887,1607.2906378998887,1607.2906378998887,1607.2906378998887,1607.2906378998887,1607.2906378998887,1607.2906378998887,1607.2906378998887,1607.2906378998887,1607.2906378998887,1607.2906378998887,1607.2906378998887,1607.2906378998887,1607.2906378998887,1607.2906378998887,1607.2906378998887,1607.2906378998887,1609.7992014000192,1609.7992014000192,1609.7992014000192,1609.7992014000192,1609.7992014000192,35,56,58,44,44,75,1.0,1.1461362999398261,1610.9626098999288,1612.7583542000502,,,,,,,,,110,f,24,2022-11-25_17h05.18.125,RL,2022.2.4,60.16058069614163,
1,67,0,67,0,,,,,,,,,,None,1612.7583542000502,1612.7583542000502,1612.7583542000502,1612.7583542000502,1612.7583542000502,1612.7583542000502,f,0.5418835000600666,1613.3239810999949,1613.3239810999949,1613.3239810999949,1613.3239810999949,1613.3239810999949,1613.3239810999949,1613.6229910999537,1613.6229910999537,1614.7862456000876,1614.7862456000876,1614.7862456000876,1614.7862456000876,1614.7862456000876,1614.7862456000876,1614.7862456000876,1614.7862456000876,1614.7862456000876,1614.7862456000876,1614.7862456000876,1614.7862456000876,1614.7862456000876,1614.7862456000876,1614.7862456000876,1614.7862456000876,1614.7862456000876,1617.295273900032,1617.295273900032,1617.295273900032,1617.295273900032,1617.295273900032,48,64,73,40,64,56,2.0,1.0471946001052856,1618.3590518999845,1620.1051185999531,,,,,,,,,110,f,24,2022-11-25_17h05.18.125,RL,2022.2.4,60.16058069614163,
1,68,0,68,0,,,,,,,,,,None,1620.1051185999531,1620.1051185999531,1620.1051185999531,1620.1051185999531,1620.1051185999531,1620.1051185999531,f,0.4251883998513222,1620.559847800061,1620.559847800061,1620.559847800061,1620.559847800061,1620.559847800061,1620.559847800061,1620.8534754998982,1620.8534754998982,1622.232804399915,1622.232804399915,1622.232804399915,1622.232804399915,1622.232804399915,1622.232804399915,1622.232804399915,1622.232804399915,1622.232804399915,1622.232804399915,1622.232804399915,1622.232804399915,1622.232804399915,1622.232804399915,1622.232804399915,1622.232804399915,1622.232804399915,1624.7417838000692,1624.7417838000692,1624.7417838000692,1624.7417838000692,1624.7417838000692,46,61,71,51,61,75,3.0,0.7805168000049889,1625.5394059000537,1627.23557229992,,,,,,,,,110,f,24,2022-11-25_17h05.18.125,RL,2022.2.4,60.16058069614163,
1,69,0,69,0,,,,,,,,,,None,1627.23557229992,1627.23557229992,1627.23557229992,1627.23557229992,1627.23557229992,1627.23557229992,f,0.69025560002774,1627.9536609998904,1627.9536609998904,1627.9536609998904,1627.9536609998904,1627.9536609998904,1627.9536609998904,1628.2499470999464,1628.2499470999464,1629.3465126999654,1629.3465126999654,1629.3465126999654,1629.3465126999654,1629.3465126999654,1629.3465126999654,1629.3465126999654,1629.3465126999654,1629.3465126999654,1629.3465126999654,1629.3465126999654,1629.3465126999654,1629.3465126999654,1629.3465126999654,1629.3465126999654,1629.3465126999654,1629.3465126999654,1631.8556128998753,1631.8556128998753,1631.8556128998753,1631.8556128998753,1631.8556128998753,40,56,78,45,56,49,3.0,0.4966372000053525,1632.3708617999218,1634.266234499868,,,,,,,,,110,f,24,2022-11-25_17h05.18.125,RL,2022.2.4,60.16058069614163,
1,70,0,70,0,,,,,,,,,,None,1634.266234499868,1634.266234499868,1634.266234499868,1634.266234499868,1634.266234499868,1634.266234499868,f,0.40505379997193813,1634.6991713000461,1634.6991713000461,1634.6991713000461,1634.6991713000461,1634.6991713000461,1634.6991713000461,1634.997911500046,1634.997911500046,1636.294439899968,1636.294439899968,1636.294439899968,1636.294439899968,1636.294439899968,1636.294439899968,1636.294439899968,1636.294439899968,1636.294439899968,1636.294439899968,1636.294439899968,1636.294439899968,1636.294439899968,1636.294439899968,1636.294439899968,1636.294439899968,1636.294439899968,1638.8035716998857,1638.8035716998857,1638.8035716998857,1638.8035716998857,1638.8035716998857,47,64,76,46,64,75,2.0,0.8300083000212908,1639.6510059998836,1641.4133182000369,,,,,,,,,110,f,24,2022-11-25_17h05.18.125,RL,2022.2.4,60.16058069614163,
1,71,0,71,0,,,,,,,,,,None,1641.4133182000369,1641.4133182000369,1641.4133182000369,1641.4133182000369,1641.4133182000369,1641.4133182000369,i,0.32736859982833266,1641.7631779999938,1641.7631779999938,1641.7631779999938,1641.7631779999938,1641.7631779999938,1641.7631779999938,1642.0620258999988,1642.0620258999988,1643.9734165000264,1643.9734165000264,1643.9734165000264,1643.9734165000264,1643.9734165000264,1643.9734165000264,1643.9734165000264,1643.9734165000264,1643.9734165000264,1643.9734165000264,1643.9734165000264,1643.9734165000264,1643.9734165000264,1643.9734165000264,1643.9734165000264,1643.9734165000264,1643.9734165000264,1646.4826771998778,1646.4826771998778,1646.4826771998778,1646.4826771998778,1646.4826771998778,39,58,67,51,67,73,2.0,0.5313504999503493,1647.030901900027,1648.7102145000827,,,,,,,,,110,f,24,2022-11-25_17h05.18.125,RL,2022.2.4,60.16058069614163,
1,72,0,72,0,,,,,,,,,,None,1648.7102145000827,1648.7102145000827,1648.7102145000827,1648.7102145000827,1648.7102145000827,1648.7102145000827,f,0.3955570000689477,1649.1284916999284,1649.1284916999284,1649.1284916999284,1649.1284916999284,1649.1284916999284,1649.1284916999284,1649.427013499895,1649.427013499895,1650.4224698999897,1650.4224698999897,1650.4224698999897,1650.4224698999897,1650.4224698999897,1650.4224698999897,1650.4224698999897,1650.4224698999897,1650.4224698999897,1650.4224698999897,1650.4224698999897,1650.4224698999897,1650.4224698999897,1650.4224698999897,1650.4224698999897,1650.4224698999897,1650.4224698999897,1652.9316706000827,1652.9316706000827,1652.9316706000827,1652.9316706000827,1652.9316706000827,57,61,80,48,61,76,2.0,0.39790789992548525,1653.3469785000198,1655.2090865999926,,,,,,,,,110,f,24,2022-11-25_17h05.18.125,RL,2022.2.4,60.16058069614163,
1,73,0,73,0,,,,,,,,,,None,1655.2090865999926,1655.2090865999926,1655.2090865999926,1655.2090865999926,1655.2090865999926,1655.2090865999926,f,0.3869241999927908,1655.6265455000103,1655.6265455000103,1655.6265455000103,1655.6265455000103,1655.6265455000103,1655.6265455000103,1655.924203600036,1655.924203600036,1656.8880155999213,1656.8880155999213,1656.8880155999213,1656.8880155999213,1656.8880155999213,1656.8880155999213,1656.8880155999213,1656.8880155999213,1656.8880155999213,1656.8880155999213,1656.8880155999213,1656.8880155999213,1656.8880155999213,1656.8880155999213,1656.8880155999213,1656.8880155999213,1656.8880155999213,1659.397164999973,1659.397164999973,1659.397164999973,1659.397164999973,1659.397164999973,53,64,75,52,64,62,3.0,0.6639922000467777,1660.0786542999558,1661.9742123999167,,,,,,,,,110,f,24,2022-11-25_17h05.18.125,RL,2022.2.4,60.16058069614163,
1,74,0,74,0,,,,,,,,,,None,1661.9742123999167,1661.9742123999167,1661.9742123999167,1661.9742123999167,1661.9742123999167,1661.9742123999167,f,0.3326522000133991,1662.3404995000456,1662.3404995000456,1662.3404995000456,1662.3404995000456,1662.3404995000456,1662.3404995000456,1662.6391857999843,1662.6391857999843,1663.7697063998785,1663.7697063998785,1663.7697063998785,1663.7697063998785,1663.7697063998785,1663.7697063998785,1663.7697063998785,1663.7697063998785,1663.7697063998785,1663.7697063998785,1663.7697063998785,1663.7697063998785,1663.7697063998785,1663.7697063998785,1663.7697063998785,1663.7697063998785,1663.7697063998785,1666.2788120000623,1666.2788120000623,1666.2788120000623,1666.2788120000623,1666.2788120000623,55,65,65,45,65,54,3.0,1.029837500071153,1667.3255102999974,1669.2871379998978,,,,,,,,,110,f,24,2022-11-25_17h05.18.125,RL,2022.2.4,60.16058069614163,
1,75,0,75,0,,,,,,,,,,q,1789.376504499931,1789.376504499931,1789.376504499931,1789.376504499931,1789.376504499931,1789.376504499931,r,0.9439552000258118,1790.3495890998747,1790.3495890998747,1790.3495890998747,1790.3495890998747,1790.3495890998747,1790.3495890998747,1790.639969700016,1790.639969700016,1791.7039296999574,1791.7039296999574,1791.7039296999574,1791.7039296999574,1791.7039296999574,1791.7039296999574,1791.7039296999574,1791.7039296999574,1791.7039296999574,1791.7039296999574,1791.7039296999574,1791.7039296999574,1791.7039296999574,1791.7039296999574,1791.7039296999574,1791.7039296999574,1791.7039296999574,1794.2130698000547,1794.2130698000547,1794.2130698000547,1794.2130698000547,1794.2130698000547,55,66,83,38,55,57,4.0,0.6980871998239309,1794.9272837999742,1796.6569441999309,,,1669.2871379998978,1669.2871379998978,120.06920320005156,,,,110,f,24,2022-11-25_17h05.18.125,RL,2022.2.4,60.16058069614163,
1,76,0,76,0,,,,,,,,,,None,1796.6569441999309,1796.6569441999309,1796.6569441999309,1796.6569441999309,1796.6569441999309,1796.6569441999309,f,0.3847027001902461,1797.0726187999826,1797.0726187999826,1797.0726187999826,1797.0726187999826,1797.0726187999826,1797.0726187999826,1797.371607299894,1797.371607299894,1799.0005524000153,1799.0005524000153,1799.0005524000153,1799.0005524000153,1799.0005524000153,1799.0005524000153,1799.0005524000153,1799.0005524000153,1799.0005524000153,1799.0005524000153,1799.0005524000153,1799.0005524000153,1799.0005524000153,1799.0005524000153,1799.0005524000153,1799.0005524000153,1799.0005524000153,1801.5095706998836,1801.5095706998836,1801.5095706998836,1801.5095706998836,1801.5095706998836,51,65,78,41,65,49,4.0,0.5649518000427634,1802.0916269998997,1803.8371604999993,,,,,,,,,110,f,24,2022-11-25_17h05.18.125,RL,2022.2.4,60.16058069614163,
1,77,0,77,0,,,,,,,,,,None,1803.8371604999993,1803.8371604999993,1803.8371604999993,1803.8371604999993,1803.8371604999993,1803.8371604999993,i,0.38883890002034605,1804.253954899963,1804.253954899963,1804.253954899963,1804.253954899963,1804.253954899963,1804.253954899963,1804.552312700078,1804.552312700078,1806.396819199901,1806.396819199901,1806.396819199901,1806.396819199901,1806.396819199901,1806.396819199901,1806.396819199901,1806.396819199901,1806.396819199901,1806.396819199901,1806.396819199901,1806.396819199901,1806.396819199901,1806.396819199901,1806.396819199901,1806.396819199901,1806.396819199901,1808.9060039999895,1808.9060039999895,1808.9060039999895,1808.9060039999895,1808.9060039999895,53,66,81,36,81,62,5.0,0.6307731999550015,1809.5541069000028,1811.5493942000903,,,,,,,,,110,f,24,2022-11-25_17h05.18.125,RL,2022.2.4,60.16058069614163,
1,78,0,78,0,,,,,,,,,,None,1811.5493942000903,1811.5493942000903,1811.5493942000903,1811.5493942000903,1811.5493942000903,1811.5493942000903,j,0.6117550998460501,1812.1822180999443,1812.1822180999443,1812.1822180999443,1812.1822180999443,1812.1822180999443,1812.1822180999443,1812.4803559000138,1812.4803559000138,1813.5940330999438,1813.5940330999438,1813.5940330999438,1813.5940330999438,1813.5940330999438,1813.5940330999438,1813.5940330999438,1813.5940330999438,1813.5940330999438,1813.5940330999438,1813.5940330999438,1813.5940330999438,1813.5940330999438,1813.5940330999438,1813.5940330999438,1813.5940330999438,1813.5940330999438,1816.1030226999428,1816.1030226999428,1816.1030226999428,1816.1030226999428,1816.1030226999428,56,63,76,45,45,72,3.0,0.6308736000210047,1816.7513941000216,1818.3974742998835,,,,,,,,,110,f,24,2022-11-25_17h05.18.125,RL,2022.2.4,60.16058069614163,
1,79,0,79,0,,,,,,,,,,None,1818.3974742998835,1818.3974742998835,1818.3974742998835,1818.3974742998835,1818.3974742998835,1818.3974742998835,i,0.3196698999963701,1818.7502534000669,1818.7502534000669,1818.7502534000669,1818.7502534000669,1818.7502534000669,1818.7502534000669,1819.045838699909,1819.045838699909,1820.3589304999914,1820.3589304999914,1820.3589304999914,1820.3589304999914,1820.3589304999914,1820.3589304999914,1820.3589304999914,1820.3589304999914,1820.3589304999914,1820.3589304999914,1820.3589304999914,1820.3589304999914,1820.3589304999914,1820.3589304999914,1820.3589304999914,1820.3589304999914,1820.3589304999914,1822.8683555000462,1822.8683555000462,1822.8683555000462,1822.8683555000462,1822.8683555000462,46,58,72,53,72,52,4.0,0.8480400999542326,1823.732477299869,1825.2951706000604,,,,,,,,,110,f,24,2022-11-25_17h05.18.125,RL,2022.2.4,60.16058069614163,
1,80,0,80,0,,,,,,,,,,None,1825.2951706000604,1825.2951706000604,1825.2951706000604,1825.2951706000604,1825.2951706000604,1825.2951706000604,i,0.3263837001286447,1825.6459880000912,1825.6459880000912,1825.6459880000912,1825.6459880000912,1825.6459880000912,1825.6459880000912,1825.943711000029,1825.943711000029,1827.4892068000045,1827.4892068000045,1827.4892068000045,1827.4892068000045,1827.4892068000045,1827.4892068000045,1827.4892068000045,1827.4892068000045,1827.4892068000045,1827.4892068000045,1827.4892068000045,1827.4892068000045,1827.4892068000045,1827.4892068000045,1827.4892068000045,1827.4892068000045,1827.4892068000045,1829.9987325998954,1829.9987325998954,1829.9987325998954,1829.9987325998954,1829.9987325998954,41,53,77,43,77,71,4.0,0.7470195000059903,1830.7632802000735,1832.4932685999665,,,,,,,,,110,f,24,2022-11-25_17h05.18.125,RL,2022.2.4,60.16058069614163,
1,81,0,81,0,,,,,,,,,,None,1832.4932685999665,1832.4932685999665,1832.4932685999665,1832.4932685999665,1832.4932685999665,1832.4932685999665,i,0.2685956999193877,1832.7920834000688,1832.7920834000688,1832.7920834000688,1832.7920834000688,1832.7920834000688,1832.7920834000688,1833.090884400066,1833.090884400066,1834.5870546998922,1834.5870546998922,1834.5870546998922,1834.5870546998922,1834.5870546998922,1834.5870546998922,1834.5870546998922,1834.5870546998922,1834.5870546998922,1834.5870546998922,1834.5870546998922,1834.5870546998922,1834.5870546998922,1834.5870546998922,1834.5870546998922,1834.5870546998922,1834.5870546998922,1837.0958477999084,1837.0958477999084,1837.0958477999084,1837.0958477999084,1837.0958477999084,48,50,70,50,70,36,5.0,0.5808977999258786,1837.6940772000235,1839.4064551999327,,,,,,,,,110,f,24,2022-11-25_17h05.18.125,RL,2022.2.4,60.16058069614163,
1,82,0,82,0,,,,,,,,,,None,1839.4064551999327,1839.4064551999327,1839.4064551999327,1839.4064551999327,1839.4064551999327,1839.4064551999327,i,0.2570854998193681,1839.6942159000318,1839.6942159000318,1839.6942159000318,1839.6942159000318,1839.6942159000318,1839.6942159000318,1839.9890526998788,1839.9890526998788,1841.2353079998866,1841.2353079998866,1841.2353079998866,1841.2353079998866,1841.2353079998866,1841.2353079998866,1841.2353079998866,1841.2353079998866,1841.2353079998866,1841.2353079998866,1841.2353079998866,1841.2353079998866,1841.2353079998866,1841.2353079998866,1841.2353079998866,1841.2353079998866,1841.2353079998866,1843.7445215999614,1843.7445215999614,1843.7445215999614,1843.7445215999614,1843.7445215999614,40,57,70,50,70,69,4.0,0.49747150018811226,1844.2594643000048,1845.8389818000142,,,,,,,,,110,f,24,2022-11-25_17h05.18.125,RL,2022.2.4,60.16058069614163,
1,83,0,83,0,,,,,,,,,,None,1845.8389818000142,1845.8389818000142,1845.8389818000142,1845.8389818000142,1845.8389818000142,1845.8389818000142,i,0.34046719991602004,1846.205536799971,1846.205536799971,1846.205536799971,1846.205536799971,1846.205536799971,1846.205536799971,1846.5043035000563,1846.5043035000563,1847.8671742998995,1847.8671742998995,1847.8671742998995,1847.8671742998995,1847.8671742998995,1847.8671742998995,1847.8671742998995,1847.8671742998995,1847.8671742998995,1847.8671742998995,1847.8671742998995,1847.8671742998995,1847.8671742998995,1847.8671742998995,1847.8671742998995,1847.8671742998995,1847.8671742998995,1850.3760837998707,1850.3760837998707,1850.3760837998707,1850.3760837998707,1850.3760837998707,43,63,73,46,73,69,4.0,0.8138474998995662,1851.2074960998725,1852.9863052000292,,,,,,,,,110,f,24,2022-11-25_17h05.18.125,RL,2022.2.4,60.16058069614163,
1,84,0,84,0,,,,,,,,,,None,1852.9863052000292,1852.9863052000292,1852.9863052000292,1852.9863052000292,1852.9863052000292,1852.9863052000292,i,0.2775731000583619,1853.2916395999491,1853.2916395999491,1853.2916395999491,1853.2916395999491,1853.2916395999491,1853.2916395999491,1853.584854699904,1853.584854699904,1854.4158481000923,1854.4158481000923,1854.4158481000923,1854.4158481000923,1854.4158481000923,1854.4158481000923,1854.4158481000923,1854.4158481000923,1854.4158481000923,1854.4158481000923,1854.4158481000923,1854.4158481000923,1854.4158481000923,1854.4158481000923,1854.4158481000923,1854.4158481000923,1854.4158481000923,1856.9249408000614,1856.9249408000614,1856.9249408000614,1856.9249408000614,1856.9249408000614,52,48,73,51,73,64,5.0,0.7974185000639409,1857.7395240000915,1859.6183189998847,,,,,,,,,110,f,24,2022-11-25_17h05.18.125,RL,2022.2.4,60.16058069614163,
1,85,0,85,0,,,,,,,,,,None,1859.6183189998847,1859.6183189998847,1859.6183189998847,1859.6183189998847,1859.6183189998847,1859.6183189998847,i,0.240775799844414,1859.884760200046,1859.884760200046,1859.884760200046,1859.884760200046,1859.884760200046,1859.884760200046,1860.1835513000842,1860.1835513000842,1861.8289626000915,1861.8289626000915,1861.8289626000915,1861.8289626000915,1861.8289626000915,1861.8289626000915,1861.8289626000915,1861.8289626000915,1861.8289626000915,1861.8289626000915,1861.8289626000915,1861.8289626000915,1861.8289626000915,1861.8289626000915,1861.8289626000915,1861.8289626000915,1861.8289626000915,1864.3380307999905,1864.3380307999905,1864.3380307999905,1864.3380307999905,1864.3380307999905,45,54,68,45,68,65,5.0,0.7308046999387443,1865.0859934999608,1866.9148665000685,,,,,,,,,110,f,24,2022-11-25_17h05.18.125,RL,2022.2.4,60.16058069614163,
1,86,0,86,0,,,,,,,,,,None,1866.9148665000685,1866.9148665000685,1866.9148665000685,1866.9148665000685,1866.9148665000685,1866.9148665000685,i,0.29364869999699295,1867.2331638000906,1867.2331638000906,1867.2331638000906,1867.2331638000906,1867.2331638000906,1867.2331638000906,1867.5303994999267,1867.5303994999267,1868.8434560000896,1868.8434560000896,1868.8434560000896,1868.8434560000896,1868.8434560000896,1868.8434560000896,1868.8434560000896,1868.8434560000896,1868.8434560000896,1868.8434560000896,1868.8434560000896,1868.8434560000896,1868.8434560000896,1868.8434560000896,1868.8434560000896,1868.8434560000896,1868.8434560000896,1871.3524889999535,1871.3524889999535,1871.3524889999535,1871.3524889999535,1871.3524889999535,59,50,64,47,64,73,4.0,0.8299061998259276,1872.1998195000924,1874.0453297998756,,,,,,,,,110,f,24,2022-11-25_17h05.18.125,RL,2022.2.4,60.16058069614163,
1,87,0,87,0,,,,,,,,,,None,1874.0453297998756,1874.0453297998756,1874.0453297998756,1874.0453297998756,1874.0453297998756,1874.0453297998756,f,0.4038865000475198,1874.4785770999733,1874.4785770999733,1874.4785770999733,1874.4785770999733,1874.4785770999733,1874.4785770999733,1874.7771876000334,1874.7771876000334,1876.0569476000965,1876.0569476000965,1876.0569476000965,1876.0569476000965,1876.0569476000965,1876.0569476000965,1876.0569476000965,1876.0569476000965,1876.0569476000965,1876.0569476000965,1876.0569476000965,1876.0569476000965,1876.0569476000965,1876.0569476000965,1876.0569476000965,1876.0569476000965,1876.0569476000965,1878.566097300034,1878.566097300034,1878.566097300034,1878.566097300034,1878.566097300034,46,53,62,51,53,69,4.0,0.5479300001170486,1879.1309364999179,1881.126141600078,,,,,,,,,110,f,24,2022-11-25_17h05.18.125,RL,2022.2.4,60.16058069614163,
1,88,0,88,0,,,,,,,,,,None,1881.126141600078,1881.126141600078,1881.126141600078,1881.126141600078,1881.126141600078,1881.126141600078,i,0.31312019983306527,1881.4599087999668,1881.4599087999668,1881.4599087999668,1881.4599087999668,1881.4599087999668,1881.4599087999668,1881.741599000059,1881.741599000059,1882.9711792999879,1882.9711792999879,1882.9878642000258,1882.9878642000258,1882.9878642000258,1882.9878642000258,1882.9878642000258,1882.9878642000258,1882.9878642000258,1882.9878642000258,1882.9878642000258,1882.9878642000258,1882.9878642000258,1882.9878642000258,1882.9878642000258,1882.9878642000258,1882.9878642000258,1885.4969395000953,1885.4969395000953,1885.4969395000953,1885.4969395000953,1885.4969395000953,44,57,58,56,58,51,4.0,0.6628252000082284,1886.1784943998791,1887.6917304000817,,,,,,,,,110,f,24,2022-11-25_17h05.18.125,RL,2022.2.4,60.16058069614163,
1,89,0,89,0,,,,,,,,,,None,1887.6917304000817,1887.6917304000817,1887.6917304000817,1887.6917304000817,1887.6917304000817,1887.6917304000817,i,0.4029750998597592,1888.1291447000112,1888.1291447000112,1888.1291447000112,1888.1291447000112,1888.1291447000112,1888.1291447000112,1888.4230565000325,1888.4230565000325,1890.0686589998659,1890.0686589998659,1890.0686589998659,1890.0686589998659,1890.0686589998659,1890.0686589998659,1890.0686589998659,1890.0686589998659,1890.0686589998659,1890.0686589998659,1890.0686589998659,1890.0686589998659,1890.0686589998659,1890.0686589998659,1890.0686589998659,1890.0686589998659,1890.0686589998659,1892.5786327000242,1892.5786327000242,1892.5786327000242,1892.5786327000242,1892.5786327000242,51,53,57,65,57,49,4.0,0.38058759993873537,1892.976451399969,1894.921792899957,,,,,,,,,110,f,24,2022-11-25_17h05.18.125,RL,2022.2.4,60.16058069614163,
1,90,0,90,0,,,,,,,,,,None,1894.921792899957,1894.921792899957,1894.921792899957,1894.921792899957,1894.921792899957,1894.921792899957,i,0.303018799982965,1895.2551367999986,1895.2551367999986,1895.2551367999986,1895.2551367999986,1895.2551367999986,1895.2551367999986,1895.5537373998668,1895.5537373998668,1896.9997840998694,1896.9997840998694,1896.9997840998694,1896.9997840998694,1896.9997840998694,1896.9997840998694,1896.9997840998694,1896.9997840998694,1896.9997840998694,1896.9997840998694,1896.9997840998694,1896.9997840998694,1896.9997840998694,1896.9997840998694,1896.9997840998694,1896.9997840998694,1896.9997840998694,1899.5086338999681,1899.5086338999681,1899.5086338999681,1899.5086338999681,1899.5086338999681,47,54,63,50,63,74,3.0,0.8444888999219984,1900.3734971000813,1902.33531460003,,,,,,,,,110,f,24,2022-11-25_17h05.18.125,RL,2022.2.4,60.16058069614163,
1,91,0,91,0,,,,,,,,,,None,1902.33531460003,1902.33531460003,1902.33531460003,1902.33531460003,1902.33531460003,1902.33531460003,r,0.6452774000354111,1903.007630799897,1903.007630799897,1903.007630799897,1903.007630799897,1903.007630799897,1903.007630799897,1903.2993449000642,1903.2993449000642,1904.5460914999712,1904.5460914999712,1904.5460914999712,1904.5460914999712,1904.5460914999712,1904.5460914999712,1904.5460914999712,1904.5460914999712,1904.5460914999712,1904.5460914999712,1904.5460914999712,1904.5460914999712,1904.5460914999712,1904.5460914999712,1904.5460914999712,1904.5460914999712,1904.5460914999712,1907.0549002999905,1907.0549002999905,1907.0549002999905,1907.0549002999905,1907.0549002999905,45,55,66,58,45,65,4.0,0.8139768000692129,1907.8859343000222,1909.565581599949,,,,,,,,,110,f,24,2022-11-25_17h05.18.125,RL,2022.2.4,60.16058069614163,
1,92,0,92,0,,,,,,,,,,None,1909.565581599949,1909.565581599949,1909.565581599949,1909.565581599949,1909.565581599949,1909.565581599949,f,0.4345990000292659,1910.0339130000211,1910.0339130000211,1910.0339130000211,1910.0339130000211,1910.0339130000211,1910.0339130000211,1910.33073409996,1910.33073409996,1911.9593624998815,1911.9593624998815,1911.975812099874,1911.975812099874,1911.975812099874,1911.975812099874,1911.975812099874,1911.975812099874,1911.975812099874,1911.975812099874,1911.975812099874,1911.975812099874,1911.975812099874,1911.975812099874,1911.975812099874,1911.975812099874,1911.975812099874,1914.4845868998673,1914.4845868998673,1914.4845868998673,1914.4845868998673,1914.4845868998673,51,57,63,58,57,44,4.0,0.8470020000822842,1915.3487474999856,1917.2942774000112,,,,,,,,,110,f,24,2022-11-25_17h05.18.125,RL,2022.2.4,60.16058069614163,
1,93,0,93,0,,,,,,,,,,None,1917.2942774000112,1917.2942774000112,1917.2942774000112,1917.2942774000112,1917.2942774000112,1917.2942774000112,f,0.485173299908638,1917.8188962000422,1917.8188962000422,1917.8188962000422,1917.8188962000422,1917.8188962000422,1917.8188962000422,1918.1088224998675,1918.1088224998675,1920.0205759000964,1920.0205759000964,1920.0367948999628,1920.0367948999628,1920.0367948999628,1920.0367948999628,1920.0367948999628,1920.0367948999628,1920.0367948999628,1920.0367948999628,1920.0367948999628,1920.0367948999628,1920.0367948999628,1920.0367948999628,1920.0367948999628,1920.0367948999628,1920.0367948999628,1922.5460651998874,1922.5460651998874,1922.5460651998874,1922.5460651998874,1922.5460651998874,51,65,69,54,65,75,3.0,1.0476460000500083,1923.6099495999515,1925.5053016000893,,,,,,,,,110,f,24,2022-11-25_17h05.18.125,RL,2022.2.4,60.16058069614163,
1,94,0,94,0,,,,,,,,,,None,1925.5053016000893,1925.5053016000893,1925.5053016000893,1925.5053016000893,1925.5053016000893,1925.5053016000893,i,0.2593543999828398,1925.7883095999714,1925.7883095999714,1925.7883095999714,1925.7883095999714,1925.7883095999714,1925.7883095999714,1926.0707388999872,1926.0707388999872,1926.9014683000278,1926.9014683000278,1926.9185349000618,1926.9185349000618,1926.9185349000618,1926.9185349000618,1926.9185349000618,1926.9185349000618,1926.9185349000618,1926.9185349000618,1926.9185349000618,1926.9185349000618,1926.9185349000618,1926.9185349000618,1926.9185349000618,1926.9185349000618,1926.9185349000618,1929.427117299987,1929.427117299987,1929.427117299987,1929.427117299987,1929.427117299987,55,52,71,51,71,54,3.0,0.7959295001346618,1930.2418239999097,1932.054560800083,,,,,,,,,110,f,24,2022-11-25_17h05.18.125,RL,2022.2.4,60.16058069614163,
1,95,0,95,0,,,,,,,,,,None,1932.054560800083,1932.054560800083,1932.054560800083,1932.054560800083,1932.054560800083,1932.054560800083,i,1.0701703999657184,1933.1517006999347,1933.1517006999347,1933.1517006999347,1933.1517006999347,1933.1517006999347,1933.1517006999347,1933.4500050998759,1933.4500050998759,1935.178960399935,1935.178960399935,1935.178960399935,1935.178960399935,1935.178960399935,1935.178960399935,1935.178960399935,1935.178960399935,1935.178960399935,1935.178960399935,1935.178960399935,1935.178960399935,1935.178960399935,1935.178960399935,1935.178960399935,1935.178960399935,1935.178960399935,1937.6881269998848,1937.6881269998848,1937.6881269998848,1937.6881269998848,1937.6881269998848,52,52,63,47,63,57,4.0,0.680392500013113,1938.387332299957,1940.0821380000561,,,,,,,,,110,f,24,2022-11-25_17h05.18.125,RL,2022.2.4,60.16058069614163,
1,96,0,96,0,,,,,,,,,,None,1940.0821380000561,1940.0821380000561,1940.0821380000561,1940.0821380000561,1940.0821380000561,1940.0821380000561,i,0.3919619000516832,1940.506708299974,1940.506708299974,1940.506708299974,1940.506708299974,1940.506708299974,1940.506708299974,1940.796894399915,1940.796894399915,1942.1433202000335,1942.1433202000335,1942.1433202000335,1942.1433202000335,1942.1433202000335,1942.1433202000335,1942.1433202000335,1942.1433202000335,1942.1433202000335,1942.1433202000335,1942.1433202000335,1942.1433202000335,1942.1433202000335,1942.1433202000335,1942.1433202000335,1942.1433202000335,1942.1433202000335,1944.6523726999294,1944.6523726999294,1944.6523726999294,1944.6523726999294,1944.6523726999294,52,55,64,64,64,50,5.0,0.5123888000380248,1945.1841821998823,1947.179461200023,,,,,,,,,110,f,24,2022-11-25_17h05.18.125,RL,2022.2.4,60.16058069614163,
1,97,0,97,0,,,,,,,,,,None,1947.179461200023,1947.179461200023,1947.179461200023,1947.179461200023,1947.179461200023,1947.179461200023,i,0.3752321999054402,1947.578834099928,1947.578834099928,1947.578834099928,1947.578834099928,1947.578834099928,1947.578834099928,1947.8777918000706,1947.8777918000706,1948.8586541998666,1948.8586541998666,1948.8586541998666,1948.8586541998666,1948.8586541998666,1948.8586541998666,1948.8586541998666,1948.8586541998666,1948.8586541998666,1948.8586541998666,1948.8586541998666,1948.8586541998666,1948.8586541998666,1948.8586541998666,1948.8586541998666,1948.8586541998666,1948.8586541998666,1951.3673499999568,1951.3673499999568,1951.3673499999568,1951.3673499999568,1951.3673499999568,50,62,57,52,57,72,2.0,0.4976791001390666,1951.8825012999587,1953.4792233000044,,,,,,,,,110,f,24,2022-11-25_17h05.18.125,RL,2022.2.4,60.16058069614163,
1,98,0,98,0,,,,,,,,,,None,1953.4792233000044,1953.4792233000044,1953.4792233000044,1953.4792233000044,1953.4792233000044,1953.4792233000044,i,0.33068979997187853,1953.828309699893,1953.828309699893,1953.828309699893,1953.828309699893,1953.828309699893,1953.828309699893,1954.1273566999007,1954.1273566999007,1955.9226154999342,1955.9226154999342,1955.9226154999342,1955.9226154999342,1955.9226154999342,1955.9226154999342,1955.9226154999342,1955.9226154999342,1955.9226154999342,1955.9226154999342,1955.9226154999342,1955.9226154999342,1955.9226154999342,1955.9226154999342,1955.9226154999342,1955.9226154999342,1955.9226154999342,1958.4313091000076,1958.4313091000076,1958.4313091000076,1958.4313091000076,1958.4313091000076,49,57,62,63,62,64,4.0,0.7305052001029253,1959.1792258999776,1961.1081741000526,,,,,,,,,110,f,24,2022-11-25_17h05.18.125,RL,2022.2.4,60.16058069614163,
1,99,0,99,0,,,,,,,,,,None,1961.1081741000526,1961.1081741000526,1961.1081741000526,1961.1081741000526,1961.1081741000526,1961.1081741000526,i,0.3270954000763595,1961.4588526000734,1961.4588526000734,1961.4588526000734,1961.4588526000734,1961.4588526000734,1961.4588526000734,1961.7566670000087,1961.7566670000087,1963.5517774000764,1963.5517774000764,1963.5517774000764,1963.5517774000764,1963.5517774000764,1963.5517774000764,1963.5517774000764,1963.5517774000764,1963.5517774000764,1963.5517774000764,1963.5517774000764,1963.5517774000764,1963.5517774000764,1963.5517774000764,1963.5517774000764,1963.5517774000764,1963.5517774000764,1966.061051900033,1966.061051900033,1966.061051900033,1966.061051900033,1966.061051900033,44,64,57,48,57,49,4.0,1.2123408999759704,1967.2903907999862,1969.2858174000867,,,,,,,,,110,f,24,2022-11-25_17h05.18.125,RL,2022.2.4,60.16058069614163,
1,100,0,100,0,,,,,,,,,,None,1969.2858174000867,1969.2858174000867,1969.2858174000867,1969.2858174000867,1969.2858174000867,1969.2858174000867,i,0.3445693999528885,1969.653284,1969.653284,1969.653284,1969.653284,1969.653284,1969.653284,1969.950921899872,1969.950921899872,1971.230739099905,1971.230739099905,1971.230739099905,1971.230739099905,1971.230739099905,1971.230739099905,1971.230739099905,1971.230739099905,1971.230739099905,1971.230739099905,1971.230739099905,1971.230739099905,1971.230739099905,1971.230739099905,1971.230739099905,1971.230739099905,1971.230739099905,1973.7395782000385,1973.7395782000385,1973.7395782000385,1973.7395782000385,1973.7395782000385,50,66,56,57,56,66,4.0,0.945929299807176,1974.7041390000377,1976.5992703000084,,,,,,,,,110,f,24,2022-11-25_17h05.18.125,RL,2022.2.4,60.16058069614163,
1,101,0,101,0,,,,,,,,,,None,1976.5992703000084,1976.5992703000084,1976.5992703000084,1976.5992703000084,1976.5992703000084,1976.5992703000084,r,0.7849850000347942,1977.4157342999242,1977.4157342999242,1977.4157342999242,1977.4157342999242,1977.4157342999242,1977.4157342999242,1977.712988599902,1977.712988599902,1979.4415203998797,1979.4415203998797,1979.4415203998797,1979.4415203998797,1979.4415203998797,1979.4415203998797,1979.4415203998797,1979.4415203998797,1979.4415203998797,1979.4415203998797,1979.4415203998797,1979.4415203998797,1979.4415203998797,1979.4415203998797,1979.4415203998797,1979.4415203998797,1979.4415203998797,1981.9504919000901,1981.9504919000901,1981.9504919000901,1981.9504919000901,1981.9504919000901,51,58,55,57,51,59,3.0,1.0630218000151217,1983.030956099974,1984.8268172999378,,,,,,,,,110,f,24,2022-11-25_17h05.18.125,RL,2022.2.4,60.16058069614163,
1,102,0,102,0,,,,,,,,,,None,1984.8268172999378,1984.8268172999378,1984.8268172999378,1984.8268172999378,1984.8268172999378,1984.8268172999378,f,0.3963712998665869,1985.2439868000802,1985.2439868000802,1985.2439868000802,1985.2439868000802,1985.2439868000802,1985.2439868000802,1985.5417730000336,1985.5417730000336,1986.987548599951,1986.987548599951,1986.987548599951,1986.987548599951,1986.987548599951,1986.987548599951,1986.987548599951,1986.987548599951,1986.987548599951,1986.987548599951,1986.987548599951,1986.987548599951,1986.987548599951,1986.987548599951,1986.987548599951,1986.987548599951,1986.987548599951,1989.4966501998715,1989.4966501998715,1989.4966501998715,1989.4966501998715,1989.4966501998715,55,55,57,54,55,74,2.0,0.5143753997981548,1990.0283335000277,1991.6248405999504,,,,,,,,,110,f,24,2022-11-25_17h05.18.125,RL,2022.2.4,60.16058069614163,
1,103,0,103,0,,,,,,,,,,None,1991.6248405999504,1991.6248405999504,1991.6248405999504,1991.6248405999504,1991.6248405999504,1991.6248405999504,i,0.31447799992747605,1991.958988999948,1991.958988999948,1991.958988999948,1991.958988999948,1991.958988999948,1991.958988999948,1992.2565778999124,1992.2565778999124,1993.2044679999817,1993.2044679999817,1993.2044679999817,1993.2044679999817,1993.2044679999817,1993.2044679999817,1993.2044679999817,1993.2044679999817,1993.2044679999817,1993.2044679999817,1993.2044679999817,1993.2044679999817,1993.2044679999817,1993.2044679999817,1993.2044679999817,1993.2044679999817,1993.2044679999817,1995.7131830998696,1995.7131830998696,1995.7131830998696,1995.7131830998696,1995.7131830998696,54,44,48,43,48,55,3.0,0.6987947998568416,1996.4275970999151,1997.9407973999623,,,,,,,,,110,f,24,2022-11-25_17h05.18.125,RL,2022.2.4,60.16058069614163,
1,104,0,104,0,,,,,,,,,,None,1997.9407973999623,1997.9407973999623,1997.9407973999623,1997.9407973999623,1997.9407973999623,1997.9407973999623,i,0.4890993998851627,1998.456799000036,1998.456799000036,1998.456799000036,1998.456799000036,1998.456799000036,1998.456799000036,1998.7561286999844,1998.7561286999844,1999.952590700006,1999.952590700006,1999.952590700006,1999.952590700006,1999.952590700006,1999.952590700006,1999.952590700006,1999.952590700006,1999.952590700006,1999.952590700006,1999.952590700006,1999.952590700006,1999.952590700006,1999.952590700006,1999.952590700006,1999.952590700006,1999.952590700006,2002.4613894999493,2002.4613894999493,2002.4613894999493,2002.4613894999493,2002.4613894999493,46,51,41,41,41,60,2.0,0.6464297999627888,2003.126596200047,2004.9051703999285,,,,,,,,,110,f,24,2022-11-25_17h05.18.125,RL,2022.2.4,60.16058069614163,
1,105,0,105,0,,,,,,,,,,None,2004.9051703999285,2004.9051703999285,2004.9051703999285,2004.9051703999285,2004.9051703999285,2004.9051703999285,f,0.3458658999297768,2005.2714652998839,2005.2714652998839,2005.2714652998839,2005.2714652998839,2005.2714652998839,2005.2714652998839,2005.5705055000726,2005.5705055000726,2007.1325638999697,2007.1325638999697,2007.1325638999697,2007.1325638999697,2007.1325638999697,2007.1325638999697,2007.1325638999697,2007.1325638999697,2007.1325638999697,2007.1325638999697,2007.1325638999697,2007.1325638999697,2007.1325638999697,2007.1325638999697,2007.1325638999697,2007.1325638999697,2007.1325638999697,2009.6421705000103,2009.6421705000103,2009.6421705000103,2009.6421705000103,2009.6421705000103,50,40,44,51,40,66,2.0,0.5642308997921646,2010.223357199924,2011.8867448000237,,,,,,,,,110,f,24,2022-11-25_17h05.18.125,RL,2022.2.4,60.16058069614163,
1,106,0,106,0,,,,,,,,,,None,2011.8867448000237,2011.8867448000237,2011.8867448000237,2011.8867448000237,2011.8867448000237,2011.8867448000237,i,0.33494230010546744,2012.2527844998986,2012.2527844998986,2012.2527844998986,2012.2527844998986,2012.2527844998986,2012.2527844998986,2012.551201999886,2012.551201999886,2014.0471326999832,2014.0471326999832,2014.0471326999832,2014.0471326999832,2014.0471326999832,2014.0471326999832,2014.0471326999832,2014.0471326999832,2014.0471326999832,2014.0471326999832,2014.0471326999832,2014.0471326999832,2014.0471326999832,2014.0471326999832,2014.0471326999832,2014.0471326999832,2014.0471326999832,2016.5562444999814,2016.5562444999814,2016.5562444999814,2016.5562444999814,2016.5562444999814,53,47,50,44,50,30,3.0,0.7133705001324415,2017.2875153000932,2019.2161979000084,,,,,,,,,110,f,24,2022-11-25_17h05.18.125,RL,2022.2.4,60.16058069614163,
1,107,0,107,0,,,,,,,,,,None,2019.2161979000084,2019.2161979000084,2019.2161979000084,2019.2161979000084,2019.2161979000084,2019.2161979000084,i,0.776025699917227,2020.0168566999491,2020.0168566999491,2020.0168566999491,2020.0168566999491,2020.0168566999491,2020.0168566999491,2020.2975007998757,2020.2975007998757,2021.5434830999002,2021.5434830999002,2021.5598408998922,2021.5598408998922,2021.5598408998922,2021.5598408998922,2021.5598408998922,2021.5598408998922,2021.5598408998922,2021.5598408998922,2021.5598408998922,2021.5598408998922,2021.5598408998922,2021.5598408998922,2021.5598408998922,2021.5598408998922,2021.5598408998922,2024.069320099894,2024.069320099894,2024.069320099894,2024.069320099894,2024.069320099894,49,44,40,43,40,48,3.0,1.1120268998201936,2025.1995530000422,2026.961606600089,,,,,,,,,110,f,24,2022-11-25_17h05.18.125,RL,2022.2.4,60.16058069614163,
1,108,0,108,0,,,,,,,,,,None,2026.961606600089,2026.961606600089,2026.961606600089,2026.961606600089,2026.961606600089,2026.961606600089,i,0.2807922000065446,2027.2683772998862,2027.2683772998862,2027.2683772998862,2027.2683772998862,2027.2683772998862,2027.2683772998862,2027.5601244000718,2027.5601244000718,2028.9730165998917,2028.9730165998917,2028.9730165998917,2028.9730165998917,2028.9730165998917,2028.9730165998917,2028.9730165998917,2028.9730165998917,2028.9730165998917,2028.9730165998917,2028.9730165998917,2028.9730165998917,2028.9730165998917,2028.9730165998917,2028.9730165998917,2028.9730165998917,2028.9730165998917,2031.482345300028,2031.482345300028,2031.482345300028,2031.482345300028,2031.482345300028,60,40,40,37,40,66,2.0,0.6310604999307543,2032.1303747000638,2033.6434148999397,,,,,,,,,110,f,24,2022-11-25_17h05.18.125,RL,2022.2.4,60.16058069614163,
1,109,0,109,0,,,,,,,,,,None,2033.6434148999397,2033.6434148999397,2033.6434148999397,2033.6434148999397,2033.6434148999397,2033.6434148999397,f,0.285859800176695,2033.9618684998713,2033.9618684998713,2033.9618684998713,2033.9618684998713,2033.9618684998713,2033.9618684998713,2034.258690299932,2034.258690299932,2036.1866667000577,2036.1866667000577,2036.2036858000793,2036.2036858000793,2036.2036858000793,2036.2036858000793,2036.2036858000793,2036.2036858000793,2036.2036858000793,2036.2036858000793,2036.2036858000793,2036.2036858000793,2036.2036858000793,2036.2036858000793,2036.2036858000793,2036.2036858000793,2036.2036858000793,2038.7127344999462,2038.7127344999462,2038.7127344999462,2038.7127344999462,2038.7127344999462,51,39,36,40,39,32,4.0,0.5486659999005497,2039.2777895999607,2041.1397601999342,,,,,,,,,110,f,24,2022-11-25_17h05.18.125,RL,2022.2.4,60.16058069614163,
1,110,0,110,0,,,,,,,,,,None,2041.1397601999342,2041.1397601999342,2041.1397601999342,2041.1397601999342,2041.1397601999342,2041.1397601999342,f,0.36920590000227094,2041.5411654000636,2041.5411654000636,2041.5411654000636,2041.5411654000636,2041.5411654000636,2041.5411654000636,2041.8380869000684,2041.8380869000684,2043.1516128000803,2043.1516128000803,2043.1516128000803,2043.1516128000803,2043.1516128000803,2043.1516128000803,2043.1516128000803,2043.1516128000803,2043.1516128000803,2043.1516128000803,2043.1516128000803,2043.1516128000803,2043.1516128000803,2043.1516128000803,2043.1516128000803,2043.1516128000803,2043.1516128000803,2045.660841899924,2045.660841899924,2045.660841899924,2045.660841899924,2045.660841899924,51,32,37,35,32,56,2.0,0.7630277001298964,2046.4415633999743,2048.336607000092,,,,,,,,,110,f,24,2022-11-25_17h05.18.125,RL,2022.2.4,60.16058069614163,
1,111,0,111,0,,,,,,,,,,None,2048.336607000092,2048.336607000092,2048.336607000092,2048.336607000092,2048.336607000092,2048.336607000092,i,0.2588219998870045,2048.619809200056,2048.619809200056,2048.619809200056,2048.619809200056,2048.619809200056,2048.619809200056,2048.919009800069,2048.919009800069,2049.949036099948,2049.949036099948,2049.9656193000264,2049.9656193000264,2049.9656193000264,2049.9656193000264,2049.9656193000264,2049.9656193000264,2049.9656193000264,2049.9656193000264,2049.9656193000264,2049.9656193000264,2049.9656193000264,2049.9656193000264,2049.9656193000264,2049.9656193000264,2049.9656193000264,2052.4746727000456,2052.4746727000456,2052.4746727000456,2052.4746727000456,2052.4746727000456,49,39,42,37,42,57,2.0,1.0630822000093758,2053.5549846999347,2055.134832599899,,,,,,,,,110,f,24,2022-11-25_17h05.18.125,RL,2022.2.4,60.16058069614163,
1,112,0,112,0,,,,,,,,,,None,2055.134832599899,2055.134832599899,2055.134832599899,2055.134832599899,2055.134832599899,2055.134832599899,i,0.2705176000017673,2055.441815600032,2055.441815600032,2055.441815600032,2055.441815600032,2055.441815600032,2055.441815600032,2055.7169802999124,2055.7169802999124,2056.8967925999314,2056.8967925999314,2056.93017409998,2056.93017409998,2056.93017409998,2056.93017409998,2056.93017409998,2056.93017409998,2056.93017409998,2056.93017409998,2056.93017409998,2056.93017409998,2056.93017409998,2056.93017409998,2056.93017409998,2056.93017409998,2056.93017409998,2059.439473700011,2059.439473700011,2059.439473700011,2059.439473700011,2059.439473700011,44,27,50,39,50,71,2.0,0.8802081001922488,2060.3364997999743,2062.0827651999425,,,,,,,,,110,f,24,2022-11-25_17h05.18.125,RL,2022.2.4,60.16058069614163,
