bandit,trials.thisRepN,trials.thisTrialN,trials.thisN,trials.thisIndex,instru_img1.started,instru_resp.started,instru_resp.keys,instru_resp.rt,instru_img2.started,instru_resp2.started,instru_resp2.keys,instru_resp2.rt,fixbefore_2.started,rest_response.keys,red.started,green.started,yellow.started,blue.started,choose_bandit.started,Fixation.started,choose_bandit.keys,choose_bandit.rt,black.started,red_2.started,green_2.started,yellow_2.started,blue_2.started,fixation_2.started,docs.started,image_2.started,docs.stopped,image_2.stopped,black.stopped,red_2.stopped,green_2.stopped,yellow_2.stopped,blue_2.stopped,fixation_2.stopped,black_com.started,reward_sub.started,palyerb.started,reward__sub.started,compare.started,red_compare.started,green_com.started,yellow_com.started,blue_com.started,image_3.started,slider.started,text.started,image_4.started,image_5.started,rewardyellow,rewardred,rewardblue,rewardgreen,subchoose,playerb,slider.response,slider.rt,intertrialfix.started,intertrialfix.stopped,rest_image.started,rest_response.started,rest_response.rt,image.started,key_resp.started,key_resp.keys,participant,Gender,Age,date,expName,psychopyVersion,frameRate,
,,,,,12.406043199822307,12.406043199822307,space,1.4888165998272598,,,,,,,,,,,,,,,,,,,,,,,,,,,,,,,,,,,,,,,,,,,,,,,,,,,,,,,,,,,,,123,f,1,2022-12-12_10h30.00.408,RL,2022.2.4,60.1468304121114,
,,,,,,,,,13.925319400150329,13.925319400150329,space,4.1413491000421345,,,,,,,,,,,,,,,,,,,,,,,,,,,,,,,,,,,,,,,,,,,,,,,,,,,,,,,,,123,f,1,2022-12-12_10h30.00.408,RL,2022.2.4,60.1468304121114,
1,0,0,0,0,,,,,,,,,18.089197100140154,None,19.105255299713463,19.105255299713463,19.105255299713463,19.105255299713463,19.105255299713463,19.105255299713463,f,0.5441600000485778,19.725870300084352,19.725870300084352,19.725870300084352,19.725870300084352,19.725870300084352,19.725870300084352,19.968180699739605,19.968180699739605,20.99869309971109,20.99869309971109,21.068034099880606,21.068034099880606,21.068034099880606,21.068034099880606,21.068034099880606,21.068034099880606,21.068034099880606,21.068034099880606,21.068034099880606,21.068034099880606,21.068034099880606,21.068034099880606,21.068034099880606,21.068034099880606,21.068034099880606,23.57467050012201,23.57467050012201,23.57467050012201,23.57467050012201,23.57467050012201,39,53,27,62,53,45,4.0,2.410135000012815,26.046887199860066,27.6966026998125,,,,,,,123,f,1,2022-12-12_10h30.00.408,RL,2022.2.4,60.1468304121114,
1,1,0,1,0,,,,,,,,,,None,27.6966026998125,27.6966026998125,27.6966026998125,27.6966026998125,27.6966026998125,27.6966026998125,j,0.833585700020194,28.563881000038236,28.563881000038236,28.563881000038236,28.563881000038236,28.563881000038236,28.563881000038236,28.860569499898702,28.860569499898702,29.990844800136983,29.990844800136983,30.007313299924135,30.007313299924135,30.007313299924135,30.007313299924135,30.007313299924135,30.007313299924135,30.007313299924135,30.007313299924135,30.007313299924135,30.007313299924135,30.007313299924135,30.007313299924135,30.007313299924135,30.007313299924135,30.007313299924135,32.516440799925476,32.516440799925476,32.516440799925476,32.516440799925476,32.516440799925476,35,56,27,65,65,43,4.0,2.5750362002290785,35.10961499996483,36.92151209991425,,,,,,,123,f,1,2022-12-12_10h30.00.408,RL,2022.2.4,60.1468304121114,
1,2,0,2,0,,,,,,,,,,None,36.92151209991425,36.92151209991425,36.92151209991425,36.92151209991425,36.92151209991425,36.92151209991425,r,0.8298653000965714,37.77033860003576,37.77033860003576,37.77033860003576,37.77033860003576,37.77033860003576,37.77033860003576,38.068636199925095,38.068636199925095,40.06320990016684,40.06320990016684,40.06320990016684,40.06320990016684,40.06320990016684,40.06320990016684,40.06320990016684,40.06320990016684,40.06320990016684,40.06320990016684,40.06320990016684,40.06320990016684,40.06320990016684,40.06320990016684,40.06320990016684,40.06320990016684,40.06320990016684,42.57211699988693,42.57211699988693,42.57211699988693,42.57211699988693,42.57211699988693,41,66,25,58,41,64,3.0,2.209463700186461,44.799506899900734,46.76165740005672,,,,,,,123,f,1,2022-12-12_10h30.00.408,RL,2022.2.4,60.1468304121114,
1,3,0,3,0,,,,,,,,,,None,46.76165740005672,46.76165740005672,46.76165740005672,46.76165740005672,46.76165740005672,46.76165740005672,i,0.8438630001619458,47.628258700016886,47.628258700016886,47.628258700016886,47.628258700016886,47.628258700016886,47.628258700016886,47.92500829976052,47.92500829976052,48.78941609989852,48.78941609989852,48.78941609989852,48.78941609989852,48.78941609989852,48.78941609989852,48.78941609989852,48.78941609989852,48.78941609989852,48.78941609989852,48.78941609989852,48.78941609989852,48.78941609989852,48.78941609989852,48.78941609989852,48.78941609989852,48.78941609989852,51.298274599947035,51.298274599947035,51.298274599947035,51.298274599947035,51.298274599947035,36,54,22,65,22,71,3.0,1.8449080004356802,53.15978839993477,54.88910129992291,,,,,,,123,f,1,2022-12-12_10h30.00.408,RL,2022.2.4,60.1468304121114,
1,4,0,4,0,,,,,,,,,,None,54.88910129992291,54.88910129992291,54.88910129992291,54.88910129992291,54.88910129992291,54.88910129992291,f,0.8732638000510633,55.78930060006678,55.78930060006678,55.78930060006678,55.78930060006678,55.78930060006678,55.78930060006678,56.08637099992484,56.08637099992484,57.56550469994545,57.56550469994545,57.56550469994545,57.56550469994545,57.56550469994545,57.56550469994545,57.56550469994545,57.56550469994545,57.56550469994545,57.56550469994545,57.56550469994545,57.56550469994545,57.56550469994545,57.56550469994545,57.56550469994545,57.56550469994545,57.56550469994545,60.07437760010362,60.07437760010362,60.07437760010362,60.07437760010362,60.07437760010362,32,61,22,65,61,67,3.0,1.3954504001885653,61.48756509972736,63.36614379985258,,,,,,,123,f,1,2022-12-12_10h30.00.408,RL,2022.2.4,60.1468304121114,
1,5,0,5,0,,,,,,,,,,None,63.36614379985258,63.36614379985258,63.36614379985258,63.36614379985258,63.36614379985258,63.36614379985258,i,0.5943619003519416,63.98362790001556,63.98362790001556,63.98362790001556,63.98362790001556,63.98362790001556,63.98362790001556,64.28041080012918,64.28041080012918,65.6762057999149,65.6762057999149,65.6938482997939,65.6938482997939,65.6938482997939,65.6938482997939,65.6938482997939,65.6938482997939,65.6938482997939,65.6938482997939,65.6938482997939,65.6938482997939,65.6938482997939,65.6938482997939,65.6938482997939,65.6938482997939,65.6938482997939,68.20248349988833,68.20248349988833,68.20248349988833,68.20248349988833,68.20248349988833,26,56,26,66,26,49,3.0,1.411585799884051,69.63153930008411,71.27758050011471,,,,,,,123,f,1,2022-12-12_10h30.00.408,RL,2022.2.4,60.1468304121114,
1,6,0,6,0,,,,,,,,,,None,71.27758050011471,71.27758050011471,71.27758050011471,71.27758050011471,71.27758050011471,71.27758050011471,r,0.6252202000468969,71.92840849980712,71.92840849980712,71.92840849980712,71.92840849980712,71.92840849980712,71.92840849980712,72.22535079997033,72.22535079997033,73.2891819998622,73.2891819998622,73.2891819998622,73.2891819998622,73.2891819998622,73.2891819998622,73.2891819998622,73.2891819998622,73.2891819998622,73.2891819998622,73.2891819998622,73.2891819998622,73.2891819998622,73.2891819998622,73.2891819998622,73.2891819998622,73.2891819998622,75.79845299990848,75.79845299990848,75.79845299990848,75.79845299990848,75.79845299990848,32,50,26,71,32,46,3.0,1.661366299726069,77.47712149983272,79.45539700007066,,,,,,,123,f,1,2022-12-12_10h30.00.408,RL,2022.2.4,60.1468304121114,
1,7,0,7,0,,,,,,,,,,None,79.45539700007066,79.45539700007066,79.45539700007066,79.45539700007066,79.45539700007066,79.45539700007066,f,0.7939441003836691,80.27197440015152,80.27197440015152,80.27197440015152,80.27197440015152,80.27197440015152,80.27197440015152,80.56928379973397,80.56928379973397,82.31470619980246,82.31470619980246,82.31470619980246,82.31470619980246,82.31470619980246,82.31470619980246,82.31470619980246,82.31470619980246,82.31470619980246,82.31470619980246,82.31470619980246,82.31470619980246,82.31470619980246,82.31470619980246,82.31470619980246,82.31470619980246,82.31470619980246,84.82370129972696,84.82370129972696,84.82370129972696,84.82370129972696,84.82370129972696,37,61,28,67,61,48,4.0,1.7280347002670169,86.56915949983522,88.43117769993842,,,,,,,123,f,1,2022-12-12_10h30.00.408,RL,2022.2.4,60.1468304121114,
1,8,0,8,0,,,,,,,,,,None,88.43117769993842,88.43117769993842,88.43117769993842,88.43117769993842,88.43117769993842,88.43117769993842,i,0.6543093002401292,89.11541109997779,89.11541109997779,89.11541109997779,89.11541109997779,89.11541109997779,89.11541109997779,89.41217879997566,89.41217879997566,91.38984909979627,91.38984909979627,91.38984909979627,91.38984909979627,91.38984909979627,91.38984909979627,91.38984909979627,91.38984909979627,91.38984909979627,91.38984909979627,91.38984909979627,91.38984909979627,91.38984909979627,91.38984909979627,91.38984909979627,91.38984909979627,91.38984909979627,93.89904480008408,93.89904480008408,93.89904480008408,93.89904480008408,93.89904480008408,30,51,30,62,30,68,4.0,1.678146899677813,95.59413390001282,97.15696580009535,,,,,,,123,f,1,2022-12-12_10h30.00.408,RL,2022.2.4,60.1468304121114,
1,9,0,9,0,,,,,,,,,,None,97.15696580009535,97.15696580009535,97.15696580009535,97.15696580009535,97.15696580009535,97.15696580009535,j,0.9397976002655923,98.12448369991034,98.12448369991034,98.12448369991034,98.12448369991034,98.12448369991034,98.12448369991034,98.42096180003136,98.42096180003136,100.1162088997662,100.1162088997662,100.1162088997662,100.1162088997662,100.1162088997662,100.1162088997662,100.1162088997662,100.1162088997662,100.1162088997662,100.1162088997662,100.1162088997662,100.1162088997662,100.1162088997662,100.1162088997662,100.1162088997662,100.1162088997662,100.1162088997662,102.625446499791,102.625446499791,102.625446499791,102.625446499791,102.625446499791,25,57,39,65,65,75,4.0,1.494333999697119,104.13752810005099,105.76717639993876,,,,,,,123,f,1,2022-12-12_10h30.00.408,RL,2022.2.4,60.1468304121114,
1,10,0,10,0,,,,,,,,,,None,105.76717639993876,105.76717639993876,105.76717639993876,105.76717639993876,105.76717639993876,105.76717639993876,f,0.4917000001296401,106.28665059991181,106.28665059991181,106.28665059991181,106.28665059991181,106.28665059991181,106.28665059991181,106.5820234999992,106.5820234999992,108.2607382000424,108.2607382000424,108.2607382000424,108.2607382000424,108.2607382000424,108.2607382000424,108.2607382000424,108.2607382000424,108.2607382000424,108.2607382000424,108.2607382000424,108.2607382000424,108.2607382000424,108.2607382000424,108.2607382000424,108.2607382000424,108.2607382000424,110.76961359987035,110.76961359987035,110.76961359987035,110.76961359987035,110.76961359987035,32,59,28,58,59,38,4.0,1.4611634002067149,112.24895399995148,113.8447198998183,,,,,,,123,f,1,2022-12-12_10h30.00.408,RL,2022.2.4,60.1468304121114,
1,11,0,11,0,,,,,,,,,,None,113.8447198998183,113.8447198998183,113.8447198998183,113.8447198998183,113.8447198998183,113.8447198998183,f,1.0002892999909818,114.88079020008445,114.88079020008445,114.88079020008445,114.88079020008445,114.88079020008445,114.88079020008445,115.17505670012906,115.17505670012906,117.07002749992535,117.07002749992535,117.08620940009132,117.08620940009132,117.08620940009132,117.08620940009132,117.08620940009132,117.08620940009132,117.08620940009132,117.08620940009132,117.08620940009132,117.08620940009132,117.08620940009132,117.08620940009132,117.08620940009132,117.08620940009132,117.08620940009132,119.5955428997986,119.5955428997986,119.5955428997986,119.5955428997986,119.5955428997986,35,65,24,56,65,59,4.0,1.4119897997006774,121.02461980003864,122.8706463999115,,,,,,,123,f,1,2022-12-12_10h30.00.408,RL,2022.2.4,60.1468304121114,
1,12,0,12,0,,,,,,,,,,None,122.8706463999115,122.8706463999115,122.8706463999115,122.8706463999115,122.8706463999115,122.8706463999115,j,0.8821784998290241,123.78701320011169,123.78701320011169,123.78701320011169,123.78701320011169,123.78701320011169,123.78701320011169,124.08404259989038,124.08404259989038,125.9454445997253,125.9454445997253,125.9454445997253,125.9454445997253,125.9454445997253,125.9454445997253,125.9454445997253,125.9454445997253,125.9454445997253,125.9454445997253,125.9454445997253,125.9454445997253,125.9454445997253,125.9454445997253,125.9454445997253,125.9454445997253,125.9454445997253,128.45458659995347,128.45458659995347,128.45458659995347,128.45458659995347,128.45458659995347,41,63,32,57,57,62,3.0,1.7272485001012683,130.20003800000995,131.8623310001567,,,,,,,123,f,1,2022-12-12_10h30.00.408,RL,2022.2.4,60.1468304121114,
1,13,0,13,0,,,,,,,,,,None,131.8623310001567,131.8623310001567,131.8623310001567,131.8623310001567,131.8623310001567,131.8623310001567,f,0.6299541001208127,132.51199010014534,132.51199010014534,132.51199010014534,132.51199010014534,132.51199010014534,132.51199010014534,132.81008990015835,132.81008990015835,134.00675059994683,134.00675059994683,134.00675059994683,134.00675059994683,134.00675059994683,134.00675059994683,134.00675059994683,134.00675059994683,134.00675059994683,134.00675059994683,134.00675059994683,134.00675059994683,134.00675059994683,134.00675059994683,134.00675059994683,134.00675059994683,134.00675059994683,136.515809699893,136.515809699893,136.515809699893,136.515809699893,136.515809699893,45,60,28,58,60,68,3.0,1.2450140002183616,137.7793326000683,139.3091027000919,,,,,,,123,f,1,2022-12-12_10h30.00.408,RL,2022.2.4,60.1468304121114,
1,14,0,14,0,,,,,,,,,,None,139.3091027000919,139.3091027000919,139.3091027000919,139.3091027000919,139.3091027000919,139.3091027000919,r,0.8056884002871811,140.14102880004793,140.14102880004793,140.14102880004793,140.14102880004793,140.14102880004793,140.14102880004793,140.439369100146,140.439369100146,141.51973399985582,141.51973399985582,141.5363755999133,141.5363755999133,141.5363755999133,141.5363755999133,141.5363755999133,141.5363755999133,141.5363755999133,141.5363755999133,141.5363755999133,141.5363755999133,141.5363755999133,141.5363755999133,141.5363755999133,141.5363755999133,141.5363755999133,144.04520109994337,144.04520109994337,144.04520109994337,144.04520109994337,144.04520109994337,32,60,28,46,32,60,3.0,1.21198849985376,145.2756670000963,146.82190559990704,,,,,,,123,f,1,2022-12-12_10h30.00.408,RL,2022.2.4,60.1468304121114,
1,15,0,15,0,,,,,,,,,,None,146.82190559990704,146.82190559990704,146.82190559990704,146.82190559990704,146.82190559990704,146.82190559990704,j,0.8712275996804237,147.7199333999306,147.7199333999306,147.7199333999306,147.7199333999306,147.7199333999306,147.7199333999306,148.0184737998061,148.0184737998061,148.88271480007097,148.88271480007097,148.88271480007097,148.88271480007097,148.88271480007097,148.88271480007097,148.88271480007097,148.88271480007097,148.88271480007097,148.88271480007097,148.88271480007097,148.88271480007097,148.88271480007097,148.88271480007097,148.88271480007097,148.88271480007097,148.88271480007097,151.39202070003375,151.39202070003375,151.39202070003375,151.39202070003375,151.39202070003375,35,55,26,59,59,66,3.0,1.2285607000812888,152.63868279987946,154.16827799985185,,,,,,,123,f,1,2022-12-12_10h30.00.408,RL,2022.2.4,60.1468304121114,
1,16,0,16,0,,,,,,,,,,None,154.16827799985185,154.16827799985185,154.16827799985185,154.16827799985185,154.16827799985185,154.16827799985185,j,1.187644500285387,155.3840796998702,155.3840796998702,155.3840796998702,155.3840796998702,155.3840796998702,155.3840796998702,155.6811059000902,155.6811059000902,157.59236080013216,157.59236080013216,157.60934880003333,157.60934880003333,157.60934880003333,157.60934880003333,157.60934880003333,157.60934880003333,157.60934880003333,157.60934880003333,157.60934880003333,157.60934880003333,157.60934880003333,157.60934880003333,157.60934880003333,157.60934880003333,157.60934880003333,160.1180141000077,160.1180141000077,160.1180141000077,160.1180141000077,160.1180141000077,38,55,24,68,68,50,3.0,1.3633314999751747,161.4980166000314,163.2105401000008,,,,,,,123,f,1,2022-12-12_10h30.00.408,RL,2022.2.4,60.1468304121114,
1,17,0,17,0,,,,,,,,,,None,163.2105401000008,163.2105401000008,163.2105401000008,163.2105401000008,163.2105401000008,163.2105401000008,j,0.8470764998346567,164.0931242997758,164.0931242997758,164.0931242997758,164.0931242997758,164.0931242997758,164.0931242997758,164.39068479975685,164.39068479975685,165.52107959985733,165.52107959985733,165.52107959985733,165.52107959985733,165.52107959985733,165.52107959985733,165.52107959985733,165.52107959985733,165.52107959985733,165.52107959985733,165.52107959985733,165.52107959985733,165.52107959985733,165.52107959985733,165.52107959985733,165.52107959985733,165.52107959985733,168.02991130016744,168.02991130016744,168.02991130016744,168.02991130016744,168.02991130016744,45,60,39,54,54,57,2.0,1.8933365000411868,169.9417158998549,171.83686339994892,,,,,,,123,f,1,2022-12-12_10h30.00.408,RL,2022.2.4,60.1468304121114,
1,18,0,18,0,,,,,,,,,,None,171.83686339994892,171.83686339994892,171.83686339994892,171.83686339994892,171.83686339994892,171.83686339994892,f,0.5580253000371158,172.42227440001443,172.42227440001443,172.42227440001443,172.42227440001443,172.42227440001443,172.42227440001443,172.71796429995447,172.71796429995447,174.54617330012843,174.54617330012843,174.54617330012843,174.54617330012843,174.54617330012843,174.54617330012843,174.54617330012843,174.54617330012843,174.54617330012843,174.54617330012843,174.54617330012843,174.54617330012843,174.54617330012843,174.54617330012843,174.54617330012843,174.54617330012843,174.54617330012843,177.05516109988093,177.05516109988093,177.05516109988093,177.05516109988093,177.05516109988093,37,55,27,67,55,67,2.0,1.2629216997884214,178.33541580010206,179.8482001000084,,,,,,,123,f,1,2022-12-12_10h30.00.408,RL,2022.2.4,60.1468304121114,
1,19,0,19,0,,,,,,,,,,None,179.8482001000084,179.8482001000084,179.8482001000084,179.8482001000084,179.8482001000084,179.8482001000084,i,0.9029071000404656,180.78064179979265,180.78064179979265,180.78064179979265,180.78064179979265,180.78064179979265,180.78064179979265,181.0787633000873,181.0787633000873,182.5080170999281,182.5080170999281,182.5080170999281,182.5080170999281,182.5080170999281,182.5080170999281,182.5080170999281,182.5080170999281,182.5080170999281,182.5080170999281,182.5080170999281,182.5080170999281,182.5080170999281,182.5080170999281,182.5080170999281,182.5080170999281,182.5080170999281,185.01726249977946,185.01726249977946,185.01726249977946,185.01726249977946,185.01726249977946,33,62,25,58,25,40,2.0,1.2284038998186588,186.26370800007135,187.8263189997524,,,,,,,123,f,1,2022-12-12_10h30.00.408,RL,2022.2.4,60.1468304121114,
1,20,0,20,0,,,,,,,,,,None,187.8263189997524,187.8263189997524,187.8263189997524,187.8263189997524,187.8263189997524,187.8263189997524,i,0.8474401002749801,188.69308470003307,188.69308470003307,188.69308470003307,188.69308470003307,188.69308470003307,188.69308470003307,188.99023529980332,188.99023529980332,190.38630939973518,190.38630939973518,190.38630939973518,190.38630939973518,190.38630939973518,190.38630939973518,190.38630939973518,190.38630939973518,190.38630939973518,190.38630939973518,190.38630939973518,190.38630939973518,190.38630939973518,190.38630939973518,190.38630939973518,190.38630939973518,190.38630939973518,192.89547210000455,192.89547210000455,192.89547210000455,192.89547210000455,192.89547210000455,38,58,32,60,32,58,2.0,1.278777899686247,194.19170420011505,196.10415090015158,,,,,,,123,f,1,2022-12-12_10h30.00.408,RL,2022.2.4,60.1468304121114,
1,21,0,21,0,,,,,,,,,,None,196.10415090015158,196.10415090015158,196.10415090015158,196.10415090015158,196.10415090015158,196.10415090015158,j,0.8767778999172151,197.00362309999764,197.00362309999764,197.00362309999764,197.00362309999764,197.00362309999764,197.00362309999764,197.30115259997547,197.30115259997547,198.14860259974375,198.14860259974375,198.14860259974375,198.14860259974375,198.14860259974375,198.14860259974375,198.14860259974375,198.14860259974375,198.14860259974375,198.14860259974375,198.14860259974375,198.14860259974375,198.14860259974375,198.14860259974375,198.14860259974375,198.14860259974375,198.14860259974375,200.65758570004255,200.65758570004255,200.65758570004255,200.65758570004255,200.65758570004255,30,55,26,58,58,55,2.0,1.6778437001630664,202.35329250013456,204.29846510011703,,,,,,,123,f,1,2022-12-12_10h30.00.408,RL,2022.2.4,60.1468304121114,
1,22,0,22,0,,,,,,,,,,None,204.29846510011703,204.29846510011703,204.29846510011703,204.29846510011703,204.29846510011703,204.29846510011703,j,0.7143986998125911,205.04844589997083,205.04844589997083,205.04844589997083,205.04844589997083,205.04844589997083,205.04844589997083,205.34604299999774,205.34604299999774,207.02430639974773,207.02430639974773,207.02430639974773,207.02430639974773,207.02430639974773,207.02430639974773,207.02430639974773,207.02430639974773,207.02430639974773,207.02430639974773,207.02430639974773,207.02430639974773,207.02430639974773,207.02430639974773,207.02430639974773,207.02430639974773,207.02430639974773,209.53357309987769,209.53357309987769,209.53357309987769,209.53357309987769,209.53357309987769,39,50,25,60,60,50,3.0,1.8773518996313214,211.42832359997556,213.14081449992955,,,,,,,123,f,1,2022-12-12_10h30.00.408,RL,2022.2.4,60.1468304121114,
1,23,0,23,0,,,,,,,,,,None,213.14081449992955,213.14081449992955,213.14081449992955,213.14081449992955,213.14081449992955,213.14081449992955,j,0.7635150998830795,213.92439629975706,213.92439629975706,213.92439629975706,213.92439629975706,213.92439629975706,213.92439629975706,214.2218595999293,214.2218595999293,215.3683981001377,215.3683981001377,215.3683981001377,215.3683981001377,215.3683981001377,215.3683981001377,215.3683981001377,215.3683981001377,215.3683981001377,215.3683981001377,215.3683981001377,215.3683981001377,215.3683981001377,215.3683981001377,215.3683981001377,215.3683981001377,215.3683981001377,217.87772839982063,217.87772839982063,217.87772839982063,217.87772839982063,217.87772839982063,28,48,22,62,62,56,3.0,1.260792899876833,219.1566459997557,221.1022867001593,,,,,,,123,f,1,2022-12-12_10h30.00.408,RL,2022.2.4,60.1468304121114,
1,24,0,24,0,,,,,,,,,,None,221.1022867001593,221.1022867001593,221.1022867001593,221.1022867001593,221.1022867001593,221.1022867001593,f,0.8689296003431082,222.0020033000037,222.0020033000037,222.0020033000037,222.0020033000037,222.0020033000037,222.0020033000037,222.2992380997166,222.2992380997166,224.0118252998218,224.0118252998218,224.0118252998218,224.0118252998218,224.0118252998218,224.0118252998218,224.0118252998218,224.0118252998218,224.0118252998218,224.0118252998218,224.0118252998218,224.0118252998218,224.0118252998218,224.0118252998218,224.0118252998218,224.0118252998218,224.0118252998218,226.5202522999607,226.5202522999607,226.5202522999607,226.5202522999607,226.5202522999607,27,45,24,52,45,62,3.0,1.2453276999294758,227.78375939978287,229.69578399974853,,,,,,,123,f,1,2022-12-12_10h30.00.408,RL,2022.2.4,60.1468304121114,
1,25,0,25,0,,,,,,,,,,None,229.69578399974853,229.69578399974853,229.69578399974853,229.69578399974853,229.69578399974853,229.69578399974853,f,0.8387450999580324,230.56140889972448,230.56140889972448,230.56140889972448,230.56140889972448,230.56140889972448,230.56140889972448,230.85960819991305,230.85960819991305,232.37222839985043,232.37222839985043,232.37222839985043,232.37222839985043,232.37222839985043,232.37222839985043,232.37222839985043,232.37222839985043,232.37222839985043,232.37222839985043,232.37222839985043,232.37222839985043,232.37222839985043,232.37222839985043,232.37222839985043,232.37222839985043,232.37222839985043,234.881135399919,234.881135399919,234.881135399919,234.881135399919,234.881135399919,24,52,36,64,52,64,3.0,1.5452172998338938,236.44347940012813,237.98986630002037,,,,,,,123,f,1,2022-12-12_10h30.00.408,RL,2022.2.4,60.1468304121114,
1,26,0,26,0,,,,,,,,,,None,237.98986630002037,237.98986630002037,237.98986630002037,237.98986630002037,237.98986630002037,237.98986630002037,f,0.8151181996800005,238.84100219979882,238.84100219979882,238.84100219979882,238.84100219979882,238.84100219979882,238.84100219979882,239.13669120008126,239.13669120008126,241.09826919995248,241.09826919995248,241.09826919995248,241.09826919995248,241.09826919995248,241.09826919995248,241.09826919995248,241.09826919995248,241.09826919995248,241.09826919995248,241.09826919995248,241.09826919995248,241.09826919995248,241.09826919995248,241.09826919995248,241.09826919995248,241.09826919995248,243.60706449998543,243.60706449998543,243.60706449998543,243.60706449998543,243.60706449998543,20,39,36,52,39,57,3.0,1.36189220007509,244.98644329980016,246.682427899912,,,,,,,123,f,1,2022-12-12_10h30.00.408,RL,2022.2.4,60.1468304121114,
1,27,0,27,0,,,,,,,,,,None,246.682427899912,246.682427899912,246.682427899912,246.682427899912,246.682427899912,246.682427899912,r,0.8103288002312183,247.516313099768,247.516313099768,247.516313099768,247.516313099768,247.516313099768,247.516313099768,247.81302239978686,247.81302239978686,249.42509600007907,249.42509600007907,249.42509600007907,249.42509600007907,249.42509600007907,249.42509600007907,249.42509600007907,249.42509600007907,249.42509600007907,249.42509600007907,249.42509600007907,249.42509600007907,249.42509600007907,249.42509600007907,249.42509600007907,249.42509600007907,249.42509600007907,251.93445010017604,251.93445010017604,251.93445010017604,251.93445010017604,251.93445010017604,24,40,38,55,24,42,3.0,1.428364200051874,253.38047790015116,254.893221499864,,,,,,,123,f,1,2022-12-12_10h30.00.408,RL,2022.2.4,60.1468304121114,
1,28,0,28,0,,,,,,,,,,None,254.893221499864,254.893221499864,254.893221499864,254.893221499864,254.893221499864,254.893221499864,r,0.7910448000766337,255.7133539998904,255.7133539998904,255.7133539998904,255.7133539998904,255.7133539998904,255.7133539998904,256.00725399982184,256.00725399982184,257.35379409976304,257.35379409976304,257.3704496999271,257.3704496999271,257.3704496999271,257.3704496999271,257.3704496999271,257.3704496999271,257.3704496999271,257.3704496999271,257.3704496999271,257.3704496999271,257.3704496999271,257.3704496999271,257.3704496999271,257.3704496999271,257.3704496999271,259.87954240012914,259.87954240012914,259.87954240012914,259.87954240012914,259.87954240012914,21,35,36,65,21,50,2.0,1.593919100239873,261.4914987999946,263.054552000016,,,,,,,123,f,1,2022-12-12_10h30.00.408,RL,2022.2.4,60.1468304121114,
1,29,0,29,0,,,,,,,,,,None,263.054552000016,263.054552000016,263.054552000016,263.054552000016,263.054552000016,263.054552000016,r,0.9818501998670399,264.07006220007315,264.07006220007315,264.07006220007315,264.07006220007315,264.07006220007315,264.07006220007315,264.36827789992094,264.36827789992094,265.74769360013306,265.74769360013306,265.74769360013306,265.74769360013306,265.74769360013306,265.74769360013306,265.74769360013306,265.74769360013306,265.74769360013306,265.74769360013306,265.74769360013306,265.74769360013306,265.74769360013306,265.74769360013306,265.74769360013306,265.74769360013306,265.74769360013306,268.25644129980356,268.25644129980356,268.25644129980356,268.25644129980356,268.25644129980356,22,40,27,59,22,54,2.0,1.6780436001718044,269.9518764000386,271.6643509999849,,,,,,,123,f,1,2022-12-12_10h30.00.408,RL,2022.2.4,60.1468304121114,
1,30,0,30,0,,,,,,,,,,None,271.6643509999849,271.6643509999849,271.6643509999849,271.6643509999849,271.6643509999849,271.6643509999849,j,0.8789264000952244,272.5652657998726,272.5652657998726,272.5652657998726,272.5652657998726,272.5652657998726,272.5652657998726,272.8613896998577,272.8613896998577,274.09157649986446,274.09157649986446,274.1078908997588,274.1078908997588,274.1078908997588,274.1078908997588,274.1078908997588,274.1078908997588,274.1078908997588,274.1078908997588,274.1078908997588,274.1078908997588,274.1078908997588,274.1078908997588,274.1078908997588,274.1078908997588,274.1078908997588,276.6171822999604,276.6171822999604,276.6171822999604,276.6171822999604,276.6171822999604,21,44,23,63,63,52,3.0,2.4096495998091996,279.0437166998163,280.73946369998157,,,,,,,123,f,1,2022-12-12_10h30.00.408,RL,2022.2.4,60.1468304121114,
1,31,0,31,0,,,,,,,,,,None,280.73946369998157,280.73946369998157,280.73946369998157,280.73946369998157,280.73946369998157,280.73946369998157,i,0.9342445000074804,281.70612300001085,281.70612300001085,281.70612300001085,281.70612300001085,281.70612300001085,281.70612300001085,282.003125899937,282.003125899937,283.2163633001037,283.2163633001037,283.2163633001037,283.2163633001037,283.2163633001037,283.2163633001037,283.2163633001037,283.2163633001037,283.2163633001037,283.2163633001037,283.2163633001037,283.2163633001037,283.2163633001037,283.2163633001037,283.2163633001037,283.2163633001037,283.2163633001037,285.7254288000986,285.7254288000986,285.7254288000986,285.7254288000986,285.7254288000986,19,44,17,60,17,46,2.0,2.0764325000345707,287.819571999833,289.33298789989203,,,,,,,123,f,1,2022-12-12_10h30.00.408,RL,2022.2.4,60.1468304121114,
1,32,0,32,0,,,,,,,,,,None,289.33298789989203,289.33298789989203,289.33298789989203,289.33298789989203,289.33298789989203,289.33298789989203,i,1.2915701996535063,290.6486896998249,290.6486896998249,290.6486896998249,290.6486896998249,290.6486896998249,290.6486896998249,290.9458157001063,290.9458157001063,292.4579622000456,292.4579622000456,292.4579622000456,292.4579622000456,292.4579622000456,292.4579622000456,292.4579622000456,292.4579622000456,292.4579622000456,292.4579622000456,292.4579622000456,292.4579622000456,292.4579622000456,292.4579622000456,292.4579622000456,292.4579622000456,292.4579622000456,294.967219799757,294.967219799757,294.967219799757,294.967219799757,294.967219799757,13,47,17,58,17,41,2.0,1.096491599921137,296.08090789988637,297.6434196997434,,,,,,,123,f,1,2022-12-12_10h30.00.408,RL,2022.2.4,60.1468304121114,
1,33,0,33,0,,,,,,,,,,None,297.6434196997434,297.6434196997434,297.6434196997434,297.6434196997434,297.6434196997434,297.6434196997434,i,0.8096028999425471,298.47796340007335,298.47796340007335,298.47796340007335,298.47796340007335,298.47796340007335,298.47796340007335,298.77401329996064,298.77401329996064,299.63825580012053,299.63825580012053,299.654899999965,299.654899999965,299.654899999965,299.654899999965,299.654899999965,299.654899999965,299.654899999965,299.654899999965,299.654899999965,299.654899999965,299.654899999965,299.654899999965,299.654899999965,299.654899999965,299.654899999965,302.1641397997737,302.1641397997737,302.1641397997737,302.1641397997737,302.1641397997737,19,41,17,62,17,65,2.0,1.212256799917668,303.3936470998451,305.0899088997394,,,,,,,123,f,1,2022-12-12_10h30.00.408,RL,2022.2.4,60.1468304121114,
1,34,0,34,0,,,,,,,,,,None,305.0899088997394,305.0899088997394,305.0899088997394,305.0899088997394,305.0899088997394,305.0899088997394,i,0.6163294999860227,305.74127640016377,305.74127640016377,305.74127640016377,305.74127640016377,305.74127640016377,305.74127640016377,306.0378228998743,306.0378228998743,307.7168674999848,307.7168674999848,307.7168674999848,307.7168674999848,307.7168674999848,307.7168674999848,307.7168674999848,307.7168674999848,307.7168674999848,307.7168674999848,307.7168674999848,307.7168674999848,307.7168674999848,307.7168674999848,307.7168674999848,307.7168674999848,307.7168674999848,310.22528319992125,310.22528319992125,310.22528319992125,310.22528319992125,310.22528319992125,15,34,11,52,11,70,1.0,1.9111322001554072,312.1534095001407,313.93228140007704,,,,,,,123,f,1,2022-12-12_10h30.00.408,RL,2022.2.4,60.1468304121114,
1,35,0,35,0,,,,,,,,,,None,313.93228140007704,313.93228140007704,313.93228140007704,313.93228140007704,313.93228140007704,313.93228140007704,r,0.6760148997418582,314.63261339999735,314.63261339999735,314.63261339999735,314.63261339999735,314.63261339999735,314.63261339999735,314.930004700087,314.930004700087,316.4590785000473,316.4590785000473,316.4590785000473,316.4590785000473,316.4590785000473,316.4590785000473,316.4590785000473,316.4590785000473,316.4590785000473,316.4590785000473,316.4590785000473,316.4590785000473,316.4590785000473,316.4590785000473,316.4590785000473,316.4590785000473,316.4590785000473,318.9684043000452,318.9684043000452,318.9684043000452,318.9684043000452,318.9684043000452,17,41,17,58,17,61,1.0,0.7809676001779735,319.76602949993685,321.54482079995796,,,,,,,123,f,1,2022-12-12_10h30.00.408,RL,2022.2.4,60.1468304121114,
1,36,0,36,0,,,,,,,,,,None,321.54482079995796,321.54482079995796,321.54482079995796,321.54482079995796,321.54482079995796,321.54482079995796,r,0.47210479993373156,322.04652319988236,322.04652319988236,322.04652319988236,322.04652319988236,322.04652319988236,322.04652319988236,322.34312690002844,322.34312690002844,323.9883520998992,323.9883520998992,324.0050320997834,324.0050320997834,324.0050320997834,324.0050320997834,324.0050320997834,324.0050320997834,324.0050320997834,324.0050320997834,324.0050320997834,324.0050320997834,324.0050320997834,324.0050320997834,324.0050320997834,324.0050320997834,324.0050320997834,326.5142843998037,326.5142843998037,326.5142843998037,326.5142843998037,326.5142843998037,25,41,18,55,25,61,2.0,1.5115772001445293,328.04352639988065,329.6394603000954,,,,,,,123,f,1,2022-12-12_10h30.00.408,RL,2022.2.4,60.1468304121114,
1,37,0,37,0,,,,,,,,,,None,329.6394603000954,329.6394603000954,329.6394603000954,329.6394603000954,329.6394603000954,329.6394603000954,r,0.7411527000367641,330.4107474000193,330.4107474000193,330.4107474000193,330.4107474000193,330.4107474000193,330.4107474000193,330.70394010003656,330.70394010003656,331.88366999989375,331.88366999989375,331.88366999989375,331.88366999989375,331.88366999989375,331.88366999989375,331.88366999989375,331.88366999989375,331.88366999989375,331.88366999989375,331.88366999989375,331.88366999989375,331.88366999989375,331.88366999989375,331.88366999989375,331.88366999989375,331.88366999989375,334.39306839974597,334.39306839974597,334.39306839974597,334.39306839974597,334.39306839974597,20,53,23,54,20,64,2.0,1.1627078000456095,335.57276839995757,337.1693325000815,,,,,,,123,f,1,2022-12-12_10h30.00.408,RL,2022.2.4,60.1468304121114,
1,38,0,38,0,,,,,,,,,,None,337.1693325000815,337.1693325000815,337.1693325000815,337.1693325000815,337.1693325000815,337.1693325000815,r,0.9881827002391219,338.1848812000826,338.1848812000826,338.1848812000826,338.1848812000826,338.1848812000826,338.1848812000826,338.48257210012525,338.48257210012525,340.0948727000505,340.0948727000505,340.0948727000505,340.0948727000505,340.0948727000505,340.0948727000505,340.0948727000505,340.0948727000505,340.0948727000505,340.0948727000505,340.0948727000505,340.0948727000505,340.0948727000505,340.0948727000505,340.0948727000505,340.0948727000505,340.0948727000505,342.603745999746,342.603745999746,342.603745999746,342.603745999746,342.603745999746,27,47,11,49,27,65,2.0,1.0790873002260923,343.7011158000678,345.26387859974056,,,,,,,123,f,1,2022-12-12_10h30.00.408,RL,2022.2.4,60.1468304121114,
1,39,0,39,0,,,,,,,,,,None,345.26387859974056,345.26387859974056,345.26387859974056,345.26387859974056,345.26387859974056,345.26387859974056,r,0.7206911002285779,346.01373180001974,346.01373180001974,346.01373180001974,346.01373180001974,346.01373180001974,346.01373180001974,346.3112550997175,346.3112550997175,347.8568473998457,347.8568473998457,347.8568473998457,347.8568473998457,347.8568473998457,347.8568473998457,347.8568473998457,347.8568473998457,347.8568473998457,347.8568473998457,347.8568473998457,347.8568473998457,347.8568473998457,347.8568473998457,347.8568473998457,347.8568473998457,347.8568473998457,350.36573459999636,350.36573459999636,350.36573459999636,350.36573459999636,350.36573459999636,18,55,15,60,18,77,1.0,1.8274245001375675,352.2108952999115,354.1060823998414,,,,,,,123,f,1,2022-12-12_10h30.00.408,RL,2022.2.4,60.1468304121114,
1,40,0,40,0,,,,,,,,,,None,354.1060823998414,354.1060823998414,354.1060823998414,354.1060823998414,354.1060823998414,354.1060823998414,f,0.6295014000497758,354.7572905998677,354.7572905998677,354.7572905998677,354.7572905998677,354.7572905998677,354.7572905998677,355.0541345998645,355.0541345998645,356.317045699805,356.317045699805,356.317045699805,356.317045699805,356.317045699805,356.317045699805,356.317045699805,356.317045699805,356.317045699805,356.317045699805,356.317045699805,356.317045699805,356.317045699805,356.317045699805,356.317045699805,356.317045699805,356.317045699805,358.8261135001667,358.8261135001667,358.8261135001667,358.8261135001667,358.8261135001667,29,51,16,59,51,45,1.0,0.9635195001028478,359.8069253000431,361.4360903999768,,,,,,,123,f,1,2022-12-12_10h30.00.408,RL,2022.2.4,60.1468304121114,
1,41,0,41,0,,,,,,,,,,None,361.4360903999768,361.4360903999768,361.4360903999768,361.4360903999768,361.4360903999768,361.4360903999768,f,0.7576294001191854,362.21930720005184,362.21930720005184,362.21930720005184,362.21930720005184,362.21930720005184,362.21930720005184,362.51675779977813,362.51675779977813,364.22894509974867,364.22894509974867,364.22894509974867,364.22894509974867,364.22894509974867,364.22894509974867,364.22894509974867,364.22894509974867,364.22894509974867,364.22894509974867,364.22894509974867,364.22894509974867,364.22894509974867,364.22894509974867,364.22894509974867,364.22894509974867,364.22894509974867,366.7377455998212,366.7377455998212,366.7377455998212,366.7377455998212,366.7377455998212,33,60,19,60,60,76,1.0,1.2449103998951614,368.00105160009116,369.87999239983037,,,,,,,123,f,1,2022-12-12_10h30.00.408,RL,2022.2.4,60.1468304121114,
1,42,0,42,0,,,,,,,,,,None,369.87999239983037,369.87999239983037,369.87999239983037,369.87999239983037,369.87999239983037,369.87999239983037,f,0.5513403001241386,370.4634296000004,370.4634296000004,370.4634296000004,370.4634296000004,370.4634296000004,370.4634296000004,370.76096760015935,370.76096760015935,372.5226658000611,372.5226658000611,372.5226658000611,372.5226658000611,372.5226658000611,372.5226658000611,372.5226658000611,372.5226658000611,372.5226658000611,372.5226658000611,372.5226658000611,372.5226658000611,372.5226658000611,372.5226658000611,372.5226658000611,372.5226658000611,372.5226658000611,375.0317571000196,375.0317571000196,375.0317571000196,375.0317571000196,375.0317571000196,24,54,28,48,54,67,1.0,1.295050600077957,376.3450740999542,378.2573573999107,,,,,,,123,f,1,2022-12-12_10h30.00.408,RL,2022.2.4,60.1468304121114,
1,43,0,43,0,,,,,,,,,,None,378.2573573999107,378.2573573999107,378.2573573999107,378.2573573999107,378.2573573999107,378.2573573999107,f,0.8414721000008285,379.12392830010504,379.12392830010504,379.12392830010504,379.12392830010504,379.12392830010504,379.12392830010504,379.4210223997943,379.4210223997943,381.182641599793,381.182641599793,381.182641599793,381.182641599793,381.182641599793,381.182641599793,381.182641599793,381.182641599793,381.182641599793,381.182641599793,381.182641599793,381.182641599793,381.182641599793,381.182641599793,381.182641599793,381.182641599793,381.182641599793,383.69177399994805,383.69177399994805,383.69177399994805,383.69177399994805,383.69177399994805,25,62,35,57,62,62,1.0,1.2795100999064744,384.98819450009614,386.96645940002054,,,,,,,123,f,1,2022-12-12_10h30.00.408,RL,2022.2.4,60.1468304121114,
1,44,0,44,0,,,,,,,,,,None,386.96645940002054,386.96645940002054,386.96645940002054,386.96645940002054,386.96645940002054,386.96645940002054,f,0.8385407999157906,387.8339617997408,387.8339617997408,387.8339617997408,387.8339617997408,387.8339617997408,387.8339617997408,388.130553400144,388.130553400144,389.0774562000297,389.0774562000297,389.0774562000297,389.0774562000297,389.0774562000297,389.0774562000297,389.0774562000297,389.0774562000297,389.0774562000297,389.0774562000297,389.0774562000297,389.0774562000297,389.0774562000297,389.0774562000297,389.0774562000297,389.0774562000297,389.0774562000297,391.58678109990433,391.58678109990433,391.58678109990433,391.58678109990433,391.58678109990433,29,59,29,51,59,51,1.0,1.0291042001917958,392.6340588997118,394.163319000043,,,,,,,123,f,1,2022-12-12_10h30.00.408,RL,2022.2.4,60.1468304121114,
1,45,0,45,0,,,,,,,,,,None,394.163319000043,394.163319000043,394.163319000043,394.163319000043,394.163319000043,394.163319000043,f,0.830753699876368,395.011760099791,395.011760099791,395.011760099791,395.011760099791,395.011760099791,395.011760099791,395.3108445000835,395.3108445000835,396.30812159972265,396.30812159972265,396.30812159972265,396.30812159972265,396.30812159972265,396.30812159972265,396.30812159972265,396.30812159972265,396.30812159972265,396.30812159972265,396.30812159972265,396.30812159972265,396.30812159972265,396.30812159972265,396.30812159972265,396.30812159972265,396.30812159972265,398.8173177000135,398.8173177000135,398.8173177000135,398.8173177000135,398.8173177000135,15,54,29,53,54,84,1.0,1.5437847999855876,400.37957869982347,402.0922086001374,,,,,,,123,f,1,2022-12-12_10h30.00.408,RL,2022.2.4,60.1468304121114,
1,46,0,46,0,,,,,,,,,,None,402.0922086001374,402.0922086001374,402.0922086001374,402.0922086001374,402.0922086001374,402.0922086001374,i,0.720367499627173,402.841982900165,402.841982900165,402.841982900165,402.841982900165,402.841982900165,402.841982900165,403.13980019977316,403.13980019977316,404.51899350015447,404.51899350015447,404.53570879995823,404.53570879995823,404.53570879995823,404.53570879995823,404.53570879995823,404.53570879995823,404.53570879995823,404.53570879995823,404.53570879995823,404.53570879995823,404.53570879995823,404.53570879995823,404.53570879995823,404.53570879995823,404.53570879995823,407.0444311001338,407.0444311001338,407.0444311001338,407.0444311001338,407.0444311001338,31,58,45,58,45,77,1.0,1.5278913998045027,408.5904557998292,410.26977590005845,,,,,,,123,f,1,2022-12-12_10h30.00.408,RL,2022.2.4,60.1468304121114,
1,47,0,47,0,,,,,,,,,,None,410.26977590005845,410.26977590005845,410.26977590005845,410.26977590005845,410.26977590005845,410.26977590005845,i,1.0404583001509309,411.3349782000296,411.3349782000296,411.3349782000296,411.3349782000296,411.3349782000296,411.3349782000296,411.6327280001715,411.6327280001715,413.3946732999757,413.3946732999757,413.3946732999757,413.3946732999757,413.3946732999757,413.3946732999757,413.3946732999757,413.3946732999757,413.3946732999757,413.3946732999757,413.3946732999757,413.3946732999757,413.3946732999757,413.3946732999757,413.3946732999757,413.3946732999757,413.3946732999757,415.9037914997898,415.9037914997898,415.9037914997898,415.9037914997898,415.9037914997898,31,59,29,54,29,62,1.0,1.2953729000873864,417.21691760001704,419.07883629994467,,,,,,,123,f,1,2022-12-12_10h30.00.408,RL,2022.2.4,60.1468304121114,
1,48,0,48,0,,,,,,,,,,None,419.07883629994467,419.07883629994467,419.07883629994467,419.07883629994467,419.07883629994467,419.07883629994467,j,0.46406680019572377,419.5660064998083,419.5660064998083,419.5660064998083,419.5660064998083,419.5660064998083,419.5660064998083,419.86082139983773,419.86082139983773,421.3233099998906,421.3233099998906,421.3233099998906,421.3233099998906,421.3233099998906,421.3233099998906,421.3233099998906,421.3233099998906,421.3233099998906,421.3233099998906,421.3233099998906,421.3233099998906,421.3233099998906,421.3233099998906,421.3233099998906,421.3233099998906,421.3233099998906,423.8321349998005,423.8321349998005,423.8321349998005,423.8321349998005,423.8321349998005,26,64,39,62,62,67,1.0,1.2629136997275054,425.1118223001249,426.6420424999669,,,,,,,123,f,1,2022-12-12_10h30.00.408,RL,2022.2.4,60.1468304121114,
1,49,0,49,0,,,,,,,,,,None,426.6420424999669,426.6420424999669,426.6420424999669,426.6420424999669,426.6420424999669,426.6420424999669,j,0.7984993997961283,427.47316109994426,427.47316109994426,427.47316109994426,427.47316109994426,427.47316109994426,427.47316109994426,427.77254500007257,427.77254500007257,429.31783429998904,429.31783429998904,429.31783429998904,429.31783429998904,429.31783429998904,429.31783429998904,429.31783429998904,429.31783429998904,429.31783429998904,429.31783429998904,429.31783429998904,429.31783429998904,429.31783429998904,429.31783429998904,429.31783429998904,429.31783429998904,429.31783429998904,431.82689479971305,431.82689479971305,431.82689479971305,431.82689479971305,431.82689479971305,34,71,41,55,55,65,1.0,1.3633212000131607,433.2065866999328,434.9023191998713,,,,,,,123,f,1,2022-12-12_10h30.00.408,RL,2022.2.4,60.1468304121114,
1,50,0,50,0,,,,,,,,,,None,434.9023191998713,434.9023191998713,434.9023191998713,434.9023191998713,434.9023191998713,434.9023191998713,j,0.840932599734515,435.7692793998867,435.7692793998867,435.7692793998867,435.7692793998867,435.7692793998867,435.7692793998867,436.0663171997294,436.0663171997294,437.8446221998893,437.8446221998893,437.8446221998893,437.8446221998893,437.8446221998893,437.8446221998893,437.8446221998893,437.8446221998893,437.8446221998893,437.8446221998893,437.8446221998893,437.8446221998893,437.8446221998893,437.8446221998893,437.8446221998893,437.8446221998893,437.8446221998893,440.35403489973396,440.35403489973396,440.35403489973396,440.35403489973396,440.35403489973396,29,68,28,57,57,62,1.0,1.1958623002283275,441.5673282998614,443.3959995000623,,,,,,,123,f,1,2022-12-12_10h30.00.408,RL,2022.2.4,60.1468304121114,
1,51,0,51,0,,,,,,,,,,None,443.3959995000623,443.3959995000623,443.3959995000623,443.3959995000623,443.3959995000623,443.3959995000623,j,0.8506936999037862,444.27974590007216,444.27974590007216,444.27974590007216,444.27974590007216,444.27974590007216,444.27974590007216,444.5762129998766,444.5762129998766,445.75631950004026,445.75631950004026,445.75631950004026,445.75631950004026,445.75631950004026,445.75631950004026,445.75631950004026,445.75631950004026,445.75631950004026,445.75631950004026,445.75631950004026,445.75631950004026,445.75631950004026,445.75631950004026,445.75631950004026,445.75631950004026,445.75631950004026,448.2655116999522,448.2655116999522,448.2655116999522,448.2655116999522,448.2655116999522,34,67,25,57,57,67,1.0,1.3282920001074672,449.6116014998406,451.5404149000533,,,,,,,123,f,1,2022-12-12_10h30.00.408,RL,2022.2.4,60.1468304121114,
1,52,0,52,0,,,,,,,,,,None,451.5404149000533,451.5404149000533,451.5404149000533,451.5404149000533,451.5404149000533,451.5404149000533,f,0.4493573000654578,452.0252021001652,452.0252021001652,452.0252021001652,452.0252021001652,452.0252021001652,452.0252021001652,452.3223930997774,452.3223930997774,453.45239220000803,453.45239220000803,453.45239220000803,453.45239220000803,453.45239220000803,453.45239220000803,453.45239220000803,453.45239220000803,453.45239220000803,453.45239220000803,453.45239220000803,453.45239220000803,453.45239220000803,453.45239220000803,453.45239220000803,453.45239220000803,453.45239220000803,455.96100619994104,455.96100619994104,455.96100619994104,455.96100619994104,455.96100619994104,36,60,28,58,60,66,2.0,2.043335299938917,458.02226429991424,459.86795109976083,,,,,,,123,f,1,2022-12-12_10h30.00.408,RL,2022.2.4,60.1468304121114,
1,53,0,53,0,,,,,,,,,,None,459.86795109976083,459.86795109976083,459.86795109976083,459.86795109976083,459.86795109976083,459.86795109976083,f,0.6042486000806093,460.5008888999,460.5008888999,460.5008888999,460.5008888999,460.5008888999,460.5008888999,460.798981399741,460.798981399741,461.94581399997696,461.94581399997696,461.94581399997696,461.94581399997696,461.94581399997696,461.94581399997696,461.94581399997696,461.94581399997696,461.94581399997696,461.94581399997696,461.94581399997696,461.94581399997696,461.94581399997696,461.94581399997696,461.94581399997696,461.94581399997696,461.94581399997696,464.454879200086,464.454879200086,464.454879200086,464.454879200086,464.454879200086,39,72,29,59,72,66,2.0,1.6114631001837552,466.0835663001053,467.68001100001857,,,,,,,123,f,1,2022-12-12_10h30.00.408,RL,2022.2.4,60.1468304121114,
1,54,0,54,0,,,,,,,,,,None,467.68001100001857,467.68001100001857,467.68001100001857,467.68001100001857,467.68001100001857,467.68001100001857,f,0.7854400002397597,468.49642790015787,468.49642790015787,468.49642790015787,468.49642790015787,468.49642790015787,468.49642790015787,468.79368889983743,468.79368889983743,469.6081596999429,469.6081596999429,469.6081596999429,469.6081596999429,469.6081596999429,469.6081596999429,469.6081596999429,469.6081596999429,469.6081596999429,469.6081596999429,469.6081596999429,469.6081596999429,469.6081596999429,469.6081596999429,469.6081596999429,469.6081596999429,469.6081596999429,472.1173752998002,472.1173752998002,472.1173752998002,472.1173752998002,472.1173752998002,37,73,31,63,73,63,2.0,1.5778164002113044,473.7131122001447,475.3091502999887,,,,,,,123,f,1,2022-12-12_10h30.00.408,RL,2022.2.4,60.1468304121114,
1,55,0,55,0,,,,,,,,,,None,475.3091502999887,475.3091502999887,475.3091502999887,475.3091502999887,475.3091502999887,475.3091502999887,f,0.8182540000416338,476.158606399782,476.158606399782,476.158606399782,476.158606399782,476.158606399782,476.158606399782,476.45620749983937,476.45620749983937,477.58630369976163,477.58630369976163,477.58630369976163,477.58630369976163,477.58630369976163,477.58630369976163,477.58630369976163,477.58630369976163,477.58630369976163,477.58630369976163,477.58630369976163,477.58630369976163,477.58630369976163,477.58630369976163,477.58630369976163,477.58630369976163,477.58630369976163,480.0957198999822,480.0957198999822,480.0957198999822,480.0957198999822,480.0957198999822,41,72,26,53,72,59,2.0,1.4612242002040148,481.5744905001484,483.33684600004926,,,,,,,123,f,1,2022-12-12_10h30.00.408,RL,2022.2.4,60.1468304121114,
1,56,0,56,0,,,,,,,,,,None,483.33684600004926,483.33684600004926,483.33684600004926,483.33684600004926,483.33684600004926,483.33684600004926,f,0.6102231997065246,483.9707331000827,483.9707331000827,483.9707331000827,483.9707331000827,483.9707331000827,483.9707331000827,484.26819289987907,484.26819289987907,485.265038699843,485.265038699843,485.265038699843,485.265038699843,485.265038699843,485.265038699843,485.265038699843,485.265038699843,485.265038699843,485.265038699843,485.265038699843,485.265038699843,485.265038699843,485.265038699843,485.265038699843,485.265038699843,485.265038699843,487.77429720014334,487.77429720014334,487.77429720014334,487.77429720014334,487.77429720014334,38,80,32,62,80,64,3.0,2.043511100113392,489.8354132999666,491.7471567001194,,,,,,,123,f,1,2022-12-12_10h30.00.408,RL,2022.2.4,60.1468304121114,
1,57,0,57,0,,,,,,,,,,None,491.7471567001194,491.7471567001194,491.7471567001194,491.7471567001194,491.7471567001194,491.7471567001194,f,0.18303179973736405,491.96813819976524,491.96813819976524,491.96813819976524,491.96813819976524,491.96813819976524,491.96813819976524,492.2631251998246,492.2631251998246,493.49256000015885,493.49256000015885,493.49256000015885,493.49256000015885,493.49256000015885,493.49256000015885,493.49256000015885,493.49256000015885,493.49256000015885,493.49256000015885,493.49256000015885,493.49256000015885,493.49256000015885,493.49256000015885,493.49256000015885,493.49256000015885,493.49256000015885,496.0018921997398,496.0018921997398,496.0018921997398,496.0018921997398,496.0018921997398,43,76,19,66,76,56,3.0,1.4786503999494016,497.4979420998134,499.4599242997356,,,,,,,123,f,1,2022-12-12_10h30.00.408,RL,2022.2.4,60.1468304121114,
1,58,0,58,0,,,,,,,,,,None,499.4599242997356,499.4599242997356,499.4599242997356,499.4599242997356,499.4599242997356,499.4599242997356,f,0.5479947999119759,500.0458140000701,500.0458140000701,500.0458140000701,500.0458140000701,500.0458140000701,500.0458140000701,500.3410288998857,500.3410288998857,501.4047158998437,501.4047158998437,501.4213625998236,501.4213625998236,501.4213625998236,501.4213625998236,501.4213625998236,501.4213625998236,501.4213625998236,501.4213625998236,501.4213625998236,501.4213625998236,501.4213625998236,501.4213625998236,501.4213625998236,501.4213625998236,501.4213625998236,503.9304490997456,503.9304490997456,503.9304490997456,503.9304490997456,503.9304490997456,57,71,17,67,71,58,3.0,1.295753600075841,505.2435645000078,507.17226989986375,,,,,,,123,f,1,2022-12-12_10h30.00.408,RL,2022.2.4,60.1468304121114,
1,59,0,59,0,,,,,,,,,,None,507.17226989986375,507.17226989986375,507.17226989986375,507.17226989986375,507.17226989986375,507.17226989986375,f,0.5695927999913692,507.77204839978367,507.77204839978367,507.77204839978367,507.77204839978367,507.77204839978367,507.77204839978367,508.07010360015556,508.07010360015556,509.8649626998231,509.8649626998231,509.8649626998231,509.8649626998231,509.8649626998231,509.8649626998231,509.8649626998231,509.8649626998231,509.8649626998231,509.8649626998231,509.8649626998231,509.8649626998231,509.8649626998231,509.8649626998231,509.8649626998231,509.8649626998231,509.8649626998231,512.3738660998642,512.3738660998642,512.3738660998642,512.3738660998642,512.3738660998642,51,71,20,59,71,52,3.0,1.5609900997951627,513.9531904999167,515.8482427997515,,,,,,,123,f,1,2022-12-12_10h30.00.408,RL,2022.2.4,60.1468304121114,
1,60,0,60,0,,,,,,,,,,None,515.8482427997515,515.8482427997515,515.8482427997515,515.8482427997515,515.8482427997515,515.8482427997515,f,0.5849132998846471,516.4655931000598,516.4655931000598,516.4655931000598,516.4655931000598,516.4655931000598,516.4655931000598,516.7626129998825,516.7626129998825,518.0757089001127,518.0757089001127,518.0757089001127,518.0757089001127,518.0757089001127,518.0757089001127,518.0757089001127,518.0757089001127,518.0757089001127,518.0757089001127,518.0757089001127,518.0757089001127,518.0757089001127,518.0757089001127,518.0757089001127,518.0757089001127,518.0757089001127,520.5850677997805,520.5850677997805,520.5850677997805,520.5850677997805,520.5850677997805,41,74,31,54,74,67,3.0,1.4942538999021053,522.0970906000584,523.8931927001104,,,,,,,123,f,1,2022-12-12_10h30.00.408,RL,2022.2.4,60.1468304121114,
1,61,0,61,0,,,,,,,,,,None,523.8931927001104,523.8931927001104,523.8931927001104,523.8931927001104,523.8931927001104,523.8931927001104,f,0.5636287997476757,524.4768909001723,524.4768909001723,524.4768909001723,524.4768909001723,524.4768909001723,524.4768909001723,524.7743530999869,524.7743530999869,525.6884594997391,525.6884594997391,525.6884594997391,525.6884594997391,525.6884594997391,525.6884594997391,525.6884594997391,525.6884594997391,525.6884594997391,525.6884594997391,525.6884594997391,525.6884594997391,525.6884594997391,525.6884594997391,525.6884594997391,525.6884594997391,525.6884594997391,528.1976360999979,528.1976360999979,528.1976360999979,528.1976360999979,528.1976360999979,40,85,26,61,85,66,3.0,1.4114475999958813,529.6266772998497,531.5221445998177,,,,,,,123,f,1,2022-12-12_10h30.00.408,RL,2022.2.4,60.1468304121114,
1,62,0,62,0,,,,,,,,,,None,531.5221445998177,531.5221445998177,531.5221445998177,531.5221445998177,531.5221445998177,531.5221445998177,f,0.5583327002823353,532.1060131001286,532.1060131001286,532.1060131001286,532.1060131001286,532.1060131001286,532.1060131001286,532.4031973001547,532.4031973001547,533.7498455001041,533.7498455001041,533.7498455001041,533.7498455001041,533.7498455001041,533.7498455001041,533.7498455001041,533.7498455001041,533.7498455001041,533.7498455001041,533.7498455001041,533.7498455001041,533.7498455001041,533.7498455001041,533.7498455001041,533.7498455001041,533.7498455001041,536.2592015000992,536.2592015000992,536.2592015000992,536.2592015000992,536.2592015000992,46,72,33,55,72,57,3.0,1.3621147000230849,537.638125100173,539.4340935000218,,,,,,,123,f,1,2022-12-12_10h30.00.408,RL,2022.2.4,60.1468304121114,
1,63,0,63,0,,,,,,,,,,None,539.4340935000218,539.4340935000218,539.4340935000218,539.4340935000218,539.4340935000218,539.4340935000218,f,0.40882569970563054,539.8710477999412,539.8710477999412,539.8710477999412,539.8710477999412,539.8710477999412,539.8710477999412,540.1656065997668,540.1656065997668,541.910859500058,541.910859500058,541.910859500058,541.910859500058,541.910859500058,541.910859500058,541.910859500058,541.910859500058,541.910859500058,541.910859500058,541.910859500058,541.910859500058,541.910859500058,541.910859500058,541.910859500058,541.910859500058,541.910859500058,544.4196910997853,544.4196910997853,544.4196910997853,544.4196910997853,544.4196910997853,48,70,27,66,70,31,3.0,1.2950989003293216,545.7331028999761,547.5618799999356,,,,,,,123,f,1,2022-12-12_10h30.00.408,RL,2022.2.4,60.1468304121114,
1,64,0,64,0,,,,,,,,,,None,547.5618799999356,547.5618799999356,547.5618799999356,547.5618799999356,547.5618799999356,547.5618799999356,f,0.538900800049305,548.129595299717,548.129595299717,548.129595299717,548.129595299717,548.129595299717,548.129595299717,548.4261774998158,548.4261774998158,549.77247599978,549.77247599978,549.77247599978,549.77247599978,549.77247599978,549.77247599978,549.77247599978,549.77247599978,549.77247599978,549.77247599978,549.77247599978,549.77247599978,549.77247599978,549.77247599978,549.77247599978,549.77247599978,549.77247599978,552.2817090000026,552.2817090000026,552.2817090000026,552.2817090000026,552.2817090000026,48,73,18,60,73,54,3.0,1.1795304999686778,553.4785909997299,555.2409576000646,,,,,,,123,f,1,2022-12-12_10h30.00.408,RL,2022.2.4,60.1468304121114,
1,65,0,65,0,,,,,,,,,,None,555.2409576000646,555.2409576000646,555.2409576000646,555.2409576000646,555.2409576000646,555.2409576000646,f,0.6665330999530852,555.941168199759,555.941168199759,555.941168199759,555.941168199759,555.941168199759,555.941168199759,556.238477199804,556.238477199804,557.7177552999929,557.7177552999929,557.7343192999251,557.7343192999251,557.7343192999251,557.7343192999251,557.7343192999251,557.7343192999251,557.7343192999251,557.7343192999251,557.7343192999251,557.7343192999251,557.7343192999251,557.7343192999251,557.7343192999251,557.7343192999251,557.7343192999251,560.2437259000726,560.2437259000726,560.2437259000726,560.2437259000726,560.2437259000726,54,68,30,71,68,49,3.0,1.462508499622345,561.7225701999851,563.5347587000579,,,,,,,123,f,1,2022-12-12_10h30.00.408,RL,2022.2.4,60.1468304121114,
1,66,0,66,0,,,,,,,,,,None,563.5347587000579,563.5347587000579,563.5347587000579,563.5347587000579,563.5347587000579,563.5347587000579,f,0.5317640001885593,564.1019751001149,564.1019751001149,564.1019751001149,564.1019751001149,564.1019751001149,564.1019751001149,564.3998014000244,564.3998014000244,565.2804652000777,565.2804652000777,565.2967769997194,565.2967769997194,565.2967769997194,565.2967769997194,565.2967769997194,565.2967769997194,565.2967769997194,565.2967769997194,565.2967769997194,565.2967769997194,565.2967769997194,565.2967769997194,565.2967769997194,565.2967769997194,565.2967769997194,567.8058885000646,567.8058885000646,567.8058885000646,567.8058885000646,567.8058885000646,46,73,28,66,73,50,3.0,1.7104550004005432,569.53472399991,571.047628399916,,,,,,,123,f,1,2022-12-12_10h30.00.408,RL,2022.2.4,60.1468304121114,
1,67,0,67,0,,,,,,,,,,None,571.047628399916,571.047628399916,571.047628399916,571.047628399916,571.047628399916,571.047628399916,f,0.6817256999202073,571.7475653998554,571.7475653998554,571.7475653998554,571.7475653998554,571.7475653998554,571.7475653998554,572.045340300072,572.045340300072,573.4748488999903,573.4748488999903,573.4748488999903,573.4748488999903,573.4748488999903,573.4748488999903,573.4748488999903,573.4748488999903,573.4748488999903,573.4748488999903,573.4748488999903,573.4748488999903,573.4748488999903,573.4748488999903,573.4748488999903,573.4748488999903,573.4748488999903,575.9836836000904,575.9836836000904,575.9836836000904,575.9836836000904,575.9836836000904,52,74,26,72,74,45,3.0,1.3292494001798332,577.3301408998668,579.0594684998505,,,,,,,123,f,1,2022-12-12_10h30.00.408,RL,2022.2.4,60.1468304121114,
1,68,0,68,0,,,,,,,,,,None,579.0594684998505,579.0594684998505,579.0594684998505,579.0594684998505,579.0594684998505,579.0594684998505,f,0.7176156998611987,579.8129337998107,579.8129337998107,579.8129337998107,579.8129337998107,579.8129337998107,579.8129337998107,580.1063987999223,580.1063987999223,581.934714899864,581.934714899864,581.9519662000239,581.9519662000239,581.9519662000239,581.9519662000239,581.9519662000239,581.9519662000239,581.9519662000239,581.9519662000239,581.9519662000239,581.9519662000239,581.9519662000239,581.9519662000239,581.9519662000239,581.9519662000239,581.9519662000239,584.4609910999425,584.4609910999425,584.4609910999425,584.4609910999425,584.4609910999425,48,69,33,72,69,59,3.0,1.3784567001275718,585.8567463997751,587.8519472000189,,,,,,,123,f,1,2022-12-12_10h30.00.408,RL,2022.2.4,60.1468304121114,
1,69,0,69,0,,,,,,,,,,None,587.8519472000189,587.8519472000189,587.8519472000189,587.8519472000189,587.8519472000189,587.8519472000189,f,0.7366434000432491,588.6191206998192,588.6191206998192,588.6191206998192,588.6191206998192,588.6191206998192,588.6191206998192,588.9158320999704,588.9158320999704,590.3624309999868,590.3624309999868,590.3624309999868,590.3624309999868,590.3624309999868,590.3624309999868,590.3624309999868,590.3624309999868,590.3624309999868,590.3624309999868,590.3624309999868,590.3624309999868,590.3624309999868,590.3624309999868,590.3624309999868,590.3624309999868,590.3624309999868,592.871150800027,592.871150800027,592.871150800027,592.871150800027,592.871150800027,56,77,28,72,77,62,3.0,1.5780869000591338,594.4666292001493,596.2958367001265,,,,,,,123,f,1,2022-12-12_10h30.00.408,RL,2022.2.4,60.1468304121114,
1,70,0,70,0,,,,,,,,,,None,596.2958367001265,596.2958367001265,596.2958367001265,596.2958367001265,596.2958367001265,596.2958367001265,f,0.44122029980644584,596.7634958000854,596.7634958000854,596.7634958000854,596.7634958000854,596.7634958000854,596.7634958000854,597.0601915000007,597.0601915000007,598.5063523999415,598.5063523999415,598.5063523999415,598.5063523999415,598.5063523999415,598.5063523999415,598.5063523999415,598.5063523999415,598.5063523999415,598.5063523999415,598.5063523999415,598.5063523999415,598.5063523999415,598.5063523999415,598.5063523999415,598.5063523999415,598.5063523999415,601.0153020997532,601.0153020997532,601.0153020997532,601.0153020997532,601.0153020997532,56,89,28,71,89,47,4.0,1.6775294998660684,602.711215000134,604.5898359999992,,,,,,,123,f,1,2022-12-12_10h30.00.408,RL,2022.2.4,60.1468304121114,
1,71,0,71,0,,,,,,,,,,None,604.5898359999992,604.5898359999992,604.5898359999992,604.5898359999992,604.5898359999992,604.5898359999992,f,0.6243022000417113,605.2399913999252,605.2399913999252,605.2399913999252,605.2399913999252,605.2399913999252,605.2399913999252,605.5372803001665,605.5372803001665,607.0499093998224,607.0499093998224,607.0664293998852,607.0664293998852,607.0664293998852,607.0664293998852,607.0664293998852,607.0664293998852,607.0664293998852,607.0664293998852,607.0664293998852,607.0664293998852,607.0664293998852,607.0664293998852,607.0664293998852,607.0664293998852,607.0664293998852,609.5757569000125,609.5757569000125,609.5757569000125,609.5757569000125,609.5757569000125,53,79,23,66,79,58,4.0,1.3950713002122939,610.9883698998019,612.5012203999795,,,,,,,123,f,1,2022-12-12_10h30.00.408,RL,2022.2.4,60.1468304121114,
1,72,0,72,0,,,,,,,,,,None,612.5012203999795,612.5012203999795,612.5012203999795,612.5012203999795,612.5012203999795,612.5012203999795,f,0.6913389996625483,613.2171120997518,613.2171120997518,613.2171120997518,613.2171120997518,613.2171120997518,613.2171120997518,613.5153906000778,613.5153906000778,614.5457954998128,614.5457954998128,614.5457954998128,614.5457954998128,614.5457954998128,614.5457954998128,614.5457954998128,614.5457954998128,614.5457954998128,614.5457954998128,614.5457954998128,614.5457954998128,614.5457954998128,614.5457954998128,614.5457954998128,614.5457954998128,614.5457954998128,617.0551987998188,617.0551987998188,617.0551987998188,617.0551987998188,617.0551987998188,45,85,34,58,85,65,4.0,1.5622117002494633,618.6338943000883,620.4627384999767,,,,,,,123,f,1,2022-12-12_10h30.00.408,RL,2022.2.4,60.1468304121114,
1,73,0,73,0,,,,,,,,,,None,620.4627384999767,620.4627384999767,620.4627384999767,620.4627384999767,620.4627384999767,620.4627384999767,f,0.668210499919951,621.1633868999779,621.1633868999779,621.1633868999779,621.1633868999779,621.1633868999779,621.1633868999779,621.4603678998537,621.4603678998537,623.2887758999132,623.2887758999132,623.305646199733,623.305646199733,623.305646199733,623.305646199733,623.305646199733,623.305646199733,623.305646199733,623.305646199733,623.305646199733,623.305646199733,623.305646199733,623.305646199733,623.305646199733,623.305646199733,623.305646199733,625.8144173999317,625.8144173999317,625.8144173999317,625.8144173999317,625.8144173999317,35,94,26,71,94,63,4.0,0.6805405002087355,626.5127543001436,628.0419847001322,,,,,,,123,f,1,2022-12-12_10h30.00.408,RL,2022.2.4,60.1468304121114,
1,74,0,74,0,,,,,,,,,,None,628.0419847001322,628.0419847001322,628.0419847001322,628.0419847001322,628.0419847001322,628.0419847001322,f,0.31915990030393004,628.393489500042,628.393489500042,628.393489500042,628.393489500042,628.393489500042,628.393489500042,628.6910246000625,628.6910246000625,630.3358574998565,630.3358574998565,630.3358574998565,630.3358574998565,630.3358574998565,630.3358574998565,630.3358574998565,630.3358574998565,630.3358574998565,630.3358574998565,630.3358574998565,630.3358574998565,630.3358574998565,630.3358574998565,630.3358574998565,630.3358574998565,630.3358574998565,632.8451760997996,632.8451760997996,632.8451760997996,632.8451760997996,632.8451760997996,45,92,25,69,92,50,4.0,1.1958360001444817,634.0587466000579,635.9372228998691,,,,,,,123,f,1,2022-12-12_10h30.00.408,RL,2022.2.4,60.1468304121114,
1,75,0,75,0,,,,,,,,,,q,686.566211800091,686.566211800091,686.566211800091,686.566211800091,686.566211800091,686.566211800091,j,1.3151227002963424,687.9165909998119,687.9165909998119,687.9165909998119,687.9165909998119,687.9165909998119,687.9165909998119,688.2118852999993,688.2118852999993,689.4248592001386,689.4248592001386,689.4248592001386,689.4248592001386,689.4248592001386,689.4248592001386,689.4248592001386,689.4248592001386,689.4248592001386,689.4248592001386,689.4248592001386,689.4248592001386,689.4248592001386,689.4248592001386,689.4248592001386,689.4248592001386,689.4248592001386,691.9340439001098,691.9340439001098,691.9340439001098,691.9340439001098,691.9340439001098,44,87,25,71,71,53,4.0,1.2953638001345098,693.2472882997245,695.2422021999955,635.9372228998691,635.9372228998691,50.59509410010651,,,,123,f,1,2022-12-12_10h30.00.408,RL,2022.2.4,60.1468304121114,
1,76,0,76,0,,,,,,,,,,None,695.2422021999955,695.2422021999955,695.2422021999955,695.2422021999955,695.2422021999955,695.2422021999955,i,0.38164630020037293,695.6596773001365,695.6596773001365,695.6596773001365,695.6596773001365,695.6596773001365,695.6596773001365,695.9572735000402,695.9572735000402,696.9217010000721,696.9217010000721,696.9217010000721,696.9217010000721,696.9217010000721,696.9217010000721,696.9217010000721,696.9217010000721,696.9217010000721,696.9217010000721,696.9217010000721,696.9217010000721,696.9217010000721,696.9217010000721,696.9217010000721,696.9217010000721,696.9217010000721,699.4297489998862,699.4297489998862,699.4297489998862,699.4297489998862,699.4297489998862,51,91,20,71,20,59,3.0,2.442558799870312,701.8902417998761,703.5859631998464,,,,,,,123,f,1,2022-12-12_10h30.00.408,RL,2022.2.4,60.1468304121114,
1,77,0,77,0,,,,,,,,,,None,703.5859631998464,703.5859631998464,703.5859631998464,703.5859631998464,703.5859631998464,703.5859631998464,j,0.5046685999259353,704.1206307001412,704.1206307001412,704.1206307001412,704.1206307001412,704.1206307001412,704.1206307001412,704.4175073998049,704.4175073998049,705.447799500078,705.447799500078,705.447799500078,705.447799500078,705.447799500078,705.447799500078,705.447799500078,705.447799500078,705.447799500078,705.447799500078,705.447799500078,705.447799500078,705.447799500078,705.447799500078,705.447799500078,705.447799500078,705.447799500078,707.9571350999177,707.9571350999177,707.9571350999177,707.9571350999177,707.9571350999177,57,84,24,71,71,57,3.0,1.2293114997446537,709.2036342998035,711.1820781999268,,,,,,,123,f,1,2022-12-12_10h30.00.408,RL,2022.2.4,60.1468304121114,
1,78,0,78,0,,,,,,,,,,None,711.1820781999268,711.1820781999268,711.1820781999268,711.1820781999268,711.1820781999268,711.1820781999268,j,0.5220539001747966,711.7335433000699,711.7335433000699,711.7335433000699,711.7335433000699,711.7335433000699,711.7335433000699,712.0302035999484,712.0302035999484,713.5758897000924,713.5758897000924,713.5758897000924,713.5758897000924,713.5758897000924,713.5758897000924,713.5758897000924,713.5758897000924,713.5758897000924,713.5758897000924,713.5758897000924,713.5758897000924,713.5758897000924,713.5758897000924,713.5758897000924,713.5758897000924,713.5758897000924,716.0850172000937,716.0850172000937,716.0850172000937,716.0850172000937,716.0850172000937,55,86,15,71,71,53,3.0,1.6119816000573337,717.7135940999724,719.6256837998517,,,,,,,123,f,1,2022-12-12_10h30.00.408,RL,2022.2.4,60.1468304121114,
1,79,0,79,0,,,,,,,,,,None,719.6256837998517,719.6256837998517,719.6256837998517,719.6256837998517,719.6256837998517,719.6256837998517,j,0.5611376999877393,720.2086688000709,720.2086688000709,720.2086688000709,720.2086688000709,720.2086688000709,720.2086688000709,720.5068882997148,720.5068882997148,722.1025068997405,722.1025068997405,722.1025068997405,722.1025068997405,722.1025068997405,722.1025068997405,722.1025068997405,722.1025068997405,722.1025068997405,722.1025068997405,722.1025068997405,722.1025068997405,722.1025068997405,722.1025068997405,722.1025068997405,722.1025068997405,722.1025068997405,724.6118004000746,724.6118004000746,724.6118004000746,724.6118004000746,724.6118004000746,61,76,23,67,67,46,3.0,1.2628836003132164,725.8912641997449,727.8365998999216,,,,,,,123,f,1,2022-12-12_10h30.00.408,RL,2022.2.4,60.1468304121114,
1,80,0,80,0,,,,,,,,,,None,727.8365998999216,727.8365998999216,727.8365998999216,727.8365998999216,727.8365998999216,727.8365998999216,j,0.42811880027875304,728.2889434997924,728.2889434997924,728.2889434997924,728.2889434997924,728.2889434997924,728.2889434997924,728.5848647998646,728.5848647998646,730.280284000095,730.280284000095,730.280284000095,730.280284000095,730.280284000095,730.280284000095,730.280284000095,730.280284000095,730.280284000095,730.280284000095,730.280284000095,730.280284000095,730.280284000095,730.280284000095,730.280284000095,730.280284000095,730.280284000095,732.7894109999761,732.7894109999761,732.7894109999761,732.7894109999761,732.7894109999761,55,71,17,75,75,59,3.0,1.3288560998626053,734.1352431997657,735.7485421998426,,,,,,,123,f,1,2022-12-12_10h30.00.408,RL,2022.2.4,60.1468304121114,
1,81,0,81,0,,,,,,,,,,None,735.7485421998426,735.7485421998426,735.7485421998426,735.7485421998426,735.7485421998426,735.7485421998426,j,0.7631494998931885,736.5311182001606,736.5311182001606,736.5311182001606,736.5311182001606,736.5311182001606,736.5311182001606,736.8292386000976,736.8292386000976,738.5412735999562,738.5412735999562,738.5412735999562,738.5412735999562,738.5412735999562,738.5412735999562,738.5412735999562,738.5412735999562,738.5412735999562,738.5412735999562,738.5412735999562,738.5412735999562,738.5412735999562,738.5412735999562,738.5412735999562,738.5412735999562,738.5412735999562,741.0502403001301,741.0502403001301,741.0502403001301,741.0502403001301,741.0502403001301,52,69,10,71,71,53,3.0,1.3124457001686096,742.379929299932,743.9259365997277,,,,,,,123,f,1,2022-12-12_10h30.00.408,RL,2022.2.4,60.1468304121114,
1,82,0,82,0,,,,,,,,,,None,743.9259365997277,743.9259365997277,743.9259365997277,743.9259365997277,743.9259365997277,743.9259365997277,j,0.5129285999573767,744.4594605001621,744.4594605001621,744.4594605001621,744.4594605001621,744.4594605001621,744.4594605001621,744.7573413001373,744.7573413001373,746.6192883998156,746.6192883998156,746.6192883998156,746.6192883998156,746.6192883998156,746.6192883998156,746.6192883998156,746.6192883998156,746.6192883998156,746.6192883998156,746.6192883998156,746.6192883998156,746.6192883998156,746.6192883998156,746.6192883998156,746.6192883998156,746.6192883998156,749.1278356001712,749.1278356001712,749.1278356001712,749.1278356001712,749.1278356001712,55,64,19,63,63,58,3.0,1.2120841001160443,750.3579723001458,751.9707899000496,,,,,,,123,f,1,2022-12-12_10h30.00.408,RL,2022.2.4,60.1468304121114,
1,83,0,83,0,,,,,,,,,,None,751.9707899000496,751.9707899000496,751.9707899000496,751.9707899000496,751.9707899000496,751.9707899000496,j,0.47084910003468394,752.4713946999982,752.4713946999982,752.4713946999982,752.4713946999982,752.4713946999982,752.4713946999982,752.7690921998583,752.7690921998583,753.7327128001489,753.7327128001489,753.7327128001489,753.7327128001489,753.7327128001489,753.7327128001489,753.7327128001489,753.7327128001489,753.7327128001489,753.7327128001489,753.7327128001489,753.7327128001489,753.7327128001489,753.7327128001489,753.7327128001489,753.7327128001489,753.7327128001489,756.2418208997697,756.2418208997697,756.2418208997697,756.2418208997697,756.2418208997697,57,68,19,54,54,62,2.0,1.7276032003574073,757.9873953000642,759.5170301999897,,,,,,,123,f,1,2022-12-12_10h30.00.408,RL,2022.2.4,60.1468304121114,
1,84,0,84,0,,,,,,,,,,None,759.5170301999897,759.5170301999897,759.5170301999897,759.5170301999897,759.5170301999897,759.5170301999897,f,0.4079623003490269,759.9515909999609,759.9515909999609,759.9515909999609,759.9515909999609,759.9515909999609,759.9515909999609,760.2488100999035,760.2488100999035,761.4784273998812,761.4784273998812,761.4784273998812,761.4784273998812,761.4784273998812,761.4784273998812,761.4784273998812,761.4784273998812,761.4784273998812,761.4784273998812,761.4784273998812,761.4784273998812,761.4784273998812,761.4784273998812,761.4784273998812,761.4784273998812,761.4784273998812,763.9873874001205,763.9873874001205,763.9873874001205,763.9873874001205,763.9873874001205,57,69,16,60,69,57,2.0,1.2955227000638843,765.3007811000571,766.9301573000848,,,,,,,123,f,1,2022-12-12_10h30.00.408,RL,2022.2.4,60.1468304121114,
1,85,0,85,0,,,,,,,,,,None,766.9301573000848,766.9301573000848,766.9301573000848,766.9301573000848,766.9301573000848,766.9301573000848,f,0.5730416001752019,767.5310323997401,767.5310323997401,767.5310323997401,767.5310323997401,767.5310323997401,767.5310323997401,767.8278728001751,767.8278728001751,768.6923515000381,768.6923515000381,768.6923515000381,768.6923515000381,768.6923515000381,768.6923515000381,768.6923515000381,768.6923515000381,768.6923515000381,768.6923515000381,768.6923515000381,768.6923515000381,768.6923515000381,768.6923515000381,768.6923515000381,768.6923515000381,768.6923515000381,771.2015097998083,771.2015097998083,771.2015097998083,771.2015097998083,771.2015097998083,62,66,21,63,66,66,2.0,1.0128835001960397,772.2314729997888,773.9942867001519,,,,,,,123,f,1,2022-12-12_10h30.00.408,RL,2022.2.4,60.1468304121114,
1,86,0,86,0,,,,,,,,,,None,773.9942867001519,773.9942867001519,773.9942867001519,773.9942867001519,773.9942867001519,773.9942867001519,f,0.3830233998596668,774.4100969997235,774.4100969997235,774.4100969997235,774.4100969997235,774.4100969997235,774.4100969997235,774.7091361000203,774.7091361000203,775.7895649001002,775.7895649001002,775.7895649001002,775.7895649001002,775.7895649001002,775.7895649001002,775.7895649001002,775.7895649001002,775.7895649001002,775.7895649001002,775.7895649001002,775.7895649001002,775.7895649001002,775.7895649001002,775.7895649001002,775.7895649001002,775.7895649001002,778.2986669000238,778.2986669000238,778.2986669000238,778.2986669000238,778.2986669000238,62,65,24,70,65,38,2.0,1.2786539001390338,779.5952587998472,781.357395300176,,,,,,,123,f,1,2022-12-12_10h30.00.408,RL,2022.2.4,60.1468304121114,
1,87,0,87,0,,,,,,,,,,None,781.357395300176,781.357395300176,781.357395300176,781.357395300176,781.357395300176,781.357395300176,f,0.3096561999991536,781.692517799791,781.692517799791,781.692517799791,781.692517799791,781.692517799791,781.692517799791,781.9890837999992,781.9890837999992,783.1860120999627,783.1860120999627,783.1860120999627,783.1860120999627,783.1860120999627,783.1860120999627,783.1860120999627,783.1860120999627,783.1860120999627,783.1860120999627,783.1860120999627,783.1860120999627,783.1860120999627,783.1860120999627,783.1860120999627,783.1860120999627,783.1860120999627,785.6952436999418,785.6952436999418,785.6952436999418,785.6952436999418,785.6952436999418,65,66,24,64,66,72,2.0,0.9624633002094924,786.6754173999652,788.504774400033,,,,,,,123,f,1,2022-12-12_10h30.00.408,RL,2022.2.4,60.1468304121114,
1,88,0,88,0,,,,,,,,,,None,788.504774400033,788.504774400033,788.504774400033,788.504774400033,788.504774400033,788.504774400033,j,0.38504960015416145,788.9217129000463,788.9217129000463,788.9217129000463,788.9217129000463,788.9217129000463,788.9217129000463,789.2197249000892,789.2197249000892,790.9815185000189,790.9815185000189,790.9815185000189,790.9815185000189,790.9815185000189,790.9815185000189,790.9815185000189,790.9815185000189,790.9815185000189,790.9815185000189,790.9815185000189,790.9815185000189,790.9815185000189,790.9815185000189,790.9815185000189,790.9815185000189,790.9815185000189,793.4902153001167,793.4902153001167,793.4902153001167,793.4902153001167,793.4902153001167,61,77,21,64,64,73,2.0,1.4446596996858716,794.9531732997857,796.864885199815,,,,,,,123,f,1,2022-12-12_10h30.00.408,RL,2022.2.4,60.1468304121114,
1,89,0,89,0,,,,,,,,,,None,796.864885199815,796.864885199815,796.864885199815,796.864885199815,796.864885199815,796.864885199815,j,0.6867075003683567,797.5842153001577,797.5842153001577,797.5842153001577,797.5842153001577,797.5842153001577,797.5842153001577,797.8793228999712,797.8793228999712,799.3086021998897,799.3086021998897,799.3086021998897,799.3086021998897,799.3086021998897,799.3086021998897,799.3086021998897,799.3086021998897,799.3086021998897,799.3086021998897,799.3086021998897,799.3086021998897,799.3086021998897,799.3086021998897,799.3086021998897,799.3086021998897,799.3086021998897,801.8178131999448,801.8178131999448,801.8178131999448,801.8178131999448,801.8178131999448,61,67,20,72,72,74,2.0,1.345469200052321,803.1810612999834,805.0757713001221,,,,,,,123,f,1,2022-12-12_10h30.00.408,RL,2022.2.4,60.1468304121114,
1,90,0,90,0,,,,,,,,,,None,805.0757713001221,805.0757713001221,805.0757713001221,805.0757713001221,805.0757713001221,805.0757713001221,j,0.8029399001970887,805.9083198998123,805.9083198998123,805.9083198998123,805.9083198998123,805.9083198998123,805.9083198998123,806.2064221999608,806.2064221999608,807.2039960999973,807.2039960999973,807.2039960999973,807.2039960999973,807.2039960999973,807.2039960999973,807.2039960999973,807.2039960999973,807.2039960999973,807.2039960999973,807.2039960999973,807.2039960999973,807.2039960999973,807.2039960999973,807.2039960999973,807.2039960999973,807.2039960999973,809.7132891998626,809.7132891998626,809.7132891998626,809.7132891998626,809.7132891998626,61,68,25,66,66,69,2.0,1.162769400049001,810.8930991999805,812.7385690999217,,,,,,,123,f,1,2022-12-12_10h30.00.408,RL,2022.2.4,60.1468304121114,
1,91,0,91,0,,,,,,,,,,None,812.7385690999217,812.7385690999217,812.7385690999217,812.7385690999217,812.7385690999217,812.7385690999217,i,0.30413469998165965,813.0751785999164,813.0751785999164,813.0751785999164,813.0751785999164,813.0751785999164,813.0751785999164,813.3701410000212,813.3701410000212,815.3148126997985,815.3148126997985,815.3148126997985,815.3148126997985,815.3148126997985,815.3148126997985,815.3148126997985,815.3148126997985,815.3148126997985,815.3148126997985,815.3148126997985,815.3148126997985,815.3148126997985,815.3148126997985,815.3148126997985,815.3148126997985,815.3148126997985,817.8238777997904,817.8238777997904,817.8238777997904,817.8238777997904,817.8238777997904,66,73,31,72,31,77,1.0,1.01364709995687,818.8545046998188,820.5337966000661,,,,,,,123,f,1,2022-12-12_10h30.00.408,RL,2022.2.4,60.1468304121114,
1,92,0,92,0,,,,,,,,,,None,820.5337966000661,820.5337966000661,820.5337966000661,820.5337966000661,820.5337966000661,820.5337966000661,f,0.5062119998037815,821.0680403998122,821.0680403998122,821.0680403998122,821.0680403998122,821.0680403998122,821.0680403998122,821.3652580999769,821.3652580999769,823.0441034999676,823.0441034999676,823.0441034999676,823.0441034999676,823.0441034999676,823.0441034999676,823.0441034999676,823.0441034999676,823.0441034999676,823.0441034999676,823.0441034999676,823.0441034999676,823.0441034999676,823.0441034999676,823.0441034999676,823.0441034999676,823.0441034999676,825.5533056999557,825.5533056999557,825.5533056999557,825.5533056999557,825.5533056999557,64,57,30,66,57,73,1.0,0.746696799993515,826.3173956000246,827.9135211999528,,,,,,,123,f,1,2022-12-12_10h30.00.408,RL,2022.2.4,60.1468304121114,
1,93,0,93,0,,,,,,,,,,None,827.9135211999528,827.9135211999528,827.9135211999528,827.9135211999528,827.9135211999528,827.9135211999528,f,0.4400610001757741,828.3813539999537,828.3813539999537,828.3813539999537,828.3813539999537,828.3813539999537,828.3813539999537,828.678799000103,828.678799000103,830.6728920000605,830.6728920000605,830.6728920000605,830.6728920000605,830.6728920000605,830.6728920000605,830.6728920000605,830.6728920000605,830.6728920000605,830.6728920000605,830.6728920000605,830.6728920000605,830.6728920000605,830.6728920000605,830.6728920000605,830.6728920000605,830.6728920000605,833.1819750997238,833.1819750997238,833.1819750997238,833.1819750997238,833.1819750997238,69,57,34,61,57,67,1.0,0.7628729999996722,833.9633443001658,835.8921858998947,,,,,,,123,f,1,2022-12-12_10h30.00.408,RL,2022.2.4,60.1468304121114,
1,94,0,94,0,,,,,,,,,,None,835.8921858998947,835.8921858998947,835.8921858998947,835.8921858998947,835.8921858998947,835.8921858998947,r,0.334228300023824,836.2626726999879,836.2626726999879,836.2626726999879,836.2626726999879,836.2626726999879,836.2626726999879,836.5567822000012,836.5567822000012,837.8366768001579,837.8366768001579,837.8536336999387,837.8536336999387,837.8536336999387,837.8536336999387,837.8536336999387,837.8536336999387,837.8536336999387,837.8536336999387,837.8536336999387,837.8536336999387,837.8536336999387,837.8536336999387,837.8536336999387,837.8536336999387,837.8536336999387,840.3627192997374,840.3627192997374,840.3627192997374,840.3627192997374,840.3627192997374,71,54,30,63,71,69,1.0,1.0632156003266573,841.4431604999118,843.4047305998392,,,,,,,123,f,1,2022-12-12_10h30.00.408,RL,2022.2.4,60.1468304121114,
1,95,0,95,0,,,,,,,,,,None,843.4047305998392,843.4047305998392,843.4047305998392,843.4047305998392,843.4047305998392,843.4047305998392,r,0.41977090016007423,843.855737300124,843.855737300124,843.855737300124,843.855737300124,843.855737300124,843.855737300124,844.1529019000009,844.1529019000009,845.0003925999627,845.0003925999627,845.0171221997589,845.0171221997589,845.0171221997589,845.0171221997589,845.0171221997589,845.0171221997589,845.0171221997589,845.0171221997589,845.0171221997589,845.0171221997589,845.0171221997589,845.0171221997589,845.0171221997589,845.0171221997589,845.0171221997589,847.5264651998878,847.5264651998878,847.5264651998878,847.5264651998878,847.5264651998878,71,54,40,58,71,66,2.0,1.7765905000269413,849.3211151999421,851.0171854998916,,,,,,,123,f,1,2022-12-12_10h30.00.408,RL,2022.2.4,60.1468304121114,
1,96,0,96,0,,,,,,,,,,None,851.0171854998916,851.0171854998916,851.0171854998916,851.0171854998916,851.0171854998916,851.0171854998916,r,0.48509550001472235,851.5349453999661,851.5349453999661,851.5349453999661,851.5349453999661,851.5349453999661,851.5349453999661,851.8319295998663,851.8319295998663,852.6798840998672,852.6798840998672,852.6798840998672,852.6798840998672,852.6798840998672,852.6798840998672,852.6798840998672,852.6798840998672,852.6798840998672,852.6798840998672,852.6798840998672,852.6798840998672,852.6798840998672,852.6798840998672,852.6798840998672,852.6798840998672,852.6798840998672,855.1889809998684,855.1889809998684,855.1889809998684,855.1889809998684,855.1889809998684,68,57,42,69,68,55,2.0,1.4618529002182186,856.6679372000508,858.2311042998917,,,,,,,123,f,1,2022-12-12_10h30.00.408,RL,2022.2.4,60.1468304121114,
1,97,0,97,0,,,,,,,,,,None,858.2311042998917,858.2311042998917,858.2311042998917,858.2311042998917,858.2311042998917,858.2311042998917,r,0.5199742000550032,858.7813340998255,858.7813340998255,858.7813340998255,858.7813340998255,858.7813340998255,858.7813340998255,859.0788071998395,859.0788071998395,860.6245840997435,860.6245840997435,860.6245840997435,860.6245840997435,860.6245840997435,860.6245840997435,860.6245840997435,860.6245840997435,860.6245840997435,860.6245840997435,860.6245840997435,860.6245840997435,860.6245840997435,860.6245840997435,860.6245840997435,860.6245840997435,860.6245840997435,863.133980399929,863.133980399929,863.133980399929,863.133980399929,863.133980399929,57,59,42,64,57,66,2.0,0.9967806995846331,864.1476531997323,865.6771168997511,,,,,,,123,f,1,2022-12-12_10h30.00.408,RL,2022.2.4,60.1468304121114,
1,98,0,98,0,,,,,,,,,,None,865.6771168997511,865.6771168997511,865.6771168997511,865.6771168997511,865.6771168997511,865.6771168997511,f,0.4473403003066778,866.1463588001207,866.1463588001207,866.1463588001207,866.1463588001207,866.1463588001207,866.1463588001207,866.4420201997273,866.4420201997273,867.6054245000705,867.6054245000705,867.6054245000705,867.6054245000705,867.6054245000705,867.6054245000705,867.6054245000705,867.6054245000705,867.6054245000705,867.6054245000705,867.6054245000705,867.6054245000705,867.6054245000705,867.6054245000705,867.6054245000705,867.6054245000705,867.6054245000705,870.1147018000484,870.1147018000484,870.1147018000484,870.1147018000484,870.1147018000484,63,67,44,80,67,79,2.0,1.3304452002048492,871.4612560998648,873.0906432997435,,,,,,,123,f,1,2022-12-12_10h30.00.408,RL,2022.2.4,60.1468304121114,
1,99,0,99,0,,,,,,,,,,None,873.0906432997435,873.0906432997435,873.0906432997435,873.0906432997435,873.0906432997435,873.0906432997435,j,0.44292719988152385,873.5573534998111,873.5573534998111,873.5573534998111,873.5573534998111,873.5573534998111,873.5573534998111,873.8553084000014,873.8553084000014,874.9689179998823,874.9689179998823,874.9689179998823,874.9689179998823,874.9689179998823,874.9689179998823,874.9689179998823,874.9689179998823,874.9689179998823,874.9689179998823,874.9689179998823,874.9689179998823,874.9689179998823,874.9689179998823,874.9689179998823,874.9689179998823,874.9689179998823,877.4781283000484,877.4781283000484,877.4781283000484,877.4781283000484,877.4781283000484,62,66,47,70,70,72,2.0,0.980304999742657,878.4752034000121,880.1713847997598,,,,,,,123,f,1,2022-12-12_10h30.00.408,RL,2022.2.4,60.1468304121114,
1,100,0,100,0,,,,,,,,,,None,880.1713847997598,880.1713847997598,880.1713847997598,880.1713847997598,880.1713847997598,880.1713847997598,j,0.4403241998516023,880.6384787000716,880.6384787000716,880.6384787000716,880.6384787000716,880.6384787000716,880.6384787000716,880.935860699974,880.935860699974,882.5982177997939,882.5982177997939,882.5982177997939,882.5982177997939,882.5982177997939,882.5982177997939,882.5982177997939,882.5982177997939,882.5982177997939,882.5982177997939,882.5982177997939,882.5982177997939,882.5982177997939,882.5982177997939,882.5982177997939,882.5982177997939,882.5982177997939,885.107280800119,885.107280800119,885.107280800119,885.107280800119,885.107280800119,68,74,43,71,71,75,2.0,1.129717799834907,886.2540112999268,888.0830258000642,,,,,,,123,f,1,2022-12-12_10h30.00.408,RL,2022.2.4,60.1468304121114,
1,101,0,101,0,,,,,,,,,,None,888.0830258000642,888.0830258000642,888.0830258000642,888.0830258000642,888.0830258000642,888.0830258000642,j,0.5161481997929513,888.6344305998646,888.6344305998646,888.6344305998646,888.6344305998646,888.6344305998646,888.6344305998646,888.9305802001618,888.9305802001618,889.8120252001099,889.8120252001099,889.8120252001099,889.8120252001099,889.8120252001099,889.8120252001099,889.8120252001099,889.8120252001099,889.8120252001099,889.8120252001099,889.8120252001099,889.8120252001099,889.8120252001099,889.8120252001099,889.8120252001099,889.8120252001099,889.8120252001099,892.3209231998771,892.3209231998771,892.3209231998771,892.3209231998771,892.3209231998771,58,64,42,74,74,91,2.0,1.3283158000558615,893.6671917997301,895.5956326997839,,,,,,,123,f,1,2022-12-12_10h30.00.408,RL,2022.2.4,60.1468304121114,
1,102,0,102,0,,,,,,,,,,None,895.5956326997839,895.5956326997839,895.5956326997839,895.5956326997839,895.5956326997839,895.5956326997839,j,0.3670954001136124,895.9968246999197,895.9968246999197,895.9968246999197,895.9968246999197,895.9968246999197,895.9968246999197,896.2942936997861,896.2942936997861,898.0394176999107,898.0394176999107,898.0394176999107,898.0394176999107,898.0394176999107,898.0394176999107,898.0394176999107,898.0394176999107,898.0394176999107,898.0394176999107,898.0394176999107,898.0394176999107,898.0394176999107,898.0394176999107,898.0394176999107,898.0394176999107,898.0394176999107,900.5485797999427,900.5485797999427,900.5485797999427,900.5485797999427,900.5485797999427,63,72,37,71,71,65,2.0,1.2123767999000847,901.7782040000893,903.3077588998713,,,,,,,123,f,1,2022-12-12_10h30.00.408,RL,2022.2.4,60.1468304121114,
1,103,0,103,0,,,,,,,,,,None,903.3077588998713,903.3077588998713,903.3077588998713,903.3077588998713,903.3077588998713,903.3077588998713,j,0.31293000001460314,903.6432642997243,903.6432642997243,903.6432642997243,903.6432642997243,903.6432642997243,903.6432642997243,903.9398441999219,903.9398441999219,905.4190496001393,905.4190496001393,905.4190496001393,905.4190496001393,905.4190496001393,905.4190496001393,905.4190496001393,905.4190496001393,905.4190496001393,905.4190496001393,905.4190496001393,905.4190496001393,905.4190496001393,905.4190496001393,905.4190496001393,905.4190496001393,905.4190496001393,907.928251599893,907.928251599893,907.928251599893,907.928251599893,907.928251599893,58,67,34,76,76,61,2.0,1.428930299822241,909.3738436000422,911.0531230997294,,,,,,,123,f,1,2022-12-12_10h30.00.408,RL,2022.2.4,60.1468304121114,
1,104,0,104,0,,,,,,,,,,None,911.0531230997294,911.0531230997294,911.0531230997294,911.0531230997294,911.0531230997294,911.0531230997294,j,0.36549280025064945,911.438559200149,911.438559200149,911.438559200149,911.438559200149,911.438559200149,911.438559200149,911.7351200999692,911.7351200999692,912.8988529001363,912.8988529001363,912.8988529001363,912.8988529001363,912.8988529001363,912.8988529001363,912.8988529001363,912.8988529001363,912.8988529001363,912.8988529001363,912.8988529001363,912.8988529001363,912.8988529001363,912.8988529001363,912.8988529001363,912.8988529001363,912.8988529001363,915.4079582998529,915.4079582998529,915.4079582998529,915.4079582998529,915.4079582998529,52,64,31,71,71,42,2.0,1.4948730999603868,916.9200435001403,918.9158409000374,,,,,,,123,f,1,2022-12-12_10h30.00.408,RL,2022.2.4,60.1468304121114,
1,105,0,105,0,,,,,,,,,,None,918.9158409000374,918.9158409000374,918.9158409000374,918.9158409000374,918.9158409000374,918.9158409000374,j,0.33559420006349683,919.2838439997286,919.2838439997286,919.2838439997286,919.2838439997286,919.2838439997286,919.2838439997286,919.5808011000045,919.5808011000045,921.4750358997844,921.4750358997844,921.4750358997844,921.4750358997844,921.4750358997844,921.4750358997844,921.4750358997844,921.4750358997844,921.4750358997844,921.4750358997844,921.4750358997844,921.4750358997844,921.4750358997844,921.4750358997844,921.4750358997844,921.4750358997844,921.4750358997844,923.9844545000233,923.9844545000233,923.9844545000233,923.9844545000233,923.9844545000233,63,68,32,68,68,83,1.0,1.4453443000093102,925.4470648998395,927.1097435001284,,,,,,,123,f,1,2022-12-12_10h30.00.408,RL,2022.2.4,60.1468304121114,
1,106,0,106,0,,,,,,,,,,None,927.1097435001284,927.1097435001284,927.1097435001284,927.1097435001284,927.1097435001284,927.1097435001284,j,0.5288843000307679,927.6596240997314,927.6596240997314,927.6596240997314,927.6596240997314,927.6596240997314,927.6596240997314,927.957705900073,927.957705900073,928.9383115000091,928.9383115000091,928.9383115000091,928.9383115000091,928.9383115000091,928.9383115000091,928.9383115000091,928.9383115000091,928.9383115000091,928.9383115000091,928.9383115000091,928.9383115000091,928.9383115000091,928.9383115000091,928.9383115000091,928.9383115000091,928.9383115000091,931.4475080999546,931.4475080999546,931.4475080999546,931.4475080999546,931.4475080999546,68,65,38,75,75,62,2.0,1.6769394003786147,933.1429312000982,934.7557426998392,,,,,,,123,f,1,2022-12-12_10h30.00.408,RL,2022.2.4,60.1468304121114,
1,107,0,107,0,,,,,,,,,,None,934.7557426998392,934.7557426998392,934.7557426998392,934.7557426998392,934.7557426998392,934.7557426998392,j,0.6362457000650465,935.4233801998198,935.4233801998198,935.4233801998198,935.4233801998198,935.4233801998198,935.4233801998198,935.719937399961,935.719937399961,936.8165369997732,936.8165369997732,936.8335508997552,936.8335508997552,936.8335508997552,936.8335508997552,936.8335508997552,936.8335508997552,936.8335508997552,936.8335508997552,936.8335508997552,936.8335508997552,936.8335508997552,936.8335508997552,936.8335508997552,936.8335508997552,936.8335508997552,939.3423701999709,939.3423701999709,939.3423701999709,939.3423701999709,939.3423701999709,65,69,36,76,76,84,2.0,1.3124861000105739,940.6719713001512,942.6342874998227,,,,,,,123,f,1,2022-12-12_10h30.00.408,RL,2022.2.4,60.1468304121114,
1,108,0,108,0,,,,,,,,,,None,942.6342874998227,942.6342874998227,942.6342874998227,942.6342874998227,942.6342874998227,942.6342874998227,j,0.5104073998518288,943.1726267999038,943.1726267999038,943.1726267999038,943.1726267999038,943.1726267999038,943.1726267999038,943.4654124998488,943.4654124998488,945.1942670000717,945.1942670000717,945.1942670000717,945.1942670000717,945.1942670000717,945.1942670000717,945.1942670000717,945.1942670000717,945.1942670000717,945.1942670000717,945.1942670000717,945.1942670000717,945.1942670000717,945.1942670000717,945.1942670000717,945.1942670000717,945.1942670000717,947.7032161001116,947.7032161001116,947.7032161001116,947.7032161001116,947.7032161001116,70,66,37,69,69,85,2.0,1.3466292000375688,949.0657516000792,951.0444873999804,,,,,,,123,f,1,2022-12-12_10h30.00.408,RL,2022.2.4,60.1468304121114,
1,109,0,109,0,,,,,,,,,,None,951.0444873999804,951.0444873999804,951.0444873999804,951.0444873999804,951.0444873999804,951.0444873999804,j,0.5329312002286315,951.6113328998908,951.6113328998908,951.6113328998908,951.6113328998908,951.6113328998908,951.6113328998908,951.9089738000184,951.9089738000184,953.7543608997948,953.7543608997948,953.7543608997948,953.7543608997948,953.7543608997948,953.7543608997948,953.7543608997948,953.7543608997948,953.7543608997948,953.7543608997948,953.7543608997948,953.7543608997948,953.7543608997948,953.7543608997948,953.7543608997948,953.7543608997948,953.7543608997948,956.2628794000484,956.2628794000484,956.2628794000484,956.2628794000484,956.2628794000484,76,70,41,76,76,79,2.0,1.295673199929297,957.5758635001257,959.3051849999465,,,,,,,123,f,1,2022-12-12_10h30.00.408,RL,2022.2.4,60.1468304121114,
1,110,0,110,0,,,,,,,,,,None,959.3051849999465,959.3051849999465,959.3051849999465,959.3051849999465,959.3051849999465,959.3051849999465,j,0.41967609990388155,959.757436200045,959.757436200045,959.757436200045,959.757436200045,959.757436200045,959.757436200045,960.0537430997938,960.0537430997938,961.6489447997883,961.6489447997883,961.6489447997883,961.6489447997883,961.6489447997883,961.6489447997883,961.6489447997883,961.6489447997883,961.6489447997883,961.6489447997883,961.6489447997883,961.6489447997883,961.6489447997883,961.6489447997883,961.6489447997883,961.6489447997883,961.6489447997883,964.1584268999286,964.1584268999286,964.1584268999286,964.1584268999286,964.1584268999286,72,80,43,64,64,58,2.0,1.1951991999521852,965.3710884000175,967.2666083998047,,,,,,,123,f,1,2022-12-12_10h30.00.408,RL,2022.2.4,60.1468304121114,
1,111,0,111,0,,,,,,,,,,None,967.2666083998047,967.2666083998047,967.2666083998047,967.2666083998047,967.2666083998047,967.2666083998047,j,0.5859699998982251,967.8849637997337,967.8849637997337,967.8849637997337,967.8849637997337,967.8849637997337,967.8849637997337,968.1811095001176,968.1811095001176,969.3277870998718,969.3277870998718,969.3277870998718,969.3277870998718,969.3277870998718,969.3277870998718,969.3277870998718,969.3277870998718,969.3277870998718,969.3277870998718,969.3277870998718,969.3277870998718,969.3277870998718,969.3277870998718,969.3277870998718,969.3277870998718,969.3277870998718,971.8373078000732,971.8373078000732,971.8373078000732,971.8373078000732,971.8373078000732,67,68,44,69,69,77,2.0,0.8299599997699261,972.6846364997327,974.4640993997455,,,,,,,123,f,1,2022-12-12_10h30.00.408,RL,2022.2.4,60.1468304121114,
1,112,0,112,0,,,,,,,,,,None,974.4640993997455,974.4640993997455,974.4640993997455,974.4640993997455,974.4640993997455,974.4640993997455,f,0.38306469982489944,974.8803602997214,974.8803602997214,974.8803602997214,974.8803602997214,974.8803602997214,974.8803602997214,975.1787093998864,975.1787093998864,976.4587928997353,976.4587928997353,976.4587928997353,976.4587928997353,976.4587928997353,976.4587928997353,976.4587928997353,976.4587928997353,976.4587928997353,976.4587928997353,976.4587928997353,976.4587928997353,976.4587928997353,976.4587928997353,976.4587928997353,976.4587928997353,976.4587928997353,978.9679378997535,978.9679378997535,978.9679378997535,978.9679378997535,978.9679378997535,74,68,35,74,68,73,2.0,1.3120329999364913,980.2975627998821,981.9601575997658,,,,,,,123,f,1,2022-12-12_10h30.00.408,RL,2022.2.4,60.1468304121114,
1,113,0,113,0,,,,,,,,,,None,981.9601575997658,981.9601575997658,981.9601575997658,981.9601575997658,981.9601575997658,981.9601575997658,f,0.3603773000650108,982.3452417999506,982.3452417999506,982.3452417999506,982.3452417999506,982.3452417999506,982.3452417999506,982.6417847997509,982.6417847997509,983.788753699977,983.788753699977,983.788753699977,983.788753699977,983.788753699977,983.788753699977,983.788753699977,983.788753699977,983.788753699977,983.788753699977,983.788753699977,983.788753699977,983.788753699977,983.788753699977,983.788753699977,983.788753699977,983.788753699977,986.2979600001127,986.2979600001127,986.2979600001127,986.2979600001127,986.2979600001127,78,66,41,70,66,49,2.0,0.6974070998840034,987.0123462998308,988.6584759000689,,,,,,,123,f,1,2022-12-12_10h30.00.408,RL,2022.2.4,60.1468304121114,
1,114,0,114,0,,,,,,,,,,None,988.6584759000689,988.6584759000689,988.6584759000689,988.6584759000689,988.6584759000689,988.6584759000689,f,0.3215698995627463,989.0096299001016,989.0096299001016,989.0096299001016,989.0096299001016,989.0096299001016,989.0096299001016,989.3067987998948,989.3067987998948,990.6035969997756,990.6035969997756,990.6035969997756,990.6035969997756,990.6035969997756,990.6035969997756,990.6035969997756,990.6035969997756,990.6035969997756,990.6035969997756,990.6035969997756,990.6035969997756,990.6035969997756,990.6035969997756,990.6035969997756,990.6035969997756,990.6035969997756,993.1126449001022,993.1126449001022,993.1126449001022,993.1126449001022,993.1126449001022,71,68,37,62,68,40,2.0,1.4788073999807239,994.6085919998586,996.2215211000293,,,,,,,123,f,1,2022-12-12_10h30.00.408,RL,2022.2.4,60.1468304121114,
1,115,0,115,0,,,,,,,,,,None,996.2215211000293,996.2215211000293,996.2215211000293,996.2215211000293,996.2215211000293,996.2215211000293,f,0.4916130998171866,996.7385849999264,996.7385849999264,996.7385849999264,996.7385849999264,996.7385849999264,996.7385849999264,997.0359831000678,997.0359831000678,998.8308238997124,998.8308238997124,998.8308238997124,998.8308238997124,998.8308238997124,998.8308238997124,998.8308238997124,998.8308238997124,998.8308238997124,998.8308238997124,998.8308238997124,998.8308238997124,998.8308238997124,998.8308238997124,998.8308238997124,998.8308238997124,998.8308238997124,1001.3400425999425,1001.3400425999425,1001.3400425999425,1001.3400425999425,1001.3400425999425,77,68,37,67,68,76,2.0,0.9794569001533091,1002.3367217001505,1004.1996443001553,,,,,,,123,f,1,2022-12-12_10h30.00.408,RL,2022.2.4,60.1468304121114,
