bandit,trials.thisRepN,trials.thisTrialN,trials.thisN,trials.thisIndex,instru_img1.started,instru_resp.started,instru_resp.keys,instru_resp.rt,instru_img2.started,instru_resp2.started,instru_resp2.keys,instru_resp2.rt,fixbefore_2.started,rest_response.keys,red.started,green.started,yellow.started,blue.started,choose_bandit.started,Fixation.started,choose_bandit.keys,choose_bandit.rt,black.started,red_2.started,green_2.started,yellow_2.started,blue_2.started,fixation_2.started,docs.started,image_2.started,docs.stopped,image_2.stopped,black.stopped,red_2.stopped,green_2.stopped,yellow_2.stopped,blue_2.stopped,fixation_2.stopped,black_com.started,reward_sub.started,palyerb.started,reward__sub.started,compare.started,red_compare.started,green_com.started,yellow_com.started,blue_com.started,image_3.started,slider.started,text.started,image_4.started,image_5.started,rewardyellow,rewardred,rewardblue,rewardgreen,subchoose,playerb,slider.response,slider.rt,intertrialfix.started,intertrialfix.stopped,bigx.started,bigx.stopped,rest_image.started,rest_response.started,rest_response.rt,image.started,key_resp.started,key_resp.keys,participant,Gender,Age,date,expName,psychopyVersion,frameRate,
,,,,,2278.706963900011,2278.706963900011,space,31.280557499732822,,,,,,,,,,,,,,,,,,,,,,,,,,,,,,,,,,,,,,,,,,,,,,,,,,,,,,,,,,,,,,,125,f,1,2022-12-12_11h42.38.277,RL,2022.2.4,60.15598454919238,
,,,,,,,,,2310.024833300151,2310.024833300151,space,119.63961079996079,,,,,,,,,,,,,,,,,,,,,,,,,,,,,,,,,,,,,,,,,,,,,,,,,,,,,,,,,,,125,f,1,2022-12-12_11h42.38.277,RL,2022.2.4,60.15598454919238,
1,0,0,0,0,,,,,,,,,2429.6894621001557,None,2430.716972300317,2430.716972300317,2430.716972300317,2430.716972300317,2430.716972300317,2430.716972300317,r,0.8898411002010107,2431.696688400116,2431.696688400116,2431.696688400116,2431.696688400116,2431.696688400116,2431.696688400116,2431.934616399929,2431.934616399929,2432.9148639002815,2432.9148639002815,2432.9696194003336,2432.9696194003336,2432.9696194003336,2432.9696194003336,2432.9696194003336,2432.9696194003336,2432.9696194003336,2432.9696194003336,2432.9696194003336,2432.9696194003336,2432.9696194003336,2432.9696194003336,2432.9696194003336,2432.9696194003336,2432.9696194003336,2435.474316000007,2435.474316000007,2435.474316000007,2435.474316000007,2435.474316000007,66,48,38,55,66,60,5.0,2.7246651998721063,2438.2596897999756,2440.078352900222,,,,,,,,,125,f,1,2022-12-12_11h42.38.277,RL,2022.2.4,60.15598454919238,
1,1,0,1,0,,,,,,,,,,None,2440.078352900222,2440.078352900222,2440.078352900222,2440.078352900222,2440.078352900222,2440.078352900222,None,,,,,,,,,,,,,,,,,,,,,,,,,,,,,,,,46,50,43,56,0,**,None,None,2446.1112722000107,2447.6410229001194,2441.59840040002,2446.1112722000107,,,,,,,125,f,1,2022-12-12_11h42.38.277,RL,2022.2.4,60.15598454919238,
1,2,0,2,0,,,,,,,,,,None,2447.6410229001194,2447.6410229001194,2447.6410229001194,2447.6410229001194,2447.6410229001194,2447.6410229001194,i,0.6576678999699652,2448.3302621999756,2448.3302621999756,2448.3302621999756,2448.3302621999756,2448.3302621999756,2448.3302621999756,2448.6219561002217,2448.6219561002217,2449.635573599953,2449.635573599953,2449.635573599953,2449.635573599953,2449.635573599953,2449.635573599953,2449.635573599953,2449.635573599953,2449.635573599953,2449.635573599953,2449.635573599953,2449.635573599953,2449.635573599953,2449.635573599953,2449.635573599953,2449.635573599953,2449.635573599953,2452.1454354999587,2452.1454354999587,2452.1454354999587,2452.1454354999587,2452.1454354999587,54,53,46,59,46,44,4.0,3.4891352001577616,2455.652248200029,2457.1817292999476,,,,,,,,,125,f,1,2022-12-12_11h42.38.277,RL,2022.2.4,60.15598454919238,
1,3,0,3,0,,,,,,,,,,None,2457.1817292999476,2457.1817292999476,2457.1817292999476,2457.1817292999476,2457.1817292999476,2457.1817292999476,r,0.6333030997775495,2457.8483251002617,2457.8483251002617,2457.8483251002617,2457.8483251002617,2457.8483251002617,2457.8483251002617,2458.1461805002764,2458.1461805002764,2459.375660800375,2459.375660800375,2459.375660800375,2459.375660800375,2459.375660800375,2459.375660800375,2459.375660800375,2459.375660800375,2459.375660800375,2459.375660800375,2459.375660800375,2459.375660800375,2459.375660800375,2459.375660800375,2459.375660800375,2459.375660800375,2459.375660800375,2461.885368200019,2461.885368200019,2461.885368200019,2461.885368200019,2461.885368200019,63,47,45,62,63,60,5.0,3.4058452998287976,2465.308825599961,2467.2045340002514,,,,,,,,,125,f,1,2022-12-12_11h42.38.277,RL,2022.2.4,60.15598454919238,
1,4,0,4,0,,,,,,,,,,None,2467.2045340002514,2467.2045340002514,2467.2045340002514,2467.2045340002514,2467.2045340002514,2467.2045340002514,f,0.44174599973484874,2467.671293300111,2467.671293300111,2467.671293300111,2467.671293300111,2467.671293300111,2467.671293300111,2467.9693364999257,2467.9693364999257,2469.4482221999206,2469.4482221999206,2469.4482221999206,2469.4482221999206,2469.4482221999206,2469.4482221999206,2469.4482221999206,2469.4482221999206,2469.4482221999206,2469.4482221999206,2469.4482221999206,2469.4482221999206,2469.4482221999206,2469.4482221999206,2469.4482221999206,2469.4482221999206,2469.4482221999206,2471.957440600265,2471.957440600265,2471.957440600265,2471.957440600265,2471.957440600265,71,51,48,56,51,69,3.0,2.2258410998620093,2474.201493999921,2475.947155999951,,,,,,,,,125,f,1,2022-12-12_11h42.38.277,RL,2022.2.4,60.15598454919238,
1,5,0,5,0,,,,,,,,,,None,2475.947155999951,2475.947155999951,2475.947155999951,2475.947155999951,2475.947155999951,2475.947155999951,i,0.5518558002077043,2476.53379580006,2476.53379580006,2476.53379580006,2476.53379580006,2476.53379580006,2476.53379580006,2476.828297200147,2476.828297200147,2478.590077599976,2478.590077599976,2478.590077599976,2478.590077599976,2478.590077599976,2478.590077599976,2478.590077599976,2478.590077599976,2478.590077599976,2478.590077599976,2478.590077599976,2478.590077599976,2478.590077599976,2478.590077599976,2478.590077599976,2478.590077599976,2478.590077599976,2481.0992510002106,2481.0992510002106,2481.0992510002106,2481.0992510002106,2481.0992510002106,68,49,43,61,43,60,3.0,1.911808299832046,2483.027158900164,2484.7895749001764,,,,,,,,,125,f,1,2022-12-12_11h42.38.277,RL,2022.2.4,60.15598454919238,
1,6,0,6,0,,,,,,,,,,None,2484.7895749001764,2484.7895749001764,2484.7895749001764,2484.7895749001764,2484.7895749001764,2484.7895749001764,j,0.38723550038412213,2485.2057718001306,2485.2057718001306,2485.2057718001306,2485.2057718001306,2485.2057718001306,2485.2057718001306,2485.5046119000763,2485.5046119000763,2487.4162062001415,2487.4162062001415,2487.4162062001415,2487.4162062001415,2487.4162062001415,2487.4162062001415,2487.4162062001415,2487.4162062001415,2487.4162062001415,2487.4162062001415,2487.4162062001415,2487.4162062001415,2487.4162062001415,2487.4162062001415,2487.4162062001415,2487.4162062001415,2487.4162062001415,2489.9251369000413,2489.9251369000413,2489.9251369000413,2489.9251369000413,2489.9251369000413,60,49,41,62,62,52,5.0,2.4420264000073075,2492.3849094002508,2494.03145890031,,,,,,,,,125,f,1,2022-12-12_11h42.38.277,RL,2022.2.4,60.15598454919238,
1,7,0,7,0,,,,,,,,,,None,2494.03145890031,2494.03145890031,2494.03145890031,2494.03145890031,2494.03145890031,2494.03145890031,j,0.43162329960614443,2494.5010633002967,2494.5010633002967,2494.5010633002967,2494.5010633002967,2494.5010633002967,2494.5010633002967,2494.7959607001394,2494.7959607001394,2495.610259900335,2495.610259900335,2495.6272640000097,2495.6272640000097,2495.6272640000097,2495.6272640000097,2495.6272640000097,2495.6272640000097,2495.6272640000097,2495.6272640000097,2495.6272640000097,2495.6272640000097,2495.6272640000097,2495.6272640000097,2495.6272640000097,2495.6272640000097,2495.6272640000097,2498.136207100004,2498.136207100004,2498.136207100004,2498.136207100004,2498.136207100004,63,45,46,64,64,52,5.0,2.941511199809611,2501.0951110003516,2502.9570164000615,,,,,,,,,125,f,1,2022-12-12_11h42.38.277,RL,2022.2.4,60.15598454919238,
1,8,0,8,0,,,,,,,,,,None,2502.9570164000615,2502.9570164000615,2502.9570164000615,2502.9570164000615,2502.9570164000615,2502.9570164000615,j,0.6136298002675176,2503.590528999921,2503.590528999921,2503.590528999921,2503.590528999921,2503.590528999921,2503.590528999921,2503.8878921000287,2503.8878921000287,2505.882533600088,2505.882533600088,2505.882533600088,2505.882533600088,2505.882533600088,2505.882533600088,2505.882533600088,2505.882533600088,2505.882533600088,2505.882533600088,2505.882533600088,2505.882533600088,2505.882533600088,2505.882533600088,2505.882533600088,2505.882533600088,2505.882533600088,2508.391441100277,2508.391441100277,2508.391441100277,2508.391441100277,2508.391441100277,73,41,55,64,64,33,5.0,1.578145599924028,2509.9871354000643,2511.8328729001805,,,,,,,,,125,f,1,2022-12-12_11h42.38.277,RL,2022.2.4,60.15598454919238,
1,9,0,9,0,,,,,,,,,,None,2511.8328729001805,2511.8328729001805,2511.8328729001805,2511.8328729001805,2511.8328729001805,2511.8328729001805,j,0.6101600001566112,2512.4701026002876,2512.4701026002876,2512.4701026002876,2512.4701026002876,2512.4701026002876,2512.4701026002876,2512.7640540003777,2512.7640540003777,2513.5945578999817,2513.5945578999817,2513.611149100121,2513.611149100121,2513.611149100121,2513.611149100121,2513.611149100121,2513.611149100121,2513.611149100121,2513.611149100121,2513.611149100121,2513.611149100121,2513.611149100121,2513.611149100121,2513.611149100121,2513.611149100121,2513.611149100121,2516.1205502999946,2516.1205502999946,2516.1205502999946,2516.1205502999946,2516.1205502999946,70,35,55,64,64,75,3.0,1.0289171999320388,2517.1676750001498,2518.7474380000494,,,,,,,,,125,f,1,2022-12-12_11h42.38.277,RL,2022.2.4,60.15598454919238,
1,10,0,10,0,,,,,,,,,,None,2518.7474380000494,2518.7474380000494,2518.7474380000494,2518.7474380000494,2518.7474380000494,2518.7474380000494,j,0.5271812002174556,2519.2960370001383,2519.2960370001383,2519.2960370001383,2519.2960370001383,2519.2960370001383,2519.2960370001383,2519.595102699939,2519.595102699939,2521.00809080014,2521.00809080014,2521.00809080014,2521.00809080014,2521.00809080014,2521.00809080014,2521.00809080014,2521.00809080014,2521.00809080014,2521.00809080014,2521.00809080014,2521.00809080014,2521.00809080014,2521.00809080014,2521.00809080014,2521.00809080014,2521.00809080014,2523.517140700016,2523.517140700016,2523.517140700016,2523.517140700016,2523.517140700016,73,40,52,65,65,45,5.0,2.4418883002363145,2525.9769983002916,2527.5234727999195,,,,,,,,,125,f,1,2022-12-12_11h42.38.277,RL,2022.2.4,60.15598454919238,
1,11,0,11,0,,,,,,,,,,None,2527.5234727999195,2527.5234727999195,2527.5234727999195,2527.5234727999195,2527.5234727999195,2527.5234727999195,j,0.6678485996089876,2528.224401399959,2528.224401399959,2528.224401399959,2528.224401399959,2528.224401399959,2528.224401399959,2528.5206859000027,2528.5206859000027,2529.767471600324,2529.767471600324,2529.7846930003725,2529.7846930003725,2529.7846930003725,2529.7846930003725,2529.7846930003725,2529.7846930003725,2529.7846930003725,2529.7846930003725,2529.7846930003725,2529.7846930003725,2529.7846930003725,2529.7846930003725,2529.7846930003725,2529.7846930003725,2529.7846930003725,2532.2933193002827,2532.2933193002827,2532.2933193002827,2532.2933193002827,2532.2933193002827,81,35,50,69,69,49,5.0,2.026540399994701,2534.337613000069,2535.9832878001034,,,,,,,,,125,f,1,2022-12-12_11h42.38.277,RL,2022.2.4,60.15598454919238,
1,12,0,12,0,,,,,,,,,,None,2535.9832878001034,2535.9832878001034,2535.9832878001034,2535.9832878001034,2535.9832878001034,2535.9832878001034,j,0.6570910001173615,2536.6669009001926,2536.6669009001926,2536.6669009001926,2536.6669009001926,2536.6669009001926,2536.6669009001926,2536.9645668002777,2536.9645668002777,2538.6433745003305,2538.6433745003305,2538.6433745003305,2538.6433745003305,2538.6433745003305,2538.6433745003305,2538.6433745003305,2538.6433745003305,2538.6433745003305,2538.6433745003305,2538.6433745003305,2538.6433745003305,2538.6433745003305,2538.6433745003305,2538.6433745003305,2538.6433745003305,2538.6433745003305,2541.1523380000144,2541.1523380000144,2541.1523380000144,2541.1523380000144,2541.1523380000144,77,37,50,70,70,31,5.0,2.126738900318742,2543.2961879000068,2545.108469699975,,,,,,,,,125,f,1,2022-12-12_11h42.38.277,RL,2022.2.4,60.15598454919238,
1,13,0,13,0,,,,,,,,,,None,2545.108469699975,2545.108469699975,2545.108469699975,2545.108469699975,2545.108469699975,2545.108469699975,j,0.5233891997486353,2545.6594227002934,2545.6594227002934,2545.6594227002934,2545.6594227002934,2545.6594227002934,2545.6594227002934,2545.956412800122,2545.956412800122,2547.6021410003304,2547.6021410003304,2547.6021410003304,2547.6021410003304,2547.6021410003304,2547.6021410003304,2547.6021410003304,2547.6021410003304,2547.6021410003304,2547.6021410003304,2547.6021410003304,2547.6021410003304,2547.6021410003304,2547.6021410003304,2547.6021410003304,2547.6021410003304,2547.6021410003304,2550.1110944002867,2550.1110944002867,2550.1110944002867,2550.1110944002867,2550.1110944002867,66,36,53,66,66,39,5.0,1.8776302002370358,2552.0060319001786,2553.5857412000187,,,,,,,,,125,f,1,2022-12-12_11h42.38.277,RL,2022.2.4,60.15598454919238,
1,14,0,14,0,,,,,,,,,,None,2553.5857412000187,2553.5857412000187,2553.5857412000187,2553.5857412000187,2553.5857412000187,2553.5857412000187,j,0.4545046999119222,2554.072421300225,2554.072421300225,2554.072421300225,2554.072421300225,2554.072421300225,2554.072421300225,2554.3668424002826,2554.3668424002826,2555.596802700311,2555.596802700311,2555.596802700311,2555.596802700311,2555.596802700311,2555.596802700311,2555.596802700311,2555.596802700311,2555.596802700311,2555.596802700311,2555.596802700311,2555.596802700311,2555.596802700311,2555.596802700311,2555.596802700311,2555.596802700311,2555.596802700311,2558.105833900161,2558.105833900161,2558.105833900161,2558.105833900161,2558.105833900161,64,42,45,66,66,74,4.0,0.9457912999205291,2559.069849600084,2560.6661511999555,,,,,,,,,125,f,1,2022-12-12_11h42.38.277,RL,2022.2.4,60.15598454919238,
1,15,0,15,0,,,,,,,,,,None,2560.6661511999555,2560.6661511999555,2560.6661511999555,2560.6661511999555,2560.6661511999555,2560.6661511999555,j,0.49410329991951585,2561.1834040000103,2561.1834040000103,2561.1834040000103,2561.1834040000103,2561.1834040000103,2561.1834040000103,2561.4806838002987,2561.4806838002987,2562.826880100183,2562.826880100183,2562.826880100183,2562.826880100183,2562.826880100183,2562.826880100183,2562.826880100183,2562.826880100183,2562.826880100183,2562.826880100183,2562.826880100183,2562.826880100183,2562.826880100183,2562.826880100183,2562.826880100183,2562.826880100183,2562.826880100183,2565.336238299962,2565.336238299962,2565.336238299962,2565.336238299962,2565.336238299962,63,52,34,74,74,74,4.0,1.6946088001132011,2567.0480401003733,2568.5612880000845,,,,,,,,,125,f,1,2022-12-12_11h42.38.277,RL,2022.2.4,60.15598454919238,
1,16,0,16,0,,,,,,,,,,None,2568.5612880000845,2568.5612880000845,2568.5612880000845,2568.5612880000845,2568.5612880000845,2568.5612880000845,j,0.532880499958992,2569.1271534999833,2569.1271534999833,2569.1271534999833,2569.1271534999833,2569.1271534999833,2569.1271534999833,2569.4262450002134,2569.4262450002134,2570.838625600096,2570.838625600096,2570.838625600096,2570.838625600096,2570.838625600096,2570.838625600096,2570.838625600096,2570.838625600096,2570.838625600096,2570.838625600096,2570.838625600096,2570.838625600096,2570.838625600096,2570.838625600096,2570.838625600096,2570.838625600096,2570.838625600096,2573.347641600296,2573.347641600296,2573.347641600296,2573.347641600296,2573.347641600296,64,43,35,70,70,79,4.0,1.4778919001109898,2574.8437622999772,2576.389738100115,,,,,,,,,125,f,1,2022-12-12_11h42.38.277,RL,2022.2.4,60.15598454919238,
1,17,0,17,0,,,,,,,,,,None,2576.389738100115,2576.389738100115,2576.389738100115,2576.389738100115,2576.389738100115,2576.389738100115,j,0.31480379961431026,2576.7246964001097,2576.7246964001097,2576.7246964001097,2576.7246964001097,2576.7246964001097,2576.7246964001097,2577.0217600003816,2577.0217600003816,2578.434863500297,2578.434863500297,2578.434863500297,2578.434863500297,2578.434863500297,2578.434863500297,2578.434863500297,2578.434863500297,2578.434863500297,2578.434863500297,2578.434863500297,2578.434863500297,2578.434863500297,2578.434863500297,2578.434863500297,2578.434863500297,2578.434863500297,2580.9438020000234,2580.9438020000234,2580.9438020000234,2580.9438020000234,2580.9438020000234,60,48,32,71,71,69,4.0,1.5115807000547647,2582.4729313999414,2584.2353503000923,,,,,,,,,125,f,1,2022-12-12_11h42.38.277,RL,2022.2.4,60.15598454919238,
1,18,0,18,0,,,,,,,,,,None,2584.2353503000923,2584.2353503000923,2584.2353503000923,2584.2353503000923,2584.2353503000923,2584.2353503000923,r,0.3426553998142481,2584.6055590002798,2584.6055590002798,2584.6055590002798,2584.6055590002798,2584.6055590002798,2584.6055590002798,2584.900045800023,2584.900045800023,2585.9475342002697,2585.9475342002697,2585.9475342002697,2585.9475342002697,2585.9475342002697,2585.9475342002697,2585.9475342002697,2585.9475342002697,2585.9475342002697,2585.9475342002697,2585.9475342002697,2585.9475342002697,2585.9475342002697,2585.9475342002697,2585.9475342002697,2585.9475342002697,2585.9475342002697,2588.456722000148,2588.456722000148,2588.456722000148,2588.456722000148,2588.456722000148,64,50,35,73,64,39,4.0,2.6255056001245975,2591.0990357003175,2592.9613672001287,,,,,,,,,125,f,1,2022-12-12_11h42.38.277,RL,2022.2.4,60.15598454919238,
1,19,0,19,0,,,,,,,,,,None,2592.9613672001287,2592.9613672001287,2592.9613672001287,2592.9613672001287,2592.9613672001287,2592.9613672001287,r,0.31483149994164705,2593.2957212999463,2593.2957212999463,2593.2957212999463,2593.2957212999463,2593.2957212999463,2593.2957212999463,2593.5932109002024,2593.5932109002024,2595.272027200088,2595.272027200088,2595.272027200088,2595.272027200088,2595.272027200088,2595.272027200088,2595.272027200088,2595.272027200088,2595.272027200088,2595.272027200088,2595.272027200088,2595.272027200088,2595.272027200088,2595.272027200088,2595.272027200088,2595.272027200088,2595.272027200088,2597.7811537003145,2597.7811537003145,2597.7811537003145,2597.7811537003145,2597.7811537003145,50,48,43,69,50,57,3.0,1.5940542998723686,2599.393450600095,2601.0396398003213,,,,,,,,,125,f,1,2022-12-12_11h42.38.277,RL,2022.2.4,60.15598454919238,
1,20,0,20,0,,,,,,,,,,None,2601.0396398003213,2601.0396398003213,2601.0396398003213,2601.0396398003213,2601.0396398003213,2601.0396398003213,r,1.110302799846977,2602.1709009003825,2602.1709009003825,2602.1709009003825,2602.1709009003825,2602.1709009003825,2602.1709009003825,2602.469373800326,2602.469373800326,2604.3801726000383,2604.3801726000383,2604.3801726000383,2604.3801726000383,2604.3801726000383,2604.3801726000383,2604.3801726000383,2604.3801726000383,2604.3801726000383,2604.3801726000383,2604.3801726000383,2604.3801726000383,2604.3801726000383,2604.3801726000383,2604.3801726000383,2604.3801726000383,2604.3801726000383,2606.8894004002213,2606.8894004002213,2606.8894004002213,2606.8894004002213,2606.8894004002213,57,48,42,58,57,61,4.0,1.7939007999375463,2608.701024299953,2610.3475979003124,,,,,,,,,125,f,1,2022-12-12_11h42.38.277,RL,2022.2.4,60.15598454919238,
1,21,0,21,0,,,,,,,,,,None,2610.3475979003124,2610.3475979003124,2610.3475979003124,2610.3475979003124,2610.3475979003124,2610.3475979003124,j,0.3140662000514567,2610.680013500154,2610.680013500154,2610.680013500154,2610.680013500154,2610.680013500154,2610.680013500154,2610.979185800068,2610.979185800068,2612.3257100000046,2612.3257100000046,2612.3257100000046,2612.3257100000046,2612.3257100000046,2612.3257100000046,2612.3257100000046,2612.3257100000046,2612.3257100000046,2612.3257100000046,2612.3257100000046,2612.3257100000046,2612.3257100000046,2612.3257100000046,2612.3257100000046,2612.3257100000046,2612.3257100000046,2614.834334200248,2614.834334200248,2614.834334200248,2614.834334200248,2614.834334200248,66,46,38,74,74,61,5.0,2.309223599731922,2617.161246099975,2619.139756700024,,,,,,,,,125,f,1,2022-12-12_11h42.38.277,RL,2022.2.4,60.15598454919238,
1,22,0,22,0,,,,,,,,,,None,2619.139756700024,2619.139756700024,2619.139756700024,2619.139756700024,2619.139756700024,2619.139756700024,j,0.3294861000031233,2619.492517699953,2619.492517699953,2619.492517699953,2619.492517699953,2619.492517699953,2619.492517699953,2619.7885949001648,2619.7885949001648,2620.6362796002068,2620.6362796002068,2620.6362796002068,2620.6362796002068,2620.6362796002068,2620.6362796002068,2620.6362796002068,2620.6362796002068,2620.6362796002068,2620.6362796002068,2620.6362796002068,2620.6362796002068,2620.6362796002068,2620.6362796002068,2620.6362796002068,2620.6362796002068,2620.6362796002068,2623.1455415999517,2623.1455415999517,2623.1455415999517,2623.1455415999517,2623.1455415999517,60,51,28,64,64,76,3.0,2.2433218001388013,2625.4054177999496,2627.1181534002535,,,,,,,,,125,f,1,2022-12-12_11h42.38.277,RL,2022.2.4,60.15598454919238,
1,23,0,23,0,,,,,,,,,,None,2627.1181534002535,2627.1181534002535,2627.1181534002535,2627.1181534002535,2627.1181534002535,2627.1181534002535,f,0.6101456000469625,2627.7503381003626,2627.7503381003626,2627.7503381003626,2627.7503381003626,2627.7503381003626,2627.7503381003626,2628.0495175002143,2628.0495175002143,2629.4620304000564,2629.4620304000564,2629.4620304000564,2629.4620304000564,2629.4620304000564,2629.4620304000564,2629.4620304000564,2629.4620304000564,2629.4620304000564,2629.4620304000564,2629.4620304000564,2629.4620304000564,2629.4620304000564,2629.4620304000564,2629.4620304000564,2629.4620304000564,2629.4620304000564,2631.9710208000615,2631.9710208000615,2631.9710208000615,2631.9710208000615,2631.9710208000615,71,43,31,69,43,59,3.0,2.8080043997615576,2634.796671700198,2636.6256570001133,,,,,,,,,125,f,1,2022-12-12_11h42.38.277,RL,2022.2.4,60.15598454919238,
1,24,0,24,0,,,,,,,,,,None,2636.6256570001133,2636.6256570001133,2636.6256570001133,2636.6256570001133,2636.6256570001133,2636.6256570001133,j,0.4196474999189377,2637.0786076001823,2637.0786076001823,2637.0786076001823,2637.0786076001823,2637.0786076001823,2637.0786076001823,2637.373771400191,2637.373771400191,2639.085415699985,2639.085415699985,2639.102295400109,2639.102295400109,2639.102295400109,2639.102295400109,2639.102295400109,2639.102295400109,2639.102295400109,2639.102295400109,2639.102295400109,2639.102295400109,2639.102295400109,2639.102295400109,2639.102295400109,2639.102295400109,2639.102295400109,2641.6113203000277,2641.6113203000277,2641.6113203000277,2641.6113203000277,2641.6113203000277,58,42,34,78,78,60,5.0,2.4592706002295017,2644.0877427002415,2645.900143600069,,,,,,,,,125,f,1,2022-12-12_11h42.38.277,RL,2022.2.4,60.15598454919238,
1,25,0,25,0,,,,,,,,,,None,2645.900143600069,2645.900143600069,2645.900143600069,2645.900143600069,2645.900143600069,2645.900143600069,j,0.48645529989153147,2646.417290300131,2646.417290300131,2646.417290300131,2646.417290300131,2646.417290300131,2646.417290300131,2646.715351700317,2646.715351700317,2648.5761613999493,2648.5761613999493,2648.593324500136,2648.593324500136,2648.593324500136,2648.593324500136,2648.593324500136,2648.593324500136,2648.593324500136,2648.593324500136,2648.593324500136,2648.593324500136,2648.593324500136,2648.593324500136,2648.593324500136,2648.593324500136,2648.593324500136,2651.1026337002404,2651.1026337002404,2651.1026337002404,2651.1026337002404,2651.1026337002404,55,53,26,67,67,54,5.0,2.076795000117272,2653.196375499945,2655.158269900363,,,,,,,,,125,f,1,2022-12-12_11h42.38.277,RL,2022.2.4,60.15598454919238,
1,26,0,26,0,,,,,,,,,,None,2655.158269900363,2655.158269900363,2655.158269900363,2655.158269900363,2655.158269900363,2655.158269900363,j,0.2753124996088445,2655.4591676001437,2655.4591676001437,2655.4591676001437,2655.4591676001437,2655.4591676001437,2655.4591676001437,2655.7571918000467,2655.7571918000467,2656.8704320001416,2656.8704320001416,2656.8704320001416,2656.8704320001416,2656.8704320001416,2656.8704320001416,2656.8704320001416,2656.8704320001416,2656.8704320001416,2656.8704320001416,2656.8704320001416,2656.8704320001416,2656.8704320001416,2656.8704320001416,2656.8704320001416,2656.8704320001416,2656.8704320001416,2659.3795597003773,2659.3795597003773,2659.3795597003773,2659.3795597003773,2659.3795597003773,62,48,38,74,74,65,5.0,1.7287122001871467,2661.125073700212,2662.7709075999446,,,,,,,,,125,f,1,2022-12-12_11h42.38.277,RL,2022.2.4,60.15598454919238,
1,27,0,27,0,,,,,,,,,,None,2662.7709075999446,2662.7709075999446,2662.7709075999446,2662.7709075999446,2662.7709075999446,2662.7709075999446,j,0.3230798998847604,2663.121833300218,2663.121833300218,2663.121833300218,2663.121833300218,2663.121833300218,2663.121833300218,2663.4193929000758,2663.4193929000758,2665.430600800086,2665.430600800086,2665.430600800086,2665.430600800086,2665.430600800086,2665.430600800086,2665.430600800086,2665.430600800086,2665.430600800086,2665.430600800086,2665.430600800086,2665.430600800086,2665.430600800086,2665.430600800086,2665.430600800086,2665.430600800086,2665.430600800086,2667.9394820001908,2667.9394820001908,2667.9394820001908,2667.9394820001908,2667.9394820001908,51,48,38,64,64,30,5.0,2.5586270997300744,2670.5156662003137,2672.0957887000404,,,,,,,,,125,f,1,2022-12-12_11h42.38.277,RL,2022.2.4,60.15598454919238,
1,28,0,28,0,,,,,,,,,,None,2672.0957887000404,2672.0957887000404,2672.0957887000404,2672.0957887000404,2672.0957887000404,2672.0957887000404,j,0.45447189966216683,2672.578931900207,2672.578931900207,2672.578931900207,2672.578931900207,2672.578931900207,2672.578931900207,2672.8769609001465,2672.8769609001465,2673.808004999999,2673.808004999999,2673.808004999999,2673.808004999999,2673.808004999999,2673.808004999999,2673.808004999999,2673.808004999999,2673.808004999999,2673.808004999999,2673.808004999999,2673.808004999999,2673.808004999999,2673.808004999999,2673.808004999999,2673.808004999999,2673.808004999999,2676.317111399956,2676.317111399956,2676.317111399956,2676.317111399956,2676.317111399956,46,63,41,65,65,51,5.0,1.8441674001514912,2678.1787740001455,2679.7081611002795,,,,,,,,,125,f,1,2022-12-12_11h42.38.277,RL,2022.2.4,60.15598454919238,
1,29,0,29,0,,,,,,,,,,None,2679.7081611002795,2679.7081611002795,2679.7081611002795,2679.7081611002795,2679.7081611002795,2679.7081611002795,j,0.6208672998473048,2680.357655200176,2680.357655200176,2680.357655200176,2680.357655200176,2680.357655200176,2680.357655200176,2680.6560666002333,2680.6560666002333,2682.400674100034,2682.400674100034,2682.400674100034,2682.400674100034,2682.400674100034,2682.400674100034,2682.400674100034,2682.400674100034,2682.400674100034,2682.400674100034,2682.400674100034,2682.400674100034,2682.400674100034,2682.400674100034,2682.400674100034,2682.400674100034,2682.400674100034,2684.910094200168,2684.910094200168,2684.910094200168,2684.910094200168,2684.910094200168,65,51,28,72,72,62,5.0,2.2259941999800503,2687.1537776999176,2689.099410200026,,,,,,,,,125,f,1,2022-12-12_11h42.38.277,RL,2022.2.4,60.15598454919238,
1,30,0,30,0,,,,,,,,,,None,2689.099410200026,2689.099410200026,2689.099410200026,2689.099410200026,2689.099410200026,2689.099410200026,j,0.5161721999756992,2689.6512474999763,2689.6512474999763,2689.6512474999763,2689.6512474999763,2689.6512474999763,2689.6512474999763,2689.9471166003495,2689.9471166003495,2690.8945999001153,2690.8945999001153,2690.8945999001153,2690.8945999001153,2690.8945999001153,2690.8945999001153,2690.8945999001153,2690.8945999001153,2690.8945999001153,2690.8945999001153,2690.8945999001153,2690.8945999001153,2690.8945999001153,2690.8945999001153,2690.8945999001153,2690.8945999001153,2690.8945999001153,2693.4038206003606,2693.4038206003606,2693.4038206003606,2693.4038206003606,2693.4038206003606,65,52,38,66,66,51,5.0,2.6593402000144124,2696.079287300352,2697.975282799918,,,,,,,,,125,f,1,2022-12-12_11h42.38.277,RL,2022.2.4,60.15598454919238,
1,31,0,31,0,,,,,,,,,,None,2697.975282799918,2697.975282799918,2697.975282799918,2697.975282799918,2697.975282799918,2697.975282799918,j,0.6374439997598529,2698.641095700208,2698.641095700208,2698.641095700208,2698.641095700208,2698.641095700208,2698.641095700208,2698.939517999999,2698.939517999999,2700.6176630002446,2700.6176630002446,2700.6176630002446,2700.6176630002446,2700.6176630002446,2700.6176630002446,2700.6176630002446,2700.6176630002446,2700.6176630002446,2700.6176630002446,2700.6176630002446,2700.6176630002446,2700.6176630002446,2700.6176630002446,2700.6176630002446,2700.6176630002446,2700.6176630002446,2703.127257999964,2703.127257999964,2703.127257999964,2703.127257999964,2703.127257999964,58,63,39,72,72,48,6.0,0.6968568000011146,2703.841374900192,2705.487822300289,,,,,,,,,125,f,1,2022-12-12_11h42.38.277,RL,2022.2.4,60.15598454919238,
1,32,0,32,0,,,,,,,,,,None,2705.487822300289,2705.487822300289,2705.487822300289,2705.487822300289,2705.487822300289,2705.487822300289,j,0.43012299994006753,2705.938906900119,2705.938906900119,2705.938906900119,2705.938906900119,2705.938906900119,2705.938906900119,2706.2358377999626,2706.2358377999626,2708.030919600278,2708.030919600278,2708.0477519002743,2708.0477519002743,2708.0477519002743,2708.0477519002743,2708.0477519002743,2708.0477519002743,2708.0477519002743,2708.0477519002743,2708.0477519002743,2708.0477519002743,2708.0477519002743,2708.0477519002743,2708.0477519002743,2708.0477519002743,2708.0477519002743,2710.556978400331,2710.556978400331,2710.556978400331,2710.556978400331,2710.556978400331,61,64,39,69,69,78,4.0,0.9467083001509309,2711.5209439001046,2713.2663283003494,,,,,,,,,125,f,1,2022-12-12_11h42.38.277,RL,2022.2.4,60.15598454919238,
1,33,0,33,0,,,,,,,,,,None,2713.2663283003494,2713.2663283003494,2713.2663283003494,2713.2663283003494,2713.2663283003494,2713.2663283003494,j,0.40549009991809726,2713.6990090003237,2713.6990090003237,2713.6990090003237,2713.6990090003237,2713.6990090003237,2713.6990090003237,2713.998350900132,2713.998350900132,2715.2283787000924,2715.2283787000924,2715.2283787000924,2715.2283787000924,2715.2283787000924,2715.2283787000924,2715.2283787000924,2715.2283787000924,2715.2283787000924,2715.2283787000924,2715.2283787000924,2715.2283787000924,2715.2283787000924,2715.2283787000924,2715.2283787000924,2715.2283787000924,2715.2283787000924,2717.7370726000518,2717.7370726000518,2717.7370726000518,2717.7370726000518,2717.7370726000518,63,59,32,81,81,71,5.0,1.8109448999166489,2719.5652018003166,2721.1952476003207,,,,,,,,,125,f,1,2022-12-12_11h42.38.277,RL,2022.2.4,60.15598454919238,
1,34,0,34,0,,,,,,,,,,None,2721.1952476003207,2721.1952476003207,2721.1952476003207,2721.1952476003207,2721.1952476003207,2721.1952476003207,j,0.5050892997533083,2721.7283685002476,2721.7283685002476,2721.7283685002476,2721.7283685002476,2721.7283685002476,2721.7283685002476,2722.026252100244,2722.026252100244,2723.9707893999293,2723.9707893999293,2723.9707893999293,2723.9707893999293,2723.9707893999293,2723.9707893999293,2723.9707893999293,2723.9707893999293,2723.9707893999293,2723.9707893999293,2723.9707893999293,2723.9707893999293,2723.9707893999293,2723.9707893999293,2723.9707893999293,2723.9707893999293,2723.9707893999293,2726.4798467000946,2726.4798467000946,2726.4798467000946,2726.4798467000946,2726.4798467000946,66,54,34,75,75,32,5.0,0.830678700003773,2727.327715900261,2729.023805500008,,,,,,,,,125,f,1,2022-12-12_11h42.38.277,RL,2022.2.4,60.15598454919238,
1,35,0,35,0,,,,,,,,,,None,2729.023805500008,2729.023805500008,2729.023805500008,2729.023805500008,2729.023805500008,2729.023805500008,j,0.5700436998158693,2729.624244800303,2729.624244800303,2729.624244800303,2729.624244800303,2729.624244800303,2729.624244800303,2729.921514700167,2729.921514700167,2731.5665525002405,2731.5665525002405,2731.583355500363,2731.583355500363,2731.583355500363,2731.583355500363,2731.583355500363,2731.583355500363,2731.583355500363,2731.583355500363,2731.583355500363,2731.583355500363,2731.583355500363,2731.583355500363,2731.583355500363,2731.583355500363,2731.583355500363,2734.092726800125,2734.092726800125,2734.092726800125,2734.092726800125,2734.092726800125,71,66,30,72,72,37,5.0,2.0770777999423444,2736.186917600222,2737.9989117002115,,,,,,,,,125,f,1,2022-12-12_11h42.38.277,RL,2022.2.4,60.15598454919238,
1,36,0,36,0,,,,,,,,,,None,2737.9989117002115,2737.9989117002115,2737.9989117002115,2737.9989117002115,2737.9989117002115,2737.9989117002115,j,0.27832059981301427,2738.2993755000643,2738.2993755000643,2738.2993755000643,2738.2993755000643,2738.2993755000643,2738.2993755000643,2738.5978741999716,2738.5978741999716,2739.5117304003797,2739.5117304003797,2739.5117304003797,2739.5117304003797,2739.5117304003797,2739.5117304003797,2739.5117304003797,2739.5117304003797,2739.5117304003797,2739.5117304003797,2739.5117304003797,2739.5117304003797,2739.5117304003797,2739.5117304003797,2739.5117304003797,2739.5117304003797,2739.5117304003797,2742.020687900018,2742.020687900018,2742.020687900018,2742.020687900018,2742.020687900018,63,54,36,67,67,60,5.0,1.5614952999167144,2743.599932400044,2745.5116657000035,,,,,,,,,125,f,1,2022-12-12_11h42.38.277,RL,2022.2.4,60.15598454919238,
1,37,0,37,0,,,,,,,,,,None,2745.5116657000035,2745.5116657000035,2745.5116657000035,2745.5116657000035,2745.5116657000035,2745.5116657000035,j,0.43527689995244145,2745.979260200169,2745.979260200169,2745.979260200169,2745.979260200169,2745.979260200169,2745.979260200169,2746.276626000181,2746.276626000181,2747.755950300023,2747.755950300023,2747.77281200001,2747.77281200001,2747.77281200001,2747.77281200001,2747.77281200001,2747.77281200001,2747.77281200001,2747.77281200001,2747.77281200001,2747.77281200001,2747.77281200001,2747.77281200001,2747.77281200001,2747.77281200001,2747.77281200001,2750.2818567003123,2750.2818567003123,2750.2818567003123,2750.2818567003123,2750.2818567003123,56,46,32,75,75,58,5.0,1.6442285999655724,2751.943879000377,2753.656122500077,,,,,,,,,125,f,1,2022-12-12_11h42.38.277,RL,2022.2.4,60.15598454919238,
1,38,0,38,0,,,,,,,,,,None,2753.656122500077,2753.656122500077,2753.656122500077,2753.656122500077,2753.656122500077,2753.656122500077,j,0.4834960997104645,2754.173687300179,2754.173687300179,2754.173687300179,2754.173687300179,2754.173687300179,2754.173687300179,2754.4712817999534,2754.4712817999534,2755.700864300132,2755.700864300132,2755.700864300132,2755.700864300132,2755.700864300132,2755.700864300132,2755.700864300132,2755.700864300132,2755.700864300132,2755.700864300132,2755.700864300132,2755.700864300132,2755.700864300132,2755.700864300132,2755.700864300132,2755.700864300132,2755.700864300132,2758.210162700154,2758.210162700154,2758.210162700154,2758.210162700154,2758.210162700154,68,46,26,74,74,57,5.0,1.8931594002060592,2760.121435900219,2761.8506833999418,,,,,,,,,125,f,1,2022-12-12_11h42.38.277,RL,2022.2.4,60.15598454919238,
1,39,0,39,0,,,,,,,,,,None,2761.8506833999418,2761.8506833999418,2761.8506833999418,2761.8506833999418,2761.8506833999418,2761.8506833999418,j,0.6431766003370285,2762.5177770000882,2762.5177770000882,2762.5177770000882,2762.5177770000882,2762.5177770000882,2762.5177770000882,2762.814831700176,2762.814831700176,2764.377540800255,2764.377540800255,2764.377540800255,2764.377540800255,2764.377540800255,2764.377540800255,2764.377540800255,2764.377540800255,2764.377540800255,2764.377540800255,2764.377540800255,2764.377540800255,2764.377540800255,2764.377540800255,2764.377540800255,2764.377540800255,2764.377540800255,2766.886505300179,2766.886505300179,2766.886505300179,2766.886505300179,2766.886505300179,55,57,19,76,76,55,5.0,1.4621226000599563,2768.36535250023,2770.161137400195,,,,,,,,,125,f,1,2022-12-12_11h42.38.277,RL,2022.2.4,60.15598454919238,
1,40,0,40,0,,,,,,,,,,None,2770.161137400195,2770.161137400195,2770.161137400195,2770.161137400195,2770.161137400195,2770.161137400195,j,0.42568799993023276,2770.610865800176,2770.610865800176,2770.610865800176,2770.610865800176,2770.610865800176,2770.610865800176,2770.9097990002483,2770.9097990002483,2771.7403187002055,2771.7403187002055,2771.7403187002055,2771.7403187002055,2771.7403187002055,2771.7403187002055,2771.7403187002055,2771.7403187002055,2771.7403187002055,2771.7403187002055,2771.7403187002055,2771.7403187002055,2771.7403187002055,2771.7403187002055,2771.7403187002055,2771.7403187002055,2771.7403187002055,2774.2494435999542,2774.2494435999542,2774.2494435999542,2774.2494435999542,2774.2494435999542,58,59,16,72,72,51,5.0,1.7281599999405444,2775.9951491001993,2777.823518200312,,,,,,,,,125,f,1,2022-12-12_11h42.38.277,RL,2022.2.4,60.15598454919238,
1,41,0,41,0,,,,,,,,,,None,2777.823518200312,2777.823518200312,2777.823518200312,2777.823518200312,2777.823518200312,2777.823518200312,j,0.43233640026301146,2778.291383600328,2778.291383600328,2778.291383600328,2778.291383600328,2778.291383600328,2778.291383600328,2778.58867680002,2778.58867680002,2780.217565699946,2780.217565699946,2780.2343032001518,2780.2343032001518,2780.2343032001518,2780.2343032001518,2780.2343032001518,2780.2343032001518,2780.2343032001518,2780.2343032001518,2780.2343032001518,2780.2343032001518,2780.2343032001518,2780.2343032001518,2780.2343032001518,2780.2343032001518,2780.2343032001518,2782.7431737002917,2782.7431737002917,2782.7431737002917,2782.7431737002917,2782.7431737002917,60,52,15,70,70,51,5.0,0.8135051000863314,2783.5744349001907,2785.519693800248,,,,,,,,,125,f,1,2022-12-12_11h42.38.277,RL,2022.2.4,60.15598454919238,
1,42,0,42,0,,,,,,,,,,None,2785.519693800248,2785.519693800248,2785.519693800248,2785.519693800248,2785.519693800248,2785.519693800248,j,0.5003963001072407,2786.05339669995,2786.05339669995,2786.05339669995,2786.05339669995,2786.05339669995,2786.05339669995,2786.3506273003295,2786.3506273003295,2787.348046500236,2787.348046500236,2787.348046500236,2787.348046500236,2787.348046500236,2787.348046500236,2787.348046500236,2787.348046500236,2787.348046500236,2787.348046500236,2787.348046500236,2787.348046500236,2787.348046500236,2787.348046500236,2787.348046500236,2787.348046500236,2787.348046500236,2789.8572554001585,2789.8572554001585,2789.8572554001585,2789.8572554001585,2789.8572554001585,58,56,29,70,70,46,5.0,0.6630950001999736,2790.538280900102,2792.466943100095,,,,,,,,,125,f,1,2022-12-12_11h42.38.277,RL,2022.2.4,60.15598454919238,
1,43,0,43,0,,,,,,,,,,None,2792.466943100095,2792.466943100095,2792.466943100095,2792.466943100095,2792.466943100095,2792.466943100095,j,0.3039183998480439,2792.80178530002,2792.80178530002,2792.80178530002,2792.80178530002,2792.80178530002,2792.80178530002,2793.0988471000455,2793.0988471000455,2794.5284065003507,2794.5284065003507,2794.5284065003507,2794.5284065003507,2794.5284065003507,2794.5284065003507,2794.5284065003507,2794.5284065003507,2794.5284065003507,2794.5284065003507,2794.5284065003507,2794.5284065003507,2794.5284065003507,2794.5284065003507,2794.5284065003507,2794.5284065003507,2794.5284065003507,2797.0377032002434,2797.0377032002434,2797.0377032002434,2797.0377032002434,2797.0377032002434,59,54,23,74,74,37,5.0,0.514052199665457,2797.569153400138,2799.0825614002533,,,,,,,,,125,f,1,2022-12-12_11h42.38.277,RL,2022.2.4,60.15598454919238,
1,44,0,44,0,,,,,,,,,,None,2799.0825614002533,2799.0825614002533,2799.0825614002533,2799.0825614002533,2799.0825614002533,2799.0825614002533,j,0.6636525001376867,2799.7662881999277,2799.7662881999277,2799.7662881999277,2799.7662881999277,2799.7662881999277,2799.7662881999277,2800.063363700174,2800.063363700174,2801.1438325000927,2801.1438325000927,2801.1603192002513,2801.1603192002513,2801.1603192002513,2801.1603192002513,2801.1603192002513,2801.1603192002513,2801.1603192002513,2801.1603192002513,2801.1603192002513,2801.1603192002513,2801.1603192002513,2801.1603192002513,2801.1603192002513,2801.1603192002513,2801.1603192002513,2803.6692042001523,2803.6692042001523,2803.6692042001523,2803.6692042001523,2803.6692042001523,65,54,27,67,67,60,5.0,1.1792293000034988,2804.866124700289,2806.6449657003395,,,,,,,,,125,f,1,2022-12-12_11h42.38.277,RL,2022.2.4,60.15598454919238,
1,45,0,45,0,,,,,,,,,,None,2806.6449657003395,2806.6449657003395,2806.6449657003395,2806.6449657003395,2806.6449657003395,2806.6449657003395,j,0.2422147998586297,2806.913172900211,2806.913172900211,2806.913172900211,2806.913172900211,2806.913172900211,2806.913172900211,2807.2103361999616,2807.2103361999616,2809.1219655000605,2809.1219655000605,2809.138646800071,2809.138646800071,2809.138646800071,2809.138646800071,2809.138646800071,2809.138646800071,2809.138646800071,2809.138646800071,2809.138646800071,2809.138646800071,2809.138646800071,2809.138646800071,2809.138646800071,2809.138646800071,2809.138646800071,2811.647367400117,2811.647367400117,2811.647367400117,2811.647367400117,2811.647367400117,57,56,18,70,70,52,5.0,1.6273567001335323,2813.293256700039,2815.2718001003377,,,,,,,,,125,f,1,2022-12-12_11h42.38.277,RL,2022.2.4,60.15598454919238,
1,46,0,46,0,,,,,,,,,,None,2815.2718001003377,2815.2718001003377,2815.2718001003377,2815.2718001003377,2815.2718001003377,2815.2718001003377,j,0.3467587996274233,2815.6384196002036,2815.6384196002036,2815.6384196002036,2815.6384196002036,2815.6384196002036,2815.6384196002036,2815.936563800089,2815.936563800089,2817.0002983002923,2817.0002983002923,2817.0002983002923,2817.0002983002923,2817.0002983002923,2817.0002983002923,2817.0002983002923,2817.0002983002923,2817.0002983002923,2817.0002983002923,2817.0002983002923,2817.0002983002923,2817.0002983002923,2817.0002983002923,2817.0002983002923,2817.0002983002923,2817.0002983002923,2819.5093157002702,2819.5093157002702,2819.5093157002702,2819.5093157002702,2819.5093157002702,49,67,23,60,60,41,5.0,1.561479500029236,2821.0888511002995,2822.834187600296,,,,,,,,,125,f,1,2022-12-12_11h42.38.277,RL,2022.2.4,60.15598454919238,
1,47,0,47,0,,,,,,,,,,None,2822.834187600296,2822.834187600296,2822.834187600296,2822.834187600296,2822.834187600296,2822.834187600296,j,0.37886990001425147,2823.2347381999716,2823.2347381999716,2823.2347381999716,2823.2347381999716,2823.2347381999716,2823.2347381999716,2823.5327357002534,2823.5327357002534,2825.2277680002153,2825.2277680002153,2825.2446945002303,2825.2446945002303,2825.2446945002303,2825.2446945002303,2825.2446945002303,2825.2446945002303,2825.2446945002303,2825.2446945002303,2825.2446945002303,2825.2446945002303,2825.2446945002303,2825.2446945002303,2825.2446945002303,2825.2446945002303,2825.2446945002303,2827.7537071001716,2827.7537071001716,2827.7537071001716,2827.7537071001716,2827.7537071001716,55,67,26,63,63,53,5.0,0.4150120001286268,2828.185647400096,2830.1477363002487,,,,,,,,,125,f,1,2022-12-12_11h42.38.277,RL,2022.2.4,60.15598454919238,
1,48,0,48,0,,,,,,,,,,None,2830.1477363002487,2830.1477363002487,2830.1477363002487,2830.1477363002487,2830.1477363002487,2830.1477363002487,j,0.29605580028146505,2830.4644682002254,2830.4644682002254,2830.4644682002254,2830.4644682002254,2830.4644682002254,2830.4644682002254,2830.7629072000273,2830.7629072000273,2831.843581000343,2831.843581000343,2831.843581000343,2831.843581000343,2831.843581000343,2831.843581000343,2831.843581000343,2831.843581000343,2831.843581000343,2831.843581000343,2831.843581000343,2831.843581000343,2831.843581000343,2831.843581000343,2831.843581000343,2831.843581000343,2831.843581000343,2834.3521319003776,2834.3521319003776,2834.3521319003776,2834.3521319003776,2834.3521319003776,48,77,24,58,58,52,4.0,2.758380899671465,2837.1277258000337,2839.089779499918,,,,,,,,,125,f,1,2022-12-12_11h42.38.277,RL,2022.2.4,60.15598454919238,
1,49,0,49,0,,,,,,,,,,None,2839.089779499918,2839.089779499918,2839.089779499918,2839.089779499918,2839.089779499918,2839.089779499918,j,0.3652539998292923,2839.4749533003196,2839.4749533003196,2839.4749533003196,2839.4749533003196,2839.4749533003196,2839.4749533003196,2839.771479899995,2839.771479899995,2841.716036800295,2841.716036800295,2841.716036800295,2841.716036800295,2841.716036800295,2841.716036800295,2841.716036800295,2841.716036800295,2841.716036800295,2841.716036800295,2841.716036800295,2841.716036800295,2841.716036800295,2841.716036800295,2841.716036800295,2841.716036800295,2841.716036800295,2844.2251181001775,2844.2251181001775,2844.2251181001775,2844.2251181001775,2844.2251181001775,49,72,26,63,63,57,4.0,1.729057699907571,2845.9705269001424,2847.8328153002076,,,,,,,,,125,f,1,2022-12-12_11h42.38.277,RL,2022.2.4,60.15598454919238,
1,50,0,50,0,,,,,,,,,,None,2847.8328153002076,2847.8328153002076,2847.8328153002076,2847.8328153002076,2847.8328153002076,2847.8328153002076,j,1.0791917000897229,2848.9325625002384,2848.9325625002384,2848.9325625002384,2848.9325625002384,2848.9325625002384,2848.9325625002384,2849.2294133999385,2849.2294133999385,2850.359702799935,2850.359702799935,2850.359702799935,2850.359702799935,2850.359702799935,2850.359702799935,2850.359702799935,2850.359702799935,2850.359702799935,2850.359702799935,2850.359702799935,2850.359702799935,2850.359702799935,2850.359702799935,2850.359702799935,2850.359702799935,2850.359702799935,2852.8684380999766,2852.8684380999766,2852.8684380999766,2852.8684380999766,2852.8684380999766,50,58,31,51,51,41,5.0,0.63098210003227,2853.516925300006,2855.11310019996,,,,,,,,,125,f,1,2022-12-12_11h42.38.277,RL,2022.2.4,60.15598454919238,
1,51,0,51,0,,,,,,,,,,None,2855.11310019996,2855.11310019996,2855.11310019996,2855.11310019996,2855.11310019996,2855.11310019996,j,0.37455639988183975,2855.5146828000434,2855.5146828000434,2855.5146828000434,2855.5146828000434,2855.5146828000434,2855.5146828000434,2855.811023199931,2855.811023199931,2856.7919654003344,2856.7919654003344,2856.7919654003344,2856.7919654003344,2856.7919654003344,2856.7919654003344,2856.7919654003344,2856.7919654003344,2856.7919654003344,2856.7919654003344,2856.7919654003344,2856.7919654003344,2856.7919654003344,2856.7919654003344,2856.7919654003344,2856.7919654003344,2856.7919654003344,2859.301284899935,2859.301284899935,2859.301284899935,2859.301284899935,2859.301284899935,45,71,22,54,54,50,5.0,0.9299766002222896,2860.2485859999433,2861.994195899926,,,,,,,,,125,f,1,2022-12-12_11h42.38.277,RL,2022.2.4,60.15598454919238,
1,52,0,52,0,,,,,,,,,,None,2861.994195899926,2861.994195899926,2861.994195899926,2861.994195899926,2861.994195899926,2861.994195899926,r,0.32899949979037046,2862.345604200382,2862.345604200382,2862.345604200382,2862.345604200382,2862.345604200382,2862.345604200382,2862.6427878001705,2862.6427878001705,2864.2881587003358,2864.2881587003358,2864.3043637000956,2864.3043637000956,2864.3043637000956,2864.3043637000956,2864.3043637000956,2864.3043637000956,2864.3043637000956,2864.3043637000956,2864.3043637000956,2864.3043637000956,2864.3043637000956,2864.3043637000956,2864.3043637000956,2864.3043637000956,2864.3043637000956,2866.8139035999775,2866.8139035999775,2866.8139035999775,2866.8139035999775,2866.8139035999775,46,66,25,63,46,47,5.0,0.9293987997807562,2867.7613634001464,2869.340780999977,,,,,,,,,125,f,1,2022-12-12_11h42.38.277,RL,2022.2.4,60.15598454919238,
1,53,0,53,0,,,,,,,,,,None,2869.340780999977,2869.340780999977,2869.340780999977,2869.340780999977,2869.340780999977,2869.340780999977,r,0.40681860037148,2869.7744050002657,2869.7744050002657,2869.7744050002657,2869.7744050002657,2869.7744050002657,2869.7744050002657,2870.072182100266,2870.072182100266,2871.1196705000475,2871.1196705000475,2871.1196705000475,2871.1196705000475,2871.1196705000475,2871.1196705000475,2871.1196705000475,2871.1196705000475,2871.1196705000475,2871.1196705000475,2871.1196705000475,2871.1196705000475,2871.1196705000475,2871.1196705000475,2871.1196705000475,2871.1196705000475,2871.1196705000475,2873.6285673002712,2873.6285673002712,2873.6285673002712,2873.6285673002712,2873.6285673002712,53,66,30,52,53,67,3.0,2.6092523001134396,2876.2546121003106,2877.9341995003633,,,,,,,,,125,f,1,2022-12-12_11h42.38.277,RL,2022.2.4,60.15598454919238,
1,54,0,54,0,,,,,,,,,,None,2877.9341995003633,2877.9341995003633,2877.9341995003633,2877.9341995003633,2877.9341995003633,2877.9341995003633,j,0.262402500025928,2878.218498600181,2878.218498600181,2878.218498600181,2878.218498600181,2878.218498600181,2878.218498600181,2878.516219400335,2878.516219400335,2879.911993500311,2879.911993500311,2879.911993500311,2879.911993500311,2879.911993500311,2879.911993500311,2879.911993500311,2879.911993500311,2879.911993500311,2879.911993500311,2879.911993500311,2879.911993500311,2879.911993500311,2879.911993500311,2879.911993500311,2879.911993500311,2879.911993500311,2882.4213283001445,2882.4213283001445,2882.4213283001445,2882.4213283001445,2882.4213283001445,52,64,32,59,59,60,3.0,1.262277000118047,2883.700999100227,2885.6460942002013,,,,,,,,,125,f,1,2022-12-12_11h42.38.277,RL,2022.2.4,60.15598454919238,
1,55,0,55,0,,,,,,,,,,None,2885.6460942002013,2885.6460942002013,2885.6460942002013,2885.6460942002013,2885.6460942002013,2885.6460942002013,j,0.3392382999882102,2886.01361740008,2886.01361740008,2886.01361740008,2886.01361740008,2886.01361740008,2886.01361740008,2886.3115799999796,2886.3115799999796,2887.474955700338,2887.474955700338,2887.474955700338,2887.474955700338,2887.474955700338,2887.474955700338,2887.474955700338,2887.474955700338,2887.474955700338,2887.474955700338,2887.474955700338,2887.474955700338,2887.474955700338,2887.474955700338,2887.474955700338,2887.474955700338,2887.474955700338,2889.9839966003783,2889.9839966003783,2889.9839966003783,2889.9839966003783,2889.9839966003783,46,58,26,55,55,55,3.0,1.013995099812746,2891.014321700204,2892.7267859000713,,,,,,,,,125,f,1,2022-12-12_11h42.38.277,RL,2022.2.4,60.15598454919238,
1,56,0,56,0,,,,,,,,,,None,2892.7267859000713,2892.7267859000713,2892.7267859000713,2892.7267859000713,2892.7267859000713,2892.7267859000713,j,0.36351299984380603,2893.1142637003213,2893.1142637003213,2893.1142637003213,2893.1142637003213,2893.1142637003213,2893.1142637003213,2893.408756200224,2893.408756200224,2895.220139000099,2895.220139000099,2895.2373672001995,2895.2373672001995,2895.2373672001995,2895.2373672001995,2895.2373672001995,2895.2373672001995,2895.2373672001995,2895.2373672001995,2895.2373672001995,2895.2373672001995,2895.2373672001995,2895.2373672001995,2895.2373672001995,2895.2373672001995,2895.2373672001995,2897.7458037002943,2897.7458037002943,2897.7458037002943,2897.7458037002943,2897.7458037002943,53,59,39,50,50,60,3.0,0.44760849978774786,2898.2115842001513,2899.807701300364,,,,,,,,,125,f,1,2022-12-12_11h42.38.277,RL,2022.2.4,60.15598454919238,
1,57,0,57,0,,,,,,,,,,None,2899.807701300364,2899.807701300364,2899.807701300364,2899.807701300364,2899.807701300364,2899.807701300364,r,0.4318890003487468,2900.2750678001903,2900.2750678001903,2900.2750678001903,2900.2750678001903,2900.2750678001903,2900.2750678001903,2900.5723216002807,2900.5723216002807,2902.450528800022,2902.450528800022,2902.450528800022,2902.450528800022,2902.450528800022,2902.450528800022,2902.450528800022,2902.450528800022,2902.450528800022,2902.450528800022,2902.450528800022,2902.450528800022,2902.450528800022,2902.450528800022,2902.450528800022,2902.450528800022,2902.450528800022,2904.9595313002355,2904.9595313002355,2904.9595313002355,2904.9595313002355,2904.9595313002355,51,56,43,45,51,62,3.0,0.6144387000240386,2905.5914396001026,2907.3038602001034,,,,,,,,,125,f,1,2022-12-12_11h42.38.277,RL,2022.2.4,60.15598454919238,
1,58,0,58,0,,,,,,,,,,None,2907.3038602001034,2907.3038602001034,2907.3038602001034,2907.3038602001034,2907.3038602001034,2907.3038602001034,f,0.44102559983730316,2907.7695920001715,2907.7695920001715,2907.7695920001715,2907.7695920001715,2907.7695920001715,2907.7695920001715,2908.068543200381,2908.068543200381,2909.464893599972,2909.464893599972,2909.464893599972,2909.464893599972,2909.464893599972,2909.464893599972,2909.464893599972,2909.464893599972,2909.464893599972,2909.464893599972,2909.464893599972,2909.464893599972,2909.464893599972,2909.464893599972,2909.464893599972,2909.464893599972,2909.464893599972,2911.974141200073,2911.974141200073,2911.974141200073,2911.974141200073,2911.974141200073,57,53,44,38,53,65,3.0,0.4309308002702892,2912.422382300254,2913.9524646000937,,,,,,,,,125,f,1,2022-12-12_11h42.38.277,RL,2022.2.4,60.15598454919238,
1,59,0,59,0,,,,,,,,,,None,2913.9524646000937,2913.9524646000937,2913.9524646000937,2913.9524646000937,2913.9524646000937,2913.9524646000937,i,0.47202960029244423,2914.452697100118,2914.452697100118,2914.452697100118,2914.452697100118,2914.452697100118,2914.452697100118,2914.750434400048,2914.750434400048,2915.7644267999567,2915.7644267999567,2915.7644267999567,2915.7644267999567,2915.7644267999567,2915.7644267999567,2915.7644267999567,2915.7644267999567,2915.7644267999567,2915.7644267999567,2915.7644267999567,2915.7644267999567,2915.7644267999567,2915.7644267999567,2915.7644267999567,2915.7644267999567,2915.7644267999567,2918.2732758000493,2918.2732758000493,2918.2732758000493,2918.2732758000493,2918.2732758000493,57,54,43,46,43,64,3.0,0.6641076998785138,2918.9550477000885,2920.584264300298,,,,,,,,,125,f,1,2022-12-12_11h42.38.277,RL,2022.2.4,60.15598454919238,
1,60,0,60,0,,,,,,,,,,None,2920.584264300298,2920.584264300298,2920.584264300298,2920.584264300298,2920.584264300298,2920.584264300298,j,0.2763420999981463,2920.8851979002357,2920.8851979002357,2920.8851979002357,2920.8851979002357,2920.8851979002357,2920.8851979002357,2921.183065399993,2921.183065399993,2922.4127707001753,2922.4127707001753,2922.42930920003,2922.42930920003,2922.42930920003,2922.42930920003,2922.42930920003,2922.42930920003,2922.42930920003,2922.42930920003,2922.42930920003,2922.42930920003,2922.42930920003,2922.42930920003,2922.42930920003,2922.42930920003,2922.42930920003,2924.938441600185,2924.938441600185,2924.938441600185,2924.938441600185,2924.938441600185,61,55,37,47,47,54,3.0,0.8131198999471962,2925.7693223999813,2927.681516900193,,,,,,,,,125,f,1,2022-12-12_11h42.38.277,RL,2022.2.4,60.15598454919238,
1,61,0,61,0,,,,,,,,,,None,2927.681516900193,2927.681516900193,2927.681516900193,2927.681516900193,2927.681516900193,2927.681516900193,j,0.43928249971941113,2928.1487130001187,2928.1487130001187,2928.1487130001187,2928.1487130001187,2928.1487130001187,2928.1487130001187,2928.4463742002845,2928.4463742002845,2929.6594637003727,2929.6594637003727,2929.6594637003727,2929.6594637003727,2929.6594637003727,2929.6594637003727,2929.6594637003727,2929.6594637003727,2929.6594637003727,2929.6594637003727,2929.6594637003727,2929.6594637003727,2929.6594637003727,2929.6594637003727,2929.6594637003727,2929.6594637003727,2929.6594637003727,2932.169153700117,2932.169153700117,2932.169153700117,2932.169153700117,2932.169153700117,57,59,46,45,45,58,3.0,0.4972155001014471,2932.68373600021,2934.3131597000174,,,,,,,,,125,f,1,2022-12-12_11h42.38.277,RL,2022.2.4,60.15598454919238,
1,62,0,62,0,,,,,,,,,,None,2934.3131597000174,2934.3131597000174,2934.3131597000174,2934.3131597000174,2934.3131597000174,2934.3131597000174,r,0.3234256999567151,2934.664309600368,2934.664309600368,2934.664309600368,2934.664309600368,2934.664309600368,2934.664309600368,2934.962063900195,2934.962063900195,2935.8097928999923,2935.8097928999923,2935.8097928999923,2935.8097928999923,2935.8097928999923,2935.8097928999923,2935.8097928999923,2935.8097928999923,2935.8097928999923,2935.8097928999923,2935.8097928999923,2935.8097928999923,2935.8097928999923,2935.8097928999923,2935.8097928999923,2935.8097928999923,2935.8097928999923,2938.319221999962,2938.319221999962,2938.319221999962,2938.319221999962,2938.319221999962,63,59,30,49,63,59,4.0,1.2622919999994338,2939.598801500164,2941.1447071000002,,,,,,,,,125,f,1,2022-12-12_11h42.38.277,RL,2022.2.4,60.15598454919238,
1,63,0,63,0,,,,,,,,,,None,2941.1447071000002,2941.1447071000002,2941.1447071000002,2941.1447071000002,2941.1447071000002,2941.1447071000002,r,0.5172021999023855,2941.6954494002275,2941.6954494002275,2941.6954494002275,2941.6954494002275,2941.6954494002275,2941.6954494002275,2941.9928465001285,2941.9928465001285,2943.322558700107,2943.322558700107,2943.322558700107,2943.322558700107,2943.322558700107,2943.322558700107,2943.322558700107,2943.322558700107,2943.322558700107,2943.322558700107,2943.322558700107,2943.322558700107,2943.322558700107,2943.322558700107,2943.322558700107,2943.322558700107,2943.322558700107,2945.831721900031,2945.831721900031,2945.831721900031,2945.831721900031,2945.831721900031,61,64,43,46,61,64,4.0,0.5805216003209352,2946.4296828000806,2948.2422782001086,,,,,,,,,125,f,1,2022-12-12_11h42.38.277,RL,2022.2.4,60.15598454919238,
1,64,0,64,0,,,,,,,,,,None,2948.2422782001086,2948.2422782001086,2948.2422782001086,2948.2422782001086,2948.2422782001086,2948.2422782001086,r,0.5194920999929309,2948.791645300109,2948.791645300109,2948.791645300109,2948.791645300109,2948.791645300109,2948.791645300109,2949.0900479000993,2949.0900479000993,2950.6028742003255,2950.6028742003255,2950.6028742003255,2950.6028742003255,2950.6028742003255,2950.6028742003255,2950.6028742003255,2950.6028742003255,2950.6028742003255,2950.6028742003255,2950.6028742003255,2950.6028742003255,2950.6028742003255,2950.6028742003255,2950.6028742003255,2950.6028742003255,2950.6028742003255,2953.111898000352,2953.111898000352,2953.111898000352,2953.111898000352,2953.111898000352,48,64,30,40,48,70,3.0,0.8465273999609053,2953.9760921001434,2955.7050141002983,,,,,,,,,125,f,1,2022-12-12_11h42.38.277,RL,2022.2.4,60.15598454919238,
1,65,0,65,0,,,,,,,,,,None,2955.7050141002983,2955.7050141002983,2955.7050141002983,2955.7050141002983,2955.7050141002983,2955.7050141002983,j,0.366686699911952,2956.106781499926,2956.106781499926,2956.106781499926,2956.106781499926,2956.106781499926,2956.106781499926,2956.403549400158,2956.403549400158,2957.6335245002992,2957.6335245002992,2957.6501114000566,2957.6501114000566,2957.6501114000566,2957.6501114000566,2957.6501114000566,2957.6501114000566,2957.6501114000566,2957.6501114000566,2957.6501114000566,2957.6501114000566,2957.6501114000566,2957.6501114000566,2957.6501114000566,2957.6501114000566,2957.6501114000566,2960.1589714,2960.1589714,2960.1589714,2960.1589714,2960.1589714,60,62,34,43,43,61,3.0,0.5304158995859325,2960.707481800113,2962.3701452999376,,,,,,,,,125,f,1,2022-12-12_11h42.38.277,RL,2022.2.4,60.15598454919238,
1,66,0,66,0,,,,,,,,,,None,2962.3701452999376,2962.3701452999376,2962.3701452999376,2962.3701452999376,2962.3701452999376,2962.3701452999376,f,0.696837100200355,2963.0866514001973,2963.0866514001973,2963.0866514001973,2963.0866514001973,2963.0866514001973,2963.0866514001973,2963.3843200001866,2963.3843200001866,2965.278933700174,2965.278933700174,2965.278933700174,2965.278933700174,2965.278933700174,2965.278933700174,2965.278933700174,2965.278933700174,2965.278933700174,2965.278933700174,2965.278933700174,2965.278933700174,2965.278933700174,2965.278933700174,2965.278933700174,2965.278933700174,2965.278933700174,2967.788800800219,2967.788800800219,2967.788800800219,2967.788800800219,2967.788800800219,64,73,47,39,73,41,3.0,1.4618104002438486,2969.267624600325,2970.9969998002052,,,,,,,,,125,f,1,2022-12-12_11h42.38.277,RL,2022.2.4,60.15598454919238,
1,67,0,67,0,,,,,,,,,,None,2970.9969998002052,2970.9969998002052,2970.9969998002052,2970.9969998002052,2970.9969998002052,2970.9969998002052,f,0.34303419990465045,2971.3632768001407,2971.3632768001407,2971.3632768001407,2971.3632768001407,2971.3632768001407,2971.3632768001407,2971.6616853000596,2971.6616853000596,2973.1247920999303,2973.1247920999303,2973.1247920999303,2973.1247920999303,2973.1247920999303,2973.1247920999303,2973.1247920999303,2973.1247920999303,2973.1247920999303,2973.1247920999303,2973.1247920999303,2973.1247920999303,2973.1247920999303,2973.1247920999303,2973.1247920999303,2973.1247920999303,2973.1247920999303,2975.6336453999393,2975.6336453999393,2975.6336453999393,2975.6336453999393,2975.6336453999393,48,63,46,50,63,73,3.0,1.2951189000159502,2976.946669800207,2978.7420966001227,,,,,,,,,125,f,1,2022-12-12_11h42.38.277,RL,2022.2.4,60.15598454919238,
1,68,0,68,0,,,,,,,,,,None,2978.7420966001227,2978.7420966001227,2978.7420966001227,2978.7420966001227,2978.7420966001227,2978.7420966001227,f,0.4321604003198445,2979.2094674999826,2979.2094674999826,2979.2094674999826,2979.2094674999826,2979.2094674999826,2979.2094674999826,2979.5073033003137,2979.5073033003137,2980.670456000138,2980.670456000138,2980.670456000138,2980.670456000138,2980.670456000138,2980.670456000138,2980.670456000138,2980.670456000138,2980.670456000138,2980.670456000138,2980.670456000138,2980.670456000138,2980.670456000138,2980.670456000138,2980.670456000138,2980.670456000138,2980.670456000138,2983.179503099993,2983.179503099993,2983.179503099993,2983.179503099993,2983.179503099993,54,50,36,56,50,57,3.0,0.8295077001675963,2984.0275008999743,2985.955766600091,,,,,,,,,125,f,1,2022-12-12_11h42.38.277,RL,2022.2.4,60.15598454919238,
1,69,0,69,0,,,,,,,,,,None,2985.955766600091,2985.955766600091,2985.955766600091,2985.955766600091,2985.955766600091,2985.955766600091,f,0.5628468999639153,2986.538835100364,2986.538835100364,2986.538835100364,2986.538835100364,2986.538835100364,2986.538835100364,2986.837055400014,2986.837055400014,2987.7344541000202,2987.7344541000202,2987.7344541000202,2987.7344541000202,2987.7344541000202,2987.7344541000202,2987.7344541000202,2987.7344541000202,2987.7344541000202,2987.7344541000202,2987.7344541000202,2987.7344541000202,2987.7344541000202,2987.7344541000202,2987.7344541000202,2987.7344541000202,2987.7344541000202,2990.243903900031,2990.243903900031,2990.243903900031,2990.243903900031,2990.243903900031,61,60,42,61,60,60,3.0,2.2095711999572814,2992.4710579002276,2994.050596400164,,,,,,,,,125,f,1,2022-12-12_11h42.38.277,RL,2022.2.4,60.15598454919238,
1,70,0,70,0,,,,,,,,,,None,2994.050596400164,2994.050596400164,2994.050596400164,2994.050596400164,2994.050596400164,2994.050596400164,j,0.2874118001200259,2994.3683382002637,2994.3683382002637,2994.3683382002637,2994.3683382002637,2994.3683382002637,2994.3683382002637,2994.665591600351,2994.665591600351,2995.7130770003423,2995.7130770003423,2995.7130770003423,2995.7130770003423,2995.7130770003423,2995.7130770003423,2995.7130770003423,2995.7130770003423,2995.7130770003423,2995.7130770003423,2995.7130770003423,2995.7130770003423,2995.7130770003423,2995.7130770003423,2995.7130770003423,2995.7130770003423,2995.7130770003423,2998.221807199996,2998.221807199996,2998.221807199996,2998.221807199996,2998.221807199996,60,59,34,63,63,60,4.0,0.6297544999979436,2998.8696892000735,3000.782105700113,,,,,,,,,125,f,1,2022-12-12_11h42.38.277,RL,2022.2.4,60.15598454919238,
1,71,0,71,0,,,,,,,,,,None,3000.782105700113,3000.782105700113,3000.782105700113,3000.782105700113,3000.782105700113,3000.782105700113,j,0.2617676998488605,3001.066588600166,3001.066588600166,3001.066588600166,3001.066588600166,3001.066588600166,3001.066588600166,3001.3642593999393,3001.3642593999393,3002.5941914003342,3002.5941914003342,3002.5941914003342,3002.5941914003342,3002.5941914003342,3002.5941914003342,3002.5941914003342,3002.5941914003342,3002.5941914003342,3002.5941914003342,3002.5941914003342,3002.5941914003342,3002.5941914003342,3002.5941914003342,3002.5941914003342,3002.5941914003342,3002.5941914003342,3005.1031650002114,3005.1031650002114,3005.1031650002114,3005.1031650002114,3005.1031650002114,64,56,44,59,59,55,4.0,0.7634034003131092,3005.884179800283,3007.4308011000976,,,,,,,,,125,f,1,2022-12-12_11h42.38.277,RL,2022.2.4,60.15598454919238,
1,72,0,72,0,,,,,,,,,,None,3007.4308011000976,3007.4308011000976,3007.4308011000976,3007.4308011000976,3007.4308011000976,3007.4308011000976,j,0.4139569001272321,3007.8656145003624,3007.8656145003624,3007.8656145003624,3007.8656145003624,3007.8656145003624,3007.8656145003624,3008.162250400055,3008.162250400055,3010.139979199972,3010.139979199972,3010.139979199972,3010.139979199972,3010.139979199972,3010.139979199972,3010.139979199972,3010.139979199972,3010.139979199972,3010.139979199972,3010.139979199972,3010.139979199972,3010.139979199972,3010.139979199972,3010.139979199972,3010.139979199972,3010.139979199972,3012.6492000003345,3012.6492000003345,3012.6492000003345,3012.6492000003345,3012.6492000003345,63,71,39,63,63,44,5.0,1.1794552002102137,3013.845883199945,3015.691421700176,,,,,,,,,125,f,1,2022-12-12_11h42.38.277,RL,2022.2.4,60.15598454919238,
1,73,0,73,0,,,,,,,,,,None,3015.691421700176,3015.691421700176,3015.691421700176,3015.691421700176,3015.691421700176,3015.691421700176,j,0.3611957002431154,3016.075407500379,3016.075407500379,3016.075407500379,3016.075407500379,3016.075407500379,3016.075407500379,3016.3734563002363,3016.3734563002363,3018.218034900259,3018.218034900259,3018.218034900259,3018.218034900259,3018.218034900259,3018.218034900259,3018.218034900259,3018.218034900259,3018.218034900259,3018.218034900259,3018.218034900259,3018.218034900259,3018.218034900259,3018.218034900259,3018.218034900259,3018.218034900259,3018.218034900259,3020.7269566003233,3020.7269566003233,3020.7269566003233,3020.7269566003233,3020.7269566003233,72,72,44,53,53,66,3.0,1.1628258000127971,3021.90739630023,3023.5531946001574,,,,,,,,,125,f,1,2022-12-12_11h42.38.277,RL,2022.2.4,60.15598454919238,
1,74,0,74,0,,,,,,,,,,None,3023.5531946001574,3023.5531946001574,3023.5531946001574,3023.5531946001574,3023.5531946001574,3023.5531946001574,r,0.6292318999767303,3024.204645300284,3024.204645300284,3024.204645300284,3024.204645300284,3024.204645300284,3024.204645300284,3024.500837100204,3024.500837100204,3025.764054100029,3025.764054100029,3025.764054100029,3025.764054100029,3025.764054100029,3025.764054100029,3025.764054100029,3025.764054100029,3025.764054100029,3025.764054100029,3025.764054100029,3025.764054100029,3025.764054100029,3025.764054100029,3025.764054100029,3025.764054100029,3025.764054100029,3028.2734511001036,3028.2734511001036,3028.2734511001036,3028.2734511001036,3028.2734511001036,64,68,34,58,64,67,4.0,0.5305586000904441,3028.8217589003034,3030.517615900375,,,,,,,,,125,f,1,2022-12-12_11h42.38.277,RL,2022.2.4,60.15598454919238,
1,75,0,75,0,,,,,,,,,,q,3090.3048193999566,3090.3048193999566,3090.3048193999566,3090.3048193999566,3090.3048193999566,3090.3048193999566,r,1.2094560996629298,3091.538035900332,3091.538035900332,3091.538035900332,3091.538035900332,3091.538035900332,3091.538035900332,3091.834057400003,3091.834057400003,3093.3796749999747,3093.3796749999747,3093.3796749999747,3093.3796749999747,3093.3796749999747,3093.3796749999747,3093.3796749999747,3093.3796749999747,3093.3796749999747,3093.3796749999747,3093.3796749999747,3093.3796749999747,3093.3796749999747,3093.3796749999747,3093.3796749999747,3093.3796749999747,3093.3796749999747,3095.8887754003517,3095.8887754003517,3095.8887754003517,3095.8887754003517,3095.8887754003517,56,67,36,53,56,69,3.0,0.6635443000122905,3096.5700654000975,3098.482527700253,,,3030.517615900375,3030.517615900375,59.76260169968009,,,,125,f,1,2022-12-12_11h42.38.277,RL,2022.2.4,60.15598454919238,
1,76,0,76,0,,,,,,,,,,None,3098.482527700253,3098.482527700253,3098.482527700253,3098.482527700253,3098.482527700253,3098.482527700253,j,0.4651720002293587,3098.985346400179,3098.985346400179,3098.985346400179,3098.985346400179,3098.985346400179,3098.985346400179,3099.28027680004,3099.28027680004,3101.1083937003277,3101.1083937003277,3101.1083937003277,3101.1083937003277,3101.1083937003277,3101.1083937003277,3101.1083937003277,3101.1083937003277,3101.1083937003277,3101.1083937003277,3101.1083937003277,3101.1083937003277,3101.1083937003277,3101.1083937003277,3101.1083937003277,3101.1083937003277,3101.1083937003277,3103.617540200241,3103.617540200241,3103.617540200241,3103.617540200241,3103.617540200241,70,67,42,53,53,62,3.0,0.7789778001606464,3104.415442300029,3105.9950084001757,,,,,,,,,125,f,1,2022-12-12_11h42.38.277,RL,2022.2.4,60.15598454919238,
1,77,0,77,0,,,,,,,,,,None,3105.9950084001757,3105.9950084001757,3105.9950084001757,3105.9950084001757,3105.9950084001757,3105.9950084001757,f,0.25762660009786487,3106.2795625003055,3106.2795625003055,3106.2795625003055,3106.2795625003055,3106.2795625003055,3106.2795625003055,3106.5774767999537,3106.5774767999537,3108.4384170002304,3108.4384170002304,3108.4384170002304,3108.4384170002304,3108.4384170002304,3108.4384170002304,3108.4384170002304,3108.4384170002304,3108.4384170002304,3108.4384170002304,3108.4384170002304,3108.4384170002304,3108.4384170002304,3108.4384170002304,3108.4384170002304,3108.4384170002304,3108.4384170002304,3110.947550000157,3110.947550000157,3110.947550000157,3110.947550000157,3110.947550000157,65,73,40,68,73,56,4.0,0.41619399981573224,3111.379564499948,3113.3749843002297,,,,,,,,,125,f,1,2022-12-12_11h42.38.277,RL,2022.2.4,60.15598454919238,
1,78,0,78,0,,,,,,,,,,None,3113.3749843002297,3113.3749843002297,3113.3749843002297,3113.3749843002297,3113.3749843002297,3113.3749843002297,f,0.33721020026132464,3113.7431164002046,3113.7431164002046,3113.7431164002046,3113.7431164002046,3113.7431164002046,3113.7431164002046,3114.0399497002363,3114.0399497002363,3115.552735600155,3115.552735600155,3115.552735600155,3115.552735600155,3115.552735600155,3115.552735600155,3115.552735600155,3115.552735600155,3115.552735600155,3115.552735600155,3115.552735600155,3115.552735600155,3115.552735600155,3115.552735600155,3115.552735600155,3115.552735600155,3115.552735600155,3118.0614490001462,3118.0614490001462,3118.0614490001462,3118.0614490001462,3118.0614490001462,68,72,40,69,72,45,5.0,0.48093510000035167,3118.560204300098,3120.1230240003206,,,,,,,,,125,f,1,2022-12-12_11h42.38.277,RL,2022.2.4,60.15598454919238,
1,79,0,79,0,,,,,,,,,,None,3120.1230240003206,3120.1230240003206,3120.1230240003206,3120.1230240003206,3120.1230240003206,3120.1230240003206,f,0.41972439968958497,3120.5752383000217,3120.5752383000217,3120.5752383000217,3120.5752383000217,3120.5752383000217,3120.5752383000217,3120.8714602002874,3120.8714602002874,3121.7190622002818,3121.7190622002818,3121.7190622002818,3121.7190622002818,3121.7190622002818,3121.7190622002818,3121.7190622002818,3121.7190622002818,3121.7190622002818,3121.7190622002818,3121.7190622002818,3121.7190622002818,3121.7190622002818,3121.7190622002818,3121.7190622002818,3121.7190622002818,3121.7190622002818,3124.22826790018,3124.22826790018,3124.22826790018,3124.22826790018,3124.22826790018,57,84,35,60,84,42,6.0,0.5975877000018954,3124.843401500024,3126.638713300228,,,,,,,,,125,f,1,2022-12-12_11h42.38.277,RL,2022.2.4,60.15598454919238,
1,80,0,80,0,,,,,,,,,,None,3126.638713300228,3126.638713300228,3126.638713300228,3126.638713300228,3126.638713300228,3126.638713300228,f,0.2699698996730149,3126.9404678000137,3126.9404678000137,3126.9404678000137,3126.9404678000137,3126.9404678000137,3126.9404678000137,3127.237363100052,3127.237363100052,3128.384106399957,3128.384106399957,3128.384106399957,3128.384106399957,3128.384106399957,3128.384106399957,3128.384106399957,3128.384106399957,3128.384106399957,3128.384106399957,3128.384106399957,3128.384106399957,3128.384106399957,3128.384106399957,3128.384106399957,3128.384106399957,3128.384106399957,3130.892899000086,3130.892899000086,3130.892899000086,3130.892899000086,3130.892899000086,66,74,43,64,74,76,5.0,0.6314157997258008,3131.5412742001936,3133.0710379001684,,,,,,,,,125,f,1,2022-12-12_11h42.38.277,RL,2022.2.4,60.15598454919238,
1,81,0,81,0,,,,,,,,,,None,3133.0710379001684,3133.0710379001684,3133.0710379001684,3133.0710379001684,3133.0710379001684,3133.0710379001684,f,0.25440930016338825,3133.355360600166,3133.355360600166,3133.355360600166,3133.355360600166,3133.355360600166,3133.355360600166,3133.6534903002903,3133.6534903002903,3134.467779800296,3134.467779800296,3134.467779800296,3134.467779800296,3134.467779800296,3134.467779800296,3134.467779800296,3134.467779800296,3134.467779800296,3134.467779800296,3134.467779800296,3134.467779800296,3134.467779800296,3134.467779800296,3134.467779800296,3134.467779800296,3134.467779800296,3136.976974400226,3136.976974400226,3136.976974400226,3136.976974400226,3136.976974400226,60,77,43,56,77,73,5.0,1.4460566001944244,3138.4392555002123,3139.9690441000275,,,,,,,,,125,f,1,2022-12-12_11h42.38.277,RL,2022.2.4,60.15598454919238,
1,82,0,82,0,,,,,,,,,,None,3139.9690441000275,3139.9690441000275,3139.9690441000275,3139.9690441000275,3139.9690441000275,3139.9690441000275,i,0.30681070033460855,3140.3034630003385,3140.3034630003385,3140.3034630003385,3140.3034630003385,3140.3034630003385,3140.3034630003385,3140.600874400232,3140.600874400232,3142.0799601003528,3142.0799601003528,3142.096797000151,3142.096797000151,3142.096797000151,3142.096797000151,3142.096797000151,3142.096797000151,3142.096797000151,3142.096797000151,3142.096797000151,3142.096797000151,3142.096797000151,3142.096797000151,3142.096797000151,3142.096797000151,3142.096797000151,3144.6058542001992,3144.6058542001992,3144.6058542001992,3144.6058542001992,3144.6058542001992,56,74,53,52,53,59,4.0,1.3124454002827406,3145.9356718999334,3147.76449760003,,,,,,,,,125,f,1,2022-12-12_11h42.38.277,RL,2022.2.4,60.15598454919238,
1,83,0,83,0,,,,,,,,,,None,3147.76449760003,3147.76449760003,3147.76449760003,3147.76449760003,3147.76449760003,3147.76449760003,f,0.27621669974178076,3148.065751200076,3148.065751200076,3148.065751200076,3148.065751200076,3148.065751200076,3148.065751200076,3148.363080000039,3148.363080000039,3149.3772094002925,3149.3772094002925,3149.3772094002925,3149.3772094002925,3149.3772094002925,3149.3772094002925,3149.3772094002925,3149.3772094002925,3149.3772094002925,3149.3772094002925,3149.3772094002925,3149.3772094002925,3149.3772094002925,3149.3772094002925,3149.3772094002925,3149.3772094002925,3149.3772094002925,3151.8860855000094,3151.8860855000094,3151.8860855000094,3151.8860855000094,3151.8860855000094,56,76,45,66,76,67,5.0,0.6471595000475645,3152.551008900162,3154.29688420007,,,,,,,,,125,f,1,2022-12-12_11h42.38.277,RL,2022.2.4,60.15598454919238,
1,84,0,84,0,,,,,,,,,,None,3154.29688420007,3154.29688420007,3154.29688420007,3154.29688420007,3154.29688420007,3154.29688420007,f,0.44517850037664175,3154.764531600289,3154.764531600289,3154.764531600289,3154.764531600289,3154.764531600289,3154.764531600289,3155.0618183999322,3155.0618183999322,3155.8926576003432,3155.8926576003432,3155.8926576003432,3155.8926576003432,3155.8926576003432,3155.8926576003432,3155.8926576003432,3155.8926576003432,3155.8926576003432,3155.8926576003432,3155.8926576003432,3155.8926576003432,3155.8926576003432,3155.8926576003432,3155.8926576003432,3155.8926576003432,3155.8926576003432,3158.4015305000357,3158.4015305000357,3158.4015305000357,3158.4015305000357,3158.4015305000357,58,76,38,66,76,61,5.0,0.41436460008844733,3158.8338060001843,3160.4961930001155,,,,,,,,,125,f,1,2022-12-12_11h42.38.277,RL,2022.2.4,60.15598454919238,
1,85,0,85,0,,,,,,,,,,None,3160.4961930001155,3160.4961930001155,3160.4961930001155,3160.4961930001155,3160.4961930001155,3160.4961930001155,f,0.2578755998983979,3160.780439400114,3160.780439400114,3160.780439400114,3160.780439400114,3160.780439400114,3160.780439400114,3161.0784271000884,3161.0784271000884,3162.657382900361,3162.657382900361,3162.657382900361,3162.657382900361,3162.657382900361,3162.657382900361,3162.657382900361,3162.657382900361,3162.657382900361,3162.657382900361,3162.657382900361,3162.657382900361,3162.657382900361,3162.657382900361,3162.657382900361,3162.657382900361,3162.657382900361,3165.166443000082,3165.166443000082,3165.166443000082,3165.166443000082,3165.166443000082,54,71,44,59,71,63,5.0,0.6142221000045538,3165.798027700279,3167.444296200294,,,,,,,,,125,f,1,2022-12-12_11h42.38.277,RL,2022.2.4,60.15598454919238,
1,86,0,86,0,,,,,,,,,,None,3167.444296200294,3167.444296200294,3167.444296200294,3167.444296200294,3167.444296200294,3167.444296200294,f,0.4346226998604834,3167.9107846003026,3167.9107846003026,3167.9107846003026,3167.9107846003026,3167.9107846003026,3167.9107846003026,3168.208900900092,3168.208900900092,3170.0038787000813,3170.0038787000813,3170.0038787000813,3170.0038787000813,3170.0038787000813,3170.0038787000813,3170.0038787000813,3170.0038787000813,3170.0038787000813,3170.0038787000813,3170.0038787000813,3170.0038787000813,3170.0038787000813,3170.0038787000813,3170.0038787000813,3170.0038787000813,3170.0038787000813,3172.5128260003403,3172.5128260003403,3172.5128260003403,3172.5128260003403,3172.5128260003403,51,74,45,71,74,62,5.0,0.4976769001223147,3173.0279057002626,3174.6246307999827,,,,,,,,,125,f,1,2022-12-12_11h42.38.277,RL,2022.2.4,60.15598454919238,
1,87,0,87,0,,,,,,,,,,None,3174.6246307999827,3174.6246307999827,3174.6246307999827,3174.6246307999827,3174.6246307999827,3174.6246307999827,f,1.268253999762237,3175.9245017999783,3175.9245017999783,3175.9245017999783,3175.9245017999783,3175.9245017999783,3175.9245017999783,3176.2203347003087,3176.2203347003087,3177.0512987999246,3177.0512987999246,3177.068028199952,3177.068028199952,3177.068028199952,3177.068028199952,3177.068028199952,3177.068028199952,3177.068028199952,3177.068028199952,3177.068028199952,3177.068028199952,3177.068028199952,3177.068028199952,3177.068028199952,3177.068028199952,3177.068028199952,3179.577131500002,3179.577131500002,3179.577131500002,3179.577131500002,3179.577131500002,57,76,47,58,76,50,5.0,1.744045099709183,3181.338722000364,3182.9019968002103,,,,,,,,,125,f,1,2022-12-12_11h42.38.277,RL,2022.2.4,60.15598454919238,
1,88,0,88,0,,,,,,,,,,None,3182.9019968002103,3182.9019968002103,3182.9019968002103,3182.9019968002103,3182.9019968002103,3182.9019968002103,f,0.33589879982173443,3183.2720237001777,3183.2720237001777,3183.2720237001777,3183.2720237001777,3183.2720237001777,3183.2720237001777,3183.5674143000506,3183.5674143000506,3185.1792081999592,3185.1792081999592,3185.1792081999592,3185.1792081999592,3185.1792081999592,3185.1792081999592,3185.1792081999592,3185.1792081999592,3185.1792081999592,3185.1792081999592,3185.1792081999592,3185.1792081999592,3185.1792081999592,3185.1792081999592,3185.1792081999592,3185.1792081999592,3185.1792081999592,3187.6885160999373,3187.6885160999373,3187.6885160999373,3187.6885160999373,3187.6885160999373,54,77,53,61,77,33,5.0,0.630695900414139,3188.3367599002086,3190.1158072003163,,,,,,,,,125,f,1,2022-12-12_11h42.38.277,RL,2022.2.4,60.15598454919238,
1,89,0,89,0,,,,,,,,,,None,3190.1158072003163,3190.1158072003163,3190.1158072003163,3190.1158072003163,3190.1158072003163,3190.1158072003163,f,0.33167670015245676,3190.46688440023,3190.46688440023,3190.46688440023,3190.46688440023,3190.46688440023,3190.46688440023,3190.764408000279,3190.764408000279,3192.0935610001907,3192.0935610001907,3192.1102169002406,3192.1102169002406,3192.1102169002406,3192.1102169002406,3192.1102169002406,3192.1102169002406,3192.1102169002406,3192.1102169002406,3192.1102169002406,3192.1102169002406,3192.1102169002406,3192.1102169002406,3192.1102169002406,3192.1102169002406,3192.1102169002406,3194.6192338000983,3194.6192338000983,3194.6192338000983,3194.6192338000983,3194.6192338000983,44,76,48,53,76,56,5.0,0.7137269000522792,3195.3506158003584,3196.9472729000263,,,,,,,,,125,f,1,2022-12-12_11h42.38.277,RL,2022.2.4,60.15598454919238,
1,90,0,90,0,,,,,,,,,,None,3196.9472729000263,3196.9472729000263,3196.9472729000263,3196.9472729000263,3196.9472729000263,3196.9472729000263,f,0.23519759997725487,3197.213616400026,3197.213616400026,3197.213616400026,3197.213616400026,3197.213616400026,3197.213616400026,3197.5123000000603,3197.5123000000603,3199.44039350003,3199.44039350003,3199.44039350003,3199.44039350003,3199.44039350003,3199.44039350003,3199.44039350003,3199.44039350003,3199.44039350003,3199.44039350003,3199.44039350003,3199.44039350003,3199.44039350003,3199.44039350003,3199.44039350003,3199.44039350003,3199.44039350003,3201.949324000161,3201.949324000161,3201.949324000161,3201.949324000161,3201.949324000161,53,72,38,58,72,70,5.0,0.8633405002765357,3202.8305604001507,3204.742477300111,,,,,,,,,125,f,1,2022-12-12_11h42.38.277,RL,2022.2.4,60.15598454919238,
1,91,0,91,0,,,,,,,,,,None,3204.742477300111,3204.742477300111,3204.742477300111,3204.742477300111,3204.742477300111,3204.742477300111,f,0.23909750021994114,3205.010674400255,3205.010674400255,3205.010674400255,3205.010674400255,3205.010674400255,3205.010674400255,3205.3077575000934,3205.3077575000934,3206.8200982003473,3206.8200982003473,3206.8200982003473,3206.8200982003473,3206.8200982003473,3206.8200982003473,3206.8200982003473,3206.8200982003473,3206.8200982003473,3206.8200982003473,3206.8200982003473,3206.8200982003473,3206.8200982003473,3206.8200982003473,3206.8200982003473,3206.8200982003473,3206.8200982003473,3209.3292958000675,3209.3292958000675,3209.3292958000675,3209.3292958000675,3209.3292958000675,61,78,45,61,78,78,5.0,0.3982636001892388,3209.745176100172,3211.3244712003507,,,,,,,,,125,f,1,2022-12-12_11h42.38.277,RL,2022.2.4,60.15598454919238,
1,92,0,92,0,,,,,,,,,,None,3211.3244712003507,3211.3244712003507,3211.3244712003507,3211.3244712003507,3211.3244712003507,3211.3244712003507,f,0.26282519986853004,3211.6075536003336,3211.6075536003336,3211.6075536003336,3211.6075536003336,3211.6075536003336,3211.6075536003336,3211.906332900282,3211.906332900282,3213.8179529001936,3213.8179529001936,3213.8179529001936,3213.8179529001936,3213.8179529001936,3213.8179529001936,3213.8179529001936,3213.8179529001936,3213.8179529001936,3213.8179529001936,3213.8179529001936,3213.8179529001936,3213.8179529001936,3213.8179529001936,3213.8179529001936,3213.8179529001936,3213.8179529001936,3216.3271661000326,3216.3271661000326,3216.3271661000326,3216.3271661000326,3216.3271661000326,54,71,45,52,71,42,5.0,0.4475451000034809,3216.7925081001595,3218.5381672000512,,,,,,,,,125,f,1,2022-12-12_11h42.38.277,RL,2022.2.4,60.15598454919238,
1,93,0,93,0,,,,,,,,,,None,3218.5381672000512,3218.5381672000512,3218.5381672000512,3218.5381672000512,3218.5381672000512,3218.5381672000512,f,0.4739558999426663,3219.0376486000605,3219.0376486000605,3219.0376486000605,3219.0376486000605,3219.0376486000605,3219.0376486000605,3219.336147800088,3219.336147800088,3220.765769599937,3220.765769599937,3220.765769599937,3220.765769599937,3220.765769599937,3220.765769599937,3220.765769599937,3220.765769599937,3220.765769599937,3220.765769599937,3220.765769599937,3220.765769599937,3220.765769599937,3220.765769599937,3220.765769599937,3220.765769599937,3220.765769599937,3223.274977500085,3223.274977500085,3223.274977500085,3223.274977500085,3223.274977500085,49,65,42,46,65,32,5.0,0.6975722997449338,3223.9892210001126,3225.9511965001,,,,,,,,,125,f,1,2022-12-12_11h42.38.277,RL,2022.2.4,60.15598454919238,
1,94,0,94,0,,,,,,,,,,None,3225.9511965001,3225.9511965001,3225.9511965001,3225.9511965001,3225.9511965001,3225.9511965001,f,0.24040430039167404,3226.2181179001927,3226.2181179001927,3226.2181179001927,3226.2181179001927,3226.2181179001927,3226.2181179001927,3226.5167666999623,3226.5167666999623,3227.7295538000762,3227.7295538000762,3227.7295538000762,3227.7295538000762,3227.7295538000762,3227.7295538000762,3227.7295538000762,3227.7295538000762,3227.7295538000762,3227.7295538000762,3227.7295538000762,3227.7295538000762,3227.7295538000762,3227.7295538000762,3227.7295538000762,3227.7295538000762,3227.7295538000762,3230.238808100112,3230.238808100112,3230.238808100112,3230.238808100112,3230.238808100112,57,67,48,59,67,73,4.0,0.4321182002313435,3230.6876086001284,3232.5662448001094,,,,,,,,,125,f,1,2022-12-12_11h42.38.277,RL,2022.2.4,60.15598454919238,
1,95,0,95,0,,,,,,,,,,None,3232.5662448001094,3232.5662448001094,3232.5662448001094,3232.5662448001094,3232.5662448001094,3232.5662448001094,f,0.35654000006616116,3232.950644600205,3232.950644600205,3232.950644600205,3232.950644600205,3232.950644600205,3232.950644600205,3233.24827640038,3233.24827640038,3234.128983099945,3234.128983099945,3234.145573799964,3234.145573799964,3234.145573799964,3234.145573799964,3234.145573799964,3234.145573799964,3234.145573799964,3234.145573799964,3234.145573799964,3234.145573799964,3234.145573799964,3234.145573799964,3234.145573799964,3234.145573799964,3234.145573799964,3236.6545460000634,3236.6545460000634,3236.6545460000634,3236.6545460000634,3236.6545460000634,54,71,52,50,71,57,5.0,0.7800667998380959,3237.45275290031,3239.1482763001695,,,,,,,,,125,f,1,2022-12-12_11h42.38.277,RL,2022.2.4,60.15598454919238,
1,96,0,96,0,,,,,,,,,,None,3239.1482763001695,3239.1482763001695,3239.1482763001695,3239.1482763001695,3239.1482763001695,3239.1482763001695,f,0.39562389999628067,3239.56477020029,3239.56477020029,3239.56477020029,3239.56477020029,3239.56477020029,3239.56477020029,3239.8634085003287,3239.8634085003287,3241.1763741001487,3241.1763741001487,3241.1763741001487,3241.1763741001487,3241.1763741001487,3241.1763741001487,3241.1763741001487,3241.1763741001487,3241.1763741001487,3241.1763741001487,3241.1763741001487,3241.1763741001487,3241.1763741001487,3241.1763741001487,3241.1763741001487,3241.1763741001487,3241.1763741001487,3243.6854286002927,3243.6854286002927,3243.6854286002927,3243.6854286002927,3243.6854286002927,53,82,50,48,82,77,5.0,0.46394750010222197,3244.167708999943,3246.129231000319,,,,,,,,,125,f,1,2022-12-12_11h42.38.277,RL,2022.2.4,60.15598454919238,
1,97,0,97,0,,,,,,,,,,None,3246.129231000319,3246.129231000319,3246.129231000319,3246.129231000319,3246.129231000319,3246.129231000319,f,0.2550697000697255,3246.414531700313,3246.414531700313,3246.414531700313,3246.414531700313,3246.414531700313,3246.414531700313,3246.7116731000133,3246.7116731000133,3248.423558900133,3248.423558900133,3248.4400887000374,3248.4400887000374,3248.4400887000374,3248.4400887000374,3248.4400887000374,3248.4400887000374,3248.4400887000374,3248.4400887000374,3248.4400887000374,3248.4400887000374,3248.4400887000374,3248.4400887000374,3248.4400887000374,3248.4400887000374,3248.4400887000374,3250.949139200151,3250.949139200151,3250.949139200151,3250.949139200151,3250.949139200151,53,70,56,53,70,55,5.0,0.4972518002614379,3251.4647037000395,3253.392882300075,,,,,,,,,125,f,1,2022-12-12_11h42.38.277,RL,2022.2.4,60.15598454919238,
1,98,0,98,0,,,,,,,,,,None,3253.392882300075,3253.392882300075,3253.392882300075,3253.392882300075,3253.392882300075,3253.392882300075,f,0.34633920015767217,3253.7593479002826,3253.7593479002826,3253.7593479002826,3253.7593479002826,3253.7593479002826,3253.7593479002826,3254.058533600066,3254.058533600066,3255.3541490002535,3255.3541490002535,3255.3541490002535,3255.3541490002535,3255.3541490002535,3255.3541490002535,3255.3541490002535,3255.3541490002535,3255.3541490002535,3255.3541490002535,3255.3541490002535,3255.3541490002535,3255.3541490002535,3255.3541490002535,3255.3541490002535,3255.3541490002535,3255.3541490002535,3257.8636504001915,3257.8636504001915,3257.8636504001915,3257.8636504001915,3257.8636504001915,56,66,49,57,66,56,5.0,0.5644393996335566,3258.4451379003003,3260.141214299947,,,,,,,,,125,f,1,2022-12-12_11h42.38.277,RL,2022.2.4,60.15598454919238,
1,99,0,99,0,,,,,,,,,,None,3260.141214299947,3260.141214299947,3260.141214299947,3260.141214299947,3260.141214299947,3260.141214299947,f,0.3335519996471703,3260.5073442999274,3260.5073442999274,3260.5073442999274,3260.5073442999274,3260.5073442999274,3260.5073442999274,3260.806315800175,3260.806315800175,3262.0692333001643,3262.0692333001643,3262.0692333001643,3262.0692333001643,3262.0692333001643,3262.0692333001643,3262.0692333001643,3262.0692333001643,3262.0692333001643,3262.0692333001643,3262.0692333001643,3262.0692333001643,3262.0692333001643,3262.0692333001643,3262.0692333001643,3262.0692333001643,3262.0692333001643,3264.579032999929,3264.579032999929,3264.579032999929,3264.579032999929,3264.579032999929,47,69,49,47,69,81,4.0,0.5809613997116685,3265.177131500095,3266.9398255003616,,,,,,,,,125,f,1,2022-12-12_11h42.38.277,RL,2022.2.4,60.15598454919238,
1,100,0,100,0,,,,,,,,,,None,3266.9398255003616,3266.9398255003616,3266.9398255003616,3266.9398255003616,3266.9398255003616,3266.9398255003616,f,0.2503933999687433,3267.223808400333,3267.223808400333,3267.223808400333,3267.223808400333,3267.223808400333,3267.223808400333,3267.521360400133,3267.521360400133,3269.2996824001893,3269.2996824001893,3269.2996824001893,3269.2996824001893,3269.2996824001893,3269.2996824001893,3269.2996824001893,3269.2996824001893,3269.2996824001893,3269.2996824001893,3269.2996824001893,3269.2996824001893,3269.2996824001893,3269.2996824001893,3269.2996824001893,3269.2996824001893,3269.2996824001893,3271.808803100139,3271.808803100139,3271.808803100139,3271.808803100139,3271.808803100139,41,76,58,49,76,89,3.0,0.6636484004557133,3272.4904936002567,3274.4853051002137,,,,,,,,,125,f,1,2022-12-12_11h42.38.277,RL,2022.2.4,60.15598454919238,
1,101,0,101,0,,,,,,,,,,None,3274.4853051002137,3274.4853051002137,3274.4853051002137,3274.4853051002137,3274.4853051002137,3274.4853051002137,f,0.319145199842751,3274.8369342000224,3274.8369342000224,3274.8369342000224,3274.8369342000224,3274.8369342000224,3274.8369342000224,3275.1341433003545,3275.1341433003545,3276.9789837002754,3276.9789837002754,3276.9789837002754,3276.9789837002754,3276.9789837002754,3276.9789837002754,3276.9789837002754,3276.9789837002754,3276.9789837002754,3276.9789837002754,3276.9789837002754,3276.9789837002754,3276.9789837002754,3276.9789837002754,3276.9789837002754,3276.9789837002754,3276.9789837002754,3279.48780100001,3279.48780100001,3279.48780100001,3279.48780100001,3279.48780100001,36,77,52,56,77,78,4.0,0.3812961997464299,3279.8866902003065,3281.515971200075,,,,,,,,,125,f,1,2022-12-12_11h42.38.277,RL,2022.2.4,60.15598454919238,
1,102,0,102,0,,,,,,,,,,None,3281.515971200075,3281.515971200075,3281.515971200075,3281.515971200075,3281.515971200075,3281.515971200075,f,0.32424649968743324,3281.866760400124,3281.866760400124,3281.866760400124,3281.866760400124,3281.866760400124,3281.866760400124,3282.1647924999706,3282.1647924999706,3283.195655700285,3283.195655700285,3283.195655700285,3283.195655700285,3283.195655700285,3283.195655700285,3283.195655700285,3283.195655700285,3283.195655700285,3283.195655700285,3283.195655700285,3283.195655700285,3283.195655700285,3283.195655700285,3283.195655700285,3283.195655700285,3283.195655700285,3285.7047680001706,3285.7047680001706,3285.7047680001706,3285.7047680001706,3285.7047680001706,31,67,59,55,67,79,3.0,0.6304643000476062,3286.3526937002316,3288.1481125000864,,,,,,,,,125,f,1,2022-12-12_11h42.38.277,RL,2022.2.4,60.15598454919238,
1,103,0,103,0,,,,,,,,,,None,3288.1481125000864,3288.1481125000864,3288.1481125000864,3288.1481125000864,3288.1481125000864,3288.1481125000864,r,0.29784979997202754,3288.4647625000216,3288.4647625000216,3288.4647625000216,3288.4647625000216,3288.4647625000216,3288.4647625000216,3288.763380400371,3288.763380400371,3290.05969080003,3290.05969080003,3290.05969080003,3290.05969080003,3290.05969080003,3290.05969080003,3290.05969080003,3290.05969080003,3290.05969080003,3290.05969080003,3290.05969080003,3290.05969080003,3290.05969080003,3290.05969080003,3290.05969080003,3290.05969080003,3290.05969080003,3292.5686937002465,3292.5686937002465,3292.5686937002465,3292.5686937002465,3292.5686937002465,44,67,60,53,44,39,4.0,1.8274558000266552,3294.4140837001614,3295.9769991002977,,,,,,,,,125,f,1,2022-12-12_11h42.38.277,RL,2022.2.4,60.15598454919238,
1,104,0,104,0,,,,,,,,,,None,3295.9769991002977,3295.9769991002977,3295.9769991002977,3295.9769991002977,3295.9769991002977,3295.9769991002977,i,0.4779812996275723,3296.47837659996,3296.47837659996,3296.47837659996,3296.47837659996,3296.47837659996,3296.47837659996,3296.775133800227,3296.775133800227,3298.187825200148,3298.187825200148,3298.187825200148,3298.187825200148,3298.187825200148,3298.187825200148,3298.187825200148,3298.187825200148,3298.187825200148,3298.187825200148,3298.187825200148,3298.187825200148,3298.187825200148,3298.187825200148,3298.187825200148,3298.187825200148,3298.187825200148,3300.6968470001593,3300.6968470001593,3300.6968470001593,3300.6968470001593,3300.6968470001593,34,71,47,54,47,75,4.0,0.8135804003104568,3301.5276655000634,3303.5230702003464,,,,,,,,,125,f,1,2022-12-12_11h42.38.277,RL,2022.2.4,60.15598454919238,
1,105,0,105,0,,,,,,,,,,None,3303.5230702003464,3303.5230702003464,3303.5230702003464,3303.5230702003464,3303.5230702003464,3303.5230702003464,j,0.33183240005746484,3303.872415699996,3303.872415699996,3303.872415699996,3303.872415699996,3303.872415699996,3303.872415699996,3304.1716938000172,3304.1716938000172,3305.6341898003593,3305.6341898003593,3305.6341898003593,3305.6341898003593,3305.6341898003593,3305.6341898003593,3305.6341898003593,3305.6341898003593,3305.6341898003593,3305.6341898003593,3305.6341898003593,3305.6341898003593,3305.6341898003593,3305.6341898003593,3305.6341898003593,3305.6341898003593,3305.6341898003593,3308.143154399935,3308.143154399935,3308.143154399935,3308.143154399935,3308.143154399935,24,67,53,45,45,33,4.0,1.4285269998945296,3309.588963900227,3311.185615800321,,,,,,,,,125,f,1,2022-12-12_11h42.38.277,RL,2022.2.4,60.15598454919238,
1,106,0,106,0,,,,,,,,,,None,3311.185615800321,3311.185615800321,3311.185615800321,3311.185615800321,3311.185615800321,3311.185615800321,f,0.28858659975230694,3311.5057836999185,3311.5057836999185,3311.5057836999185,3311.5057836999185,3311.5057836999185,3311.5057836999185,3311.800437200349,3311.800437200349,3312.7812884002924,3312.7812884002924,3312.7978790001944,3312.7978790001944,3312.7978790001944,3312.7978790001944,3312.7978790001944,3312.7978790001944,3312.7978790001944,3312.7978790001944,3312.7978790001944,3312.7978790001944,3312.7978790001944,3312.7978790001944,3312.7978790001944,3312.7978790001944,3312.7978790001944,3315.306916499976,3315.306916499976,3315.306916499976,3315.306916499976,3315.306916499976,43,64,46,49,64,39,4.0,0.7964832996949553,3316.1211950001307,3317.983488400001,,,,,,,,,125,f,1,2022-12-12_11h42.38.277,RL,2022.2.4,60.15598454919238,
1,107,0,107,0,,,,,,,,,,None,3317.983488400001,3317.983488400001,3317.983488400001,3317.983488400001,3317.983488400001,3317.983488400001,f,0.565975799690932,3318.5823822999373,3318.5823822999373,3318.5823822999373,3318.5823822999373,3318.5823822999373,3318.5823822999373,3318.881096499972,3318.881096499972,3320.859332400374,3320.859332400374,3320.859332400374,3320.859332400374,3320.859332400374,3320.859332400374,3320.859332400374,3320.859332400374,3320.859332400374,3320.859332400374,3320.859332400374,3320.859332400374,3320.859332400374,3320.859332400374,3320.859332400374,3320.859332400374,3320.859332400374,3323.3682045000605,3323.3682045000605,3323.3682045000605,3323.3682045000605,3323.3682045000605,35,72,59,40,72,71,4.0,0.3977724998258054,3323.7840376002714,3325.5958357001655,,,,,,,,,125,f,1,2022-12-12_11h42.38.277,RL,2022.2.4,60.15598454919238,
1,108,0,108,0,,,,,,,,,,None,3325.5958357001655,3325.5958357001655,3325.5958357001655,3325.5958357001655,3325.5958357001655,3325.5958357001655,f,0.26823889976367354,3325.8969354000874,3325.8969354000874,3325.8969354000874,3325.8969354000874,3325.8969354000874,3325.8969354000874,3326.194723899942,3326.194723899942,3327.5077001000755,3327.5077001000755,3327.5245394003578,3327.5245394003578,3327.5245394003578,3327.5245394003578,3327.5245394003578,3327.5245394003578,3327.5245394003578,3327.5245394003578,3327.5245394003578,3327.5245394003578,3327.5245394003578,3327.5245394003578,3327.5245394003578,3327.5245394003578,3327.5245394003578,3330.0332921999507,3330.0332921999507,3330.0332921999507,3330.0332921999507,3330.0332921999507,37,74,60,44,74,72,4.0,0.4809395996853709,3330.53204810014,3332.2113275001757,,,,,,,,,125,f,1,2022-12-12_11h42.38.277,RL,2022.2.4,60.15598454919238,
1,109,0,109,0,,,,,,,,,,None,3332.2113275001757,3332.2113275001757,3332.2113275001757,3332.2113275001757,3332.2113275001757,3332.2113275001757,f,0.3181177000515163,3332.5633253999986,3332.5633253999986,3332.5633253999986,3332.5633253999986,3332.5633253999986,3332.5633253999986,3332.8598004002124,3332.8598004002124,3334.7378600002266,3334.7378600002266,3334.7378600002266,3334.7378600002266,3334.7378600002266,3334.7378600002266,3334.7378600002266,3334.7378600002266,3334.7378600002266,3334.7378600002266,3334.7378600002266,3334.7378600002266,3334.7378600002266,3334.7378600002266,3334.7378600002266,3334.7378600002266,3334.7378600002266,3337.2469117003493,3337.2469117003493,3337.2469117003493,3337.2469117003493,3337.2469117003493,43,67,53,39,67,75,3.0,1.5621816995553672,3338.8259020000696,3340.405380300246,,,,,,,,,125,f,1,2022-12-12_11h42.38.277,RL,2022.2.4,60.15598454919238,
1,110,0,110,0,,,,,,,,,,None,3340.405380300246,3340.405380300246,3340.405380300246,3340.405380300246,3340.405380300246,3340.405380300246,f,0.9718847000040114,3341.404924100265,3341.404924100265,3341.404924100265,3341.404924100265,3341.404924100265,3341.404924100265,3341.7022517002188,3341.7022517002188,3342.882396200206,3342.882396200206,3342.882396200206,3342.882396200206,3342.882396200206,3342.882396200206,3342.882396200206,3342.882396200206,3342.882396200206,3342.882396200206,3342.882396200206,3342.882396200206,3342.882396200206,3342.882396200206,3342.882396200206,3342.882396200206,3342.882396200206,3345.3913095002063,3345.3913095002063,3345.3913095002063,3345.3913095002063,3345.3913095002063,42,68,54,37,68,63,3.0,0.7475005001761019,3346.1561438003555,3347.8684881003574,,,,,,,,,125,f,1,2022-12-12_11h42.38.277,RL,2022.2.4,60.15598454919238,
1,111,0,111,0,,,,,,,,,,None,3347.8684881003574,3347.8684881003574,3347.8684881003574,3347.8684881003574,3347.8684881003574,3347.8684881003574,f,0.40416070027276874,3348.3012214000337,3348.3012214000337,3348.3012214000337,3348.3012214000337,3348.3012214000337,3348.3012214000337,3348.6001154002734,3348.6001154002734,3350.5782759999856,3350.5782759999856,3350.5782759999856,3350.5782759999856,3350.5782759999856,3350.5782759999856,3350.5782759999856,3350.5782759999856,3350.5782759999856,3350.5782759999856,3350.5782759999856,3350.5782759999856,3350.5782759999856,3350.5782759999856,3350.5782759999856,3350.5782759999856,3350.5782759999856,3353.0869930000044,3353.0869930000044,3353.0869930000044,3353.0869930000044,3353.0869930000044,34,65,49,43,65,28,4.0,0.6631893999874592,3353.7688866001554,3355.481142700184,,,,,,,,,125,f,1,2022-12-12_11h42.38.277,RL,2022.2.4,60.15598454919238,
1,112,0,112,0,,,,,,,,,,None,3355.481142700184,3355.481142700184,3355.481142700184,3355.481142700184,3355.481142700184,3355.481142700184,f,0.3553828001022339,3355.864217800088,3355.864217800088,3355.864217800088,3355.864217800088,3355.864217800088,3355.864217800088,3356.1626470000483,3356.1626470000483,3357.9911657003686,3357.9911657003686,3357.9911657003686,3357.9911657003686,3357.9911657003686,3357.9911657003686,3357.9911657003686,3357.9911657003686,3357.9911657003686,3357.9911657003686,3357.9911657003686,3357.9911657003686,3357.9911657003686,3357.9911657003686,3357.9911657003686,3357.9911657003686,3357.9911657003686,3360.5000456999987,3360.5000456999987,3360.5000456999987,3360.5000456999987,3360.5000456999987,42,60,51,38,60,66,4.0,1.013021799735725,3361.530986700207,3363.3931466001086,,,,,,,,,125,f,1,2022-12-12_11h42.38.277,RL,2022.2.4,60.15598454919238,
1,113,0,113,0,,,,,,,,,,None,3363.3931466001086,3363.3931466001086,3363.3931466001086,3363.3931466001086,3363.3931466001086,3363.3931466001086,f,0.6514439000748098,3364.0769744999707,3364.0769744999707,3364.0769744999707,3364.0769744999707,3364.0769744999707,3364.0769744999707,3364.374062899966,3364.374062899966,3366.052645199932,3366.052645199932,3366.0693141999654,3366.0693141999654,3366.0693141999654,3366.0693141999654,3366.0693141999654,3366.0693141999654,3366.0693141999654,3366.0693141999654,3366.0693141999654,3366.0693141999654,3366.0693141999654,3366.0693141999654,3366.0693141999654,3366.0693141999654,3366.0693141999654,3368.5783863002434,3368.5783863002434,3368.5783863002434,3368.5783863002434,3368.5783863002434,44,61,53,38,61,50,5.0,1.4953951998613775,3370.0909295999445,3372.0690754000098,,,,,,,,,125,f,1,2022-12-12_11h42.38.277,RL,2022.2.4,60.15598454919238,
