bandit,trials.thisRepN,trials.thisTrialN,trials.thisN,trials.thisIndex,instru_img1.started,instru_resp.started,instru_resp.keys,instru_resp.rt,instru_img2.started,instru_resp2.started,instru_resp2.keys,instru_resp2.rt,fixbefore_2.started,rest_response.keys,red.started,green.started,yellow.started,blue.started,choose_bandit.started,Fixation.started,choose_bandit.keys,choose_bandit.rt,black.started,red_2.started,green_2.started,yellow_2.started,blue_2.started,fixation_2.started,docs.started,image_2.started,docs.stopped,image_2.stopped,black.stopped,red_2.stopped,green_2.stopped,yellow_2.stopped,blue_2.stopped,fixation_2.stopped,black_com.started,reward_sub.started,palyerb.started,reward__sub.started,compare.started,red_compare.started,green_com.started,yellow_com.started,blue_com.started,image_3.started,slider.started,text.started,image_4.started,image_5.started,rewardyellow,rewardred,rewardblue,rewardgreen,subchoose,playerb,slider.response,slider.rt,intertrialfix.started,intertrialfix.stopped,bigx.started,bigx.stopped,rest_image.started,rest_response.started,rest_response.rt,image.started,key_resp.started,key_resp.keys,participant,Gender,Age,date,expName,psychopyVersion,frameRate,
,,,,,528.9710324001499,528.9710324001499,space,36.985299499705434,,,,,,,,,,,,,,,,,,,,,,,,,,,,,,,,,,,,,,,,,,,,,,,,,,,,,,,,,,,,,,,132,m,24,2022-12-12_15h37.37.782,RL,2022.2.4,60.22685040119507,
,,,,,,,,,565.9873954001814,565.9873954001814,space,80.68041410017759,,,,,,,,,,,,,,,,,,,,,,,,,,,,,,,,,,,,,,,,,,,,,,,,,,,,,,,,,,,132,m,24,2022-12-12_15h37.37.782,RL,2022.2.4,60.22685040119507,
1,0,0,0,0,,,,,,,,,646.6935343001969,None,647.7080248002894,647.7080248002894,647.7080248002894,647.7080248002894,647.7080248002894,647.7080248002894,r,0.9128620000556111,648.6987641002052,648.6987641002052,648.6987641002052,648.6987641002052,648.6987641002052,648.6987641002052,648.9384983000346,648.9384983000346,650.1511840000749,650.1511840000749,650.2231044000946,650.2231044000946,650.2231044000946,650.2231044000946,650.2231044000946,650.2231044000946,650.2231044000946,650.2231044000946,650.2231044000946,650.2231044000946,650.2231044000946,650.2231044000946,650.2231044000946,650.2231044000946,650.2231044000946,652.727677100338,652.727677100338,652.727677100338,652.727677100338,652.727677100338,69,51,33,47,69,62,5.0,2.326359999831766,655.1135947001167,657.0657209004276,,,,,,,,,132,m,24,2022-12-12_15h37.37.782,RL,2022.2.4,60.22685040119507,
1,1,0,1,0,,,,,,,,,,None,657.0657209004276,657.0657209004276,657.0657209004276,657.0657209004276,657.0657209004276,657.0657209004276,i,1.39258289989084,658.47914460022,658.47914460022,658.47914460022,658.47914460022,658.47914460022,658.47914460022,658.777726800181,658.777726800181,659.7249714001082,659.7249714001082,659.7249714001082,659.7249714001082,659.7249714001082,659.7249714001082,659.7249714001082,659.7249714001082,659.7249714001082,659.7249714001082,659.7249714001082,659.7249714001082,659.7249714001082,659.7249714001082,659.7249714001082,659.7249714001082,659.7249714001082,662.2344023003243,662.2344023003243,662.2344023003243,662.2344023003243,662.2344023003243,65,43,40,47,40,62,4.0,2.226515400223434,664.4785804003477,666.4566101999953,,,,,,,,,132,m,24,2022-12-12_15h37.37.782,RL,2022.2.4,60.22685040119507,
1,2,0,2,0,,,,,,,,,,None,666.4566101999953,666.4566101999953,666.4566101999953,666.4566101999953,666.4566101999953,666.4566101999953,f,1.1202432001009583,667.6059737000614,667.6059737000614,667.6059737000614,667.6059737000614,667.6059737000614,667.6059737000614,667.9030674002133,667.9030674002133,669.6149459001608,669.6149459001608,669.6149459001608,669.6149459001608,669.6149459001608,669.6149459001608,669.6149459001608,669.6149459001608,669.6149459001608,669.6149459001608,669.6149459001608,669.6149459001608,669.6149459001608,669.6149459001608,669.6149459001608,669.6149459001608,669.6149459001608,672.124012700282,672.124012700282,672.124012700282,672.124012700282,672.124012700282,69,48,30,44,48,53,4.0,2.7581521002575755,674.8995318002999,676.8782031000592,,,,,,,,,132,m,24,2022-12-12_15h37.37.782,RL,2022.2.4,60.22685040119507,
1,3,0,3,0,,,,,,,,,,None,676.8782031000592,676.8782031000592,676.8782031000592,676.8782031000592,676.8782031000592,676.8782031000592,r,0.8715825998224318,677.778655400034,677.778655400034,677.778655400034,677.778655400034,677.778655400034,677.778655400034,678.0752001004294,678.0752001004294,679.7872174000368,679.7872174000368,679.7872174000368,679.7872174000368,679.7872174000368,679.7872174000368,679.7872174000368,679.7872174000368,679.7872174000368,679.7872174000368,679.7872174000368,679.7872174000368,679.7872174000368,679.7872174000368,679.7872174000368,679.7872174000368,679.7872174000368,682.2962248004042,682.2962248004042,682.2962248004042,682.2962248004042,682.2962248004042,62,42,29,40,62,59,5.0,2.226019900292158,684.5400719000027,686.0868138000369,,,,,,,,,132,m,24,2022-12-12_15h37.37.782,RL,2022.2.4,60.22685040119507,
1,4,0,4,0,,,,,,,,,,None,686.0868138000369,686.0868138000369,686.0868138000369,686.0868138000369,686.0868138000369,686.0868138000369,r,0.6614108998328447,686.7692544003949,686.7692544003949,686.7692544003949,686.7692544003949,686.7692544003949,686.7692544003949,687.0678148004226,687.0678148004226,688.5627827001736,688.5627827001736,688.5627827001736,688.5627827001736,688.5627827001736,688.5627827001736,688.5627827001736,688.5627827001736,688.5627827001736,688.5627827001736,688.5627827001736,688.5627827001736,688.5627827001736,688.5627827001736,688.5627827001736,688.5627827001736,688.5627827001736,691.072305300273,691.072305300273,691.072305300273,691.072305300273,691.072305300273,66,48,28,54,66,46,6.0,2.4425150002352893,693.5322266002186,695.1449244003743,,,,,,,,,132,m,24,2022-12-12_15h37.37.782,RL,2022.2.4,60.22685040119507,
1,5,0,5,0,,,,,,,,,,None,695.1449244003743,695.1449244003743,695.1449244003743,695.1449244003743,695.1449244003743,695.1449244003743,r,0.43133450020104647,695.5970470001921,695.5970470001921,695.5970470001921,695.5970470001921,695.5970470001921,695.5970470001921,695.893371200189,695.893371200189,697.8377308002673,697.8377308002673,697.8377308002673,697.8377308002673,697.8377308002673,697.8377308002673,697.8377308002673,697.8377308002673,697.8377308002673,697.8377308002673,697.8377308002673,697.8377308002673,697.8377308002673,697.8377308002673,697.8377308002673,697.8377308002673,697.8377308002673,700.3471748000011,700.3471748000011,700.3471748000011,700.3471748000011,700.3471748000011,72,41,35,53,72,64,6.0,1.2461437997408211,701.6101053999737,703.1232304000296,,,,,,,,,132,m,24,2022-12-12_15h37.37.782,RL,2022.2.4,60.22685040119507,
1,6,0,6,0,,,,,,,,,,None,703.1232304000296,703.1232304000296,703.1232304000296,703.1232304000296,703.1232304000296,703.1232304000296,r,0.6242801998741925,703.7721559000202,703.7721559000202,703.7721559000202,703.7721559000202,703.7721559000202,703.7721559000202,704.0713068000041,704.0713068000041,704.985286900308,704.985286900308,705.0017957002856,705.0017957002856,705.0017957002856,705.0017957002856,705.0017957002856,705.0017957002856,705.0017957002856,705.0017957002856,705.0017957002856,705.0017957002856,705.0017957002856,705.0017957002856,705.0017957002856,705.0017957002856,705.0017957002856,707.5110195004381,707.5110195004381,707.5110195004381,707.5110195004381,707.5110195004381,68,39,39,50,68,66,6.0,1.095208200160414,708.6243356000632,710.2039672001265,,,,,,,,,132,m,24,2022-12-12_15h37.37.782,RL,2022.2.4,60.22685040119507,
1,7,0,7,0,,,,,,,,,,None,710.2039672001265,710.2039672001265,710.2039672001265,710.2039672001265,710.2039672001265,710.2039672001265,r,0.572588199749589,710.8029728000984,710.8029728000984,710.8029728000984,710.8029728000984,710.8029728000984,710.8029728000984,711.1016777004115,711.1016777004115,712.7474533002824,712.7474533002824,712.764033799991,712.764033799991,712.764033799991,712.764033799991,712.764033799991,712.764033799991,712.764033799991,712.764033799991,712.764033799991,712.764033799991,712.764033799991,712.764033799991,712.764033799991,712.764033799991,712.764033799991,715.2728267000057,715.2728267000057,715.2728267000057,715.2728267000057,715.2728267000057,74,42,48,55,74,65,6.0,0.913533799815923,716.203930400312,717.8167600003071,,,,,,,,,132,m,24,2022-12-12_15h37.37.782,RL,2022.2.4,60.22685040119507,
1,8,0,8,0,,,,,,,,,,None,717.8167600003071,717.8167600003071,717.8167600003071,717.8167600003071,717.8167600003071,717.8167600003071,r,0.48066839994862676,718.3195004002191,718.3195004002191,718.3195004002191,718.3195004002191,718.3195004002191,718.3195004002191,718.6149229002185,718.6149229002185,720.0603838004172,720.0603838004172,720.0603838004172,720.0603838004172,720.0603838004172,720.0603838004172,720.0603838004172,720.0603838004172,720.0603838004172,720.0603838004172,720.0603838004172,720.0603838004172,720.0603838004172,720.0603838004172,720.0603838004172,720.0603838004172,720.0603838004172,722.5698320004158,722.5698320004158,722.5698320004158,722.5698320004158,722.5698320004158,78,41,46,69,78,70,6.0,0.8972292998805642,723.4841982000507,725.2464785003103,,,,,,,,,132,m,24,2022-12-12_15h37.37.782,RL,2022.2.4,60.22685040119507,
1,9,0,9,0,,,,,,,,,,None,725.2464785003103,725.2464785003103,725.2464785003103,725.2464785003103,725.2464785003103,725.2464785003103,r,0.48531000036746264,725.7620286000893,725.7620286000893,725.7620286000893,725.7620286000893,725.7620286000893,725.7620286000893,726.0608068001457,726.0608068001457,727.7397140003741,727.7397140003741,727.7397140003741,727.7397140003741,727.7397140003741,727.7397140003741,727.7397140003741,727.7397140003741,727.7397140003741,727.7397140003741,727.7397140003741,727.7397140003741,727.7397140003741,727.7397140003741,727.7397140003741,727.7397140003741,727.7397140003741,730.2486239001155,730.2486239001155,730.2486239001155,730.2486239001155,730.2486239001155,78,38,36,52,78,60,7.0,1.9102692999877036,732.1767789004371,733.7230754001066,,,,,,,,,132,m,24,2022-12-12_15h37.37.782,RL,2022.2.4,60.22685040119507,
1,10,0,10,0,,,,,,,,,,None,733.7230754001066,733.7230754001066,733.7230754001066,733.7230754001066,733.7230754001066,733.7230754001066,r,0.4779099998995662,734.2228908999823,734.2228908999823,734.2228908999823,734.2228908999823,734.2228908999823,734.2228908999823,734.5211519002914,734.5211519002914,736.0002751001157,736.0002751001157,736.0002751001157,736.0002751001157,736.0002751001157,736.0002751001157,736.0002751001157,736.0002751001157,736.0002751001157,736.0002751001157,736.0002751001157,736.0002751001157,736.0002751001157,736.0002751001157,736.0002751001157,736.0002751001157,736.0002751001157,738.5099049001001,738.5099049001001,738.5099049001001,738.5099049001001,738.5099049001001,76,33,41,56,76,61,7.0,0.8968802997842431,739.4239660999738,741.3855925002135,,,,,,,,,132,m,24,2022-12-12_15h37.37.782,RL,2022.2.4,60.22685040119507,
1,11,0,11,0,,,,,,,,,,None,741.3855925002135,741.3855925002135,741.3855925002135,741.3855925002135,741.3855925002135,741.3855925002135,r,0.4456401001662016,741.851540800184,741.851540800184,741.851540800184,741.851540800184,741.851540800184,741.851540800184,742.1506123002619,742.1506123002619,743.1974388002418,743.1974388002418,743.1974388002418,743.1974388002418,743.1974388002418,743.1974388002418,743.1974388002418,743.1974388002418,743.1974388002418,743.1974388002418,743.1974388002418,743.1974388002418,743.1974388002418,743.1974388002418,743.1974388002418,743.1974388002418,743.1974388002418,745.7065469999798,745.7065469999798,745.7065469999798,745.7065469999798,745.7065469999798,85,30,36,53,85,68,7.0,1.8456639000214636,747.5680030002259,749.3807088001631,,,,,,,,,132,m,24,2022-12-12_15h37.37.782,RL,2022.2.4,60.22685040119507,
1,12,0,12,0,,,,,,,,,,None,749.3807088001631,749.3807088001631,749.3807088001631,749.3807088001631,749.3807088001631,749.3807088001631,r,0.515881400089711,749.9298635004088,749.9298635004088,749.9298635004088,749.9298635004088,749.9298635004088,749.9298635004088,750.2284932001494,750.2284932001494,751.309007700067,751.309007700067,751.3251858004369,751.3251858004369,751.3251858004369,751.3251858004369,751.3251858004369,751.3251858004369,751.3251858004369,751.3251858004369,751.3251858004369,751.3251858004369,751.3251858004369,751.3251858004369,751.3251858004369,751.3251858004369,751.3251858004369,753.834529899992,753.834529899992,753.834529899992,753.834529899992,753.834529899992,85,30,37,58,85,61,7.0,0.9286818001419306,754.7822605003603,756.6109639001079,,,,,,,,,132,m,24,2022-12-12_15h37.37.782,RL,2022.2.4,60.22685040119507,
1,13,0,13,0,,,,,,,,,,None,756.6109639001079,756.6109639001079,756.6109639001079,756.6109639001079,756.6109639001079,756.6109639001079,r,0.31246550008654594,756.9449989004061,756.9449989004061,756.9449989004061,756.9449989004061,756.9449989004061,756.9449989004061,757.2427050000988,757.2427050000988,758.9213927001692,758.9213927001692,758.9213927001692,758.9213927001692,758.9213927001692,758.9213927001692,758.9213927001692,758.9213927001692,758.9213927001692,758.9213927001692,758.9213927001692,758.9213927001692,758.9213927001692,758.9213927001692,758.9213927001692,758.9213927001692,758.9213927001692,761.4305786001496,761.4305786001496,761.4305786001496,761.4305786001496,761.4305786001496,85,25,39,47,85,68,7.0,0.9133100002072752,762.3608587002382,764.2231038999744,,,,,,,,,132,m,24,2022-12-12_15h37.37.782,RL,2022.2.4,60.22685040119507,
1,14,0,14,0,,,,,,,,,,None,764.2231038999744,764.2231038999744,764.2231038999744,764.2231038999744,764.2231038999744,764.2231038999744,r,0.5061425003223121,764.7574114003219,764.7574114003219,764.7574114003219,764.7574114003219,764.7574114003219,764.7574114003219,765.0549505003728,765.0549505003728,766.5177566003986,766.5177566003986,766.5177566003986,766.5177566003986,766.5177566003986,766.5177566003986,766.5177566003986,766.5177566003986,766.5177566003986,766.5177566003986,766.5177566003986,766.5177566003986,766.5177566003986,766.5177566003986,766.5177566003986,766.5177566003986,766.5177566003986,769.0259962002747,769.0259962002747,769.0259962002747,769.0259962002747,769.0259962002747,81,33,36,61,81,57,7.0,0.862822599709034,769.9073541001417,771.5530793000944,,,,,,,,,132,m,24,2022-12-12_15h37.37.782,RL,2022.2.4,60.22685040119507,
1,15,0,15,0,,,,,,,,,,None,771.5530793000944,771.5530793000944,771.5530793000944,771.5530793000944,771.5530793000944,771.5530793000944,r,0.30668709985911846,771.8867436000146,771.8867436000146,771.8867436000146,771.8867436000146,771.8867436000146,771.8867436000146,772.185098499991,772.185098499991,773.13238320034,773.13238320034,773.13238320034,773.13238320034,773.13238320034,773.13238320034,773.13238320034,773.13238320034,773.13238320034,773.13238320034,773.13238320034,773.13238320034,773.13238320034,773.13238320034,773.13238320034,773.13238320034,773.13238320034,775.6417037001811,775.6417037001811,775.6417037001811,775.6417037001811,775.6417037001811,79,23,32,57,79,60,7.0,1.0465113003738225,776.705495600123,778.451484600082,,,,,,,,,132,m,24,2022-12-12_15h37.37.782,RL,2022.2.4,60.22685040119507,
1,16,0,16,0,,,,,,,,,,None,778.451484600082,778.451484600082,778.451484600082,778.451484600082,778.451484600082,778.451484600082,r,0.5538499001413584,779.0333787002601,779.0333787002601,779.0333787002601,779.0333787002601,779.0333787002601,779.0333787002601,779.3321931003593,779.3321931003593,780.2129839002155,780.2129839002155,780.2297865999863,780.2297865999863,780.2297865999863,780.2297865999863,780.2297865999863,780.2297865999863,780.2297865999863,780.2297865999863,780.2297865999863,780.2297865999863,780.2297865999863,780.2297865999863,780.2297865999863,780.2297865999863,780.2297865999863,782.7388348001987,782.7388348001987,782.7388348001987,782.7388348001987,782.7388348001987,71,28,39,47,71,71,5.0,2.1450578002259135,784.8996100001968,786.7449696003459,,,,,,,,,132,m,24,2022-12-12_15h37.37.782,RL,2022.2.4,60.22685040119507,
1,17,0,17,0,,,,,,,,,,None,786.7449696003459,786.7449696003459,786.7449696003459,786.7449696003459,786.7449696003459,786.7449696003459,r,0.6250873003154993,787.3947151000611,787.3947151000611,787.3947151000611,787.3947151000611,787.3947151000611,787.3947151000611,787.6928174002096,787.6928174002096,788.5407446003519,788.5407446003519,788.5407446003519,788.5407446003519,788.5407446003519,788.5407446003519,788.5407446003519,788.5407446003519,788.5407446003519,788.5407446003519,788.5407446003519,788.5407446003519,788.5407446003519,788.5407446003519,788.5407446003519,788.5407446003519,788.5407446003519,791.0495527000166,791.0495527000166,791.0495527000166,791.0495527000166,791.0495527000166,73,30,35,49,73,69,6.0,1.6286301002837718,792.6949138999917,794.4740891000256,,,,,,,,,132,m,24,2022-12-12_15h37.37.782,RL,2022.2.4,60.22685040119507,
1,18,0,18,0,,,,,,,,,,None,794.4740891000256,794.4740891000256,794.4740891000256,794.4740891000256,794.4740891000256,794.4740891000256,r,0.5264408998191357,795.0228715003468,795.0228715003468,795.0228715003468,795.0228715003468,795.0228715003468,795.0228715003468,795.3220092002302,795.3220092002302,796.3692406001501,796.3692406001501,796.3692406001501,796.3692406001501,796.3692406001501,796.3692406001501,796.3692406001501,796.3692406001501,796.3692406001501,796.3692406001501,796.3692406001501,796.3692406001501,796.3692406001501,796.3692406001501,796.3692406001501,796.3692406001501,796.3692406001501,798.8784917001612,798.8784917001612,798.8784917001612,798.8784917001612,798.8784917001612,84,24,28,49,84,65,7.0,1.7097136001102626,800.6068459004164,802.120162400417,,,,,,,,,132,m,24,2022-12-12_15h37.37.782,RL,2022.2.4,60.22685040119507,
1,19,0,19,0,,,,,,,,,,None,802.120162400417,802.120162400417,802.120162400417,802.120162400417,802.120162400417,802.120162400417,r,0.4665875998325646,802.6226488002576,802.6226488002576,802.6226488002576,802.6226488002576,802.6226488002576,802.6226488002576,802.9182339999825,802.9182339999825,804.214630600065,804.214630600065,804.214630600065,804.214630600065,804.214630600065,804.214630600065,804.214630600065,804.214630600065,804.214630600065,804.214630600065,804.214630600065,804.214630600065,804.214630600065,804.214630600065,804.214630600065,804.214630600065,804.214630600065,806.7235545003787,806.7235545003787,806.7235545003787,806.7235545003787,806.7235545003787,79,18,17,48,79,53,7.0,0.9299049996770918,807.6706856000237,809.5494642001577,,,,,,,,,132,m,24,2022-12-12_15h37.37.782,RL,2022.2.4,60.22685040119507,
1,20,0,20,0,,,,,,,,,,None,809.5494642001577,809.5494642001577,809.5494642001577,809.5494642001577,809.5494642001577,809.5494642001577,r,0.7015992002561688,810.2824624003842,810.2824624003842,810.2824624003842,810.2824624003842,810.2824624003842,810.2824624003842,810.5804221001454,810.5804221001454,812.4419260001741,812.4419260001741,812.4419260001741,812.4419260001741,812.4419260001741,812.4419260001741,812.4419260001741,812.4419260001741,812.4419260001741,812.4419260001741,812.4419260001741,812.4419260001741,812.4419260001741,812.4419260001741,812.4419260001741,812.4419260001741,812.4419260001741,814.9512005001307,814.9512005001307,814.9512005001307,814.9512005001307,814.9512005001307,79,23,20,45,79,56,7.0,0.8468892001546919,815.8155018002726,817.6109313000925,,,,,,,,,132,m,24,2022-12-12_15h37.37.782,RL,2022.2.4,60.22685040119507,
1,21,0,21,0,,,,,,,,,,None,817.6109313000925,817.6109313000925,817.6109313000925,817.6109313000925,817.6109313000925,817.6109313000925,r,0.5456973002292216,818.1778753004037,818.1778753004037,818.1778753004037,818.1778753004037,818.1778753004037,818.1778753004037,818.4756571999751,818.4756571999751,819.2900196001865,819.2900196001865,819.3064352003857,819.3064352003857,819.3064352003857,819.3064352003857,819.3064352003857,819.3064352003857,819.3064352003857,819.3064352003857,819.3064352003857,819.3064352003857,819.3064352003857,819.3064352003857,819.3064352003857,819.3064352003857,819.3064352003857,821.8159495000727,821.8159495000727,821.8159495000727,821.8159495000727,821.8159495000727,80,25,15,49,80,46,7.0,1.1462800996378064,822.9791072001681,824.7584886001423,,,,,,,,,132,m,24,2022-12-12_15h37.37.782,RL,2022.2.4,60.22685040119507,
1,22,0,22,0,,,,,,,,,,None,824.7584886001423,824.7584886001423,824.7584886001423,824.7584886001423,824.7584886001423,824.7584886001423,r,1.0590472999028862,825.8395293001086,825.8395293001086,825.8395293001086,825.8395293001086,825.8395293001086,825.8395293001086,826.1380758001469,826.1380758001469,828.115644000005,828.115644000005,828.115644000005,828.115644000005,828.115644000005,828.115644000005,828.115644000005,828.115644000005,828.115644000005,828.115644000005,828.115644000005,828.115644000005,828.115644000005,828.115644000005,828.115644000005,828.115644000005,828.115644000005,830.6247920002788,830.6247920002788,830.6247920002788,830.6247920002788,830.6247920002788,63,19,16,45,63,71,4.0,2.3755943002179265,833.0183748002164,834.9135905001312,,,,,,,,,132,m,24,2022-12-12_15h37.37.782,RL,2022.2.4,60.22685040119507,
1,23,0,23,0,,,,,,,,,,None,834.9135905001312,834.9135905001312,834.9135905001312,834.9135905001312,834.9135905001312,834.9135905001312,j,0.5204563001170754,835.4630508003756,835.4630508003756,835.4630508003756,835.4630508003756,835.4630508003756,835.4630508003756,835.7618646002375,835.7618646002375,836.6264758002944,836.6264758002944,836.6264758002944,836.6264758002944,836.6264758002944,836.6264758002944,836.6264758002944,836.6264758002944,836.6264758002944,836.6264758002944,836.6264758002944,836.6264758002944,836.6264758002944,836.6264758002944,836.6264758002944,836.6264758002944,836.6264758002944,839.1351321004331,839.1351321004331,839.1351321004331,839.1351321004331,839.1351321004331,65,24,19,40,40,85,3.0,4.22137889964506,843.3736289003864,845.1523800999857,,,,,,,,,132,m,24,2022-12-12_15h37.37.782,RL,2022.2.4,60.22685040119507,
1,24,0,24,0,,,,,,,,,,None,845.1523800999857,845.1523800999857,845.1523800999857,845.1523800999857,845.1523800999857,845.1523800999857,r,0.6131219998933375,845.7867878000252,845.7867878000252,845.7867878000252,845.7867878000252,845.7867878000252,845.7867878000252,846.0834432002157,846.0834432002157,847.4629729003645,847.4629729003645,847.4629729003645,847.4629729003645,847.4629729003645,847.4629729003645,847.4629729003645,847.4629729003645,847.4629729003645,847.4629729003645,847.4629729003645,847.4629729003645,847.4629729003645,847.4629729003645,847.4629729003645,847.4629729003645,847.4629729003645,849.9722405001521,849.9722405001521,849.9722405001521,849.9722405001521,849.9722405001521,77,18,24,47,77,49,5.0,1.7278654002584517,851.7178760003299,853.4965018001385,,,,,,,,,132,m,24,2022-12-12_15h37.37.782,RL,2022.2.4,60.22685040119507,
1,25,0,25,0,,,,,,,,,,None,853.4965018001385,853.4965018001385,853.4965018001385,853.4965018001385,853.4965018001385,853.4965018001385,r,0.44785689981654286,853.9636110002175,853.9636110002175,853.9636110002175,853.9636110002175,853.9636110002175,853.9636110002175,854.2613239004277,854.2613239004277,856.0894834999926,856.0894834999926,856.0894834999926,856.0894834999926,856.0894834999926,856.0894834999926,856.0894834999926,856.0894834999926,856.0894834999926,856.0894834999926,856.0894834999926,856.0894834999926,856.0894834999926,856.0894834999926,856.0894834999926,856.0894834999926,856.0894834999926,858.5985583001748,858.5985583001748,858.5985583001748,858.5985583001748,858.5985583001748,72,22,29,52,72,55,5.0,1.7940147002227604,860.4106141002849,862.1394649003632,,,,,,,,,132,m,24,2022-12-12_15h37.37.782,RL,2022.2.4,60.22685040119507,
1,26,0,26,0,,,,,,,,,,None,862.1394649003632,862.1394649003632,862.1394649003632,862.1394649003632,862.1394649003632,862.1394649003632,r,0.6780360001139343,862.8406182001345,862.8406182001345,862.8406182001345,862.8406182001345,862.8406182001345,862.8406182001345,863.1372681003995,863.1372681003995,865.0986278001219,865.0986278001219,865.1147989002056,865.1147989002056,865.1147989002056,865.1147989002056,865.1147989002056,865.1147989002056,865.1147989002056,865.1147989002056,865.1147989002056,865.1147989002056,865.1147989002056,865.1147989002056,865.1147989002056,865.1147989002056,865.1147989002056,867.624275200069,867.624275200069,867.624275200069,867.624275200069,867.624275200069,73,23,35,39,73,72,6.0,1.8942334996536374,869.5354854003526,871.3310108003207,,,,,,,,,132,m,24,2022-12-12_15h37.37.782,RL,2022.2.4,60.22685040119507,
1,27,0,27,0,,,,,,,,,,None,871.3310108003207,871.3310108003207,871.3310108003207,871.3310108003207,871.3310108003207,871.3310108003207,r,0.6251394003629684,871.9828445999883,871.9828445999883,871.9828445999883,871.9828445999883,871.9828445999883,871.9828445999883,872.2786945002154,872.2786945002154,874.2568585001864,874.2568585001864,874.2568585001864,874.2568585001864,874.2568585001864,874.2568585001864,874.2568585001864,874.2568585001864,874.2568585001864,874.2568585001864,874.2568585001864,874.2568585001864,874.2568585001864,874.2568585001864,874.2568585001864,874.2568585001864,874.2568585001864,876.7660970003344,876.7660970003344,876.7660970003344,876.7660970003344,876.7660970003344,85,25,29,32,85,31,7.0,1.7609618999995291,878.5439882003702,880.0907819001004,,,,,,,,,132,m,24,2022-12-12_15h37.37.782,RL,2022.2.4,60.22685040119507,
1,28,0,28,0,,,,,,,,,,None,880.0907819001004,880.0907819001004,880.0907819001004,880.0907819001004,880.0907819001004,880.0907819001004,r,0.5445738998241723,880.6561768003739,880.6561768003739,880.6561768003739,880.6561768003739,880.6561768003739,880.6561768003739,880.9549695001915,880.9549695001915,882.1189859001897,882.1189859001897,882.1189859001897,882.1189859001897,882.1189859001897,882.1189859001897,882.1189859001897,882.1189859001897,882.1189859001897,882.1189859001897,882.1189859001897,882.1189859001897,882.1189859001897,882.1189859001897,882.1189859001897,882.1189859001897,882.1189859001897,884.6278062001802,884.6278062001802,884.6278062001802,884.6278062001802,884.6278062001802,73,30,30,37,73,51,7.0,0.9966088999062777,885.6417276002467,887.1713700001128,,,,,,,,,132,m,24,2022-12-12_15h37.37.782,RL,2022.2.4,60.22685040119507,
1,29,0,29,0,,,,,,,,,,None,887.1713700001128,887.1713700001128,887.1713700001128,887.1713700001128,887.1713700001128,887.1713700001128,r,0.6989552997983992,887.9038647003472,887.9038647003472,887.9038647003472,887.9038647003472,887.9038647003472,887.9038647003472,888.2018548003398,888.2018548003398,889.4154959004372,889.4154959004372,889.4154959004372,889.4154959004372,889.4154959004372,889.4154959004372,889.4154959004372,889.4154959004372,889.4154959004372,889.4154959004372,889.4154959004372,889.4154959004372,889.4154959004372,889.4154959004372,889.4154959004372,889.4154959004372,889.4154959004372,891.9245305000804,891.9245305000804,891.9245305000804,891.9245305000804,891.9245305000804,86,27,37,45,86,72,7.0,1.1957002002745867,893.1376307001337,894.8501028004102,,,,,,,,,132,m,24,2022-12-12_15h37.37.782,RL,2022.2.4,60.22685040119507,
1,30,0,30,0,,,,,,,,,,None,894.8501028004102,894.8501028004102,894.8501028004102,894.8501028004102,894.8501028004102,894.8501028004102,r,0.655772099737078,895.5342310001142,895.5342310001142,895.5342310001142,895.5342310001142,895.5342310001142,895.5342310001142,895.8314137002453,895.8314137002453,897.0943076000549,897.0943076000549,897.0943076000549,897.0943076000549,897.0943076000549,897.0943076000549,897.0943076000549,897.0943076000549,897.0943076000549,897.0943076000549,897.0943076000549,897.0943076000549,897.0943076000549,897.0943076000549,897.0943076000549,897.0943076000549,897.0943076000549,899.6033312003128,899.6033312003128,899.6033312003128,899.6033312003128,899.6033312003128,78,25,34,52,78,57,7.0,0.7802299000322819,900.4014381002635,902.2134015001357,,,,,,,,,132,m,24,2022-12-12_15h37.37.782,RL,2022.2.4,60.22685040119507,
1,31,0,31,0,,,,,,,,,,None,902.2134015001357,902.2134015001357,902.2134015001357,902.2134015001357,902.2134015001357,902.2134015001357,r,0.536682799924165,902.7801436004229,902.7801436004229,902.7801436004229,902.7801436004229,902.7801436004229,902.7801436004229,903.0784501000308,903.0784501000308,904.6905528004281,904.6905528004281,904.6905528004281,904.6905528004281,904.6905528004281,904.6905528004281,904.6905528004281,904.6905528004281,904.6905528004281,904.6905528004281,904.6905528004281,904.6905528004281,904.6905528004281,904.6905528004281,904.6905528004281,904.6905528004281,904.6905528004281,907.1993275000714,907.1993275000714,907.1993275000714,907.1993275000714,907.1993275000714,90,32,38,33,90,73,7.0,1.1961300000548363,908.412654499989,909.9423233000562,,,,,,,,,132,m,24,2022-12-12_15h37.37.782,RL,2022.2.4,60.22685040119507,
1,32,0,32,0,,,,,,,,,,None,909.9423233000562,909.9423233000562,909.9423233000562,909.9423233000562,909.9423233000562,909.9423233000562,r,0.593032400123775,910.5603902000003,910.5603902000003,910.5603902000003,910.5603902000003,910.5603902000003,910.5603902000003,910.8567399000749,910.8567399000749,912.4357859999873,912.4357859999873,912.4357859999873,912.4357859999873,912.4357859999873,912.4357859999873,912.4357859999873,912.4357859999873,912.4357859999873,912.4357859999873,912.4357859999873,912.4357859999873,912.4357859999873,912.4357859999873,912.4357859999873,912.4357859999873,912.4357859999873,914.9452035999857,914.9452035999857,914.9452035999857,914.9452035999857,914.9452035999857,80,22,44,38,80,71,7.0,1.5451406999491155,916.5076705003157,918.220173000358,,,,,,,,,132,m,24,2022-12-12_15h37.37.782,RL,2022.2.4,60.22685040119507,
1,33,0,33,0,,,,,,,,,,None,918.220173000358,918.220173000358,918.220173000358,918.220173000358,918.220173000358,918.220173000358,r,1.0874443999491632,919.3351007001474,919.3351007001474,919.3351007001474,919.3351007001474,919.3351007001474,919.3351007001474,919.6329077002592,919.6329077002592,921.2618259000592,921.2618259000592,921.2618259000592,921.2618259000592,921.2618259000592,921.2618259000592,921.2618259000592,921.2618259000592,921.2618259000592,921.2618259000592,921.2618259000592,921.2618259000592,921.2618259000592,921.2618259000592,921.2618259000592,921.2618259000592,921.2618259000592,923.7708291001618,923.7708291001618,923.7708291001618,923.7708291001618,923.7708291001618,86,14,41,36,86,25,7.0,0.8970479001291096,924.6850877003744,926.2149481000379,,,,,,,,,132,m,24,2022-12-12_15h37.37.782,RL,2022.2.4,60.22685040119507,
1,34,0,34,0,,,,,,,,,,None,926.2149481000379,926.2149481000379,926.2149481000379,926.2149481000379,926.2149481000379,926.2149481000379,r,0.5284007000736892,926.7652136003599,926.7652136003599,926.7652136003599,926.7652136003599,926.7652136003599,926.7652136003599,927.0628156000748,927.0628156000748,928.026695500128,928.026695500128,928.0432603000663,928.0432603000663,928.0432603000663,928.0432603000663,928.0432603000663,928.0432603000663,928.0432603000663,928.0432603000663,928.0432603000663,928.0432603000663,928.0432603000663,928.0432603000663,928.0432603000663,928.0432603000663,928.0432603000663,930.5525224003941,930.5525224003941,930.5525224003941,930.5525224003941,930.5525224003941,90,28,39,35,90,73,7.0,0.8463552999310195,931.4167472003028,933.1291173002683,,,,,,,,,132,m,24,2022-12-12_15h37.37.782,RL,2022.2.4,60.22685040119507,
1,35,0,35,0,,,,,,,,,,None,933.1291173002683,933.1291173002683,933.1291173002683,933.1291173002683,933.1291173002683,933.1291173002683,r,0.5206027003005147,933.6799692003988,933.6799692003988,933.6799692003988,933.6799692003988,933.6799692003988,933.6799692003988,933.9773822003044,933.9773822003044,935.5063561000861,935.5063561000861,935.5063561000861,935.5063561000861,935.5063561000861,935.5063561000861,935.5063561000861,935.5063561000861,935.5063561000861,935.5063561000861,935.5063561000861,935.5063561000861,935.5063561000861,935.5063561000861,935.5063561000861,935.5063561000861,935.5063561000861,938.0154058001935,938.0154058001935,938.0154058001935,938.0154058001935,938.0154058001935,90,10,40,38,90,65,7.0,1.744506400078535,939.7773273000494,941.6224969001487,,,,,,,,,132,m,24,2022-12-12_15h37.37.782,RL,2022.2.4,60.22685040119507,
1,36,0,36,0,,,,,,,,,,None,941.6224969001487,941.6224969001487,941.6224969001487,941.6224969001487,941.6224969001487,941.6224969001487,r,0.6849418999627233,942.3398800999857,942.3398800999857,942.3398800999857,942.3398800999857,942.3398800999857,942.3398800999857,942.6371094002388,942.6371094002388,944.3154064002447,944.3154064002447,944.3154064002447,944.3154064002447,944.3154064002447,944.3154064002447,944.3154064002447,944.3154064002447,944.3154064002447,944.3154064002447,944.3154064002447,944.3154064002447,944.3154064002447,944.3154064002447,944.3154064002447,944.3154064002447,944.3154064002447,946.8244787002914,946.8244787002914,946.8244787002914,946.8244787002914,946.8244787002914,80,16,35,36,80,61,7.0,1.0127032999880612,947.8552165003493,949.8334416002035,,,,,,,,,132,m,24,2022-12-12_15h37.37.782,RL,2022.2.4,60.22685040119507,
1,37,0,37,0,,,,,,,,,,None,949.8334416002035,949.8334416002035,949.8334416002035,949.8334416002035,949.8334416002035,949.8334416002035,r,0.3189849001355469,950.1842134003527,950.1842134003527,950.1842134003527,950.1842134003527,950.1842134003527,950.1842134003527,950.4820456001908,950.4820456001908,951.9946082001552,951.9946082001552,951.9946082001552,951.9946082001552,951.9946082001552,951.9946082001552,951.9946082001552,951.9946082001552,951.9946082001552,951.9946082001552,951.9946082001552,951.9946082001552,951.9946082001552,951.9946082001552,951.9946082001552,951.9946082001552,951.9946082001552,954.5036178003065,954.5036178003065,954.5036178003065,954.5036178003065,954.5036178003065,84,17,41,39,84,50,7.0,0.8132133996114135,955.3348403000273,956.9311210000888,,,,,,,,,132,m,24,2022-12-12_15h37.37.782,RL,2022.2.4,60.22685040119507,
1,38,0,38,0,,,,,,,,,,None,956.9311210000888,956.9311210000888,956.9311210000888,956.9311210000888,956.9311210000888,956.9311210000888,r,0.5721099004149437,957.5321092000231,957.5321092000231,957.5321092000231,957.5321092000231,957.5321092000231,957.5321092000231,957.8289310000837,957.8289310000837,958.8591424003243,958.8591424003243,958.8591424003243,958.8591424003243,958.8591424003243,958.8591424003243,958.8591424003243,958.8591424003243,958.8591424003243,958.8591424003243,958.8591424003243,958.8591424003243,958.8591424003243,958.8591424003243,958.8591424003243,958.8591424003243,958.8591424003243,961.3684731000103,961.3684731000103,961.3684731000103,961.3684731000103,961.3684731000103,82,21,39,45,82,54,7.0,0.7805017996579409,962.1662004003301,963.8453136002645,,,,,,,,,132,m,24,2022-12-12_15h37.37.782,RL,2022.2.4,60.22685040119507,
1,39,0,39,0,,,,,,,,,,None,963.8453136002645,963.8453136002645,963.8453136002645,963.8453136002645,963.8453136002645,963.8453136002645,r,0.5297447997145355,964.394232199993,964.394232199993,964.394232199993,964.394232199993,964.394232199993,964.394232199993,964.6932057002559,964.6932057002559,966.2057348000817,966.2057348000817,966.2057348000817,966.2057348000817,966.2057348000817,966.2057348000817,966.2057348000817,966.2057348000817,966.2057348000817,966.2057348000817,966.2057348000817,966.2057348000817,966.2057348000817,966.2057348000817,966.2057348000817,966.2057348000817,966.2057348000817,968.7148886001669,968.7148886001669,968.7148886001669,968.7148886001669,968.7148886001669,74,19,37,50,74,59,7.0,1.5285227000713348,970.2606286001392,972.1559219001792,,,,,,,,,132,m,24,2022-12-12_15h37.37.782,RL,2022.2.4,60.22685040119507,
1,40,0,40,0,,,,,,,,,,None,972.1559219001792,972.1559219001792,972.1559219001792,972.1559219001792,972.1559219001792,972.1559219001792,r,0.9435411999002099,973.1229560002685,973.1229560002685,973.1229560002685,973.1229560002685,973.1229560002685,973.1229560002685,973.4196268999949,973.4196268999949,974.6992115001194,974.6992115001194,974.6992115001194,974.6992115001194,974.6992115001194,974.6992115001194,974.6992115001194,974.6992115001194,974.6992115001194,974.6992115001194,974.6992115001194,974.6992115001194,974.6992115001194,974.6992115001194,974.6992115001194,974.6992115001194,974.6992115001194,977.208387600258,977.208387600258,977.208387600258,977.208387600258,977.208387600258,79,19,41,48,79,66,7.0,0.8292118003591895,978.0562901999801,979.9346931003965,,,,,,,,,132,m,24,2022-12-12_15h37.37.782,RL,2022.2.4,60.22685040119507,
1,41,0,41,0,,,,,,,,,,None,979.9346931003965,979.9346931003965,979.9346931003965,979.9346931003965,979.9346931003965,979.9346931003965,r,0.32884280011057854,980.286906500347,980.286906500347,980.286906500347,980.286906500347,980.286906500347,980.286906500347,980.5831674002111,980.5831674002111,982.0459892000072,982.0459892000072,982.0459892000072,982.0459892000072,982.0459892000072,982.0459892000072,982.0459892000072,982.0459892000072,982.0459892000072,982.0459892000072,982.0459892000072,982.0459892000072,982.0459892000072,982.0459892000072,982.0459892000072,982.0459892000072,982.0459892000072,984.5549892000854,984.5549892000854,984.5549892000854,984.5549892000854,984.5549892000854,79,22,29,36,79,60,7.0,0.7471054000779986,985.3195268004201,987.3146587000228,,,,,,,,,132,m,24,2022-12-12_15h37.37.782,RL,2022.2.4,60.22685040119507,
1,42,0,42,0,,,,,,,,,,None,987.3146587000228,987.3146587000228,987.3146587000228,987.3146587000228,987.3146587000228,987.3146587000228,r,0.46408249996602535,987.7993661002256,987.7993661002256,987.7993661002256,987.7993661002256,987.7993661002256,987.7993661002256,988.0962656000629,988.0962656000629,989.8246800000779,989.8246800000779,989.8246800000779,989.8246800000779,989.8246800000779,989.8246800000779,989.8246800000779,989.8246800000779,989.8246800000779,989.8246800000779,989.8246800000779,989.8246800000779,989.8246800000779,989.8246800000779,989.8246800000779,989.8246800000779,989.8246800000779,992.3337262002751,992.3337262002751,992.3337262002751,992.3337262002751,992.3337262002751,75,25,35,47,75,63,7.0,0.79841130040586,993.1485778000206,995.0435815001838,,,,,,,,,132,m,24,2022-12-12_15h37.37.782,RL,2022.2.4,60.22685040119507,
1,43,0,43,0,,,,,,,,,,None,995.0435815001838,995.0435815001838,995.0435815001838,995.0435815001838,995.0435815001838,995.0435815001838,r,0.3203818001784384,995.3975062002428,995.3975062002428,995.3975062002428,995.3975062002428,995.3975062002428,995.3975062002428,995.6919834003784,995.6919834003784,997.1548366001807,997.1548366001807,997.1548366001807,997.1548366001807,997.1548366001807,997.1548366001807,997.1548366001807,997.1548366001807,997.1548366001807,997.1548366001807,997.1548366001807,997.1548366001807,997.1548366001807,997.1548366001807,997.1548366001807,997.1548366001807,997.1548366001807,999.663869400043,999.663869400043,999.663869400043,999.663869400043,999.663869400043,80,21,35,50,80,65,7.0,0.8135247998870909,1000.4949408001266,1002.2408957001753,,,,,,,,,132,m,24,2022-12-12_15h37.37.782,RL,2022.2.4,60.22685040119507,
1,44,0,44,0,,,,,,,,,,None,1002.2408957001753,1002.2408957001753,1002.2408957001753,1002.2408957001753,1002.2408957001753,1002.2408957001753,r,0.5574908996932209,1002.8232596004382,1002.8232596004382,1002.8232596004382,1002.8232596004382,1002.8232596004382,1002.8232596004382,1003.1214813999832,1003.1214813999832,1003.9528822000138,1003.9528822000138,1003.9528822000138,1003.9528822000138,1003.9528822000138,1003.9528822000138,1003.9528822000138,1003.9528822000138,1003.9528822000138,1003.9528822000138,1003.9528822000138,1003.9528822000138,1003.9528822000138,1003.9528822000138,1003.9528822000138,1003.9528822000138,1003.9528822000138,1006.4620226002298,1006.4620226002298,1006.4620226002298,1006.4620226002298,1006.4620226002298,75,21,37,59,75,67,7.0,0.7966494001448154,1007.2765582003631,1009.2715181000531,,,,,,,,,132,m,24,2022-12-12_15h37.37.782,RL,2022.2.4,60.22685040119507,
1,45,0,45,0,,,,,,,,,,None,1009.2715181000531,1009.2715181000531,1009.2715181000531,1009.2715181000531,1009.2715181000531,1009.2715181000531,r,0.5725837000645697,1009.8718691002578,1009.8718691002578,1009.8718691002578,1009.8718691002578,1009.8718691002578,1009.8718691002578,1010.1690859002993,1010.1690859002993,1011.8480526003987,1011.8480526003987,1011.8480526003987,1011.8480526003987,1011.8480526003987,1011.8480526003987,1011.8480526003987,1011.8480526003987,1011.8480526003987,1011.8480526003987,1011.8480526003987,1011.8480526003987,1011.8480526003987,1011.8480526003987,1011.8480526003987,1011.8480526003987,1011.8480526003987,1014.3569013001397,1014.3569013001397,1014.3569013001397,1014.3569013001397,1014.3569013001397,72,14,35,57,72,40,7.0,1.4451519004069269,1015.8199007003568,1017.4156677001156,,,,,,,,,132,m,24,2022-12-12_15h37.37.782,RL,2022.2.4,60.22685040119507,
1,46,0,46,0,,,,,,,,,,None,1017.4156677001156,1017.4156677001156,1017.4156677001156,1017.4156677001156,1017.4156677001156,1017.4156677001156,r,0.5624023000709713,1017.9998163003474,1017.9998163003474,1017.9998163003474,1017.9998163003474,1017.9998163003474,1017.9998163003474,1018.2972322003916,1018.2972322003916,1020.1417267001234,1020.1417267001234,1020.1589374002069,1020.1589374002069,1020.1589374002069,1020.1589374002069,1020.1589374002069,1020.1589374002069,1020.1589374002069,1020.1589374002069,1020.1589374002069,1020.1589374002069,1020.1589374002069,1020.1589374002069,1020.1589374002069,1020.1589374002069,1020.1589374002069,1022.6681290003471,1022.6681290003471,1022.6681290003471,1022.6681290003471,1022.6681290003471,63,22,29,52,63,71,5.0,1.5461590001359582,1024.2304004002362,1025.9761327002198,,,,,,,,,132,m,24,2022-12-12_15h37.37.782,RL,2022.2.4,60.22685040119507,
1,47,0,47,0,,,,,,,,,,None,1025.9761327002198,1025.9761327002198,1025.9761327002198,1025.9761327002198,1025.9761327002198,1025.9761327002198,r,0.540930800139904,1026.5427761003375,1026.5427761003375,1026.5427761003375,1026.5427761003375,1026.5427761003375,1026.5427761003375,1026.8407242000103,1026.8407242000103,1027.7544212001376,1027.7544212001376,1027.7544212001376,1027.7544212001376,1027.7544212001376,1027.7544212001376,1027.7544212001376,1027.7544212001376,1027.7544212001376,1027.7544212001376,1027.7544212001376,1027.7544212001376,1027.7544212001376,1027.7544212001376,1027.7544212001376,1027.7544212001376,1027.7544212001376,1030.2640351001173,1030.2640351001173,1030.2640351001173,1030.2640351001173,1030.2640351001173,65,25,31,57,65,21,7.0,2.1768662999384105,1032.457884200383,1034.2370003000833,,,,,,,,,132,m,24,2022-12-12_15h37.37.782,RL,2022.2.4,60.22685040119507,
1,48,0,48,0,,,,,,,,,,None,1034.2370003000833,1034.2370003000833,1034.2370003000833,1034.2370003000833,1034.2370003000833,1034.2370003000833,r,0.6039746003225446,1034.8697912003845,1034.8697912003845,1034.8697912003845,1034.8697912003845,1034.8697912003845,1034.8697912003845,1035.1678776000626,1035.1678776000626,1037.0958871999756,1037.0958871999756,1037.0958871999756,1037.0958871999756,1037.0958871999756,1037.0958871999756,1037.0958871999756,1037.0958871999756,1037.0958871999756,1037.0958871999756,1037.0958871999756,1037.0958871999756,1037.0958871999756,1037.0958871999756,1037.0958871999756,1037.0958871999756,1037.0958871999756,1039.6052312003449,1039.6052312003449,1039.6052312003449,1039.6052312003449,1039.6052312003449,59,15,29,54,59,70,6.0,2.4092785003595054,1042.0319803999737,1043.8606740003452,,,,,,,,,132,m,24,2022-12-12_15h37.37.782,RL,2022.2.4,60.22685040119507,
1,49,0,49,0,,,,,,,,,,None,1043.8606740003452,1043.8606740003452,1043.8606740003452,1043.8606740003452,1043.8606740003452,1043.8606740003452,r,0.6324945003725588,1044.5277743004262,1044.5277743004262,1044.5277743004262,1044.5277743004262,1044.5277743004262,1044.5277743004262,1044.824709400069,1044.824709400069,1046.237370800227,1046.237370800227,1046.237370800227,1046.237370800227,1046.237370800227,1046.237370800227,1046.237370800227,1046.237370800227,1046.237370800227,1046.237370800227,1046.237370800227,1046.237370800227,1046.237370800227,1046.237370800227,1046.237370800227,1046.237370800227,1046.237370800227,1048.7468522000127,1048.7468522000127,1048.7468522000127,1048.7468522000127,1048.7468522000127,63,13,31,55,63,61,5.0,1.9770026998594403,1050.740943300072,1052.686667600181,,,,,,,,,132,m,24,2022-12-12_15h37.37.782,RL,2022.2.4,60.22685040119507,
1,50,0,50,0,,,,,,,,,,None,1052.686667600181,1052.686667600181,1052.686667600181,1052.686667600181,1052.686667600181,1052.686667600181,r,0.7839390998706222,1053.5047838003375,1053.5047838003375,1053.5047838003375,1053.5047838003375,1053.5047838003375,1053.5047838003375,1053.800564400386,1053.800564400386,1055.08008110011,1055.08008110011,1055.0968862003647,1055.0968862003647,1055.0968862003647,1055.0968862003647,1055.0968862003647,1055.0968862003647,1055.0968862003647,1055.0968862003647,1055.0968862003647,1055.0968862003647,1055.0968862003647,1055.0968862003647,1055.0968862003647,1055.0968862003647,1055.0968862003647,1057.6060309000313,1057.6060309000313,1057.6060309000313,1057.6060309000313,1057.6060309000313,68,11,30,49,68,41,5.0,0.7962222001515329,1058.4203910003416,1059.9829061003402,,,,,,,,,132,m,24,2022-12-12_15h37.37.782,RL,2022.2.4,60.22685040119507,
1,51,0,51,0,,,,,,,,,,None,1059.9829061003402,1059.9829061003402,1059.9829061003402,1059.9829061003402,1059.9829061003402,1059.9829061003402,r,0.4987188000231981,1060.5176364001818,1060.5176364001818,1060.5176364001818,1060.5176364001818,1060.5176364001818,1060.5176364001818,1060.8146905000322,1060.8146905000322,1062.5594025002792,1062.5594025002792,1062.5594025002792,1062.5594025002792,1062.5594025002792,1062.5594025002792,1062.5594025002792,1062.5594025002792,1062.5594025002792,1062.5594025002792,1062.5594025002792,1062.5594025002792,1062.5594025002792,1062.5594025002792,1062.5594025002792,1062.5594025002792,1062.5594025002792,1065.0686429003254,1065.0686429003254,1065.0686429003254,1065.0686429003254,1065.0686429003254,60,16,34,51,60,63,4.0,1.8602672996930778,1066.9466946003959,1068.7590666003525,,,,,,,,,132,m,24,2022-12-12_15h37.37.782,RL,2022.2.4,60.22685040119507,
1,52,0,52,0,,,,,,,,,,None,1068.7590666003525,1068.7590666003525,1068.7590666003525,1068.7590666003525,1068.7590666003525,1068.7590666003525,r,0.5956556000746787,1069.3761499002576,1069.3761499002576,1069.3761499002576,1069.3761499002576,1069.3761499002576,1069.3761499002576,1069.6733711003326,1069.6733711003326,1071.6683877999894,1071.6683877999894,1071.6683877999894,1071.6683877999894,1071.6683877999894,1071.6683877999894,1071.6683877999894,1071.6683877999894,1071.6683877999894,1071.6683877999894,1071.6683877999894,1071.6683877999894,1071.6683877999894,1071.6683877999894,1071.6683877999894,1071.6683877999894,1071.6683877999894,1074.1777987000532,1074.1777987000532,1074.1777987000532,1074.1777987000532,1074.1777987000532,48,19,40,55,48,65,3.0,1.5946011999621987,1075.7895920001902,1077.33564750012,,,,,,,,,132,m,24,2022-12-12_15h37.37.782,RL,2022.2.4,60.22685040119507,
1,53,0,53,0,,,,,,,,,,None,1077.33564750012,1077.33564750012,1077.33564750012,1077.33564750012,1077.33564750012,1077.33564750012,f,1.1315289000049233,1078.4997042003088,1078.4997042003088,1078.4997042003088,1078.4997042003088,1078.4997042003088,1078.4997042003088,1078.7991058002226,1078.7991058002226,1080.7600632002577,1080.7600632002577,1080.7600632002577,1080.7600632002577,1080.7600632002577,1080.7600632002577,1080.7600632002577,1080.7600632002577,1080.7600632002577,1080.7600632002577,1080.7600632002577,1080.7600632002577,1080.7600632002577,1080.7600632002577,1080.7600632002577,1080.7600632002577,1080.7600632002577,1083.269057400059,1083.269057400059,1083.269057400059,1083.269057400059,1083.269057400059,56,22,44,49,22,58,2.0,2.043493999633938,1085.3302668002434,1087.3090353002772,,,,,,,,,132,m,24,2022-12-12_15h37.37.782,RL,2022.2.4,60.22685040119507,
1,54,0,54,0,,,,,,,,,,None,1087.3090353002772,1087.3090353002772,1087.3090353002772,1087.3090353002772,1087.3090353002772,1087.3090353002772,r,0.6902654999867082,1088.026511200238,1088.026511200238,1088.026511200238,1088.026511200238,1088.026511200238,1088.026511200238,1088.3226860002615,1088.3226860002615,1089.9850188000128,1089.9850188000128,1089.9850188000128,1089.9850188000128,1089.9850188000128,1089.9850188000128,1089.9850188000128,1089.9850188000128,1089.9850188000128,1089.9850188000128,1089.9850188000128,1089.9850188000128,1089.9850188000128,1089.9850188000128,1089.9850188000128,1089.9850188000128,1089.9850188000128,1092.493939100299,1092.493939100299,1092.493939100299,1092.493939100299,1092.493939100299,67,10,33,63,67,66,5.0,2.0272375997155905,1094.5381773002446,1096.3837570003234,,,,,,,,,132,m,24,2022-12-12_15h37.37.782,RL,2022.2.4,60.22685040119507,
1,55,0,55,0,,,,,,,,,,None,1096.3837570003234,1096.3837570003234,1096.3837570003234,1096.3837570003234,1096.3837570003234,1096.3837570003234,r,0.5981294000521302,1097.0007565002888,1097.0007565002888,1097.0007565002888,1097.0007565002888,1097.0007565002888,1097.0007565002888,1097.298019000329,1097.298019000329,1099.0269490000792,1099.0269490000792,1099.0269490000792,1099.0269490000792,1099.0269490000792,1099.0269490000792,1099.0269490000792,1099.0269490000792,1099.0269490000792,1099.0269490000792,1099.0269490000792,1099.0269490000792,1099.0269490000792,1099.0269490000792,1099.0269490000792,1099.0269490000792,1099.0269490000792,1101.5360499001108,1101.5360499001108,1101.5360499001108,1101.5360499001108,1101.5360499001108,60,16,29,62,60,70,3.0,2.259201299864799,1103.8129193000495,1105.641693700105,,,,,,,,,132,m,24,2022-12-12_15h37.37.782,RL,2022.2.4,60.22685040119507,
1,56,0,56,0,,,,,,,,,,None,1105.641693700105,1105.641693700105,1105.641693700105,1105.641693700105,1105.641693700105,1105.641693700105,r,0.7724819001741707,1106.4437365001068,1106.4437365001068,1106.4437365001068,1106.4437365001068,1106.4437365001068,1106.4437365001068,1106.7392084002495,1106.7392084002495,1108.484581600409,1108.484581600409,1108.484581600409,1108.484581600409,1108.484581600409,1108.484581600409,1108.484581600409,1108.484581600409,1108.484581600409,1108.484581600409,1108.484581600409,1108.484581600409,1108.484581600409,1108.484581600409,1108.484581600409,1108.484581600409,1108.484581600409,1110.9937640000135,1110.9937640000135,1110.9937640000135,1110.9937640000135,1110.9937640000135,51,21,28,59,51,46,4.0,2.2764523001387715,1113.287168700248,1114.8831445001997,,,,,,,,,132,m,24,2022-12-12_15h37.37.782,RL,2022.2.4,60.22685040119507,
1,57,0,57,0,,,,,,,,,,None,1114.8831445001997,1114.8831445001997,1114.8831445001997,1114.8831445001997,1114.8831445001997,1114.8831445001997,None,,,,,,,,,,,,,,,,,,,,,,,,,,,,,,,,58,17,22,54,0,**,None,None,1120.9163899002597,1122.878111900296,1116.4023936004378,1120.9163899002597,,,,,,,132,m,24,2022-12-12_15h37.37.782,RL,2022.2.4,60.22685040119507,
1,58,0,58,0,,,,,,,,,,None,1122.878111900296,1122.878111900296,1122.878111900296,1122.878111900296,1122.878111900296,1122.878111900296,r,0.6822945000603795,1123.5936946002766,1123.5936946002766,1123.5936946002766,1123.5936946002766,1123.5936946002766,1123.5936946002766,1123.892598300241,1123.892598300241,1125.1722744000144,1125.1722744000144,1125.1722744000144,1125.1722744000144,1125.1722744000144,1125.1722744000144,1125.1722744000144,1125.1722744000144,1125.1722744000144,1125.1722744000144,1125.1722744000144,1125.1722744000144,1125.1722744000144,1125.1722744000144,1125.1722744000144,1125.1722744000144,1125.1722744000144,1127.6812278004363,1127.6812278004363,1127.6812278004363,1127.6812278004363,1127.6812278004363,56,22,38,55,56,59,4.0,1.5951429000124335,1129.293329300359,1130.8895714003593,,,,,,,,,132,m,24,2022-12-12_15h37.37.782,RL,2022.2.4,60.22685040119507,
1,59,0,59,0,,,,,,,,,,None,1130.8895714003593,1130.8895714003593,1130.8895714003593,1130.8895714003593,1130.8895714003593,1130.8895714003593,r,0.7991984002292156,1131.7213261001743,1131.7213261001743,1131.7213261001743,1131.7213261001743,1131.7213261001743,1131.7213261001743,1132.0204581003636,1132.0204581003636,1133.9484666003846,1133.9484666003846,1133.9484666003846,1133.9484666003846,1133.9484666003846,1133.9484666003846,1133.9484666003846,1133.9484666003846,1133.9484666003846,1133.9484666003846,1133.9484666003846,1133.9484666003846,1133.9484666003846,1133.9484666003846,1133.9484666003846,1133.9484666003846,1133.9484666003846,1136.4576822002418,1136.4576822002418,1136.4576822002418,1136.4576822002418,1136.4576822002418,58,16,27,58,58,63,4.0,1.1621135999448597,1137.637720900122,1139.5163347003981,,,,,,,,,132,m,24,2022-12-12_15h37.37.782,RL,2022.2.4,60.22685040119507,
1,60,0,60,0,,,,,,,,,,None,1139.5163347003981,1139.5163347003981,1139.5163347003981,1139.5163347003981,1139.5163347003981,1139.5163347003981,j,0.38683159975335,1139.9336125003174,1139.9336125003174,1139.9336125003174,1139.9336125003174,1139.9336125003174,1139.9336125003174,1140.2313278000802,1140.2313278000802,1141.9594549001195,1141.9594549001195,1141.9594549001195,1141.9594549001195,1141.9594549001195,1141.9594549001195,1141.9594549001195,1141.9594549001195,1141.9594549001195,1141.9594549001195,1141.9594549001195,1141.9594549001195,1141.9594549001195,1141.9594549001195,1141.9594549001195,1141.9594549001195,1141.9594549001195,1144.4685956002213,1144.4685956002213,1144.4685956002213,1144.4685956002213,1144.4685956002213,49,24,38,65,65,56,4.0,1.4118133001029491,1145.8979549002834,1147.7936108000576,,,,,,,,,132,m,24,2022-12-12_15h37.37.782,RL,2022.2.4,60.22685040119507,
1,61,0,61,0,,,,,,,,,,None,1147.7936108000576,1147.7936108000576,1147.7936108000576,1147.7936108000576,1147.7936108000576,1147.7936108000576,j,0.36454749992117286,1148.1761634000577,1148.1761634000577,1148.1761634000577,1148.1761634000577,1148.1761634000577,1148.1761634000577,1148.4753581001423,1148.4753581001423,1149.6720947003923,1149.6720947003923,1149.6720947003923,1149.6720947003923,1149.6720947003923,1149.6720947003923,1149.6720947003923,1149.6720947003923,1149.6720947003923,1149.6720947003923,1149.6720947003923,1149.6720947003923,1149.6720947003923,1149.6720947003923,1149.6720947003923,1149.6720947003923,1149.6720947003923,1152.1812590002082,1152.1812590002082,1152.1812590002082,1152.1812590002082,1152.1812590002082,53,19,29,64,64,53,5.0,1.8460498000495136,1154.042538100388,1155.7388119003735,,,,,,,,,132,m,24,2022-12-12_15h37.37.782,RL,2022.2.4,60.22685040119507,
1,62,0,62,0,,,,,,,,,,None,1155.7388119003735,1155.7388119003735,1155.7388119003735,1155.7388119003735,1155.7388119003735,1155.7388119003735,j,0.42762270011007786,1156.1899787001312,1156.1899787001312,1156.1899787001312,1156.1899787001312,1156.1899787001312,1156.1899787001312,1156.487041800283,1156.487041800283,1158.414984300267,1158.414984300267,1158.414984300267,1158.414984300267,1158.414984300267,1158.414984300267,1158.414984300267,1158.414984300267,1158.414984300267,1158.414984300267,1158.414984300267,1158.414984300267,1158.414984300267,1158.414984300267,1158.414984300267,1158.414984300267,1158.414984300267,1160.924148000311,1160.924148000311,1160.924148000311,1160.924148000311,1160.924148000311,56,14,33,58,58,60,3.0,2.359571599867195,1163.3006305000745,1164.813896900043,,,,,,,,,132,m,24,2022-12-12_15h37.37.782,RL,2022.2.4,60.22685040119507,
1,63,0,63,0,,,,,,,,,,None,1164.813896900043,1164.813896900043,1164.813896900043,1164.813896900043,1164.813896900043,1164.813896900043,j,0.6097128000110388,1165.4491314003244,1165.4491314003244,1165.4491314003244,1165.4491314003244,1165.4491314003244,1165.4491314003244,1165.7451897002757,1165.7451897002757,1166.7917703003623,1166.7917703003623,1166.8084925999865,1166.8084925999865,1166.8084925999865,1166.8084925999865,1166.8084925999865,1166.8084925999865,1166.8084925999865,1166.8084925999865,1166.8084925999865,1166.8084925999865,1166.8084925999865,1166.8084925999865,1166.8084925999865,1166.8084925999865,1166.8084925999865,1169.3181499000639,1169.3181499000639,1169.3181499000639,1169.3181499000639,1169.3181499000639,52,14,29,60,60,64,4.0,1.8759054001420736,1171.2122682002373,1173.2073191003874,,,,,,,,,132,m,24,2022-12-12_15h37.37.782,RL,2022.2.4,60.22685040119507,
1,64,0,64,0,,,,,,,,,,None,1173.2073191003874,1173.2073191003874,1173.2073191003874,1173.2073191003874,1173.2073191003874,1173.2073191003874,i,0.9746713996864855,1174.207926500123,1174.207926500123,1174.207926500123,1174.207926500123,1174.207926500123,1174.207926500123,1174.504107600078,1174.504107600078,1175.3350371001288,1175.3350371001288,1175.3350371001288,1175.3350371001288,1175.3350371001288,1175.3350371001288,1175.3350371001288,1175.3350371001288,1175.3350371001288,1175.3350371001288,1175.3350371001288,1175.3350371001288,1175.3350371001288,1175.3350371001288,1175.3350371001288,1175.3350371001288,1175.3350371001288,1177.844158900436,1177.844158900436,1177.844158900436,1177.844158900436,1177.844158900436,56,16,27,59,27,49,2.0,1.4454410998150706,1179.306976500433,1181.0858667003922,,,,,,,,,132,m,24,2022-12-12_15h37.37.782,RL,2022.2.4,60.22685040119507,
1,65,0,65,0,,,,,,,,,,None,1181.0858667003922,1181.0858667003922,1181.0858667003922,1181.0858667003922,1181.0858667003922,1181.0858667003922,r,0.3616439998149872,1181.4700929000974,1181.4700929000974,1181.4700929000974,1181.4700929000974,1181.4700929000974,1181.4700929000974,1181.7679360001348,1181.7679360001348,1182.6155017004348,1182.6155017004348,1182.6155017004348,1182.6155017004348,1182.6155017004348,1182.6155017004348,1182.6155017004348,1182.6155017004348,1182.6155017004348,1182.6155017004348,1182.6155017004348,1182.6155017004348,1182.6155017004348,1182.6155017004348,1182.6155017004348,1182.6155017004348,1182.6155017004348,1185.1249147001654,1185.1249147001654,1185.1249147001654,1185.1249147001654,1185.1249147001654,53,12,34,59,53,50,4.0,1.677407800219953,1186.820049900096,1188.6818427001126,,,,,,,,,132,m,24,2022-12-12_15h37.37.782,RL,2022.2.4,60.22685040119507,
1,66,0,66,0,,,,,,,,,,None,1188.6818427001126,1188.6818427001126,1188.6818427001126,1188.6818427001126,1188.6818427001126,1188.6818427001126,r,0.4165799003094435,1189.1317589003593,1189.1317589003593,1189.1317589003593,1189.1317589003593,1189.1317589003593,1189.1317589003593,1189.4305870002136,1189.4305870002136,1191.341714099981,1191.341714099981,1191.341714099981,1191.341714099981,1191.341714099981,1191.341714099981,1191.341714099981,1191.341714099981,1191.341714099981,1191.341714099981,1191.341714099981,1191.341714099981,1191.341714099981,1191.341714099981,1191.341714099981,1191.341714099981,1191.341714099981,1193.8508350001648,1193.8508350001648,1193.8508350001648,1193.8508350001648,1193.8508350001648,50,10,26,60,50,52,4.0,3.0737032000906765,1196.9420514004305,1198.7877830001526,,,,,,,,,132,m,24,2022-12-12_15h37.37.782,RL,2022.2.4,60.22685040119507,
1,67,0,67,0,,,,,,,,,,None,1198.7877830001526,1198.7877830001526,1198.7877830001526,1198.7877830001526,1198.7877830001526,1198.7877830001526,f,0.614652800373733,1199.439993200358,1199.439993200358,1199.439993200358,1199.439993200358,1199.439993200358,1199.439993200358,1199.7353215999901,1199.7353215999901,1201.4143926003017,1201.4143926003017,1201.4143926003017,1201.4143926003017,1201.4143926003017,1201.4143926003017,1201.4143926003017,1201.4143926003017,1201.4143926003017,1201.4143926003017,1201.4143926003017,1201.4143926003017,1201.4143926003017,1201.4143926003017,1201.4143926003017,1201.4143926003017,1201.4143926003017,1203.9233776000328,1203.9233776000328,1203.9233776000328,1203.9233776000328,1203.9233776000328,43,18,31,71,18,56,1.0,1.7606091001071036,1205.7020976999775,1207.6969151999801,,,,,,,,,132,m,24,2022-12-12_15h37.37.782,RL,2022.2.4,60.22685040119507,
1,68,0,68,0,,,,,,,,,,None,1207.6969151999801,1207.6969151999801,1207.6969151999801,1207.6969151999801,1207.6969151999801,1207.6969151999801,j,0.4539022999815643,1208.1802473003045,1208.1802473003045,1208.1802473003045,1208.1802473003045,1208.1802473003045,1208.1802473003045,1208.478737800382,1208.478737800382,1209.991082700435,1209.991082700435,1209.991082700435,1209.991082700435,1209.991082700435,1209.991082700435,1209.991082700435,1209.991082700435,1209.991082700435,1209.991082700435,1209.991082700435,1209.991082700435,1209.991082700435,1209.991082700435,1209.991082700435,1209.991082700435,1209.991082700435,1212.4998578000814,1212.4998578000814,1212.4998578000814,1212.4998578000814,1212.4998578000814,49,16,26,77,77,59,6.0,1.8267812998965383,1214.344653900247,1216.2734320000745,,,,,,,,,132,m,24,2022-12-12_15h37.37.782,RL,2022.2.4,60.22685040119507,
1,69,0,69,0,,,,,,,,,,None,1216.2734320000745,1216.2734320000745,1216.2734320000745,1216.2734320000745,1216.2734320000745,1216.2734320000745,j,0.34164800029248,1216.6425129002891,1216.6425129002891,1216.6425129002891,1216.6425129002891,1216.6425129002891,1216.6425129002891,1216.9389101001434,1216.9389101001434,1217.9855724000372,1217.9855724000372,1218.0021781004034,1218.0021781004034,1218.0021781004034,1218.0021781004034,1218.0021781004034,1218.0021781004034,1218.0021781004034,1218.0021781004034,1218.0021781004034,1218.0021781004034,1218.0021781004034,1218.0021781004034,1218.0021781004034,1218.0021781004034,1218.0021781004034,1220.51145260036,1220.51145260036,1220.51145260036,1220.51145260036,1220.51145260036,65,16,29,60,60,51,5.0,1.461779700126499,1221.9907466000877,1223.5034939004108,,,,,,,,,132,m,24,2022-12-12_15h37.37.782,RL,2022.2.4,60.22685040119507,
1,70,0,70,0,,,,,,,,,,None,1223.5034939004108,1223.5034939004108,1223.5034939004108,1223.5034939004108,1223.5034939004108,1223.5034939004108,j,0.45948389964178205,1223.9867702000774,1223.9867702000774,1223.9867702000774,1223.9867702000774,1223.9867702000774,1223.9867702000774,1224.2848972002976,1224.2848972002976,1225.6483627003618,1225.6483627003618,1225.6483627003618,1225.6483627003618,1225.6483627003618,1225.6483627003618,1225.6483627003618,1225.6483627003618,1225.6483627003618,1225.6483627003618,1225.6483627003618,1225.6483627003618,1225.6483627003618,1225.6483627003618,1225.6483627003618,1225.6483627003618,1225.6483627003618,1228.1572899003513,1228.1572899003513,1228.1572899003513,1228.1572899003513,1228.1572899003513,66,24,22,59,59,52,5.0,1.3287132000550628,1229.5036674002185,1231.2491048001684,,,,,,,,,132,m,24,2022-12-12_15h37.37.782,RL,2022.2.4,60.22685040119507,
1,71,0,71,0,,,,,,,,,,None,1231.2491048001684,1231.2491048001684,1231.2491048001684,1231.2491048001684,1231.2491048001684,1231.2491048001684,j,0.9038708996959031,1232.1804413003847,1232.1804413003847,1232.1804413003847,1232.1804413003847,1232.1804413003847,1232.1804413003847,1232.4794759000652,1232.4794759000652,1233.7927894000895,1233.7927894000895,1233.7927894000895,1233.7927894000895,1233.7927894000895,1233.7927894000895,1233.7927894000895,1233.7927894000895,1233.7927894000895,1233.7927894000895,1233.7927894000895,1233.7927894000895,1233.7927894000895,1233.7927894000895,1233.7927894000895,1233.7927894000895,1233.7927894000895,1236.3014893000945,1236.3014893000945,1236.3014893000945,1236.3014893000945,1236.3014893000945,54,23,33,58,58,43,5.0,1.0959911001846194,1237.4153194003738,1239.0947249000892,,,,,,,,,132,m,24,2022-12-12_15h37.37.782,RL,2022.2.4,60.22685040119507,
1,72,0,72,0,,,,,,,,,,None,1239.0947249000892,1239.0947249000892,1239.0947249000892,1239.0947249000892,1239.0947249000892,1239.0947249000892,j,0.6581514999270439,1239.7783629000187,1239.7783629000187,1239.7783629000187,1239.7783629000187,1239.7783629000187,1239.7783629000187,1240.075578100048,1240.075578100048,1241.1726878001355,1241.1726878001355,1241.1726878001355,1241.1726878001355,1241.1726878001355,1241.1726878001355,1241.1726878001355,1241.1726878001355,1241.1726878001355,1241.1726878001355,1241.1726878001355,1241.1726878001355,1241.1726878001355,1241.1726878001355,1241.1726878001355,1241.1726878001355,1241.1726878001355,1243.6813893001527,1243.6813893001527,1243.6813893001527,1243.6813893001527,1243.6813893001527,53,19,33,66,66,51,6.0,1.6936790002509952,1245.3932968000881,1247.371851700358,,,,,,,,,132,m,24,2022-12-12_15h37.37.782,RL,2022.2.4,60.22685040119507,
1,73,0,73,0,,,,,,,,,,None,1247.371851700358,1247.371851700358,1247.371851700358,1247.371851700358,1247.371851700358,1247.371851700358,j,0.34971649991348386,1247.7561219003983,1247.7561219003983,1247.7561219003983,1247.7561219003983,1247.7561219003983,1247.7561219003983,1248.053603200242,1248.053603200242,1249.0508330999874,1249.0508330999874,1249.0508330999874,1249.0508330999874,1249.0508330999874,1249.0508330999874,1249.0508330999874,1249.0508330999874,1249.0508330999874,1249.0508330999874,1249.0508330999874,1249.0508330999874,1249.0508330999874,1249.0508330999874,1249.0508330999874,1249.0508330999874,1249.0508330999874,1251.5603640000336,1251.5603640000336,1251.5603640000336,1251.5603640000336,1251.5603640000336,56,22,38,74,74,57,6.0,1.0961883999407291,1252.673736799974,1254.5189840001985,,,,,,,,,132,m,24,2022-12-12_15h37.37.782,RL,2022.2.4,60.22685040119507,
1,74,0,74,0,,,,,,,,,,None,1254.5189840001985,1254.5189840001985,1254.5189840001985,1254.5189840001985,1254.5189840001985,1254.5189840001985,j,0.5166680002585053,1255.0680674002506,1255.0680674002506,1255.0680674002506,1255.0680674002506,1255.0680674002506,1255.0680674002506,1255.3673480004072,1255.3673480004072,1256.6302467002533,1256.6302467002533,1256.6302467002533,1256.6302467002533,1256.6302467002533,1256.6302467002533,1256.6302467002533,1256.6302467002533,1256.6302467002533,1256.6302467002533,1256.6302467002533,1256.6302467002533,1256.6302467002533,1256.6302467002533,1256.6302467002533,1256.6302467002533,1256.6302467002533,1259.1395211000927,1259.1395211000927,1259.1395211000927,1259.1395211000927,1259.1395211000927,64,23,36,55,55,49,5.0,1.8773946999572217,1261.0339521002024,1262.8961839000694,,,,,,,,,132,m,24,2022-12-12_15h37.37.782,RL,2022.2.4,60.22685040119507,
1,75,0,75,0,,,,,,,,,,q,1335.265186600387,1335.265186600387,1335.265186600387,1335.265186600387,1335.265186600387,1335.265186600387,r,1.1606395998969674,1336.4482363001443,1336.4482363001443,1336.4482363001443,1336.4482363001443,1336.4482363001443,1336.4482363001443,1336.7448706002906,1336.7448706002906,1338.0084735001437,1338.0084735001437,1338.0249835001305,1338.0249835001305,1338.0249835001305,1338.0249835001305,1338.0249835001305,1338.0249835001305,1338.0249835001305,1338.0249835001305,1338.0249835001305,1338.0249835001305,1338.0249835001305,1338.0249835001305,1338.0249835001305,1338.0249835001305,1338.0249835001305,1340.5338274003007,1340.5338274003007,1340.5338274003007,1340.5338274003007,1340.5338274003007,57,22,39,66,57,62,4.0,1.3951771003194153,1341.946774000302,1343.758955700323,,,1262.8961839000694,1262.8961839000694,72.34197639999911,,,,132,m,24,2022-12-12_15h37.37.782,RL,2022.2.4,60.22685040119507,
1,76,0,76,0,,,,,,,,,,None,1343.758955700323,1343.758955700323,1343.758955700323,1343.758955700323,1343.758955700323,1343.758955700323,j,0.3855481999926269,1344.1797825000249,1344.1797825000249,1344.1797825000249,1344.1797825000249,1344.1797825000249,1344.1797825000249,1344.4740241002291,1344.4740241002291,1345.5045268000104,1345.5045268000104,1345.5045268000104,1345.5045268000104,1345.5045268000104,1345.5045268000104,1345.5045268000104,1345.5045268000104,1345.5045268000104,1345.5045268000104,1345.5045268000104,1345.5045268000104,1345.5045268000104,1345.5045268000104,1345.5045268000104,1345.5045268000104,1345.5045268000104,1348.0134413000196,1348.0134413000196,1348.0134413000196,1348.0134413000196,1348.0134413000196,59,20,41,70,70,56,5.0,1.3124298001639545,1349.3432609001175,1351.1717731002718,,,,,,,,,132,m,24,2022-12-12_15h37.37.782,RL,2022.2.4,60.22685040119507,
1,77,0,77,0,,,,,,,,,,None,1351.1717731002718,1351.1717731002718,1351.1717731002718,1351.1717731002718,1351.1717731002718,1351.1717731002718,j,0.5273759001865983,1351.7222006004304,1351.7222006004304,1351.7222006004304,1351.7222006004304,1351.7222006004304,1351.7222006004304,1352.020156300161,1352.020156300161,1352.9506495003588,1352.9506495003588,1352.9675671001896,1352.9675671001896,1352.9675671001896,1352.9675671001896,1352.9675671001896,1352.9675671001896,1352.9675671001896,1352.9675671001896,1352.9675671001896,1352.9675671001896,1352.9675671001896,1352.9675671001896,1352.9675671001896,1352.9675671001896,1352.9675671001896,1355.476366800256,1355.476366800256,1355.476366800256,1355.476366800256,1355.476366800256,58,28,39,71,71,80,4.0,1.4451255998574197,1356.9393548001535,1358.7683496000245,,,,,,,,,132,m,24,2022-12-12_15h37.37.782,RL,2022.2.4,60.22685040119507,
1,78,0,78,0,,,,,,,,,,None,1358.7683496000245,1358.7683496000245,1358.7683496000245,1358.7683496000245,1358.7683496000245,1358.7683496000245,j,0.4845173000358045,1359.2863968000747,1359.2863968000747,1359.2863968000747,1359.2863968000747,1359.2863968000747,1359.2863968000747,1359.5831260001287,1359.5831260001287,1361.3115536002442,1361.3115536002442,1361.3115536002442,1361.3115536002442,1361.3115536002442,1361.3115536002442,1361.3115536002442,1361.3115536002442,1361.3115536002442,1361.3115536002442,1361.3115536002442,1361.3115536002442,1361.3115536002442,1361.3115536002442,1361.3115536002442,1361.3115536002442,1361.3115536002442,1363.8205173001625,1363.8205173001625,1363.8205173001625,1363.8205173001625,1363.8205173001625,46,19,39,76,76,73,4.0,1.1290707997977734,1364.9675704003312,1366.8462203000672,,,,,,,,,132,m,24,2022-12-12_15h37.37.782,RL,2022.2.4,60.22685040119507,
1,79,0,79,0,,,,,,,,,,None,1366.8462203000672,1366.8462203000672,1366.8462203000672,1366.8462203000672,1366.8462203000672,1366.8462203000672,j,0.4252690998837352,1367.2981019001454,1367.2981019001454,1367.2981019001454,1367.2981019001454,1367.2981019001454,1367.2981019001454,1367.5941368001513,1367.5941368001513,1368.8904188000597,1368.8904188000597,1368.8904188000597,1368.8904188000597,1368.8904188000597,1368.8904188000597,1368.8904188000597,1368.8904188000597,1368.8904188000597,1368.8904188000597,1368.8904188000597,1368.8904188000597,1368.8904188000597,1368.8904188000597,1368.8904188000597,1368.8904188000597,1368.8904188000597,1371.3997912001796,1371.3997912001796,1371.3997912001796,1371.3997912001796,1371.3997912001796,52,29,50,67,67,64,4.0,0.7968713999725878,1372.2142394003458,1373.992986400146,,,,,,,,,132,m,24,2022-12-12_15h37.37.782,RL,2022.2.4,60.22685040119507,
1,80,0,80,0,,,,,,,,,,None,1373.992986400146,1373.992986400146,1373.992986400146,1373.992986400146,1373.992986400146,1373.992986400146,j,0.4042181000113487,1374.4266213001683,1374.4266213001683,1374.4266213001683,1374.4266213001683,1374.4266213001683,1374.4266213001683,1374.7247308003716,1374.7247308003716,1375.7218339000829,1375.7218339000829,1375.7218339000829,1375.7218339000829,1375.7218339000829,1375.7218339000829,1375.7218339000829,1375.7218339000829,1375.7218339000829,1375.7218339000829,1375.7218339000829,1375.7218339000829,1375.7218339000829,1375.7218339000829,1375.7218339000829,1375.7218339000829,1375.7218339000829,1378.2309277001768,1378.2309277001768,1378.2309277001768,1378.2309277001768,1378.2309277001768,46,27,40,76,76,62,5.0,1.3791838996112347,1379.627150800079,1381.6058414001018,,,,,,,,,132,m,24,2022-12-12_15h37.37.782,RL,2022.2.4,60.22685040119507,
1,81,0,81,0,,,,,,,,,,None,1381.6058414001018,1381.6058414001018,1381.6058414001018,1381.6058414001018,1381.6058414001018,1381.6058414001018,j,0.4101243996992707,1382.0409063003026,1382.0409063003026,1382.0409063003026,1382.0409063003026,1382.0409063003026,1382.0409063003026,1382.3375917002559,1382.3375917002559,1383.2679961002432,1383.2679961002432,1383.2679961002432,1383.2679961002432,1383.2679961002432,1383.2679961002432,1383.2679961002432,1383.2679961002432,1383.2679961002432,1383.2679961002432,1383.2679961002432,1383.2679961002432,1383.2679961002432,1383.2679961002432,1383.2679961002432,1383.2679961002432,1383.2679961002432,1385.777136400342,1385.777136400342,1385.777136400342,1385.777136400342,1385.777136400342,54,29,39,75,75,53,6.0,1.3109246999956667,1387.1068023000844,1388.8029482001439,,,,,,,,,132,m,24,2022-12-12_15h37.37.782,RL,2022.2.4,60.22685040119507,
1,82,0,82,0,,,,,,,,,,None,1388.8029482001439,1388.8029482001439,1388.8029482001439,1388.8029482001439,1388.8029482001439,1388.8029482001439,j,0.3578321998938918,1389.1884530000389,1389.1884530000389,1389.1884530000389,1389.1884530000389,1389.1884530000389,1389.1884530000389,1389.4843570003286,1389.4843570003286,1391.113276200369,1391.113276200369,1391.113276200369,1391.113276200369,1391.113276200369,1391.113276200369,1391.113276200369,1391.113276200369,1391.113276200369,1391.113276200369,1391.113276200369,1391.113276200369,1391.113276200369,1391.113276200369,1391.113276200369,1391.113276200369,1391.113276200369,1393.6224737004377,1393.6224737004377,1393.6224737004377,1393.6224737004377,1393.6224737004377,51,25,40,65,65,56,6.0,0.8464743997901678,1394.4866405003704,1396.3486986001953,,,,,,,,,132,m,24,2022-12-12_15h37.37.782,RL,2022.2.4,60.22685040119507,
1,83,0,83,0,,,,,,,,,,None,1396.3486986001953,1396.3486986001953,1396.3486986001953,1396.3486986001953,1396.3486986001953,1396.3486986001953,j,0.2861383999697864,1396.6710257004015,1396.6710257004015,1396.6710257004015,1396.6710257004015,1396.6710257004015,1396.6710257004015,1396.9643048001453,1396.9643048001453,1398.1609290000051,1398.1609290000051,1398.1609290000051,1398.1609290000051,1398.1609290000051,1398.1609290000051,1398.1609290000051,1398.1609290000051,1398.1609290000051,1398.1609290000051,1398.1609290000051,1398.1609290000051,1398.1609290000051,1398.1609290000051,1398.1609290000051,1398.1609290000051,1398.1609290000051,1400.6698836004362,1400.6698836004362,1400.6698836004362,1400.6698836004362,1400.6698836004362,51,25,50,68,68,48,6.0,1.196775899734348,1401.8833578000776,1403.6122409002855,,,,,,,,,132,m,24,2022-12-12_15h37.37.782,RL,2022.2.4,60.22685040119507,
1,84,0,84,0,,,,,,,,,,None,1403.6122409002855,1403.6122409002855,1403.6122409002855,1403.6122409002855,1403.6122409002855,1403.6122409002855,j,0.44326179986819625,1404.078720800113,1404.078720800113,1404.078720800113,1404.078720800113,1404.078720800113,1404.078720800113,1404.3774578003213,1404.3774578003213,1405.673438000027,1405.673438000027,1405.6903990004212,1405.6903990004212,1405.6903990004212,1405.6903990004212,1405.6903990004212,1405.6903990004212,1405.6903990004212,1405.6903990004212,1405.6903990004212,1405.6903990004212,1405.6903990004212,1405.6903990004212,1405.6903990004212,1405.6903990004212,1405.6903990004212,1408.1994277001359,1408.1994277001359,1408.1994277001359,1408.1994277001359,1408.1994277001359,62,24,35,68,68,51,6.0,0.6973847001791,1408.9141783001833,1410.908880500123,,,,,,,,,132,m,24,2022-12-12_15h37.37.782,RL,2022.2.4,60.22685040119507,
1,85,0,85,0,,,,,,,,,,None,1410.908880500123,1410.908880500123,1410.908880500123,1410.908880500123,1410.908880500123,1410.908880500123,j,0.3561841999180615,1411.2938341000117,1411.2938341000117,1411.2938341000117,1411.2938341000117,1411.2938341000117,1411.2938341000117,1411.5909347003326,1411.5909347003326,1412.6877373000607,1412.6877373000607,1412.7046572002582,1412.7046572002582,1412.7046572002582,1412.7046572002582,1412.7046572002582,1412.7046572002582,1412.7046572002582,1412.7046572002582,1412.7046572002582,1412.7046572002582,1412.7046572002582,1412.7046572002582,1412.7046572002582,1412.7046572002582,1412.7046572002582,1415.2138373004273,1415.2138373004273,1415.2138373004273,1415.2138373004273,1415.2138373004273,58,22,43,65,65,59,5.0,1.4121720995754004,1416.6426709000953,1418.2558269002475,,,,,,,,,132,m,24,2022-12-12_15h37.37.782,RL,2022.2.4,60.22685040119507,
1,86,0,86,0,,,,,,,,,,None,1418.2558269002475,1418.2558269002475,1418.2558269002475,1418.2558269002475,1418.2558269002475,1418.2558269002475,j,0.6668978999368846,1418.9542900002562,1418.9542900002562,1418.9542900002562,1418.9542900002562,1418.9542900002562,1418.9542900002562,1419.2531083002687,1419.2531083002687,1420.1339341001585,1420.1339341001585,1420.1339341001585,1420.1339341001585,1420.1339341001585,1420.1339341001585,1420.1339341001585,1420.1339341001585,1420.1339341001585,1420.1339341001585,1420.1339341001585,1420.1339341001585,1420.1339341001585,1420.1339341001585,1420.1339341001585,1420.1339341001585,1420.1339341001585,1422.643252900336,1422.643252900336,1422.643252900336,1422.643252900336,1422.643252900336,67,26,54,58,58,73,3.0,1.4784297998994589,1424.1392215001397,1425.8684557001106,,,,,,,,,132,m,24,2022-12-12_15h37.37.782,RL,2022.2.4,60.22685040119507,
1,87,0,87,0,,,,,,,,,,None,1425.8684557001106,1425.8684557001106,1425.8684557001106,1425.8684557001106,1425.8684557001106,1425.8684557001106,j,0.4744480000808835,1426.3672964000143,1426.3672964000143,1426.3672964000143,1426.3672964000143,1426.3672964000143,1426.3672964000143,1426.6667005000636,1426.6667005000636,1428.2617203001864,1428.2617203001864,1428.2617203001864,1428.2617203001864,1428.2617203001864,1428.2617203001864,1428.2617203001864,1428.2617203001864,1428.2617203001864,1428.2617203001864,1428.2617203001864,1428.2617203001864,1428.2617203001864,1428.2617203001864,1428.2617203001864,1428.2617203001864,1428.2617203001864,1430.7708808002062,1430.7708808002062,1430.7708808002062,1430.7708808002062,1430.7708808002062,61,31,50,57,57,66,4.0,2.7743169995956123,1433.5635046004318,1435.3755009002052,,,,,,,,,132,m,24,2022-12-12_15h37.37.782,RL,2022.2.4,60.22685040119507,
1,88,0,88,0,,,,,,,,,,None,1435.3755009002052,1435.3755009002052,1435.3755009002052,1435.3755009002052,1435.3755009002052,1435.3755009002052,j,1.0374549999833107,1436.4422814003192,1436.4422814003192,1436.4422814003192,1436.4422814003192,1436.4422814003192,1436.4422814003192,1436.7392677003518,1436.7392677003518,1437.7195704001933,1437.7195704001933,1437.7195704001933,1437.7195704001933,1437.7195704001933,1437.7195704001933,1437.7195704001933,1437.7195704001933,1437.7195704001933,1437.7195704001933,1437.7195704001933,1437.7195704001933,1437.7195704001933,1437.7195704001933,1437.7195704001933,1437.7195704001933,1437.7195704001933,1440.2283989000134,1440.2283989000134,1440.2283989000134,1440.2283989000134,1440.2283989000134,63,32,44,52,52,47,4.0,1.3117941999807954,1441.558369600214,1443.3870570003055,,,,,,,,,132,m,24,2022-12-12_15h37.37.782,RL,2022.2.4,60.22685040119507,
1,89,0,89,0,,,,,,,,,,None,1443.3870570003055,1443.3870570003055,1443.3870570003055,1443.3870570003055,1443.3870570003055,1443.3870570003055,j,0.47588560031726956,1443.8862482002005,1443.8862482002005,1443.8862482002005,1443.8862482002005,1443.8862482002005,1443.8862482002005,1444.185115700122,1444.185115700122,1445.5314580001868,1445.5314580001868,1445.5314580001868,1445.5314580001868,1445.5314580001868,1445.5314580001868,1445.5314580001868,1445.5314580001868,1445.5314580001868,1445.5314580001868,1445.5314580001868,1445.5314580001868,1445.5314580001868,1445.5314580001868,1445.5314580001868,1445.5314580001868,1445.5314580001868,1448.040987400338,1448.040987400338,1448.040987400338,1448.040987400338,1448.040987400338,69,29,44,59,59,67,3.0,1.3945438000373542,1449.4533954001963,1451.365468800068,,,,,,,,,132,m,24,2022-12-12_15h37.37.782,RL,2022.2.4,60.22685040119507,
1,90,0,90,0,,,,,,,,,,None,1451.365468800068,1451.365468800068,1451.365468800068,1451.365468800068,1451.365468800068,1451.365468800068,r,0.3959479001350701,1451.7825133004226,1451.7825133004226,1451.7825133004226,1451.7825133004226,1451.7825133004226,1451.7825133004226,1452.0807099002413,1452.0807099002413,1453.1110440003686,1453.1110440003686,1453.1110440003686,1453.1110440003686,1453.1110440003686,1453.1110440003686,1453.1110440003686,1453.1110440003686,1453.1110440003686,1453.1110440003686,1453.1110440003686,1453.1110440003686,1453.1110440003686,1453.1110440003686,1453.1110440003686,1453.1110440003686,1453.1110440003686,1455.6199052003212,1455.6199052003212,1455.6199052003212,1455.6199052003212,1455.6199052003212,59,33,44,64,59,55,4.0,1.2294032000936568,1456.8665712000802,1458.8614358003251,,,,,,,,,132,m,24,2022-12-12_15h37.37.782,RL,2022.2.4,60.22685040119507,
1,91,0,91,0,,,,,,,,,,None,1458.8614358003251,1458.8614358003251,1458.8614358003251,1458.8614358003251,1458.8614358003251,1458.8614358003251,r,0.36442589992657304,1459.2474364000373,1459.2474364000373,1459.2474364000373,1459.2474364000373,1459.2474364000373,1459.2474364000373,1459.5433332002722,1459.5433332002722,1460.6066976999864,1460.6066976999864,1460.6066976999864,1460.6066976999864,1460.6066976999864,1460.6066976999864,1460.6066976999864,1460.6066976999864,1460.6066976999864,1460.6066976999864,1460.6066976999864,1460.6066976999864,1460.6066976999864,1460.6066976999864,1460.6066976999864,1460.6066976999864,1460.6066976999864,1463.1163775003515,1463.1163775003515,1463.1163775003515,1463.1163775003515,1463.1163775003515,56,27,45,46,56,56,4.0,1.4286929997615516,1464.5621088002808,1466.4574163001962,,,,,,,,,132,m,24,2022-12-12_15h37.37.782,RL,2022.2.4,60.22685040119507,
1,92,0,92,0,,,,,,,,,,None,1466.4574163001962,1466.4574163001962,1466.4574163001962,1466.4574163001962,1466.4574163001962,1466.4574163001962,r,0.49226719979196787,1466.9744452000596,1466.9744452000596,1466.9744452000596,1466.9744452000596,1466.9744452000596,1466.9744452000596,1467.2724145003594,1467.2724145003594,1468.95115370024,1468.95115370024,1468.95115370024,1468.95115370024,1468.95115370024,1468.95115370024,1468.95115370024,1468.95115370024,1468.95115370024,1468.95115370024,1468.95115370024,1468.95115370024,1468.95115370024,1468.95115370024,1468.95115370024,1468.95115370024,1468.95115370024,1471.4600328002125,1471.4600328002125,1471.4600328002125,1471.4600328002125,1471.4600328002125,58,27,48,50,58,58,4.0,0.8305866001173854,1472.3081681001931,1474.020157800056,,,,,,,,,132,m,24,2022-12-12_15h37.37.782,RL,2022.2.4,60.22685040119507,
1,93,0,93,0,,,,,,,,,,None,1474.020157800056,1474.020157800056,1474.020157800056,1474.020157800056,1474.020157800056,1474.020157800056,r,0.42481569992378354,1474.4713004999794,1474.4713004999794,1474.4713004999794,1474.4713004999794,1474.4713004999794,1474.4713004999794,1474.7688120002858,1474.7688120002858,1476.5304258000106,1476.5304258000106,1476.5471457000822,1476.5471457000822,1476.5471457000822,1476.5471457000822,1476.5471457000822,1476.5471457000822,1476.5471457000822,1476.5471457000822,1476.5471457000822,1476.5471457000822,1476.5471457000822,1476.5471457000822,1476.5471457000822,1476.5471457000822,1476.5471457000822,1479.0562047003768,1479.0562047003768,1479.0562047003768,1479.0562047003768,1479.0562047003768,58,37,54,48,58,64,3.0,2.0433001001365483,1481.1171311000362,1483.0287671000697,,,,,,,,,132,m,24,2022-12-12_15h37.37.782,RL,2022.2.4,60.22685040119507,
1,94,0,94,0,,,,,,,,,,None,1483.0287671000697,1483.0287671000697,1483.0287671000697,1483.0287671000697,1483.0287671000697,1483.0287671000697,r,0.4582045995630324,1483.5139470002614,1483.5139470002614,1483.5139470002614,1483.5139470002614,1483.5139470002614,1483.5139470002614,1483.8107259003446,1483.8107259003446,1485.2730488004163,1485.2730488004163,1485.2730488004163,1485.2730488004163,1485.2730488004163,1485.2730488004163,1485.2730488004163,1485.2730488004163,1485.2730488004163,1485.2730488004163,1485.2730488004163,1485.2730488004163,1485.2730488004163,1485.2730488004163,1485.2730488004163,1485.2730488004163,1485.2730488004163,1487.782103100326,1487.782103100326,1487.782103100326,1487.782103100326,1487.782103100326,60,36,47,42,60,37,6.0,1.8933148998767138,1489.6937657999806,1491.5724745001644,,,,,,,,,132,m,24,2022-12-12_15h37.37.782,RL,2022.2.4,60.22685040119507,
1,95,0,95,0,,,,,,,,,,None,1491.5724745001644,1491.5724745001644,1491.5724745001644,1491.5724745001644,1491.5724745001644,1491.5724745001644,r,0.3376139998435974,1491.9400146002881,1491.9400146002881,1491.9400146002881,1491.9400146002881,1491.9400146002881,1491.9400146002881,1492.2376600001007,1492.2376600001007,1493.716877100058,1493.716877100058,1493.7332421001047,1493.7332421001047,1493.7332421001047,1493.7332421001047,1493.7332421001047,1493.7332421001047,1493.7332421001047,1493.7332421001047,1493.7332421001047,1493.7332421001047,1493.7332421001047,1493.7332421001047,1493.7332421001047,1493.7332421001047,1493.7332421001047,1496.2423374000937,1496.2423374000937,1496.2423374000937,1496.2423374000937,1496.2423374000937,58,40,50,43,58,61,4.0,0.8800852000713348,1497.1397309000604,1498.9686239003204,,,,,,,,,132,m,24,2022-12-12_15h37.37.782,RL,2022.2.4,60.22685040119507,
1,96,0,96,0,,,,,,,,,,None,1498.9686239003204,1498.9686239003204,1498.9686239003204,1498.9686239003204,1498.9686239003204,1498.9686239003204,f,0.4109669001773,1499.4029583004303,1499.4029583004303,1499.4029583004303,1499.4029583004303,1499.4029583004303,1499.4029583004303,1499.7003149003722,1499.7003149003722,1501.5120543004014,1501.5120543004014,1501.5120543004014,1501.5120543004014,1501.5120543004014,1501.5120543004014,1501.5120543004014,1501.5120543004014,1501.5120543004014,1501.5120543004014,1501.5120543004014,1501.5120543004014,1501.5120543004014,1501.5120543004014,1501.5120543004014,1501.5120543004014,1501.5120543004014,1504.0210615000688,1504.0210615000688,1504.0210615000688,1504.0210615000688,1504.0210615000688,54,40,51,42,40,57,3.0,1.5611972999759018,1505.6004238002934,1507.4627704001032,,,,,,,,,132,m,24,2022-12-12_15h37.37.782,RL,2022.2.4,60.22685040119507,
1,97,0,97,0,,,,,,,,,,None,1507.4627704001032,1507.4627704001032,1507.4627704001032,1507.4627704001032,1507.4627704001032,1507.4627704001032,r,0.4654878997243941,1507.9627283001319,1507.9627283001319,1507.9627283001319,1507.9627283001319,1507.9627283001319,1507.9627283001319,1508.2608041004278,1508.2608041004278,1509.7398572000675,1509.7398572000675,1509.7398572000675,1509.7398572000675,1509.7398572000675,1509.7398572000675,1509.7398572000675,1509.7398572000675,1509.7398572000675,1509.7398572000675,1509.7398572000675,1509.7398572000675,1509.7398572000675,1509.7398572000675,1509.7398572000675,1509.7398572000675,1509.7398572000675,1512.248857000377,1512.248857000377,1512.248857000377,1512.248857000377,1512.248857000377,52,38,50,54,52,64,3.0,0.8135704998858273,1513.0800879001617,1514.659217200242,,,,,,,,,132,m,24,2022-12-12_15h37.37.782,RL,2022.2.4,60.22685040119507,
1,98,0,98,0,,,,,,,,,,None,1514.659217200242,1514.659217200242,1514.659217200242,1514.659217200242,1514.659217200242,1514.659217200242,j,0.37451779982075095,1515.0596988000907,1515.0596988000907,1515.0596988000907,1515.0596988000907,1515.0596988000907,1515.0596988000907,1515.3578580999747,1515.3578580999747,1516.9365701000206,1516.9365701000206,1516.9365701000206,1516.9365701000206,1516.9365701000206,1516.9365701000206,1516.9365701000206,1516.9365701000206,1516.9365701000206,1516.9365701000206,1516.9365701000206,1516.9365701000206,1516.9365701000206,1516.9365701000206,1516.9365701000206,1516.9365701000206,1516.9365701000206,1519.4458248000592,1519.4458248000592,1519.4458248000592,1519.4458248000592,1519.4458248000592,64,46,44,47,47,44,4.0,1.6119738002307713,1521.0745029002428,1522.604262900073,,,,,,,,,132,m,24,2022-12-12_15h37.37.782,RL,2022.2.4,60.22685040119507,
1,99,0,99,0,,,,,,,,,,None,1522.604262900073,1522.604262900073,1522.604262900073,1522.604262900073,1522.604262900073,1522.604262900073,j,0.4235445000231266,1523.0542706004344,1523.0542706004344,1523.0542706004344,1523.0542706004344,1523.0542706004344,1523.0542706004344,1523.3529111002572,1523.3529111002572,1524.8149225004017,1524.8149225004017,1524.8149225004017,1524.8149225004017,1524.8149225004017,1524.8149225004017,1524.8149225004017,1524.8149225004017,1524.8149225004017,1524.8149225004017,1524.8149225004017,1524.8149225004017,1524.8149225004017,1524.8149225004017,1524.8149225004017,1524.8149225004017,1524.8149225004017,1527.3241760004312,1527.3241760004312,1527.3241760004312,1527.3241760004312,1527.3241760004312,56,48,51,43,43,71,4.0,1.2621986996382475,1528.60426870035,1530.20015910035,,,,,,,,,132,m,24,2022-12-12_15h37.37.782,RL,2022.2.4,60.22685040119507,
1,100,0,100,0,,,,,,,,,,None,1530.20015910035,1530.20015910035,1530.20015910035,1530.20015910035,1530.20015910035,1530.20015910035,i,0.4182229000143707,1530.6534367999993,1530.6534367999993,1530.6534367999993,1530.6534367999993,1530.6534367999993,1530.6534367999993,1530.9487936003134,1530.9487936003134,1532.6110088001005,1532.6110088001005,1532.6110088001005,1532.6110088001005,1532.6110088001005,1532.6110088001005,1532.6110088001005,1532.6110088001005,1532.6110088001005,1532.6110088001005,1532.6110088001005,1532.6110088001005,1532.6110088001005,1532.6110088001005,1532.6110088001005,1532.6110088001005,1532.6110088001005,1535.120134500321,1535.120134500321,1535.120134500321,1535.120134500321,1535.120134500321,63,46,48,44,48,42,4.0,1.4120765002444386,1536.5489527001046,1538.0621232003905,,,,,,,,,132,m,24,2022-12-12_15h37.37.782,RL,2022.2.4,60.22685040119507,
1,101,0,101,0,,,,,,,,,,None,1538.0621232003905,1538.0621232003905,1538.0621232003905,1538.0621232003905,1538.0621232003905,1538.0621232003905,r,0.6293705003336072,1538.7132635000162,1538.7132635000162,1538.7132635000162,1538.7132635000162,1538.7132635000162,1538.7132635000162,1539.009910700377,1539.009910700377,1540.0905776000582,1540.0905776000582,1540.0905776000582,1540.0905776000582,1540.0905776000582,1540.0905776000582,1540.0905776000582,1540.0905776000582,1540.0905776000582,1540.0905776000582,1540.0905776000582,1540.0905776000582,1540.0905776000582,1540.0905776000582,1540.0905776000582,1540.0905776000582,1540.0905776000582,1542.5996063002385,1542.5996063002385,1542.5996063002385,1542.5996063002385,1542.5996063002385,61,55,50,44,61,73,4.0,2.0104217999614775,1544.6269539999776,1546.4724640003406,,,,,,,,,132,m,24,2022-12-12_15h37.37.782,RL,2022.2.4,60.22685040119507,
1,102,0,102,0,,,,,,,,,,None,1546.4724640003406,1546.4724640003406,1546.4724640003406,1546.4724640003406,1546.4724640003406,1546.4724640003406,i,0.4422674002125859,1546.9399233004078,1546.9399233004078,1546.9399233004078,1546.9399233004078,1546.9399233004078,1546.9399233004078,1547.2376481001265,1547.2376481001265,1548.5336780999787,1548.5336780999787,1548.5508984001353,1548.5508984001353,1548.5508984001353,1548.5508984001353,1548.5508984001353,1548.5508984001353,1548.5508984001353,1548.5508984001353,1548.5508984001353,1548.5508984001353,1548.5508984001353,1548.5508984001353,1548.5508984001353,1548.5508984001353,1548.5508984001353,1551.0599488001317,1551.0599488001317,1551.0599488001317,1551.0599488001317,1551.0599488001317,58,54,48,46,48,69,3.0,2.19315529987216,1553.2703748000786,1555.2820737003349,,,,,,,,,132,m,24,2022-12-12_15h37.37.782,RL,2022.2.4,60.22685040119507,
1,103,0,103,0,,,,,,,,,,None,1555.2820737003349,1555.2820737003349,1555.2820737003349,1555.2820737003349,1555.2820737003349,1555.2820737003349,j,0.3350144000723958,1555.64815620007,1555.64815620007,1555.64815620007,1555.64815620007,1555.64815620007,1555.64815620007,1555.947198100388,1555.947198100388,1557.3430838002823,1557.3430838002823,1557.3430838002823,1557.3430838002823,1557.3430838002823,1557.3430838002823,1557.3430838002823,1557.3430838002823,1557.3430838002823,1557.3430838002823,1557.3430838002823,1557.3430838002823,1557.3430838002823,1557.3430838002823,1557.3430838002823,1557.3430838002823,1557.3430838002823,1559.8522217003629,1559.8522217003629,1559.8522217003629,1559.8522217003629,1559.8522217003629,51,52,50,52,52,76,3.0,1.2620562999509275,1561.131854500156,1562.977466700133,,,,,,,,,132,m,24,2022-12-12_15h37.37.782,RL,2022.2.4,60.22685040119507,
1,104,0,104,0,,,,,,,,,,None,1562.977466700133,1562.977466700133,1562.977466700133,1562.977466700133,1562.977466700133,1562.977466700133,j,0.49897189997136593,1563.5103311003186,1563.5103311003186,1563.5103311003186,1563.5103311003186,1563.5103311003186,1563.5103311003186,1563.8089942000806,1563.8089942000806,1565.3876836001873,1565.3876836001873,1565.3876836001873,1565.3876836001873,1565.3876836001873,1565.3876836001873,1565.3876836001873,1565.3876836001873,1565.3876836001873,1565.3876836001873,1565.3876836001873,1565.3876836001873,1565.3876836001873,1565.3876836001873,1565.3876836001873,1565.3876836001873,1565.3876836001873,1567.8971544001251,1567.8971544001251,1567.8971544001251,1567.8971544001251,1567.8971544001251,57,50,50,57,57,69,3.0,0.8308978001587093,1568.7445891001262,1570.4905369002372,,,,,,,,,132,m,24,2022-12-12_15h37.37.782,RL,2022.2.4,60.22685040119507,
1,105,0,105,0,,,,,,,,,,None,1570.4905369002372,1570.4905369002372,1570.4905369002372,1570.4905369002372,1570.4905369002372,1570.4905369002372,j,0.5201993002556264,1571.0405334001407,1571.0405334001407,1571.0405334001407,1571.0405334001407,1571.0405334001407,1571.0405334001407,1571.3384467000142,1571.3384467000142,1572.2854983001016,1572.2854983001016,1572.2854983001016,1572.2854983001016,1572.2854983001016,1572.2854983001016,1572.2854983001016,1572.2854983001016,1572.2854983001016,1572.2854983001016,1572.2854983001016,1572.2854983001016,1572.2854983001016,1572.2854983001016,1572.2854983001016,1572.2854983001016,1572.2854983001016,1574.7949368003756,1574.7949368003756,1574.7949368003756,1574.7949368003756,1574.7949368003756,58,62,44,58,58,66,3.0,1.4458214999176562,1576.2574889999814,1578.2024471000768,,,,,,,,,132,m,24,2022-12-12_15h37.37.782,RL,2022.2.4,60.22685040119507,
1,106,0,106,0,,,,,,,,,,None,1578.2024471000768,1578.2024471000768,1578.2024471000768,1578.2024471000768,1578.2024471000768,1578.2024471000768,j,0.4175108000636101,1578.6538104000501,1578.6538104000501,1578.6538104000501,1578.6538104000501,1578.6538104000501,1578.6538104000501,1578.9508490003645,1578.9508490003645,1579.881451900117,1579.881451900117,1579.898637500126,1579.898637500126,1579.898637500126,1579.898637500126,1579.898637500126,1579.898637500126,1579.898637500126,1579.898637500126,1579.898637500126,1579.898637500126,1579.898637500126,1579.898637500126,1579.898637500126,1579.898637500126,1579.898637500126,1582.4078387999907,1582.4078387999907,1582.4078387999907,1582.4078387999907,1582.4078387999907,62,56,43,55,55,60,3.0,0.7969624996185303,1583.221913299989,1584.9176720003597,,,,,,,,,132,m,24,2022-12-12_15h37.37.782,RL,2022.2.4,60.22685040119507,
1,107,0,107,0,,,,,,,,,,None,1584.9176720003597,1584.9176720003597,1584.9176720003597,1584.9176720003597,1584.9176720003597,1584.9176720003597,j,0.4382062000222504,1585.3851558002643,1585.3851558002643,1585.3851558002643,1585.3851558002643,1585.3851558002643,1585.3851558002643,1585.6824405002408,1585.6824405002408,1586.8959208000451,1586.8959208000451,1586.8959208000451,1586.8959208000451,1586.8959208000451,1586.8959208000451,1586.8959208000451,1586.8959208000451,1586.8959208000451,1586.8959208000451,1586.8959208000451,1586.8959208000451,1586.8959208000451,1586.8959208000451,1586.8959208000451,1586.8959208000451,1586.8959208000451,1589.405282100197,1589.405282100197,1589.405282100197,1589.405282100197,1589.405282100197,66,50,41,45,45,58,3.0,0.7474444000981748,1590.169646100141,1591.716154300142,,,,,,,,,132,m,24,2022-12-12_15h37.37.782,RL,2022.2.4,60.22685040119507,
1,108,0,108,0,,,,,,,,,,None,1591.716154300142,1591.716154300142,1591.716154300142,1591.716154300142,1591.716154300142,1591.716154300142,r,0.4251331998966634,1592.1650773002766,1592.1650773002766,1592.1650773002766,1592.1650773002766,1592.1650773002766,1592.1650773002766,1592.4639691002667,1592.4639691002667,1594.0098458002321,1594.0098458002321,1594.0098458002321,1594.0098458002321,1594.0098458002321,1594.0098458002321,1594.0098458002321,1594.0098458002321,1594.0098458002321,1594.0098458002321,1594.0098458002321,1594.0098458002321,1594.0098458002321,1594.0098458002321,1594.0098458002321,1594.0098458002321,1594.0098458002321,1596.5190929002129,1596.5190929002129,1596.5190929002129,1596.5190929002129,1596.5190929002129,57,51,39,48,57,53,4.0,1.4778987001627684,1598.0148750003427,1600.0101340003312,,,,,,,,,132,m,24,2022-12-12_15h37.37.782,RL,2022.2.4,60.22685040119507,
1,109,0,109,0,,,,,,,,,,None,1600.0101340003312,1600.0101340003312,1600.0101340003312,1600.0101340003312,1600.0101340003312,1600.0101340003312,f,0.42521259980276227,1600.4604343003593,1600.4604343003593,1600.4604343003593,1600.4604343003593,1600.4604343003593,1600.4604343003593,1600.7583833001554,1600.7583833001554,1601.805265699979,1601.805265699979,1601.805265699979,1601.805265699979,1601.805265699979,1601.805265699979,1601.805265699979,1601.805265699979,1601.805265699979,1601.805265699979,1601.805265699979,1601.805265699979,1601.805265699979,1601.805265699979,1601.805265699979,1601.805265699979,1601.805265699979,1604.3142093000934,1604.3142093000934,1604.3142093000934,1604.3142093000934,1604.3142093000934,62,57,40,45,57,52,4.0,1.0800935002043843,1605.4115888001397,1607.207210500259,,,,,,,,,132,m,24,2022-12-12_15h37.37.782,RL,2022.2.4,60.22685040119507,
1,110,0,110,0,,,,,,,,,,None,1607.207210500259,1607.207210500259,1607.207210500259,1607.207210500259,1607.207210500259,1607.207210500259,i,0.3519778000190854,1607.591019100044,1607.591019100044,1607.591019100044,1607.591019100044,1607.591019100044,1607.591019100044,1607.889057900291,1607.889057900291,1608.7196166003123,1608.7196166003123,1608.7196166003123,1608.7196166003123,1608.7196166003123,1608.7196166003123,1608.7196166003123,1608.7196166003123,1608.7196166003123,1608.7196166003123,1608.7196166003123,1608.7196166003123,1608.7196166003123,1608.7196166003123,1608.7196166003123,1608.7196166003123,1608.7196166003123,1611.2287314999849,1611.2287314999849,1611.2287314999849,1611.2287314999849,1611.2287314999849,56,66,51,50,51,74,3.0,2.891992200165987,1614.1373570002615,1616.1327759004198,,,,,,,,,132,m,24,2022-12-12_15h37.37.782,RL,2022.2.4,60.22685040119507,
1,111,0,111,0,,,,,,,,,,None,1616.1327759004198,1616.1327759004198,1616.1327759004198,1616.1327759004198,1616.1327759004198,1616.1327759004198,j,0.4140625,1616.566893900279,1616.566893900279,1616.566893900279,1616.566893900279,1616.566893900279,1616.566893900279,1616.864031900186,1616.864031900186,1618.8589673000388,1618.8589673000388,1618.8754899003543,1618.8754899003543,1618.8754899003543,1618.8754899003543,1618.8754899003543,1618.8754899003543,1618.8754899003543,1618.8754899003543,1618.8754899003543,1618.8754899003543,1618.8754899003543,1618.8754899003543,1618.8754899003543,1618.8754899003543,1618.8754899003543,1621.3842893000692,1621.3842893000692,1621.3842893000692,1621.3842893000692,1621.3842893000692,67,54,46,55,55,64,3.0,1.1961210002191365,1622.5979682002217,1624.22714920016,,,,,,,,,132,m,24,2022-12-12_15h37.37.782,RL,2022.2.4,60.22685040119507,
1,112,0,112,0,,,,,,,,,,None,1624.22714920016,1624.22714920016,1624.22714920016,1624.22714920016,1624.22714920016,1624.22714920016,r,0.3873919998295605,1624.6428778003901,1624.6428778003901,1624.6428778003901,1624.6428778003901,1624.6428778003901,1624.6428778003901,1624.9257768001407,1624.9257768001407,1626.920165200252,1626.920165200252,1626.9364838004112,1626.9364838004112,1626.9364838004112,1626.9364838004112,1626.9364838004112,1626.9364838004112,1626.9364838004112,1626.9364838004112,1626.9364838004112,1626.9364838004112,1626.9364838004112,1626.9364838004112,1626.9364838004112,1626.9364838004112,1626.9364838004112,1629.4460025001317,1629.4460025001317,1629.4460025001317,1629.4460025001317,1629.4460025001317,61,55,38,59,61,58,4.0,2.325670799706131,1631.7891249000095,1633.368889100384,,,,,,,,,132,m,24,2022-12-12_15h37.37.782,RL,2022.2.4,60.22685040119507,
1,113,0,113,0,,,,,,,,,,None,1633.368889100384,1633.368889100384,1633.368889100384,1633.368889100384,1633.368889100384,1633.368889100384,r,0.3030668003484607,1633.7045056000352,1633.7045056000352,1633.7045056000352,1633.7045056000352,1633.7045056000352,1633.7045056000352,1634.000546600204,1634.000546600204,1635.5295789004304,1635.5295789004304,1635.5295789004304,1635.5295789004304,1635.5295789004304,1635.5295789004304,1635.5295789004304,1635.5295789004304,1635.5295789004304,1635.5295789004304,1635.5295789004304,1635.5295789004304,1635.5295789004304,1635.5295789004304,1635.5295789004304,1635.5295789004304,1635.5295789004304,1638.0387903000228,1638.0387903000228,1638.0387903000228,1638.0387903000228,1638.0387903000228,72,56,44,57,72,70,5.0,1.9778423001989722,1640.033377900254,1641.7126262001693,,,,,,,,,132,m,24,2022-12-12_15h37.37.782,RL,2022.2.4,60.22685040119507,
