bandit,trials.thisRepN,trials.thisTrialN,trials.thisN,trials.thisIndex,instru_img1.started,instru_resp.started,instru_resp.keys,instru_resp.rt,instru_img2.started,instru_resp2.started,instru_resp2.keys,instru_resp2.rt,fixbefore_2.started,rest_response.keys,red.started,green.started,yellow.started,blue.started,choose_bandit.started,Fixation.started,choose_bandit.keys,choose_bandit.rt,black.started,red_2.started,green_2.started,yellow_2.started,blue_2.started,fixation_2.started,docs.started,image_2.started,docs.stopped,image_2.stopped,black.stopped,red_2.stopped,green_2.stopped,yellow_2.stopped,blue_2.stopped,fixation_2.stopped,black_com.started,reward_sub.started,palyerb.started,reward__sub.started,compare.started,red_compare.started,green_com.started,yellow_com.started,blue_com.started,image_3.started,slider.started,text.started,image_4.started,image_5.started,rewardyellow,rewardred,rewardblue,rewardgreen,subchoose,playerb,slider.response,slider.rt,intertrialfix.started,intertrialfix.stopped,bigx.started,bigx.stopped,rest_image.started,rest_response.started,rest_response.rt,image.started,key_resp.started,key_resp.keys,participant,Gender,Age,date,expName,psychopyVersion,frameRate,
,,,,,558.076144200284,558.076144200284,space,65.41403570026159,,,,,,,,,,,,,,,,,,,,,,,,,,,,,,,,,,,,,,,,,,,,,,,,,,,,,,,,,,,,,,,136,f,1,2022-12-12_17h37.59.843,RL,2022.2.4,60.1631503145719,
,,,,,,,,,623.5198383000679,623.5198383000679,space,62.804841599892825,,,,,,,,,,,,,,,,,,,,,,,,,,,,,,,,,,,,,,,,,,,,,,,,,,,,,,,,,,,136,f,1,2022-12-12_17h37.59.843,RL,2022.2.4,60.1631503145719,
1,0,0,0,0,,,,,,,,,686.3402432999574,None,687.3565688002855,687.3565688002855,687.3565688002855,687.3565688002855,687.3565688002855,687.3565688002855,f,1.2252080999314785,688.6619525998831,688.6619525998831,688.6619525998831,688.6619525998831,688.6619525998831,688.6619525998831,688.901602699887,688.901602699887,690.3635292002,690.3635292002,690.4362594000995,690.4362594000995,690.4362594000995,690.4362594000995,690.4362594000995,690.4362594000995,690.4362594000995,690.4362594000995,690.4362594000995,690.4362594000995,690.4362594000995,690.4362594000995,690.4362594000995,690.4362594000995,690.4362594000995,692.939826299902,692.939826299902,692.939826299902,692.939826299902,692.939826299902,56,42,55,38,42,50,5.0,3.140503200236708,696.1373437000439,697.8097597998567,,,,,,,,,136,f,1,2022-12-12_17h37.59.843,RL,2022.2.4,60.1631503145719,
1,1,0,1,0,,,,,,,,,,None,697.8097597998567,697.8097597998567,697.8097597998567,697.8097597998567,697.8097597998567,697.8097597998567,i,1.2348241000436246,699.0741321002133,699.0741321002133,699.0741321002133,699.0741321002133,699.0741321002133,699.0741321002133,699.3728197999299,699.3728197999299,701.3166064000688,701.3166064000688,701.3166064000688,701.3166064000688,701.3166064000688,701.3166064000688,701.3166064000688,701.3166064000688,701.3166064000688,701.3166064000688,701.3166064000688,701.3166064000688,701.3166064000688,701.3166064000688,701.3166064000688,701.3166064000688,701.3166064000688,703.8265881999396,703.8265881999396,703.8265881999396,703.8265881999396,703.8265881999396,55,48,52,21,52,34,4.0,2.243248200044036,706.0870258002542,707.7331868000329,,,,,,,,,136,f,1,2022-12-12_17h37.59.843,RL,2022.2.4,60.1631503145719,
1,2,0,2,0,,,,,,,,,,None,707.7331868000329,707.7331868000329,707.7331868000329,707.7331868000329,707.7331868000329,707.7331868000329,None,,,,,,,,,,,,,,,,,,,,,,,,,,,,,,,,57,35,60,22,0,**,None,None,713.7656557001173,715.4117276999168,709.2552570998669,713.7656557001173,,,,,,,136,f,1,2022-12-12_17h37.59.843,RL,2022.2.4,60.1631503145719,
1,3,0,3,0,,,,,,,,,,None,715.4117276999168,715.4117276999168,715.4117276999168,715.4117276999168,715.4117276999168,715.4117276999168,j,0.5638260999694467,715.9966779998504,715.9966779998504,715.9966779998504,715.9966779998504,715.9966779998504,715.9966779998504,716.2934405999258,716.2934405999258,717.1239324002527,717.1239324002527,717.1239324002527,717.1239324002527,717.1239324002527,717.1239324002527,717.1239324002527,717.1239324002527,717.1239324002527,717.1239324002527,717.1239324002527,717.1239324002527,717.1239324002527,717.1239324002527,717.1239324002527,717.1239324002527,717.1239324002527,719.6332196001895,719.6332196001895,719.6332196001895,719.6332196001895,719.6332196001895,52,43,61,27,27,26,5.0,1.3453466999344528,720.9961474002339,722.8248494998552,,,,,,,,,136,f,1,2022-12-12_17h37.59.843,RL,2022.2.4,60.1631503145719,
1,4,0,4,0,,,,,,,,,,None,722.8248494998552,722.8248494998552,722.8248494998552,722.8248494998552,722.8248494998552,722.8248494998552,i,0.6213924000039697,723.478816700168,723.478816700168,723.478816700168,723.478816700168,723.478816700168,723.478816700168,723.7729290002026,723.7729290002026,725.3513811002485,725.3513811002485,725.3685269001871,725.3685269001871,725.3685269001871,725.3685269001871,725.3685269001871,725.3685269001871,725.3685269001871,725.3685269001871,725.3685269001871,725.3685269001871,725.3685269001871,725.3685269001871,725.3685269001871,725.3685269001871,725.3685269001871,727.8772724000737,727.8772724000737,727.8772724000737,727.8772724000737,727.8772724000737,54,36,55,30,55,52,5.0,1.395511600188911,729.2903811000288,730.9692020001821,,,,,,,,,136,f,1,2022-12-12_17h37.59.843,RL,2022.2.4,60.1631503145719,
1,5,0,5,0,,,,,,,,,,None,730.9692020001821,730.9692020001821,730.9692020001821,730.9692020001821,730.9692020001821,730.9692020001821,r,0.6671547996811569,731.6715466999449,731.6715466999449,731.6715466999449,731.6715466999449,731.6715466999449,731.6715466999449,731.967377900146,731.967377900146,733.8288874002174,733.8288874002174,733.8288874002174,733.8288874002174,733.8288874002174,733.8288874002174,733.8288874002174,733.8288874002174,733.8288874002174,733.8288874002174,733.8288874002174,733.8288874002174,733.8288874002174,733.8288874002174,733.8288874002174,733.8288874002174,733.8288874002174,736.3375301002525,736.3375301002525,736.3375301002525,736.3375301002525,736.3375301002525,60,51,53,29,60,46,6.0,1.6773702003993094,738.0327615998685,739.5631424998865,,,,,,,,,136,f,1,2022-12-12_17h37.59.843,RL,2022.2.4,60.1631503145719,
1,6,0,6,0,,,,,,,,,,None,739.5631424998865,739.5631424998865,739.5631424998865,739.5631424998865,739.5631424998865,739.5631424998865,f,1.2477400000207126,740.843191199936,740.843191199936,740.843191199936,740.843191199936,740.843191199936,740.843191199936,741.1420102999546,741.1420102999546,742.1556799001992,742.1556799001992,742.1556799001992,742.1556799001992,742.1556799001992,742.1556799001992,742.1556799001992,742.1556799001992,742.1556799001992,742.1556799001992,742.1556799001992,742.1556799001992,742.1556799001992,742.1556799001992,742.1556799001992,742.1556799001992,742.1556799001992,744.6651512999088,744.6651512999088,744.6651512999088,744.6651512999088,744.6651512999088,59,52,56,27,52,68,4.0,2.724602600093931,747.4075223999098,749.2529686000198,,,,,,,,,136,f,1,2022-12-12_17h37.59.843,RL,2022.2.4,60.1631503145719,
1,7,0,7,0,,,,,,,,,,None,749.2529686000198,749.2529686000198,749.2529686000198,749.2529686000198,749.2529686000198,749.2529686000198,f,0.7222778000868857,750.0014384002425,750.0014384002425,750.0014384002425,750.0014384002425,750.0014384002425,750.0014384002425,750.3002428999171,750.3002428999171,751.9290336999111,751.9290336999111,751.9290336999111,751.9290336999111,751.9290336999111,751.9290336999111,751.9290336999111,751.9290336999111,751.9290336999111,751.9290336999111,751.9290336999111,751.9290336999111,751.9290336999111,751.9290336999111,751.9290336999111,751.9290336999111,751.9290336999111,754.4384511001408,754.4384511001408,754.4384511001408,754.4384511001408,754.4384511001408,55,46,45,29,46,62,5.0,2.50871769990772,756.9643691000529,758.7435500998981,,,,,,,,,136,f,1,2022-12-12_17h37.59.843,RL,2022.2.4,60.1631503145719,
1,8,0,8,0,,,,,,,,,,None,758.7435500998981,758.7435500998981,758.7435500998981,758.7435500998981,758.7435500998981,758.7435500998981,i,0.665196499787271,759.4437322998419,759.4437322998419,759.4437322998419,759.4437322998419,759.4437322998419,759.4437322998419,759.7411882998422,759.7411882998422,761.1373001001775,761.1373001001775,761.1373001001775,761.1373001001775,761.1373001001775,761.1373001001775,761.1373001001775,761.1373001001775,761.1373001001775,761.1373001001775,761.1373001001775,761.1373001001775,761.1373001001775,761.1373001001775,761.1373001001775,761.1373001001775,761.1373001001775,763.6461239000782,763.6461239000782,763.6461239000782,763.6461239000782,763.6461239000782,50,48,58,30,58,55,5.0,1.0293239001184702,764.6933917999268,766.5892408001237,,,,,,,,,136,f,1,2022-12-12_17h37.59.843,RL,2022.2.4,60.1631503145719,
1,9,0,9,0,,,,,,,,,,None,766.5892408001237,766.5892408001237,766.5892408001237,766.5892408001237,766.5892408001237,766.5892408001237,r,0.8105635000392795,767.4222514000721,767.4222514000721,767.4222514000721,767.4222514000721,767.4222514000721,767.4222514000721,767.719316800125,767.719316800125,769.4481468000449,769.4481468000449,769.4481468000449,769.4481468000449,769.4481468000449,769.4481468000449,769.4481468000449,769.4481468000449,769.4481468000449,769.4481468000449,769.4481468000449,769.4481468000449,769.4481468000449,769.4481468000449,769.4481468000449,769.4481468000449,769.4481468000449,771.9569637998939,771.9569637998939,771.9569637998939,771.9569637998939,771.9569637998939,53,50,61,38,53,59,3.0,1.7767052999697626,773.7521711001173,775.6977566001005,,,,,,,,,136,f,1,2022-12-12_17h37.59.843,RL,2022.2.4,60.1631503145719,
1,10,0,10,0,,,,,,,,,,None,775.6977566001005,775.6977566001005,775.6977566001005,775.6977566001005,775.6977566001005,775.6977566001005,i,0.5560608999803662,776.2815491002984,776.2815491002984,776.2815491002984,776.2815491002984,776.2815491002984,776.2815491002984,776.5790407001041,776.5790407001041,778.5235568000935,778.5235568000935,778.5235568000935,778.5235568000935,778.5235568000935,778.5235568000935,778.5235568000935,778.5235568000935,778.5235568000935,778.5235568000935,778.5235568000935,778.5235568000935,778.5235568000935,778.5235568000935,778.5235568000935,778.5235568000935,778.5235568000935,781.0327479001135,781.0327479001135,781.0327479001135,781.0327479001135,781.0327479001135,54,52,49,37,49,55,5.0,1.4451981000602245,782.4951948998496,784.157809200231,,,,,,,,,136,f,1,2022-12-12_17h37.59.843,RL,2022.2.4,60.1631503145719,
1,11,0,11,0,,,,,,,,,,None,784.157809200231,784.157809200231,784.157809200231,784.157809200231,784.157809200231,784.157809200231,j,0.5356886000372469,784.7241674000397,784.7241674000397,784.7241674000397,784.7241674000397,784.7241674000397,784.7241674000397,785.0221699001268,785.0221699001268,786.817043799907,786.817043799907,786.8340373998508,786.8340373998508,786.8340373998508,786.8340373998508,786.8340373998508,786.8340373998508,786.8340373998508,786.8340373998508,786.8340373998508,786.8340373998508,786.8340373998508,786.8340373998508,786.8340373998508,786.8340373998508,786.8340373998508,789.3428830001503,789.3428830001503,789.3428830001503,789.3428830001503,789.3428830001503,59,51,51,35,35,65,2.0,1.212903100065887,790.5729503002949,792.4681350002065,,,,,,,,,136,f,1,2022-12-12_17h37.59.843,RL,2022.2.4,60.1631503145719,
1,12,0,12,0,,,,,,,,,,None,792.4681350002065,792.4681350002065,792.4681350002065,792.4681350002065,792.4681350002065,792.4681350002065,r,0.4104590001516044,792.9025826998986,792.9025826998986,792.9025826998986,792.9025826998986,792.9025826998986,792.9025826998986,793.1998558002524,793.1998558002524,794.6962518002838,794.6962518002838,794.6962518002838,794.6962518002838,794.6962518002838,794.6962518002838,794.6962518002838,794.6962518002838,794.6962518002838,794.6962518002838,794.6962518002838,794.6962518002838,794.6962518002838,794.6962518002838,794.6962518002838,794.6962518002838,794.6962518002838,797.2049996000715,797.2049996000715,797.2049996000715,797.2049996000715,797.2049996000715,50,56,61,39,50,52,4.0,0.9140893998555839,798.1358336000703,800.0474646002986,,,,,,,,,136,f,1,2022-12-12_17h37.59.843,RL,2022.2.4,60.1631503145719,
1,13,0,13,0,,,,,,,,,,None,800.0474646002986,800.0474646002986,800.0474646002986,800.0474646002986,800.0474646002986,800.0474646002986,f,0.5568228997290134,800.6324486001395,800.6324486001395,800.6324486001395,800.6324486001395,800.6324486001395,800.6324486001395,800.9289557002485,800.9289557002485,802.1254163002595,802.1254163002595,802.1254163002595,802.1254163002595,802.1254163002595,802.1254163002595,802.1254163002595,802.1254163002595,802.1254163002595,802.1254163002595,802.1254163002595,802.1254163002595,802.1254163002595,802.1254163002595,802.1254163002595,802.1254163002595,802.1254163002595,804.6345053999685,804.6345053999685,804.6345053999685,804.6345053999685,804.6345053999685,56,46,59,51,46,36,6.0,1.3133831000886858,805.9646986001171,807.5607342999429,,,,,,,,,136,f,1,2022-12-12_17h37.59.843,RL,2022.2.4,60.1631503145719,
1,14,0,14,0,,,,,,,,,,None,807.5607342999429,807.5607342999429,807.5607342999429,807.5607342999429,807.5607342999429,807.5607342999429,i,0.45042579993605614,808.0461721001193,808.0461721001193,808.0461721001193,808.0461721001193,808.0461721001193,808.0461721001193,808.3421626002528,808.3421626002528,810.1036276002415,810.1036276002415,810.1036276002415,810.1036276002415,810.1036276002415,810.1036276002415,810.1036276002415,810.1036276002415,810.1036276002415,810.1036276002415,810.1036276002415,810.1036276002415,810.1036276002415,810.1036276002415,810.1036276002415,810.1036276002415,810.1036276002415,812.6126986001618,812.6126986001618,812.6126986001618,812.6126986001618,812.6126986001618,56,55,49,49,49,39,5.0,0.9958338998258114,813.6269356003031,815.5053773000836,,,,,,,,,136,f,1,2022-12-12_17h37.59.843,RL,2022.2.4,60.1631503145719,
1,15,0,15,0,,,,,,,,,,None,815.5053773000836,815.5053773000836,815.5053773000836,815.5053773000836,815.5053773000836,815.5053773000836,i,0.7000552997924387,816.2411221000366,816.2411221000366,816.2411221000366,816.2411221000366,816.2411221000366,816.2411221000366,816.536362899933,816.536362899933,817.9657422001474,817.9657422001474,817.9657422001474,817.9657422001474,817.9657422001474,817.9657422001474,817.9657422001474,817.9657422001474,817.9657422001474,817.9657422001474,817.9657422001474,817.9657422001474,817.9657422001474,817.9657422001474,817.9657422001474,817.9657422001474,817.9657422001474,820.4749341001734,820.4749341001734,820.4749341001734,820.4749341001734,820.4749341001734,63,50,62,54,62,28,7.0,1.5613695997744799,822.0537287001498,823.782648100052,,,,,,,,,136,f,1,2022-12-12_17h37.59.843,RL,2022.2.4,60.1631503145719,
1,16,0,16,0,,,,,,,,,,None,823.782648100052,823.782648100052,823.782648100052,823.782648100052,823.782648100052,823.782648100052,j,0.7729390999302268,824.5812433999963,824.5812433999963,824.5812433999963,824.5812433999963,824.5812433999963,824.5812433999963,824.8801636998542,824.8801636998542,826.1433886000887,826.1433886000887,826.1433886000887,826.1433886000887,826.1433886000887,826.1433886000887,826.1433886000887,826.1433886000887,826.1433886000887,826.1433886000887,826.1433886000887,826.1433886000887,826.1433886000887,826.1433886000887,826.1433886000887,826.1433886000887,826.1433886000887,828.6524898000062,828.6524898000062,828.6524898000062,828.6524898000062,828.6524898000062,63,57,56,49,49,34,6.0,1.8287432002834976,830.4974496001378,832.1270727002993,,,,,,,,,136,f,1,2022-12-12_17h37.59.843,RL,2022.2.4,60.1631503145719,
1,17,0,17,0,,,,,,,,,,None,832.1270727002993,832.1270727002993,832.1270727002993,832.1270727002993,832.1270727002993,832.1270727002993,j,0.9427358000539243,833.0943193002604,833.0943193002604,833.0943193002604,833.0943193002604,833.0943193002604,833.0943193002604,833.3904360001907,833.3904360001907,834.7198735000566,834.7198735000566,834.7198735000566,834.7198735000566,834.7198735000566,834.7198735000566,834.7198735000566,834.7198735000566,834.7198735000566,834.7198735000566,834.7198735000566,834.7198735000566,834.7198735000566,834.7198735000566,834.7198735000566,834.7198735000566,834.7198735000566,837.2289295000955,837.2289295000955,837.2289295000955,837.2289295000955,837.2289295000955,57,56,62,55,55,61,4.0,2.5927363000810146,839.8388718999922,841.8169702999294,,,,,,,,,136,f,1,2022-12-12_17h37.59.843,RL,2022.2.4,60.1631503145719,
1,18,0,18,0,,,,,,,,,,None,841.8169702999294,841.8169702999294,841.8169702999294,841.8169702999294,841.8169702999294,841.8169702999294,f,0.47102339984849095,842.3212397000752,842.3212397000752,842.3212397000752,842.3212397000752,842.3212397000752,842.3212397000752,842.615438000299,842.615438000299,843.529501200188,843.529501200188,843.529501200188,843.529501200188,843.529501200188,843.529501200188,843.529501200188,843.529501200188,843.529501200188,843.529501200188,843.529501200188,843.529501200188,843.529501200188,843.529501200188,843.529501200188,843.529501200188,843.529501200188,846.0387997999787,846.0387997999787,846.0387997999787,846.0387997999787,846.0387997999787,56,53,58,55,53,54,5.0,1.112311900127679,847.1686654002406,849.0305849001743,,,,,,,,,136,f,1,2022-12-12_17h37.59.843,RL,2022.2.4,60.1631503145719,
1,19,0,19,0,,,,,,,,,,None,849.0305849001743,849.0305849001743,849.0305849001743,849.0305849001743,849.0305849001743,849.0305849001743,r,0.31897699972614646,849.3802423002198,849.3802423002198,849.3802423002198,849.3802423002198,849.3802423002198,849.3802423002198,849.6790547999553,849.6790547999553,850.8928177999333,850.8928177999333,850.8928177999333,850.8928177999333,850.8928177999333,850.8928177999333,850.8928177999333,850.8928177999333,850.8928177999333,850.8928177999333,850.8928177999333,850.8928177999333,850.8928177999333,850.8928177999333,850.8928177999333,850.8928177999333,850.8928177999333,853.4015195001848,853.4015195001848,853.4015195001848,853.4015195001848,853.4015195001848,56,67,61,54,56,57,5.0,1.4452484999783337,854.864456300158,856.4270191001706,,,,,,,,,136,f,1,2022-12-12_17h37.59.843,RL,2022.2.4,60.1631503145719,
1,20,0,20,0,,,,,,,,,,None,856.4270191001706,856.4270191001706,856.4270191001706,856.4270191001706,856.4270191001706,856.4270191001706,j,0.7386874002404511,857.1947254003026,857.1947254003026,857.1947254003026,857.1947254003026,857.1947254003026,857.1947254003026,857.4915550998412,857.4915550998412,858.6049815001898,858.6049815001898,858.6049815001898,858.6049815001898,858.6049815001898,858.6049815001898,858.6049815001898,858.6049815001898,858.6049815001898,858.6049815001898,858.6049815001898,858.6049815001898,858.6049815001898,858.6049815001898,858.6049815001898,858.6049815001898,858.6049815001898,861.1139591000974,861.1139591000974,861.1139591000974,861.1139591000974,861.1139591000974,57,60,62,58,58,61,5.0,1.2610042002052069,862.3937913002446,864.0066762999631,,,,,,,,,136,f,1,2022-12-12_17h37.59.843,RL,2022.2.4,60.1631503145719,
1,21,0,21,0,,,,,,,,,,None,864.0066762999631,864.0066762999631,864.0066762999631,864.0066762999631,864.0066762999631,864.0066762999631,j,0.7390844002366066,864.7735461001284,864.7735461001284,864.7735461001284,864.7735461001284,864.7735461001284,864.7735461001284,865.0706388000399,865.0706388000399,866.366858500056,866.366858500056,866.366858500056,866.366858500056,866.366858500056,866.366858500056,866.366858500056,866.366858500056,866.366858500056,866.366858500056,866.366858500056,866.366858500056,866.366858500056,866.366858500056,866.366858500056,866.366858500056,866.366858500056,868.8764363001101,868.8764363001101,868.8764363001101,868.8764363001101,868.8764363001101,58,68,67,65,65,24,7.0,1.378650200087577,870.2723145000637,872.0349210998975,,,,,,,,,136,f,1,2022-12-12_17h37.59.843,RL,2022.2.4,60.1631503145719,
1,22,0,22,0,,,,,,,,,,None,872.0349210998975,872.0349210998975,872.0349210998975,872.0349210998975,872.0349210998975,872.0349210998975,f,0.4412581999786198,872.5014001000673,872.5014001000673,872.5014001000673,872.5014001000673,872.5014001000673,872.5014001000673,872.7992544998415,872.7992544998415,874.7938401000574,874.7938401000574,874.7938401000574,874.7938401000574,874.7938401000574,874.7938401000574,874.7938401000574,874.7938401000574,874.7938401000574,874.7938401000574,874.7938401000574,874.7938401000574,874.7938401000574,874.7938401000574,874.7938401000574,874.7938401000574,874.7938401000574,877.3030992001295,877.3030992001295,877.3030992001295,877.3030992001295,877.3030992001295,63,68,63,61,68,64,5.0,1.2451451998203993,878.566479800269,880.4946396001615,,,,,,,,,136,f,1,2022-12-12_17h37.59.843,RL,2022.2.4,60.1631503145719,
1,23,0,23,0,,,,,,,,,,None,880.4946396001615,880.4946396001615,880.4946396001615,880.4946396001615,880.4946396001615,880.4946396001615,r,0.28092689998447895,880.7950650001876,880.7950650001876,880.7950650001876,880.7950650001876,880.7950650001876,880.7950650001876,881.0935982000083,881.0935982000083,882.0738524002954,882.0738524002954,882.0738524002954,882.0738524002954,882.0738524002954,882.0738524002954,882.0738524002954,882.0738524002954,882.0738524002954,882.0738524002954,882.0738524002954,882.0738524002954,882.0738524002954,882.0738524002954,882.0738524002954,882.0738524002954,882.0738524002954,884.5831361999735,884.5831361999735,884.5831361999735,884.5831361999735,884.5831361999735,54,73,65,57,54,61,4.0,2.2424874999560416,886.8435577000491,888.8223697002977,,,,,,,,,136,f,1,2022-12-12_17h37.59.843,RL,2022.2.4,60.1631503145719,
1,24,0,24,0,,,,,,,,,,None,888.8223697002977,888.8223697002977,888.8223697002977,888.8223697002977,888.8223697002977,888.8223697002977,j,0.6966663002967834,889.5373396999203,889.5373396999203,889.5373396999203,889.5373396999203,889.5373396999203,889.5373396999203,889.8362801000476,889.8362801000476,890.7507958002388,890.7507958002388,890.7507958002388,890.7507958002388,890.7507958002388,890.7507958002388,890.7507958002388,890.7507958002388,890.7507958002388,890.7507958002388,890.7507958002388,890.7507958002388,890.7507958002388,890.7507958002388,890.7507958002388,890.7507958002388,890.7507958002388,893.2595902001485,893.2595902001485,893.2595902001485,893.2595902001485,893.2595902001485,51,64,66,54,54,59,5.0,1.7117830999195576,894.9880492999218,896.9497714000754,,,,,,,,,136,f,1,2022-12-12_17h37.59.843,RL,2022.2.4,60.1631503145719,
1,25,0,25,0,,,,,,,,,,None,896.9497714000754,896.9497714000754,896.9497714000754,896.9497714000754,896.9497714000754,896.9497714000754,f,0.30932060023769736,897.2850433001295,897.2850433001295,897.2850433001295,897.2850433001295,897.2850433001295,897.2850433001295,897.5817869002931,897.5817869002931,899.0278986999765,899.0278986999765,899.0445003001951,899.0445003001951,899.0445003001951,899.0445003001951,899.0445003001951,899.0445003001951,899.0445003001951,899.0445003001951,899.0445003001951,899.0445003001951,899.0445003001951,899.0445003001951,899.0445003001951,899.0445003001951,899.0445003001951,901.5535836000927,901.5535836000927,901.5535836000927,901.5535836000927,901.5535836000927,53,68,63,62,68,59,6.0,1.6948032998479903,903.2652718001045,904.8616875000298,,,,,,,,,136,f,1,2022-12-12_17h37.59.843,RL,2022.2.4,60.1631503145719,
1,26,0,26,0,,,,,,,,,,None,904.8616875000298,904.8616875000298,904.8616875000298,904.8616875000298,904.8616875000298,904.8616875000298,r,0.24264860013499856,905.128160700202,905.128160700202,905.128160700202,905.128160700202,905.128160700202,905.128160700202,905.4274162999354,905.4274162999354,906.6901020999067,906.6901020999067,906.6901020999067,906.6901020999067,906.6901020999067,906.6901020999067,906.6901020999067,906.6901020999067,906.6901020999067,906.6901020999067,906.6901020999067,906.6901020999067,906.6901020999067,906.6901020999067,906.6901020999067,906.6901020999067,906.6901020999067,909.1994404001161,909.1994404001161,909.1994404001161,909.1994404001161,909.1994404001161,51,66,66,62,51,62,3.0,1.1134319002740085,910.3295464999974,912.025381800253,,,,,,,,,136,f,1,2022-12-12_17h37.59.843,RL,2022.2.4,60.1631503145719,
1,27,0,27,0,,,,,,,,,,None,912.025381800253,912.025381800253,912.025381800253,912.025381800253,912.025381800253,912.025381800253,f,0.554568300023675,912.6094601000659,912.6094601000659,912.6094601000659,912.6094601000659,912.6094601000659,912.6094601000659,912.9065399002284,912.9065399002284,914.4695418002084,914.4695418002084,914.4695418002084,914.4695418002084,914.4695418002084,914.4695418002084,914.4695418002084,914.4695418002084,914.4695418002084,914.4695418002084,914.4695418002084,914.4695418002084,914.4695418002084,914.4695418002084,914.4695418002084,914.4695418002084,914.4695418002084,916.9782111002132,916.9782111002132,916.9782111002132,916.9782111002132,916.9782111002132,42,59,56,64,59,66,4.0,1.3116171997971833,918.3081151000224,920.2862621000968,,,,,,,,,136,f,1,2022-12-12_17h37.59.843,RL,2022.2.4,60.1631503145719,
1,28,0,28,0,,,,,,,,,,None,920.2862621000968,920.2862621000968,920.2862621000968,920.2862621000968,920.2862621000968,920.2862621000968,i,0.5431621996685863,920.8538771001622,920.8538771001622,920.8538771001622,920.8538771001622,920.8538771001622,920.8538771001622,921.1510755000636,921.1510755000636,922.9957742001861,922.9957742001861,923.0121706998907,923.0121706998907,923.0121706998907,923.0121706998907,923.0121706998907,923.0121706998907,923.0121706998907,923.0121706998907,923.0121706998907,923.0121706998907,923.0121706998907,923.0121706998907,923.0121706998907,923.0121706998907,923.0121706998907,925.5213108998723,925.5213108998723,925.5213108998723,925.5213108998723,925.5213108998723,53,62,58,54,58,43,5.0,1.9938950003124774,927.5323983002454,929.4780768998899,,,,,,,,,136,f,1,2022-12-12_17h37.59.843,RL,2022.2.4,60.1631503145719,
1,29,0,29,0,,,,,,,,,,None,929.4780768998899,929.4780768998899,929.4780768998899,929.4780768998899,929.4780768998899,929.4780768998899,r,0.2750878999941051,929.7808650000952,929.7808650000952,929.7808650000952,929.7808650000952,929.7808650000952,929.7808650000952,930.0767435999587,930.0767435999587,931.2731026001275,931.2731026001275,931.2731026001275,931.2731026001275,931.2731026001275,931.2731026001275,931.2731026001275,931.2731026001275,931.2731026001275,931.2731026001275,931.2731026001275,931.2731026001275,931.2731026001275,931.2731026001275,931.2731026001275,931.2731026001275,931.2731026001275,933.7827444998547,933.7827444998547,933.7827444998547,933.7827444998547,933.7827444998547,49,64,57,61,49,27,7.0,2.441878399811685,936.242057800293,938.0710227000527,,,,,,,,,136,f,1,2022-12-12_17h37.59.843,RL,2022.2.4,60.1631503145719,
1,30,0,30,0,,,,,,,,,,None,938.0710227000527,938.0710227000527,938.0710227000527,938.0710227000527,938.0710227000527,938.0710227000527,f,0.5903076999820769,938.6877292999998,938.6877292999998,938.6877292999998,938.6877292999998,938.6877292999998,938.6877292999998,938.9854317000136,938.9854317000136,939.916201800108,939.916201800108,939.9332584999502,939.9332584999502,939.9332584999502,939.9332584999502,939.9332584999502,939.9332584999502,939.9332584999502,939.9332584999502,939.9332584999502,939.9332584999502,939.9332584999502,939.9332584999502,939.9332584999502,939.9332584999502,939.9332584999502,942.4423103998415,942.4423103998415,942.4423103998415,942.4423103998415,942.4423103998415,46,64,51,57,64,27,7.0,1.0624568001367152,943.5227059000172,945.301328800153,,,,,,,,,136,f,1,2022-12-12_17h37.59.843,RL,2022.2.4,60.1631503145719,
1,31,0,31,0,,,,,,,,,,None,945.301328800153,945.301328800153,945.301328800153,945.301328800153,945.301328800153,945.301328800153,i,0.2619469999335706,945.5853916001506,945.5853916001506,945.5853916001506,945.5853916001506,945.5853916001506,945.5853916001506,945.8832950000651,945.8832950000651,947.0632505002432,947.0632505002432,947.0632505002432,947.0632505002432,947.0632505002432,947.0632505002432,947.0632505002432,947.0632505002432,947.0632505002432,947.0632505002432,947.0632505002432,947.0632505002432,947.0632505002432,947.0632505002432,947.0632505002432,947.0632505002432,947.0632505002432,949.5725476001389,949.5725476001389,949.5725476001389,949.5725476001389,949.5725476001389,41,63,46,58,46,70,2.0,1.21246109995991,950.8023536000401,952.6313726999797,,,,,,,,,136,f,1,2022-12-12_17h37.59.843,RL,2022.2.4,60.1631503145719,
1,32,0,32,0,,,,,,,,,,None,952.6313726999797,952.6313726999797,952.6313726999797,952.6313726999797,952.6313726999797,952.6313726999797,i,0.3566430998034775,953.0175303998403,953.0175303998403,953.0175303998403,953.0175303998403,953.0175303998403,953.0175303998403,953.3135569998994,953.3135569998994,954.4435085998848,954.4435085998848,954.4435085998848,954.4435085998848,954.4435085998848,954.4435085998848,954.4435085998848,954.4435085998848,954.4435085998848,954.4435085998848,954.4435085998848,954.4435085998848,954.4435085998848,954.4435085998848,954.4435085998848,954.4435085998848,954.4435085998848,956.9525554999709,956.9525554999709,956.9525554999709,956.9525554999709,956.9525554999709,44,58,54,65,54,54,7.0,1.611861600074917,958.5810564002022,960.3771907002665,,,,,,,,,136,f,1,2022-12-12_17h37.59.843,RL,2022.2.4,60.1631503145719,
1,33,0,33,0,,,,,,,,,,None,960.3771907002665,960.3771907002665,960.3771907002665,960.3771907002665,960.3771907002665,960.3771907002665,f,0.2855307999998331,960.6932518002577,960.6932518002577,960.6932518002577,960.6932518002577,960.6932518002577,960.6932518002577,960.992107400205,960.992107400205,962.620967600029,962.620967600029,962.6379869999364,962.6379869999364,962.6379869999364,962.6379869999364,962.6379869999364,962.6379869999364,962.6379869999364,962.6379869999364,962.6379869999364,962.6379869999364,962.6379869999364,962.6379869999364,962.6379869999364,962.6379869999364,962.6379869999364,965.1467205001973,965.1467205001973,965.1467205001973,965.1467205001973,965.1467205001973,40,67,51,64,67,65,5.0,1.3283692002296448,966.4929275000468,968.421616199892,,,,,,,,,136,f,1,2022-12-12_17h37.59.843,RL,2022.2.4,60.1631503145719,
1,34,0,34,0,,,,,,,,,,None,968.421616199892,968.421616199892,968.421616199892,968.421616199892,968.421616199892,968.421616199892,i,0.26990129984915257,968.7232800000347,968.7232800000347,968.7232800000347,968.7232800000347,968.7232800000347,968.7232800000347,969.0201771999709,969.0201771999709,970.5162380002439,970.5162380002439,970.5162380002439,970.5162380002439,970.5162380002439,970.5162380002439,970.5162380002439,970.5162380002439,970.5162380002439,970.5162380002439,970.5162380002439,970.5162380002439,970.5162380002439,970.5162380002439,970.5162380002439,970.5162380002439,970.5162380002439,973.0250547998585,973.0250547998585,973.0250547998585,973.0250547998585,973.0250547998585,47,62,57,69,57,60,4.0,1.1462333002127707,974.1884762002155,975.9179000998847,,,,,,,,,136,f,1,2022-12-12_17h37.59.843,RL,2022.2.4,60.1631503145719,
1,35,0,35,0,,,,,,,,,,None,975.9179000998847,975.9179000998847,975.9179000998847,975.9179000998847,975.9179000998847,975.9179000998847,i,0.5683464999310672,976.5167612000369,976.5167612000369,976.5167612000369,976.5167612000369,976.5167612000369,976.5167612000369,976.8155415998772,976.8155415998772,978.0289731002413,978.0289731002413,978.0289731002413,978.0289731002413,978.0289731002413,978.0289731002413,978.0289731002413,978.0289731002413,978.0289731002413,978.0289731002413,978.0289731002413,978.0289731002413,978.0289731002413,978.0289731002413,978.0289731002413,978.0289731002413,978.0289731002413,980.5385290998966,980.5385290998966,980.5385290998966,980.5385290998966,980.5385290998966,49,56,62,64,62,67,4.0,0.9137228997424245,981.4685879000463,983.2811799999326,,,,,,,,,136,f,1,2022-12-12_17h37.59.843,RL,2022.2.4,60.1631503145719,
1,36,0,36,0,,,,,,,,,,None,983.2811799999326,983.2811799999326,983.2811799999326,983.2811799999326,983.2811799999326,983.2811799999326,i,0.3554521999321878,983.6640778998844,983.6640778998844,983.6640778998844,983.6640778998844,983.6640778998844,983.6640778998844,983.9631900000386,983.9631900000386,985.9411463001743,985.9411463001743,985.9411463001743,985.9411463001743,985.9411463001743,985.9411463001743,985.9411463001743,985.9411463001743,985.9411463001743,985.9411463001743,985.9411463001743,985.9411463001743,985.9411463001743,985.9411463001743,985.9411463001743,985.9411463001743,985.9411463001743,988.4498892002739,988.4498892002739,988.4498892002739,988.4498892002739,988.4498892002739,54,57,57,54,57,58,4.0,0.9463328002020717,989.4140047999099,991.1266152998433,,,,,,,,,136,f,1,2022-12-12_17h37.59.843,RL,2022.2.4,60.1631503145719,
1,37,0,37,0,,,,,,,,,,None,991.1266152998433,991.1266152998433,991.1266152998433,991.1266152998433,991.1266152998433,991.1266152998433,i,0.34050599997863173,991.4966641999781,991.4966641999781,991.4966641999781,991.4966641999781,991.4966641999781,991.4966641999781,991.7917730999179,991.7917730999179,993.3708266001195,993.3708266001195,993.3708266001195,993.3708266001195,993.3708266001195,993.3708266001195,993.3708266001195,993.3708266001195,993.3708266001195,993.3708266001195,993.3708266001195,993.3708266001195,993.3708266001195,993.3708266001195,993.3708266001195,993.3708266001195,993.3708266001195,995.8795584999025,995.8795584999025,995.8795584999025,995.8795584999025,995.8795584999025,53,60,57,56,57,58,4.0,1.063177399802953,996.9597813002765,998.7558217002079,,,,,,,,,136,f,1,2022-12-12_17h37.59.843,RL,2022.2.4,60.1631503145719,
1,38,0,38,0,,,,,,,,,,None,998.7558217002079,998.7558217002079,998.7558217002079,998.7558217002079,998.7558217002079,998.7558217002079,i,0.5561211998574436,999.3421491999179,999.3421491999179,999.3421491999179,999.3421491999179,999.3421491999179,999.3421491999179,999.6370179001242,999.6370179001242,1001.5151634002104,1001.5151634002104,1001.5151634002104,1001.5151634002104,1001.5151634002104,1001.5151634002104,1001.5151634002104,1001.5151634002104,1001.5151634002104,1001.5151634002104,1001.5151634002104,1001.5151634002104,1001.5151634002104,1001.5151634002104,1001.5151634002104,1001.5151634002104,1001.5151634002104,1004.024188300129,1004.024188300129,1004.024188300129,1004.024188300129,1004.024188300129,56,58,62,59,62,36,6.0,1.2457737000659108,1005.2872919999063,1007.0333976000547,,,,,,,,,136,f,1,2022-12-12_17h37.59.843,RL,2022.2.4,60.1631503145719,
1,39,0,39,0,,,,,,,,,,None,1007.0333976000547,1007.0333976000547,1007.0333976000547,1007.0333976000547,1007.0333976000547,1007.0333976000547,r,0.5227558999322355,1007.5867436002009,1007.5867436002009,1007.5867436002009,1007.5867436002009,1007.5867436002009,1007.5867436002009,1007.8809436000884,1007.8809436000884,1009.8591129002161,1009.8591129002161,1009.8591129002161,1009.8591129002161,1009.8591129002161,1009.8591129002161,1009.8591129002161,1009.8591129002161,1009.8591129002161,1009.8591129002161,1009.8591129002161,1009.8591129002161,1009.8591129002161,1009.8591129002161,1009.8591129002161,1009.8591129002161,1009.8591129002161,1012.3683071001433,1012.3683071001433,1012.3683071001433,1012.3683071001433,1012.3683071001433,52,57,59,43,52,62,4.0,1.4621859001927078,1013.8472990002483,1015.4765313998796,,,,,,,,,136,f,1,2022-12-12_17h37.59.843,RL,2022.2.4,60.1631503145719,
1,40,0,40,0,,,,,,,,,,None,1015.4765313998796,1015.4765313998796,1015.4765313998796,1015.4765313998796,1015.4765313998796,1015.4765313998796,r,0.4784356001764536,1015.9773102002218,1015.9773102002218,1015.9773102002218,1015.9773102002218,1015.9773102002218,1015.9773102002218,1016.2747627999634,1016.2747627999634,1017.8538000001572,1017.8538000001572,1017.8538000001572,1017.8538000001572,1017.8538000001572,1017.8538000001572,1017.8538000001572,1017.8538000001572,1017.8538000001572,1017.8538000001572,1017.8538000001572,1017.8538000001572,1017.8538000001572,1017.8538000001572,1017.8538000001572,1017.8538000001572,1017.8538000001572,1020.3628990999423,1020.3628990999423,1020.3628990999423,1020.3628990999423,1020.3628990999423,52,52,57,55,52,34,7.0,1.6285608997568488,1022.0081477998756,1023.7705390001647,,,,,,,,,136,f,1,2022-12-12_17h37.59.843,RL,2022.2.4,60.1631503145719,
1,41,0,41,0,,,,,,,,,,None,1023.7705390001647,1023.7705390001647,1023.7705390001647,1023.7705390001647,1023.7705390001647,1023.7705390001647,r,0.28371839970350266,1024.0880451002158,1024.0880451002158,1024.0880451002158,1024.0880451002158,1024.0880451002158,1024.0880451002158,1024.3859838000499,1024.3859838000499,1025.3169323001057,1025.3169323001057,1025.3169323001057,1025.3169323001057,1025.3169323001057,1025.3169323001057,1025.3169323001057,1025.3169323001057,1025.3169323001057,1025.3169323001057,1025.3169323001057,1025.3169323001057,1025.3169323001057,1025.3169323001057,1025.3169323001057,1025.3169323001057,1025.3169323001057,1027.8261305000633,1027.8261305000633,1027.8261305000633,1027.8261305000633,1027.8261305000633,54,55,56,49,54,48,4.0,0.9126742999069393,1028.7564699999057,1030.2865205998532,,,,,,,,,136,f,1,2022-12-12_17h37.59.843,RL,2022.2.4,60.1631503145719,
1,42,0,42,0,,,,,,,,,,None,1030.2865205998532,1030.2865205998532,1030.2865205998532,1030.2865205998532,1030.2865205998532,1030.2865205998532,f,0.3494647000916302,1030.6692798002623,1030.6692798002623,1030.6692798002623,1030.6692798002623,1030.6692798002623,1030.6692798002623,1030.9680324001238,1030.9680324001238,1032.8630496002734,1032.8630496002734,1032.8630496002734,1032.8630496002734,1032.8630496002734,1032.8630496002734,1032.8630496002734,1032.8630496002734,1032.8630496002734,1032.8630496002734,1032.8630496002734,1032.8630496002734,1032.8630496002734,1032.8630496002734,1032.8630496002734,1032.8630496002734,1032.8630496002734,1035.372040899936,1035.372040899936,1035.372040899936,1035.372040899936,1035.372040899936,53,57,52,61,57,61,4.0,0.7636013999581337,1036.152960400097,1037.882033099886,,,,,,,,,136,f,1,2022-12-12_17h37.59.843,RL,2022.2.4,60.1631503145719,
1,43,0,43,0,,,,,,,,,,None,1037.882033099886,1037.882033099886,1037.882033099886,1037.882033099886,1037.882033099886,1037.882033099886,f,0.4142310000024736,1038.3163236998953,1038.3163236998953,1038.3163236998953,1038.3163236998953,1038.3163236998953,1038.3163236998953,1038.6136703998782,1038.6136703998782,1039.7111361999996,1039.7111361999996,1039.7111361999996,1039.7111361999996,1039.7111361999996,1039.7111361999996,1039.7111361999996,1039.7111361999996,1039.7111361999996,1039.7111361999996,1039.7111361999996,1039.7111361999996,1039.7111361999996,1039.7111361999996,1039.7111361999996,1039.7111361999996,1039.7111361999996,1042.219606500119,1042.219606500119,1042.219606500119,1042.219606500119,1042.219606500119,57,50,53,55,50,60,3.0,1.0294657000340521,1043.2671421999112,1045.2456054002978,,,,,,,,,136,f,1,2022-12-12_17h37.59.843,RL,2022.2.4,60.1631503145719,
1,44,0,44,0,,,,,,,,,,None,1045.2456054002978,1045.2456054002978,1045.2456054002978,1045.2456054002978,1045.2456054002978,1045.2456054002978,f,0.5318637997843325,1045.8111648000777,1045.8111648000777,1045.8111648000777,1045.8111648000777,1045.8111648000777,1045.8111648000777,1046.109914700035,1046.109914700035,1047.123780600261,1047.123780600261,1047.123780600261,1047.123780600261,1047.123780600261,1047.123780600261,1047.123780600261,1047.123780600261,1047.123780600261,1047.123780600261,1047.123780600261,1047.123780600261,1047.123780600261,1047.123780600261,1047.123780600261,1047.123780600261,1047.123780600261,1049.632887400221,1049.632887400221,1049.632887400221,1049.632887400221,1049.632887400221,58,54,56,54,54,68,3.0,0.913806099910289,1050.5634146002121,1052.2596900998615,,,,,,,,,136,f,1,2022-12-12_17h37.59.843,RL,2022.2.4,60.1631503145719,
1,45,0,45,0,,,,,,,,,,None,1052.2596900998615,1052.2596900998615,1052.2596900998615,1052.2596900998615,1052.2596900998615,1052.2596900998615,f,0.34760630037635565,1052.6257433001883,1052.6257433001883,1052.6257433001883,1052.6257433001883,1052.6257433001883,1052.6257433001883,1052.9247324001044,1052.9247324001044,1054.5370129998773,1054.5370129998773,1054.5370129998773,1054.5370129998773,1054.5370129998773,1054.5370129998773,1054.5370129998773,1054.5370129998773,1054.5370129998773,1054.5370129998773,1054.5370129998773,1054.5370129998773,1054.5370129998773,1054.5370129998773,1054.5370129998773,1054.5370129998773,1054.5370129998773,1057.0462063001469,1057.0462063001469,1057.0462063001469,1057.0462063001469,1057.0462063001469,59,45,57,45,45,23,6.0,1.029353799764067,1058.0930604999885,1059.7889892002568,,,,,,,,,136,f,1,2022-12-12_17h37.59.843,RL,2022.2.4,60.1631503145719,
1,46,0,46,0,,,,,,,,,,None,1059.7889892002568,1059.7889892002568,1059.7889892002568,1059.7889892002568,1059.7889892002568,1059.7889892002568,j,0.48859409987926483,1060.3074886002578,1060.3074886002578,1060.3074886002578,1060.3074886002578,1060.3074886002578,1060.3074886002578,1060.6038962998427,1060.6038962998427,1061.7509369002655,1061.7509369002655,1061.7509369002655,1061.7509369002655,1061.7509369002655,1061.7509369002655,1061.7509369002655,1061.7509369002655,1061.7509369002655,1061.7509369002655,1061.7509369002655,1061.7509369002655,1061.7509369002655,1061.7509369002655,1061.7509369002655,1061.7509369002655,1061.7509369002655,1064.259548800066,1064.259548800066,1064.259548800066,1064.259548800066,1064.259548800066,49,61,52,54,54,59,5.0,1.4448525998741388,1065.7222652002238,1067.2518589003012,,,,,,,,,136,f,1,2022-12-12_17h37.59.843,RL,2022.2.4,60.1631503145719,
1,47,0,47,0,,,,,,,,,,None,1067.2518589003012,1067.2518589003012,1067.2518589003012,1067.2518589003012,1067.2518589003012,1067.2518589003012,j,0.5158110000193119,1067.8030455000699,1067.8030455000699,1067.8030455000699,1067.8030455000699,1067.8030455000699,1067.8030455000699,1068.0999253001064,1068.0999253001064,1069.978382000234,1069.978382000234,1069.978382000234,1069.978382000234,1069.978382000234,1069.978382000234,1069.978382000234,1069.978382000234,1069.978382000234,1069.978382000234,1069.978382000234,1069.978382000234,1069.978382000234,1069.978382000234,1069.978382000234,1069.978382000234,1069.978382000234,1072.4869931000285,1072.4869931000285,1072.4869931000285,1072.4869931000285,1072.4869931000285,60,57,54,49,49,57,6.0,1.3783621997572482,1073.883322500158,1075.878632500302,,,,,,,,,136,f,1,2022-12-12_17h37.59.843,RL,2022.2.4,60.1631503145719,
1,48,0,48,0,,,,,,,,,,None,1075.878632500302,1075.878632500302,1075.878632500302,1075.878632500302,1075.878632500302,1075.878632500302,j,0.2780497004278004,1076.1801276998594,1076.1801276998594,1076.1801276998594,1076.1801276998594,1076.1801276998594,1076.1801276998594,1076.477234300226,1076.477234300226,1078.1889368002303,1078.1889368002303,1078.1889368002303,1078.1889368002303,1078.1889368002303,1078.1889368002303,1078.1889368002303,1078.1889368002303,1078.1889368002303,1078.1889368002303,1078.1889368002303,1078.1889368002303,1078.1889368002303,1078.1889368002303,1078.1889368002303,1078.1889368002303,1078.1889368002303,1080.6982217999175,1080.6982217999175,1080.6982217999175,1080.6982217999175,1080.6982217999175,66,54,39,53,53,48,5.0,1.4958607000298798,1082.2108308002353,1084.0233090999536,,,,,,,,,136,f,1,2022-12-12_17h37.59.843,RL,2022.2.4,60.1631503145719,
1,49,0,49,0,,,,,,,,,,None,1084.0233090999536,1084.0233090999536,1084.0233090999536,1084.0233090999536,1084.0233090999536,1084.0233090999536,i,0.3325443002395332,1084.3918881998397,1084.3918881998397,1084.3918881998397,1084.3918881998397,1084.3918881998397,1084.3918881998397,1084.6882490999997,1084.6882490999997,1086.0178474001586,1086.0178474001586,1086.0178474001586,1086.0178474001586,1086.0178474001586,1086.0178474001586,1086.0178474001586,1086.0178474001586,1086.0178474001586,1086.0178474001586,1086.0178474001586,1086.0178474001586,1086.0178474001586,1086.0178474001586,1086.0178474001586,1086.0178474001586,1086.0178474001586,1088.5271669998765,1088.5271669998765,1088.5271669998765,1088.5271669998765,1088.5271669998765,62,60,60,48,60,47,6.0,1.3293964001350105,1089.8732044999488,1091.6025570002384,,,,,,,,,136,f,1,2022-12-12_17h37.59.843,RL,2022.2.4,60.1631503145719,
1,50,0,50,0,,,,,,,,,,None,1091.6025570002384,1091.6025570002384,1091.6025570002384,1091.6025570002384,1091.6025570002384,1091.6025570002384,f,0.38339210022240877,1092.0202879002318,1092.0202879002318,1092.0202879002318,1092.0202879002318,1092.0202879002318,1092.0202879002318,1092.317553400062,1092.317553400062,1093.6466291001998,1093.6466291001998,1093.6466291001998,1093.6466291001998,1093.6466291001998,1093.6466291001998,1093.6466291001998,1093.6466291001998,1093.6466291001998,1093.6466291001998,1093.6466291001998,1093.6466291001998,1093.6466291001998,1093.6466291001998,1093.6466291001998,1093.6466291001998,1093.6466291001998,1096.1559049002826,1096.1559049002826,1096.1559049002826,1096.1559049002826,1096.1559049002826,61,55,62,50,55,54,4.0,1.3460808000527322,1097.5187392998487,1099.0319588999264,,,,,,,,,136,f,1,2022-12-12_17h37.59.843,RL,2022.2.4,60.1631503145719,
1,51,0,51,0,,,,,,,,,,None,1099.0319588999264,1099.0319588999264,1099.0319588999264,1099.0319588999264,1099.0319588999264,1099.0319588999264,f,0.28463329980149865,1099.350309100002,1099.350309100002,1099.350309100002,1099.350309100002,1099.350309100002,1099.350309100002,1099.6475324002095,1099.6475324002095,1100.827119700145,1100.827119700145,1100.827119700145,1100.827119700145,1100.827119700145,1100.827119700145,1100.827119700145,1100.827119700145,1100.827119700145,1100.827119700145,1100.827119700145,1100.827119700145,1100.827119700145,1100.827119700145,1100.827119700145,1100.827119700145,1100.827119700145,1103.3366070999764,1103.3366070999764,1103.3366070999764,1103.3366070999764,1103.3366070999764,71,58,53,52,58,41,6.0,1.0465511004440486,1104.4002220998518,1106.1790554998443,,,,,,,,,136,f,1,2022-12-12_17h37.59.843,RL,2022.2.4,60.1631503145719,
1,52,0,52,0,,,,,,,,,,None,1106.1790554998443,1106.1790554998443,1106.1790554998443,1106.1790554998443,1106.1790554998443,1106.1790554998443,r,0.2733454001136124,1106.4803571999073,1106.4803571999073,1106.4803571999073,1106.4803571999073,1106.4803571999073,1106.4803571999073,1106.7780490000732,1106.7780490000732,1107.6753624998964,1107.6753624998964,1107.6753624998964,1107.6753624998964,1107.6753624998964,1107.6753624998964,1107.6753624998964,1107.6753624998964,1107.6753624998964,1107.6753624998964,1107.6753624998964,1107.6753624998964,1107.6753624998964,1107.6753624998964,1107.6753624998964,1107.6753624998964,1107.6753624998964,1110.1843111999333,1110.1843111999333,1110.1843111999333,1110.1843111999333,1110.1843111999333,63,63,57,53,63,51,5.0,1.27928869985044,1111.4810386002064,1113.0768214999698,,,,,,,,,136,f,1,2022-12-12_17h37.59.843,RL,2022.2.4,60.1631503145719,
1,53,0,53,0,,,,,,,,,,None,1113.0768214999698,1113.0768214999698,1113.0768214999698,1113.0768214999698,1113.0768214999698,1113.0768214999698,f,0.5919214999303222,1113.692474000156,1113.692474000156,1113.692474000156,1113.692474000156,1113.692474000156,1113.692474000156,1113.9914408000186,1113.9914408000186,1115.3043169002049,1115.3043169002049,1115.3043169002049,1115.3043169002049,1115.3043169002049,1115.3043169002049,1115.3043169002049,1115.3043169002049,1115.3043169002049,1115.3043169002049,1115.3043169002049,1115.3043169002049,1115.3043169002049,1115.3043169002049,1115.3043169002049,1115.3043169002049,1115.3043169002049,1117.8134492002428,1117.8134492002428,1117.8134492002428,1117.8134492002428,1117.8134492002428,66,67,67,60,67,58,4.0,1.6282560997642577,1119.4588552000932,1121.371210000012,,,,,,,,,136,f,1,2022-12-12_17h37.59.843,RL,2022.2.4,60.1631503145719,
1,54,0,54,0,,,,,,,,,,None,1121.371210000012,1121.371210000012,1121.371210000012,1121.371210000012,1121.371210000012,1121.371210000012,j,0.33606010023504496,1121.7382871001028,1121.7382871001028,1121.7382871001028,1121.7382871001028,1121.7382871001028,1121.7382871001028,1122.0363400001079,1122.0363400001079,1123.0000356999226,1123.0000356999226,1123.0000356999226,1123.0000356999226,1123.0000356999226,1123.0000356999226,1123.0000356999226,1123.0000356999226,1123.0000356999226,1123.0000356999226,1123.0000356999226,1123.0000356999226,1123.0000356999226,1123.0000356999226,1123.0000356999226,1123.0000356999226,1123.0000356999226,1125.509182000067,1125.509182000067,1125.509182000067,1125.509182000067,1125.509182000067,72,66,63,59,59,36,6.0,1.3459902997128665,1126.872123000212,1128.7842597998679,,,,,,,,,136,f,1,2022-12-12_17h37.59.843,RL,2022.2.4,60.1631503145719,
1,55,0,55,0,,,,,,,,,,None,1128.7842597998679,1128.7842597998679,1128.7842597998679,1128.7842597998679,1128.7842597998679,1128.7842597998679,j,0.7372972997836769,1129.5514207002707,1129.5514207002707,1129.5514207002707,1129.5514207002707,1129.5514207002707,1129.5514207002707,1129.848331999965,1129.848331999965,1130.9450154001825,1130.9450154001825,1130.9450154001825,1130.9450154001825,1130.9450154001825,1130.9450154001825,1130.9450154001825,1130.9450154001825,1130.9450154001825,1130.9450154001825,1130.9450154001825,1130.9450154001825,1130.9450154001825,1130.9450154001825,1130.9450154001825,1130.9450154001825,1130.9450154001825,1133.454244399909,1133.454244399909,1133.454244399909,1133.454244399909,1133.454244399909,73,59,57,62,62,58,7.0,1.679161500185728,1135.1497315000743,1136.9122446998954,,,,,,,,,136,f,1,2022-12-12_17h37.59.843,RL,2022.2.4,60.1631503145719,
1,56,0,56,0,,,,,,,,,,None,1136.9122446998954,1136.9122446998954,1136.9122446998954,1136.9122446998954,1136.9122446998954,1136.9122446998954,i,0.5088673997670412,1137.4457435999066,1137.4457435999066,1137.4457435999066,1137.4457435999066,1137.4457435999066,1137.4457435999066,1137.74373249989,1137.74373249989,1138.7906839000061,1138.7906839000061,1138.7906839000061,1138.7906839000061,1138.7906839000061,1138.7906839000061,1138.7906839000061,1138.7906839000061,1138.7906839000061,1138.7906839000061,1138.7906839000061,1138.7906839000061,1138.7906839000061,1138.7906839000061,1138.7906839000061,1138.7906839000061,1138.7906839000061,1141.2996924002655,1141.2996924002655,1141.2996924002655,1141.2996924002655,1141.2996924002655,70,68,56,69,56,68,4.0,1.84537349967286,1143.1611780002713,1144.8572379001416,,,,,,,,,136,f,1,2022-12-12_17h37.59.843,RL,2022.2.4,60.1631503145719,
1,57,0,57,0,,,,,,,,,,None,1144.8572379001416,1144.8572379001416,1144.8572379001416,1144.8572379001416,1144.8572379001416,1144.8572379001416,i,0.26423059962689877,1145.140235400293,1145.140235400293,1145.140235400293,1145.140235400293,1145.140235400293,1145.140235400293,1145.4390708999708,1145.4390708999708,1146.7519590002485,1146.7519590002485,1146.7519590002485,1146.7519590002485,1146.7519590002485,1146.7519590002485,1146.7519590002485,1146.7519590002485,1146.7519590002485,1146.7519590002485,1146.7519590002485,1146.7519590002485,1146.7519590002485,1146.7519590002485,1146.7519590002485,1146.7519590002485,1146.7519590002485,1149.2610708000138,1149.2610708000138,1149.2610708000138,1149.2610708000138,1149.2610708000138,68,69,67,53,67,61,5.0,1.2617541998624802,1150.5411578002386,1152.2865613000467,,,,,,,,,136,f,1,2022-12-12_17h37.59.843,RL,2022.2.4,60.1631503145719,
1,58,0,58,0,,,,,,,,,,None,1152.2865613000467,1152.2865613000467,1152.2865613000467,1152.2865613000467,1152.2865613000467,1152.2865613000467,r,0.3003683998249471,1152.6197365000844,1152.6197365000844,1152.6197365000844,1152.6197365000844,1152.6197365000844,1152.6197365000844,1152.9190719001926,1152.9190719001926,1154.5310507002287,1154.5310507002287,1154.5476039000787,1154.5476039000787,1154.5476039000787,1154.5476039000787,1154.5476039000787,1154.5476039000787,1154.5476039000787,1154.5476039000787,1154.5476039000787,1154.5476039000787,1154.5476039000787,1154.5476039000787,1154.5476039000787,1154.5476039000787,1154.5476039000787,1157.0567653998733,1157.0567653998733,1157.0567653998733,1157.0567653998733,1157.0567653998733,76,72,67,64,76,9,7.0,2.177001199685037,1159.2507267002948,1160.913116300013,,,,,,,,,136,f,1,2022-12-12_17h37.59.843,RL,2022.2.4,60.1631503145719,
1,59,0,59,0,,,,,,,,,,None,1160.913116300013,1160.913116300013,1160.913116300013,1160.913116300013,1160.913116300013,1160.913116300013,f,0.7656405000016093,1161.7119053001516,1161.7119053001516,1161.7119053001516,1161.7119053001516,1161.7119053001516,1161.7119053001516,1162.0105643002316,1162.0105643002316,1163.6059306999668,1163.6059306999668,1163.6059306999668,1163.6059306999668,1163.6059306999668,1163.6059306999668,1163.6059306999668,1163.6059306999668,1163.6059306999668,1163.6059306999668,1163.6059306999668,1163.6059306999668,1163.6059306999668,1163.6059306999668,1163.6059306999668,1163.6059306999668,1163.6059306999668,1166.1153661999851,1166.1153661999851,1166.1153661999851,1166.1153661999851,1166.1153661999851,75,68,58,60,68,65,4.0,1.5777817000634968,1167.7108868998475,1169.639194200281,,,,,,,,,136,f,1,2022-12-12_17h37.59.843,RL,2022.2.4,60.1631503145719,
1,60,0,60,0,,,,,,,,,,None,1169.639194200281,1169.639194200281,1169.639194200281,1169.639194200281,1169.639194200281,1169.639194200281,r,0.8027820000424981,1170.4721468002535,1170.4721468002535,1170.4721468002535,1170.4721468002535,1170.4721468002535,1170.4721468002535,1170.7697282000445,1170.7697282000445,1171.983639600221,1171.983639600221,1171.983639600221,1171.983639600221,1171.983639600221,1171.983639600221,1171.983639600221,1171.983639600221,1171.983639600221,1171.983639600221,1171.983639600221,1171.983639600221,1171.983639600221,1171.983639600221,1171.983639600221,1171.983639600221,1171.983639600221,1174.4922982999124,1174.4922982999124,1174.4922982999124,1174.4922982999124,1174.4922982999124,62,71,63,65,62,37,6.0,1.3118874998763204,1175.8222949998453,1177.4848473998718,,,,,,,,,136,f,1,2022-12-12_17h37.59.843,RL,2022.2.4,60.1631503145719,
1,61,0,61,0,,,,,,,,,,None,1177.4848473998718,1177.4848473998718,1177.4848473998718,1177.4848473998718,1177.4848473998718,1177.4848473998718,r,0.8925588997080922,1178.4004374002106,1178.4004374002106,1178.4004374002106,1178.4004374002106,1178.4004374002106,1178.4004374002106,1178.6984128998592,1178.6984128998592,1179.7788056000136,1179.7788056000136,1179.7788056000136,1179.7788056000136,1179.7788056000136,1179.7788056000136,1179.7788056000136,1179.7788056000136,1179.7788056000136,1179.7788056000136,1179.7788056000136,1179.7788056000136,1179.7788056000136,1179.7788056000136,1179.7788056000136,1179.7788056000136,1179.7788056000136,1182.2879417999648,1182.2879417999648,1182.2879417999648,1182.2879417999648,1182.2879417999648,67,73,62,68,67,47,4.0,1.012889300007373,1183.3184489998966,1185.0140591003,,,,,,,,,136,f,1,2022-12-12_17h37.59.843,RL,2022.2.4,60.1631503145719,
1,62,0,62,0,,,,,,,,,,None,1185.0140591003,1185.0140591003,1185.0140591003,1185.0140591003,1185.0140591003,1185.0140591003,i,0.39377780025824904,1185.431984799914,1185.431984799914,1185.431984799914,1185.431984799914,1185.431984799914,1185.431984799914,1185.7294593001716,1185.7294593001716,1187.2249551001005,1187.2249551001005,1187.2249551001005,1187.2249551001005,1187.2249551001005,1187.2249551001005,1187.2249551001005,1187.2249551001005,1187.2249551001005,1187.2249551001005,1187.2249551001005,1187.2249551001005,1187.2249551001005,1187.2249551001005,1187.2249551001005,1187.2249551001005,1187.2249551001005,1189.734123100061,1189.734123100061,1189.734123100061,1189.734123100061,1189.734123100061,75,63,56,68,56,67,4.0,1.4950830996967852,1191.2466768999584,1193.0918805999681,,,,,,,,,136,f,1,2022-12-12_17h37.59.843,RL,2022.2.4,60.1631503145719,
1,63,0,63,0,,,,,,,,,,None,1193.0918805999681,1193.0918805999681,1193.0918805999681,1193.0918805999681,1193.0918805999681,1193.0918805999681,i,0.7050348999910057,1193.8251294000074,1193.8251294000074,1193.8251294000074,1193.8251294000074,1193.8251294000074,1193.8251294000074,1194.122899999842,1194.122899999842,1195.6854520998895,1195.6854520998895,1195.6854520998895,1195.6854520998895,1195.6854520998895,1195.6854520998895,1195.6854520998895,1195.6854520998895,1195.6854520998895,1195.6854520998895,1195.6854520998895,1195.6854520998895,1195.6854520998895,1195.6854520998895,1195.6854520998895,1195.6854520998895,1195.6854520998895,1198.194249900058,1198.194249900058,1198.194249900058,1198.194249900058,1198.194249900058,68,75,64,69,64,67,4.0,0.8141660997644067,1199.0253078001551,1200.8711528000422,,,,,,,,,136,f,1,2022-12-12_17h37.59.843,RL,2022.2.4,60.1631503145719,
1,64,0,64,0,,,,,,,,,,None,1200.8711528000422,1200.8711528000422,1200.8711528000422,1200.8711528000422,1200.8711528000422,1200.8711528000422,i,1.3100906000472605,1202.201028900221,1202.201028900221,1202.201028900221,1202.201028900221,1202.201028900221,1202.201028900221,1202.5000362000428,1202.5000362000428,1204.0127526000142,1204.0127526000142,1204.0127526000142,1204.0127526000142,1204.0127526000142,1204.0127526000142,1204.0127526000142,1204.0127526000142,1204.0127526000142,1204.0127526000142,1204.0127526000142,1204.0127526000142,1204.0127526000142,1204.0127526000142,1204.0127526000142,1204.0127526000142,1204.0127526000142,1206.5216347002424,1206.5216347002424,1206.5216347002424,1206.5216347002424,1206.5216347002424,65,73,56,66,56,58,4.0,0.7467895001173019,1207.2862650002353,1208.9321063002571,,,,,,,,,136,f,1,2022-12-12_17h37.59.843,RL,2022.2.4,60.1631503145719,
1,65,0,65,0,,,,,,,,,,None,1208.9321063002571,1208.9321063002571,1208.9321063002571,1208.9321063002571,1208.9321063002571,1208.9321063002571,i,0.6945110000669956,1209.6484982999973,1209.6484982999973,1209.6484982999973,1209.6484982999973,1209.6484982999973,1209.6484982999973,1209.94663090026,1209.94663090026,1211.1596206002869,1211.1596206002869,1211.1596206002869,1211.1596206002869,1211.1596206002869,1211.1596206002869,1211.1596206002869,1211.1596206002869,1211.1596206002869,1211.1596206002869,1211.1596206002869,1211.1596206002869,1211.1596206002869,1211.1596206002869,1211.1596206002869,1211.1596206002869,1211.1596206002869,1213.668593000155,1213.668593000155,1213.668593000155,1213.668593000155,1213.668593000155,62,74,51,67,51,71,4.0,1.379456500057131,1215.064822500106,1216.710925400257,,,,,,,,,136,f,1,2022-12-12_17h37.59.843,RL,2022.2.4,60.1631503145719,
1,66,0,66,0,,,,,,,,,,None,1216.710925400257,1216.710925400257,1216.710925400257,1216.710925400257,1216.710925400257,1216.710925400257,i,0.7199061000719666,1217.4624863001518,1217.4624863001518,1217.4624863001518,1217.4624863001518,1217.4624863001518,1217.4624863001518,1217.7584139001556,1217.7584139001556,1218.8884402001277,1218.8884402001277,1218.8884402001277,1218.8884402001277,1218.8884402001277,1218.8884402001277,1218.8884402001277,1218.8884402001277,1218.8884402001277,1218.8884402001277,1218.8884402001277,1218.8884402001277,1218.8884402001277,1218.8884402001277,1218.8884402001277,1218.8884402001277,1218.8884402001277,1221.3974394998513,1221.3974394998513,1221.3974394998513,1221.3974394998513,1221.3974394998513,63,71,53,61,53,59,4.0,1.3289907998405397,1222.743904999923,1224.3234907002188,,,,,,,,,136,f,1,2022-12-12_17h37.59.843,RL,2022.2.4,60.1631503145719,
1,67,0,67,0,,,,,,,,,,None,1224.3234907002188,1224.3234907002188,1224.3234907002188,1224.3234907002188,1224.3234907002188,1224.3234907002188,i,0.4477856997400522,1224.7915535001084,1224.7915535001084,1224.7915535001084,1224.7915535001084,1224.7915535001084,1224.7915535001084,1225.0887883999385,1225.0887883999385,1226.8168659000657,1226.8168659000657,1226.8168659000657,1226.8168659000657,1226.8168659000657,1226.8168659000657,1226.8168659000657,1226.8168659000657,1226.8168659000657,1226.8168659000657,1226.8168659000657,1226.8168659000657,1226.8168659000657,1226.8168659000657,1226.8168659000657,1226.8168659000657,1226.8168659000657,1229.3263298999518,1229.3263298999518,1229.3263298999518,1229.3263298999518,1229.3263298999518,55,65,54,67,54,64,3.0,1.179645700380206,1230.5225833002478,1232.3350573000498,,,,,,,,,136,f,1,2022-12-12_17h37.59.843,RL,2022.2.4,60.1631503145719,
1,68,0,68,0,,,,,,,,,,None,1232.3350573000498,1232.3350573000498,1232.3350573000498,1232.3350573000498,1232.3350573000498,1232.3350573000498,i,0.40535870008170605,1232.7699430999346,1232.7699430999346,1232.7699430999346,1232.7699430999346,1232.7699430999346,1232.7699430999346,1233.0669149998575,1233.0669149998575,1234.3465665001422,1234.3465665001422,1234.3465665001422,1234.3465665001422,1234.3465665001422,1234.3465665001422,1234.3465665001422,1234.3465665001422,1234.3465665001422,1234.3465665001422,1234.3465665001422,1234.3465665001422,1234.3465665001422,1234.3465665001422,1234.3465665001422,1234.3465665001422,1234.3465665001422,1236.8558451002464,1236.8558451002464,1236.8558451002464,1236.8558451002464,1236.8558451002464,53,68,59,58,59,65,3.0,2.143548300024122,1239.0164359002374,1240.8952136998996,,,,,,,,,136,f,1,2022-12-12_17h37.59.843,RL,2022.2.4,60.1631503145719,
1,69,0,69,0,,,,,,,,,,None,1240.8952136998996,1240.8952136998996,1240.8952136998996,1240.8952136998996,1240.8952136998996,1240.8952136998996,i,0.668491399846971,1241.5952253001742,1241.5952253001742,1241.5952253001742,1241.5952253001742,1241.5952253001742,1241.5952253001742,1241.8927571000531,1241.8927571000531,1242.9393245000392,1242.9393245000392,1242.956489500124,1242.956489500124,1242.956489500124,1242.956489500124,1242.956489500124,1242.956489500124,1242.956489500124,1242.956489500124,1242.956489500124,1242.956489500124,1242.956489500124,1242.956489500124,1242.956489500124,1242.956489500124,1242.956489500124,1245.4655394000001,1245.4655394000001,1245.4655394000001,1245.4655394000001,1245.4655394000001,65,75,52,54,52,65,3.0,2.0271332999691367,1247.5100086000748,1249.4052666001953,,,,,,,,,136,f,1,2022-12-12_17h37.59.843,RL,2022.2.4,60.1631503145719,
1,70,0,70,0,,,,,,,,,,None,1249.4052666001953,1249.4052666001953,1249.4052666001953,1249.4052666001953,1249.4052666001953,1249.4052666001953,i,0.7923721000552177,1250.2240547002293,1250.2240547002293,1250.2240547002293,1250.2240547002293,1250.2240547002293,1250.2240547002293,1250.5188968000002,1250.5188968000002,1251.3831692002714,1251.3831692002714,1251.3831692002714,1251.3831692002714,1251.3831692002714,1251.3831692002714,1251.3831692002714,1251.3831692002714,1251.3831692002714,1251.3831692002714,1251.3831692002714,1251.3831692002714,1251.3831692002714,1251.3831692002714,1251.3831692002714,1251.3831692002714,1251.3831692002714,1253.8923654002137,1253.8923654002137,1253.8923654002137,1253.8923654002137,1253.8923654002137,63,67,51,56,51,56,2.0,1.1957633001729846,1255.1054433998652,1256.8016055999324,,,,,,,,,136,f,1,2022-12-12_17h37.59.843,RL,2022.2.4,60.1631503145719,
1,71,0,71,0,,,,,,,,,,None,1256.8016055999324,1256.8016055999324,1256.8016055999324,1256.8016055999324,1256.8016055999324,1256.8016055999324,i,0.37181909987702966,1257.2010655999184,1257.2010655999184,1257.2010655999184,1257.2010655999184,1257.2010655999184,1257.2010655999184,1257.4998830002733,1257.4998830002733,1258.846592800226,1258.846592800226,1258.846592800226,1258.846592800226,1258.846592800226,1258.846592800226,1258.846592800226,1258.846592800226,1258.846592800226,1258.846592800226,1258.846592800226,1258.846592800226,1258.846592800226,1258.846592800226,1258.846592800226,1258.846592800226,1258.846592800226,1261.3554711001925,1261.3554711001925,1261.3554711001925,1261.3554711001925,1261.3554711001925,66,61,52,56,52,46,5.0,1.744993300177157,1263.1171030001715,1264.8965671998449,,,,,,,,,136,f,1,2022-12-12_17h37.59.843,RL,2022.2.4,60.1631503145719,
1,72,0,72,0,,,,,,,,,,None,1264.8965671998449,1264.8965671998449,1264.8965671998449,1264.8965671998449,1264.8965671998449,1264.8965671998449,i,0.4111216999590397,1265.3304322999902,1265.3304322999902,1265.3304322999902,1265.3304322999902,1265.3304322999902,1265.3304322999902,1265.6279104999267,1265.6279104999267,1266.541885800194,1266.541885800194,1266.541885800194,1266.541885800194,1266.541885800194,1266.541885800194,1266.541885800194,1266.541885800194,1266.541885800194,1266.541885800194,1266.541885800194,1266.541885800194,1266.541885800194,1266.541885800194,1266.541885800194,1266.541885800194,1266.541885800194,1269.051078400109,1269.051078400109,1269.051078400109,1269.051078400109,1269.051078400109,63,66,40,59,40,60,3.0,2.0110879000276327,1271.0785139999352,1272.791579999961,,,,,,,,,136,f,1,2022-12-12_17h37.59.843,RL,2022.2.4,60.1631503145719,
1,73,0,73,0,,,,,,,,,,None,1272.791579999961,1272.791579999961,1272.791579999961,1272.791579999961,1272.791579999961,1272.791579999961,i,0.31593429995700717,1273.1423782999627,1273.1423782999627,1273.1423782999627,1273.1423782999627,1273.1423782999627,1273.1423782999627,1273.439775200095,1273.439775200095,1274.852933099959,1274.852933099959,1274.852933099959,1274.852933099959,1274.852933099959,1274.852933099959,1274.852933099959,1274.852933099959,1274.852933099959,1274.852933099959,1274.852933099959,1274.852933099959,1274.852933099959,1274.852933099959,1274.852933099959,1274.852933099959,1274.852933099959,1277.3615890000947,1277.3615890000947,1277.3615890000947,1277.3615890000947,1277.3615890000947,75,61,52,53,52,59,3.0,1.112722100224346,1278.4920132001862,1280.4704007999972,,,,,,,,,136,f,1,2022-12-12_17h37.59.843,RL,2022.2.4,60.1631503145719,
1,74,0,74,0,,,,,,,,,,None,1280.4704007999972,1280.4704007999972,1280.4704007999972,1280.4704007999972,1280.4704007999972,1280.4704007999972,i,0.5222729998640716,1281.0213142000139,1281.0213142000139,1281.0213142000139,1281.0213142000139,1281.0213142000139,1281.0213142000139,1281.3188616000116,1281.3188616000116,1282.7478948999196,1282.7478948999196,1282.7478948999196,1282.7478948999196,1282.7478948999196,1282.7478948999196,1282.7478948999196,1282.7478948999196,1282.7478948999196,1282.7478948999196,1282.7478948999196,1282.7478948999196,1282.7478948999196,1282.7478948999196,1282.7478948999196,1282.7478948999196,1282.7478948999196,1285.256970600225,1285.256970600225,1285.256970600225,1285.256970600225,1285.256970600225,76,72,44,49,44,59,3.0,1.0464006001129746,1286.3204144001938,1288.2487319000065,,,,,,,,,136,f,1,2022-12-12_17h37.59.843,RL,2022.2.4,60.1631503145719,
1,75,0,75,0,,,,,,,,,,q,1329.1877064001746,1329.1877064001746,1329.1877064001746,1329.1877064001746,1329.1877064001746,1329.1877064001746,None,,,,,,,,,,,,,,,,,,,,,,,,,,,,,,,,73,65,38,46,0,**,None,None,1335.220313699916,1336.849824800156,1330.7066142000258,1335.220313699916,1288.2487319000065,1288.2487319000065,40.917030500248075,,,,136,f,1,2022-12-12_17h37.59.843,RL,2022.2.4,60.1631503145719,
1,76,0,76,0,,,,,,,,,,None,1336.849824800156,1336.849824800156,1336.849824800156,1336.849824800156,1336.849824800156,1336.849824800156,i,0.5362252001650631,1337.416619000025,1337.416619000025,1337.416619000025,1337.416619000025,1337.416619000025,1337.416619000025,1337.7143903002143,1337.7143903002143,1339.0773887000978,1339.0773887000978,1339.0773887000978,1339.0773887000978,1339.0773887000978,1339.0773887000978,1339.0773887000978,1339.0773887000978,1339.0773887000978,1339.0773887000978,1339.0773887000978,1339.0773887000978,1339.0773887000978,1339.0773887000978,1339.0773887000978,1339.0773887000978,1339.0773887000978,1341.5864575998858,1341.5864575998858,1341.5864575998858,1341.5864575998858,1341.5864575998858,82,69,46,53,46,56,4.0,0.8639249000698328,1342.467407300137,1344.1132996999659,,,,,,,,,136,f,1,2022-12-12_17h37.59.843,RL,2022.2.4,60.1631503145719,
1,77,0,77,0,,,,,,,,,,None,1344.1132996999659,1344.1132996999659,1344.1132996999659,1344.1132996999659,1344.1132996999659,1344.1132996999659,i,0.4128636997193098,1344.5479131001048,1344.5479131001048,1344.5479131001048,1344.5479131001048,1344.5479131001048,1344.5479131001048,1344.8450263002887,1344.8450263002887,1346.208176900167,1346.208176900167,1346.208176900167,1346.208176900167,1346.208176900167,1346.208176900167,1346.208176900167,1346.208176900167,1346.208176900167,1346.208176900167,1346.208176900167,1346.208176900167,1346.208176900167,1346.208176900167,1346.208176900167,1346.208176900167,1346.208176900167,1348.7171729998663,1348.7171729998663,1348.7171729998663,1348.7171729998663,1348.7171729998663,78,70,45,54,45,42,6.0,1.5617184997536242,1350.2961599999107,1352.241530300118,,,,,,,,,136,f,1,2022-12-12_17h37.59.843,RL,2022.2.4,60.1631503145719,
1,78,0,78,0,,,,,,,,,,None,1352.241530300118,1352.241530300118,1352.241530300118,1352.241530300118,1352.241530300118,1352.241530300118,f,0.4887572000734508,1352.7575942999683,1352.7575942999683,1352.7575942999683,1352.7575942999683,1352.7575942999683,1352.7575942999683,1353.0559559999965,1353.0559559999965,1354.169712500181,1354.169712500181,1354.169712500181,1354.169712500181,1354.169712500181,1354.169712500181,1354.169712500181,1354.169712500181,1354.169712500181,1354.169712500181,1354.169712500181,1354.169712500181,1354.169712500181,1354.169712500181,1354.169712500181,1354.169712500181,1354.169712500181,1356.6786572001874,1356.6786572001874,1356.6786572001874,1356.6786572001874,1356.6786572001874,75,79,50,60,79,61,6.0,1.4778777002356946,1358.174393299967,1360.1362668001093,,,,,,,,,136,f,1,2022-12-12_17h37.59.843,RL,2022.2.4,60.1631503145719,
1,79,0,79,0,,,,,,,,,,None,1360.1362668001093,1360.1362668001093,1360.1362668001093,1360.1362668001093,1360.1362668001093,1360.1362668001093,f,0.8730089999735355,1361.0345335002057,1361.0345335002057,1361.0345335002057,1361.0345335002057,1361.0345335002057,1361.0345335002057,1361.3333348999731,1361.3333348999731,1362.9292419999838,1362.9292419999838,1362.9292419999838,1362.9292419999838,1362.9292419999838,1362.9292419999838,1362.9292419999838,1362.9292419999838,1362.9292419999838,1362.9292419999838,1362.9292419999838,1362.9292419999838,1362.9292419999838,1362.9292419999838,1362.9292419999838,1362.9292419999838,1362.9292419999838,1365.4384503001347,1365.4384503001347,1365.4384503001347,1365.4384503001347,1365.4384503001347,74,65,56,55,65,53,5.0,1.6951056001707911,1367.1500348001719,1369.0951479999349,,,,,,,,,136,f,1,2022-12-12_17h37.59.843,RL,2022.2.4,60.1631503145719,
1,80,0,80,0,,,,,,,,,,None,1369.0951479999349,1369.0951479999349,1369.0951479999349,1369.0951479999349,1369.0951479999349,1369.0951479999349,f,0.5182244000025094,1369.6444863001816,1369.6444863001816,1369.6444863001816,1369.6444863001816,1369.6444863001816,1369.6444863001816,1369.943327799905,1369.943327799905,1370.8238162999041,1370.8238162999041,1370.8406376000494,1370.8406376000494,1370.8406376000494,1370.8406376000494,1370.8406376000494,1370.8406376000494,1370.8406376000494,1370.8406376000494,1370.8406376000494,1370.8406376000494,1370.8406376000494,1370.8406376000494,1370.8406376000494,1370.8406376000494,1370.8406376000494,1373.3501116000116,1373.3501116000116,1373.3501116000116,1373.3501116000116,1373.3501116000116,76,68,49,53,68,52,5.0,1.795725299976766,1375.1612066999078,1376.6910731000826,,,,,,,,,136,f,1,2022-12-12_17h37.59.843,RL,2022.2.4,60.1631503145719,
1,81,0,81,0,,,,,,,,,,None,1376.6910731000826,1376.6910731000826,1376.6910731000826,1376.6910731000826,1376.6910731000826,1376.6910731000826,i,0.6332156998105347,1377.357579200063,1377.357579200063,1377.357579200063,1377.357579200063,1377.357579200063,1377.357579200063,1377.6556341000833,1377.6556341000833,1379.0017555998638,1379.0017555998638,1379.0017555998638,1379.0017555998638,1379.0017555998638,1379.0017555998638,1379.0017555998638,1379.0017555998638,1379.0017555998638,1379.0017555998638,1379.0017555998638,1379.0017555998638,1379.0017555998638,1379.0017555998638,1379.0017555998638,1379.0017555998638,1379.0017555998638,1381.5109271998517,1381.5109271998517,1381.5109271998517,1381.5109271998517,1381.5109271998517,78,55,46,63,46,58,2.0,2.0266281999647617,1383.5551117998548,1385.533488099929,,,,,,,,,136,f,1,2022-12-12_17h37.59.843,RL,2022.2.4,60.1631503145719,
1,82,0,82,0,,,,,,,,,,None,1385.533488099929,1385.533488099929,1385.533488099929,1385.533488099929,1385.533488099929,1385.533488099929,i,0.30330529995262623,1385.8665825999342,1385.8665825999342,1385.8665825999342,1385.8665825999342,1385.8665825999342,1385.8665825999342,1386.1659683999605,1386.1659683999605,1388.076804699842,1388.076804699842,1388.076804699842,1388.076804699842,1388.076804699842,1388.076804699842,1388.076804699842,1388.076804699842,1388.076804699842,1388.076804699842,1388.076804699842,1388.076804699842,1388.076804699842,1388.076804699842,1388.076804699842,1388.076804699842,1388.076804699842,1390.586064999923,1390.586064999923,1390.586064999923,1390.586064999923,1390.586064999923,75,68,47,47,47,54,2.0,1.927952699828893,1392.5311257001013,1394.293031600304,,,,,,,,,136,f,1,2022-12-12_17h37.59.843,RL,2022.2.4,60.1631503145719,
1,83,0,83,0,,,,,,,,,,None,1394.293031600304,1394.293031600304,1394.293031600304,1394.293031600304,1394.293031600304,1394.293031600304,f,0.572706799954176,1394.8950968999416,1394.8950968999416,1394.8950968999416,1394.8950968999416,1394.8950968999416,1394.8950968999416,1395.191273999866,1395.191273999866,1396.8696149000898,1396.8696149000898,1396.8696149000898,1396.8696149000898,1396.8696149000898,1396.8696149000898,1396.8696149000898,1396.8696149000898,1396.8696149000898,1396.8696149000898,1396.8696149000898,1396.8696149000898,1396.8696149000898,1396.8696149000898,1396.8696149000898,1396.8696149000898,1396.8696149000898,1399.378869399894,1399.378869399894,1399.378869399894,1399.378869399894,1399.378869399894,68,56,40,45,56,64,4.0,1.012971100397408,1400.4091185000725,1402.3879386000335,,,,,,,,,136,f,1,2022-12-12_17h37.59.843,RL,2022.2.4,60.1631503145719,
1,84,0,84,0,,,,,,,,,,None,1402.3879386000335,1402.3879386000335,1402.3879386000335,1402.3879386000335,1402.3879386000335,1402.3879386000335,i,1.316021400038153,1403.7369460999034,1403.7369460999034,1403.7369460999034,1403.7369460999034,1403.7369460999034,1403.7369460999034,1404.0333942002617,1404.0333942002617,1405.379685900174,1405.379685900174,1405.379685900174,1405.379685900174,1405.379685900174,1405.379685900174,1405.379685900174,1405.379685900174,1405.379685900174,1405.379685900174,1405.379685900174,1405.379685900174,1405.379685900174,1405.379685900174,1405.379685900174,1405.379685900174,1405.379685900174,1407.8886891002767,1407.8886891002767,1407.8886891002767,1407.8886891002767,1407.8886891002767,71,55,46,37,46,56,2.0,1.1629706998355687,1409.0688638002612,1410.8479484999552,,,,,,,,,136,f,1,2022-12-12_17h37.59.843,RL,2022.2.4,60.1631503145719,
1,85,0,85,0,,,,,,,,,,None,1410.8479484999552,1410.8479484999552,1410.8479484999552,1410.8479484999552,1410.8479484999552,1410.8479484999552,i,0.6916859997436404,1411.5645121000707,1411.5645121000707,1411.5645121000707,1411.5645121000707,1411.5645121000707,1411.5645121000707,1411.8621380999684,1411.8621380999684,1413.5907002999447,1413.5907002999447,1413.5907002999447,1413.5907002999447,1413.5907002999447,1413.5907002999447,1413.5907002999447,1413.5907002999447,1413.5907002999447,1413.5907002999447,1413.5907002999447,1413.5907002999447,1413.5907002999447,1413.5907002999447,1413.5907002999447,1413.5907002999447,1413.5907002999447,1416.0997565998696,1416.0997565998696,1416.0997565998696,1416.0997565998696,1416.0997565998696,70,60,51,50,51,53,2.0,0.6642606998793781,1416.7811171002686,1418.6433401000686,,,,,,,,,136,f,1,2022-12-12_17h37.59.843,RL,2022.2.4,60.1631503145719,
1,86,0,86,0,,,,,,,,,,None,1418.6433401000686,1418.6433401000686,1418.6433401000686,1418.6433401000686,1418.6433401000686,1418.6433401000686,i,0.5666722003370523,1419.2431156001985,1419.2431156001985,1419.2431156001985,1419.2431156001985,1419.2431156001985,1419.2431156001985,1419.541183500085,1419.541183500085,1421.369298200123,1421.369298200123,1421.369298200123,1421.369298200123,1421.369298200123,1421.369298200123,1421.369298200123,1421.369298200123,1421.369298200123,1421.369298200123,1421.369298200123,1421.369298200123,1421.369298200123,1421.369298200123,1421.369298200123,1421.369298200123,1421.369298200123,1423.8784894999117,1423.8784894999117,1423.8784894999117,1423.8784894999117,1423.8784894999117,74,61,54,47,54,50,7.0,0.8473069998435676,1424.7427904000506,1426.5882927002385,,,,,,,,,136,f,1,2022-12-12_17h37.59.843,RL,2022.2.4,60.1631503145719,
1,87,0,87,0,,,,,,,,,,None,1426.5882927002385,1426.5882927002385,1426.5882927002385,1426.5882927002385,1426.5882927002385,1426.5882927002385,f,0.8606262002140284,1427.4709622999653,1427.4709622999653,1427.4709622999653,1427.4709622999653,1427.4709622999653,1427.4709622999653,1427.7691211998463,1427.7691211998463,1429.0489806002006,1429.0489806002006,1429.0489806002006,1429.0489806002006,1429.0489806002006,1429.0489806002006,1429.0489806002006,1429.0489806002006,1429.0489806002006,1429.0489806002006,1429.0489806002006,1429.0489806002006,1429.0489806002006,1429.0489806002006,1429.0489806002006,1429.0489806002006,1429.0489806002006,1431.5580577999353,1431.5580577999353,1431.5580577999353,1431.5580577999353,1431.5580577999353,76,63,49,42,63,48,4.0,1.1127153001725674,1432.6879451000132,1434.5001185000874,,,,,,,,,136,f,1,2022-12-12_17h37.59.843,RL,2022.2.4,60.1631503145719,
1,88,0,88,0,,,,,,,,,,None,1434.5001185000874,1434.5001185000874,1434.5001185000874,1434.5001185000874,1434.5001185000874,1434.5001185000874,r,0.30938570015132427,1434.833641299978,1434.833641299978,1434.833641299978,1434.833641299978,1434.833641299978,1434.833641299978,1435.1319798999466,1435.1319798999466,1436.627516000066,1436.627516000066,1436.627516000066,1436.627516000066,1436.627516000066,1436.627516000066,1436.627516000066,1436.627516000066,1436.627516000066,1436.627516000066,1436.627516000066,1436.627516000066,1436.627516000066,1436.627516000066,1436.627516000066,1436.627516000066,1436.627516000066,1439.1367426002398,1439.1367426002398,1439.1367426002398,1439.1367426002398,1439.1367426002398,72,58,47,52,72,63,5.0,1.6444870997220278,1440.7990127000958,1442.5114863002673,,,,,,,,,136,f,1,2022-12-12_17h37.59.843,RL,2022.2.4,60.1631503145719,
1,89,0,89,0,,,,,,,,,,None,1442.5114863002673,1442.5114863002673,1442.5114863002673,1442.5114863002673,1442.5114863002673,1442.5114863002673,r,0.5370017001405358,1443.077374599874,1443.077374599874,1443.077374599874,1443.077374599874,1443.077374599874,1443.077374599874,1443.3763267998584,1443.3763267998584,1445.1047585001215,1445.1047585001215,1445.1047585001215,1445.1047585001215,1445.1047585001215,1445.1047585001215,1445.1047585001215,1445.1047585001215,1445.1047585001215,1445.1047585001215,1445.1047585001215,1445.1047585001215,1445.1047585001215,1445.1047585001215,1445.1047585001215,1445.1047585001215,1445.1047585001215,1447.6142569002695,1447.6142569002695,1447.6142569002695,1447.6142569002695,1447.6142569002695,71,45,54,40,71,51,5.0,1.362347500398755,1448.9933613999747,1450.506797700189,,,,,,,,,136,f,1,2022-12-12_17h37.59.843,RL,2022.2.4,60.1631503145719,
1,90,0,90,0,,,,,,,,,,None,1450.506797700189,1450.506797700189,1450.506797700189,1450.506797700189,1450.506797700189,1450.506797700189,r,0.28136090002954006,1450.8061422999017,1450.8061422999017,1450.8061422999017,1450.8061422999017,1450.8061422999017,1450.8061422999017,1451.1049426002428,1451.1049426002428,1453.0666566998698,1453.0666566998698,1453.0666566998698,1453.0666566998698,1453.0666566998698,1453.0666566998698,1453.0666566998698,1453.0666566998698,1453.0666566998698,1453.0666566998698,1453.0666566998698,1453.0666566998698,1453.0666566998698,1453.0666566998698,1453.0666566998698,1453.0666566998698,1453.0666566998698,1455.5759499999695,1455.5759499999695,1455.5759499999695,1455.5759499999695,1455.5759499999695,66,44,50,49,66,67,5.0,0.879999399650842,1456.472848400008,1458.2517690998502,,,,,,,,,136,f,1,2022-12-12_17h37.59.843,RL,2022.2.4,60.1631503145719,
1,91,0,91,0,,,,,,,,,,None,1458.2517690998502,1458.2517690998502,1458.2517690998502,1458.2517690998502,1458.2517690998502,1458.2517690998502,r,0.23610709980130196,1458.5200783000328,1458.5200783000328,1458.5200783000328,1458.5200783000328,1458.5200783000328,1458.5200783000328,1458.8177228001878,1458.8177228001878,1460.3964845002629,1460.3964845002629,1460.413077000063,1460.413077000063,1460.413077000063,1460.413077000063,1460.413077000063,1460.413077000063,1460.413077000063,1460.413077000063,1460.413077000063,1460.413077000063,1460.413077000063,1460.413077000063,1460.413077000063,1460.413077000063,1460.413077000063,1462.922268500086,1462.922268500086,1462.922268500086,1462.922268500086,1462.922268500086,65,50,55,46,65,67,5.0,0.7633429002016783,1463.7031832002103,1465.4326082998887,,,,,,,,,136,f,1,2022-12-12_17h37.59.843,RL,2022.2.4,60.1631503145719,
1,92,0,92,0,,,,,,,,,,None,1465.4326082998887,1465.4326082998887,1465.4326082998887,1465.4326082998887,1465.4326082998887,1465.4326082998887,r,0.3458634000271559,1465.7998703001067,1465.7998703001067,1465.7998703001067,1465.7998703001067,1465.7998703001067,1465.7998703001067,1466.0976386000402,1466.0976386000402,1467.6098817000166,1467.6098817000166,1467.6098817000166,1467.6098817000166,1467.6098817000166,1467.6098817000166,1467.6098817000166,1467.6098817000166,1467.6098817000166,1467.6098817000166,1467.6098817000166,1467.6098817000166,1467.6098817000166,1467.6098817000166,1467.6098817000166,1467.6098817000166,1467.6098817000166,1470.119239100255,1470.119239100255,1470.119239100255,1470.119239100255,1470.119239100255,80,43,52,50,80,70,5.0,1.3287184997461736,1471.4655233002268,1473.3776282998733,,,,,,,,,136,f,1,2022-12-12_17h37.59.843,RL,2022.2.4,60.1631503145719,
1,93,0,93,0,,,,,,,,,,None,1473.3776282998733,1473.3776282998733,1473.3776282998733,1473.3776282998733,1473.3776282998733,1473.3776282998733,i,0.9793505999259651,1474.3775503998622,1474.3775503998622,1474.3775503998622,1474.3775503998622,1474.3775503998622,1474.3775503998622,1474.6740557001904,1474.6740557001904,1476.0370479002595,1476.0370479002595,1476.053644100204,1476.053644100204,1476.053644100204,1476.053644100204,1476.053644100204,1476.053644100204,1476.053644100204,1476.053644100204,1476.053644100204,1476.053644100204,1476.053644100204,1476.053644100204,1476.053644100204,1476.053644100204,1476.053644100204,1478.5627469001338,1478.5627469001338,1478.5627469001338,1478.5627469001338,1478.5627469001338,78,40,53,46,53,58,2.0,1.2789781000465155,1479.8589758998714,1481.4055896000937,,,,,,,,,136,f,1,2022-12-12_17h37.59.843,RL,2022.2.4,60.1631503145719,
1,94,0,94,0,,,,,,,,,,None,1481.4055896000937,1481.4055896000937,1481.4055896000937,1481.4055896000937,1481.4055896000937,1481.4055896000937,i,0.5860938001424074,1482.0223921998404,1482.0223921998404,1482.0223921998404,1482.0223921998404,1482.0223921998404,1482.0223921998404,1482.3199888002127,1482.3199888002127,1484.1981385000981,1484.1981385000981,1484.1981385000981,1484.1981385000981,1484.1981385000981,1484.1981385000981,1484.1981385000981,1484.1981385000981,1484.1981385000981,1484.1981385000981,1484.1981385000981,1484.1981385000981,1484.1981385000981,1484.1981385000981,1484.1981385000981,1484.1981385000981,1484.1981385000981,1486.7071932000108,1486.7071932000108,1486.7071932000108,1486.7071932000108,1486.7071932000108,74,54,52,52,52,63,2.0,1.0955067002214491,1487.8209315002896,1489.5832039001398,,,,,,,,,136,f,1,2022-12-12_17h37.59.843,RL,2022.2.4,60.1631503145719,
1,95,0,95,0,,,,,,,,,,None,1489.5832039001398,1489.5832039001398,1489.5832039001398,1489.5832039001398,1489.5832039001398,1489.5832039001398,f,0.9925243998877704,1490.6008631000295,1490.6008631000295,1490.6008631000295,1490.6008631000295,1490.6008631000295,1490.6008631000295,1490.8969350000843,1490.8969350000843,1492.3927882001735,1492.3927882001735,1492.3927882001735,1492.3927882001735,1492.3927882001735,1492.3927882001735,1492.3927882001735,1492.3927882001735,1492.3927882001735,1492.3927882001735,1492.3927882001735,1492.3927882001735,1492.3927882001735,1492.3927882001735,1492.3927882001735,1492.3927882001735,1492.3927882001735,1494.901438999921,1494.901438999921,1494.901438999921,1494.901438999921,1494.901438999921,77,46,48,62,46,50,4.0,0.7970417002215981,1495.7157576000318,1497.6444530002773,,,,,,,,,136,f,1,2022-12-12_17h37.59.843,RL,2022.2.4,60.1631503145719,
1,96,0,96,0,,,,,,,,,,None,1497.6444530002773,1497.6444530002773,1497.6444530002773,1497.6444530002773,1497.6444530002773,1497.6444530002773,r,0.6999820997007191,1498.3764422000386,1498.3764422000386,1498.3764422000386,1498.3764422000386,1498.3764422000386,1498.3764422000386,1498.6751685002819,1498.6751685002819,1499.6896704002284,1499.6896704002284,1499.6896704002284,1499.6896704002284,1499.6896704002284,1499.6896704002284,1499.6896704002284,1499.6896704002284,1499.6896704002284,1499.6896704002284,1499.6896704002284,1499.6896704002284,1499.6896704002284,1499.6896704002284,1499.6896704002284,1499.6896704002284,1499.6896704002284,1502.1987796002068,1502.1987796002068,1502.1987796002068,1502.1987796002068,1502.1987796002068,76,36,46,48,76,51,4.0,0.6809065998531878,1502.8963689999655,1504.6420967001468,,,,,,,,,136,f,1,2022-12-12_17h37.59.843,RL,2022.2.4,60.1631503145719,
1,97,0,97,0,,,,,,,,,,None,1504.6420967001468,1504.6420967001468,1504.6420967001468,1504.6420967001468,1504.6420967001468,1504.6420967001468,r,0.5394151997752488,1505.2089756000787,1505.2089756000787,1505.2089756000787,1505.2089756000787,1505.2089756000787,1505.2089756000787,1505.506558699999,1505.506558699999,1507.2850746000186,1507.2850746000186,1507.2850746000186,1507.2850746000186,1507.2850746000186,1507.2850746000186,1507.2850746000186,1507.2850746000186,1507.2850746000186,1507.2850746000186,1507.2850746000186,1507.2850746000186,1507.2850746000186,1507.2850746000186,1507.2850746000186,1507.2850746000186,1507.2850746000186,1509.7944828001782,1509.7944828001782,1509.7944828001782,1509.7944828001782,1509.7944828001782,81,44,38,47,81,49,4.0,0.7140143001452088,1510.5257171001285,1512.1388257001527,,,,,,,,,136,f,1,2022-12-12_17h37.59.843,RL,2022.2.4,60.1631503145719,
1,98,0,98,0,,,,,,,,,,None,1512.1388257001527,1512.1388257001527,1512.1388257001527,1512.1388257001527,1512.1388257001527,1512.1388257001527,f,0.7386119998991489,1512.9083175999112,1512.9083175999112,1512.9083175999112,1512.9083175999112,1512.9083175999112,1512.9083175999112,1513.2023503999226,1513.2023503999226,1514.249411100056,1514.249411100056,1514.2660471000709,1514.2660471000709,1514.2660471000709,1514.2660471000709,1514.2660471000709,1514.2660471000709,1514.2660471000709,1514.2660471000709,1514.2660471000709,1514.2660471000709,1514.2660471000709,1514.2660471000709,1514.2660471000709,1514.2660471000709,1514.2660471000709,1516.7749478002079,1516.7749478002079,1516.7749478002079,1516.7749478002079,1516.7749478002079,85,40,37,57,40,56,5.0,1.9441976002417505,1518.7364361998625,1520.2992881000973,,,,,,,,,136,f,1,2022-12-12_17h37.59.843,RL,2022.2.4,60.1631503145719,
1,99,0,99,0,,,,,,,,,,None,1520.2992881000973,1520.2992881000973,1520.2992881000973,1520.2992881000973,1520.2992881000973,1520.2992881000973,f,0.5560854999348521,1520.8861187999137,1520.8861187999137,1520.8861187999137,1520.8861187999137,1520.8861187999137,1520.8861187999137,1521.1807941002771,1521.1807941002771,1523.091775599867,1523.091775599867,1523.1086439001374,1523.1086439001374,1523.1086439001374,1523.1086439001374,1523.1086439001374,1523.1086439001374,1523.1086439001374,1523.1086439001374,1523.1086439001374,1523.1086439001374,1523.1086439001374,1523.1086439001374,1523.1086439001374,1523.1086439001374,1523.1086439001374,1525.617658500094,1525.617658500094,1525.617658500094,1525.617658500094,1525.617658500094,82,50,32,53,50,58,5.0,0.8463495001196861,1526.4820469999686,1528.0950124999508,,,,,,,,,136,f,1,2022-12-12_17h37.59.843,RL,2022.2.4,60.1631503145719,
1,100,0,100,0,,,,,,,,,,None,1528.0950124999508,1528.0950124999508,1528.0950124999508,1528.0950124999508,1528.0950124999508,1528.0950124999508,f,0.4992782003246248,1528.6272633001208,1528.6272633001208,1528.6272633001208,1528.6272633001208,1528.6272633001208,1528.6272633001208,1528.9259569002315,1528.9259569002315,1529.8903625998646,1529.8903625998646,1529.8903625998646,1529.8903625998646,1529.8903625998646,1529.8903625998646,1529.8903625998646,1529.8903625998646,1529.8903625998646,1529.8903625998646,1529.8903625998646,1529.8903625998646,1529.8903625998646,1529.8903625998646,1529.8903625998646,1529.8903625998646,1529.8903625998646,1532.3995139999315,1532.3995139999315,1532.3995139999315,1532.3995139999315,1532.3995139999315,79,37,45,52,37,54,5.0,0.9306740998290479,1533.3463873001747,1534.8929363000207,,,,,,,,,136,f,1,2022-12-12_17h37.59.843,RL,2022.2.4,60.1631503145719,
1,101,0,101,0,,,,,,,,,,None,1534.8929363000207,1534.8929363000207,1534.8929363000207,1534.8929363000207,1534.8929363000207,1534.8929363000207,f,0.34164350014179945,1535.2612807000987,1535.2612807000987,1535.2612807000987,1535.2612807000987,1535.2612807000987,1535.2612807000987,1535.5581025001593,1535.5581025001593,1536.8210960999131,1536.8210960999131,1536.8210960999131,1536.8210960999131,1536.8210960999131,1536.8210960999131,1536.8210960999131,1536.8210960999131,1536.8210960999131,1536.8210960999131,1536.8210960999131,1536.8210960999131,1536.8210960999131,1536.8210960999131,1536.8210960999131,1536.8210960999131,1536.8210960999131,1539.330321200192,1539.330321200192,1539.330321200192,1539.330321200192,1539.330321200192,87,53,35,57,53,48,5.0,0.8468420002609491,1540.1944514000788,1542.1896051000804,,,,,,,,,136,f,1,2022-12-12_17h37.59.843,RL,2022.2.4,60.1631503145719,
1,102,0,102,0,,,,,,,,,,None,1542.1896051000804,1542.1896051000804,1542.1896051000804,1542.1896051000804,1542.1896051000804,1542.1896051000804,i,0.3606409002095461,1542.572364100255,1542.572364100255,1542.572364100255,1542.572364100255,1542.572364100255,1542.572364100255,1542.8713302002288,1542.8713302002288,1544.467457700055,1544.467457700055,1544.467457700055,1544.467457700055,1544.467457700055,1544.467457700055,1544.467457700055,1544.467457700055,1544.467457700055,1544.467457700055,1544.467457700055,1544.467457700055,1544.467457700055,1544.467457700055,1544.467457700055,1544.467457700055,1544.467457700055,1546.9762085000984,1546.9762085000984,1546.9762085000984,1546.9762085000984,1546.9762085000984,92,44,21,52,21,44,1.0,1.495250000152737,1548.4884705999866,1550.4674609000795,,,,,,,,,136,f,1,2022-12-12_17h37.59.843,RL,2022.2.4,60.1631503145719,
1,103,0,103,0,,,,,,,,,,None,1550.4674609000795,1550.4674609000795,1550.4674609000795,1550.4674609000795,1550.4674609000795,1550.4674609000795,i,0.3461976000107825,1550.8333919001743,1550.8333919001743,1550.8333919001743,1550.8333919001743,1550.8333919001743,1550.8333919001743,1551.13223499991,1551.13223499991,1552.9607676998712,1552.9607676998712,1552.9607676998712,1552.9607676998712,1552.9607676998712,1552.9607676998712,1552.9607676998712,1552.9607676998712,1552.9607676998712,1552.9607676998712,1552.9607676998712,1552.9607676998712,1552.9607676998712,1552.9607676998712,1552.9607676998712,1552.9607676998712,1552.9607676998712,1555.4699246999808,1555.4699246999808,1555.4699246999808,1555.4699246999808,1555.4699246999808,90,34,26,55,26,58,1.0,0.7639091000892222,1556.2510402998887,1557.9632851001807,,,,,,,,,136,f,1,2022-12-12_17h37.59.843,RL,2022.2.4,60.1631503145719,
1,104,0,104,0,,,,,,,,,,None,1557.9632851001807,1557.9632851001807,1557.9632851001807,1557.9632851001807,1557.9632851001807,1557.9632851001807,i,0.6560508003458381,1558.647219600156,1558.647219600156,1558.647219600156,1558.647219600156,1558.647219600156,1558.647219600156,1558.944135800004,1558.944135800004,1559.775473000016,1559.775473000016,1559.775473000016,1559.775473000016,1559.775473000016,1559.775473000016,1559.775473000016,1559.775473000016,1559.775473000016,1559.775473000016,1559.775473000016,1559.775473000016,1559.775473000016,1559.775473000016,1559.775473000016,1559.775473000016,1559.775473000016,1562.2846093000844,1562.2846093000844,1562.2846093000844,1562.2846093000844,1562.2846093000844,83,41,23,55,23,51,1.0,1.3616182999685407,1563.6638485998847,1565.343190100044,,,,,,,,,136,f,1,2022-12-12_17h37.59.843,RL,2022.2.4,60.1631503145719,
1,105,0,105,0,,,,,,,,,,None,1565.343190100044,1565.343190100044,1565.343190100044,1565.343190100044,1565.343190100044,1565.343190100044,j,0.5310832001268864,1565.8953561000526,1565.8953561000526,1565.8953561000526,1565.8953561000526,1565.8953561000526,1565.8953561000526,1566.1915959999897,1566.1915959999897,1567.6038827002048,1567.6038827002048,1567.6038827002048,1567.6038827002048,1567.6038827002048,1567.6038827002048,1567.6038827002048,1567.6038827002048,1567.6038827002048,1567.6038827002048,1567.6038827002048,1567.6038827002048,1567.6038827002048,1567.6038827002048,1567.6038827002048,1567.6038827002048,1567.6038827002048,1570.1129272999242,1570.1129272999242,1570.1129272999242,1570.1129272999242,1570.1129272999242,86,41,21,38,38,68,3.0,1.1612613997422159,1571.29271480022,1573.237961300183,,,,,,,,,136,f,1,2022-12-12_17h37.59.843,RL,2022.2.4,60.1631503145719,
1,106,0,106,0,,,,,,,,,,None,1573.237961300183,1573.237961300183,1573.237961300183,1573.237961300183,1573.237961300183,1573.237961300183,j,0.3346790000796318,1573.6091368999332,1573.6091368999332,1573.6091368999332,1573.6091368999332,1573.6091368999332,1573.6091368999332,1573.90311449999,1573.90311449999,1575.3162545002997,1575.3162545002997,1575.3330967999063,1575.3330967999063,1575.3330967999063,1575.3330967999063,1575.3330967999063,1575.3330967999063,1575.3330967999063,1575.3330967999063,1575.3330967999063,1575.3330967999063,1575.3330967999063,1575.3330967999063,1575.3330967999063,1575.3330967999063,1575.3330967999063,1577.8422574000433,1577.8422574000433,1577.8422574000433,1577.8422574000433,1577.8422574000433,86,44,20,45,45,49,3.0,0.8790735001675785,1578.7394743002951,1580.6186267999,,,,,,,,,136,f,1,2022-12-12_17h37.59.843,RL,2022.2.4,60.1631503145719,
1,107,0,107,0,,,,,,,,,,None,1580.6186267999,1580.6186267999,1580.6186267999,1580.6186267999,1580.6186267999,1580.6186267999,j,0.3908901996910572,1581.0371264000423,1581.0371264000423,1581.0371264000423,1581.0371264000423,1581.0371264000423,1581.0371264000423,1581.3330224002711,1581.3330224002711,1582.430388700217,1582.430388700217,1582.430388700217,1582.430388700217,1582.430388700217,1582.430388700217,1582.430388700217,1582.430388700217,1582.430388700217,1582.430388700217,1582.430388700217,1582.430388700217,1582.430388700217,1582.430388700217,1582.430388700217,1582.430388700217,1582.430388700217,1584.9391516000032,1584.9391516000032,1584.9391516000032,1584.9391516000032,1584.9391516000032,88,40,21,58,58,51,6.0,1.1294493000023067,1586.0859274999239,1588.0313777001575,,,,,,,,,136,f,1,2022-12-12_17h37.59.843,RL,2022.2.4,60.1631503145719,
1,108,0,108,0,,,,,,,,,,None,1588.0313777001575,1588.0313777001575,1588.0313777001575,1588.0313777001575,1588.0313777001575,1588.0313777001575,j,0.2727849995717406,1588.3310116999783,1588.3310116999783,1588.3310116999783,1588.3310116999783,1588.3310116999783,1588.3310116999783,1588.6298181000166,1588.6298181000166,1590.5248521999456,1590.5248521999456,1590.5248521999456,1590.5248521999456,1590.5248521999456,1590.5248521999456,1590.5248521999456,1590.5248521999456,1590.5248521999456,1590.5248521999456,1590.5248521999456,1590.5248521999456,1590.5248521999456,1590.5248521999456,1590.5248521999456,1590.5248521999456,1590.5248521999456,1593.0338775999844,1593.0338775999844,1593.0338775999844,1593.0338775999844,1593.0338775999844,77,47,19,59,59,56,5.0,0.8633539001457393,1593.9144609998912,1595.5440903999843,,,,,,,,,136,f,1,2022-12-12_17h37.59.843,RL,2022.2.4,60.1631503145719,
1,109,0,109,0,,,,,,,,,,None,1595.5440903999843,1595.5440903999843,1595.5440903999843,1595.5440903999843,1595.5440903999843,1595.5440903999843,i,0.21507300017401576,1595.7785592,1595.7785592,1595.7785592,1595.7785592,1595.7785592,1595.7785592,1596.0763240000233,1596.0763240000233,1596.9570893002674,1596.9570893002674,1596.9570893002674,1596.9570893002674,1596.9570893002674,1596.9570893002674,1596.9570893002674,1596.9570893002674,1596.9570893002674,1596.9570893002674,1596.9570893002674,1596.9570893002674,1596.9570893002674,1596.9570893002674,1596.9570893002674,1596.9570893002674,1596.9570893002674,1599.4662569998764,1599.4662569998764,1599.4662569998764,1599.4662569998764,1599.4662569998764,82,41,16,51,16,39,1.0,1.2958880998194218,1600.7793519999832,1602.6246913000941,,,,,,,,,136,f,1,2022-12-12_17h37.59.843,RL,2022.2.4,60.1631503145719,
1,110,0,110,0,,,,,,,,,,None,1602.6246913000941,1602.6246913000941,1602.6246913000941,1602.6246913000941,1602.6246913000941,1602.6246913000941,i,0.13968029990792274,1602.79365519993,1602.79365519993,1602.79365519993,1602.79365519993,1602.79365519993,1602.79365519993,1603.0906767998822,1603.0906767998822,1604.4700531000271,1604.4700531000271,1604.4700531000271,1604.4700531000271,1604.4700531000271,1604.4700531000271,1604.4700531000271,1604.4700531000271,1604.4700531000271,1604.4700531000271,1604.4700531000271,1604.4700531000271,1604.4700531000271,1604.4700531000271,1604.4700531000271,1604.4700531000271,1604.4700531000271,1606.9788224999793,1606.9788224999793,1606.9788224999793,1606.9788224999793,1606.9788224999793,87,43,12,51,12,45,1.0,0.7151084998622537,1607.710105900187,1609.2564989002421,,,,,,,,,136,f,1,2022-12-12_17h37.59.843,RL,2022.2.4,60.1631503145719,
1,111,0,111,0,,,,,,,,,,None,1609.2564989002421,1609.2564989002421,1609.2564989002421,1609.2564989002421,1609.2564989002421,1609.2564989002421,i,0.21898719994351268,1609.5111404000781,1609.5111404000781,1609.5111404000781,1609.5111404000781,1609.5111404000781,1609.5111404000781,1609.8052608999424,1609.8052608999424,1611.4513606000692,1611.4513606000692,1611.4513606000692,1611.4513606000692,1611.4513606000692,1611.4513606000692,1611.4513606000692,1611.4513606000692,1611.4513606000692,1611.4513606000692,1611.4513606000692,1611.4513606000692,1611.4513606000692,1611.4513606000692,1611.4513606000692,1611.4513606000692,1611.4513606000692,1613.9603253002279,1613.9603253002279,1613.9603253002279,1613.9603253002279,1613.9603253002279,76,38,21,50,21,37,1.0,0.7305791000835598,1614.7083882000297,1616.6200403999537,,,,,,,,,136,f,1,2022-12-12_17h37.59.843,RL,2022.2.4,60.1631503145719,
1,112,0,112,0,,,,,,,,,,None,1616.6200403999537,1616.6200403999537,1616.6200403999537,1616.6200403999537,1616.6200403999537,1616.6200403999537,f,0.34143440006300807,1616.988163200207,1616.988163200207,1616.988163200207,1616.988163200207,1616.988163200207,1616.988163200207,1617.2854213002138,1617.2854213002138,1618.4317804002203,1618.4317804002203,1618.4317804002203,1618.4317804002203,1618.4317804002203,1618.4317804002203,1618.4317804002203,1618.4317804002203,1618.4317804002203,1618.4317804002203,1618.4317804002203,1618.4317804002203,1618.4317804002203,1618.4317804002203,1618.4317804002203,1618.4317804002203,1618.4317804002203,1620.9410176998936,1620.9410176998936,1620.9410176998936,1620.9410176998936,1620.9410176998936,77,44,19,52,44,42,4.0,0.9963472997769713,1621.954504699912,1623.7673772000708,,,,,,,,,136,f,1,2022-12-12_17h37.59.843,RL,2022.2.4,60.1631503145719,
1,113,0,113,0,,,,,,,,,,None,1623.7673772000708,1623.7673772000708,1623.7673772000708,1623.7673772000708,1623.7673772000708,1623.7673772000708,r,0.43254299974069,1624.233109400142,1624.233109400142,1624.233109400142,1624.233109400142,1624.233109400142,1624.233109400142,1624.5319075002335,1624.5319075002335,1625.5290842000395,1625.5290842000395,1625.5290842000395,1625.5290842000395,1625.5290842000395,1625.5290842000395,1625.5290842000395,1625.5290842000395,1625.5290842000395,1625.5290842000395,1625.5290842000395,1625.5290842000395,1625.5290842000395,1625.5290842000395,1625.5290842000395,1625.5290842000395,1625.5290842000395,1628.0381844001822,1628.0381844001822,1628.0381844001822,1628.0381844001822,1628.0381844001822,78,40,16,47,78,43,5.0,1.2286724001169205,1629.2850804002956,1631.163596500177,,,,,,,,,136,f,1,2022-12-12_17h37.59.843,RL,2022.2.4,60.1631503145719,
1,114,0,114,0,,,,,,,,,,None,1631.163596500177,1631.163596500177,1631.163596500177,1631.163596500177,1631.163596500177,1631.163596500177,r,0.971542099956423,1632.1635898002423,1632.1635898002423,1632.1635898002423,1632.1635898002423,1632.1635898002423,1632.1635898002423,1632.460605900269,1632.460605900269,1634.2554851998575,1634.2554851998575,1634.2554851998575,1634.2554851998575,1634.2554851998575,1634.2554851998575,1634.2554851998575,1634.2554851998575,1634.2554851998575,1634.2554851998575,1634.2554851998575,1634.2554851998575,1634.2554851998575,1634.2554851998575,1634.2554851998575,1634.2554851998575,1634.2554851998575,1636.7644096002914,1636.7644096002914,1636.7644096002914,1636.7644096002914,1636.7644096002914,76,33,12,51,76,51,6.0,2.0100599001161754,1638.7922179000452,1640.7876232001,,,,,,,,,136,f,1,2022-12-12_17h37.59.843,RL,2022.2.4,60.1631503145719,
