bandit,trials.thisRepN,trials.thisTrialN,trials.thisN,trials.thisIndex,instru_img1.started,instru_img1.stopped,instru_resp.keys,instru_resp.rt,instru_resp.started,instru_resp.stopped,instru_img2.started,instru_img2.stopped,instru_resp2.keys,instru_resp2.rt,instru_resp2.started,instru_resp2.stopped,fixbefore_2.started,fixbefore_2.stopped,rest_image.started,rest_image.stopped,rest_response.keys,rest_response.started,rest_response.stopped,red.started,red.stopped,green.started,green.stopped,yellow.started,yellow.stopped,blue.started,blue.stopped,choose_bandit.keys,choose_bandit.rt,choose_bandit.started,choose_bandit.stopped,Fixation.started,Fixation.stopped,black.started,black.stopped,red_2.started,red_2.stopped,green_2.started,green_2.stopped,yellow_2.started,yellow_2.stopped,blue_2.started,blue_2.stopped,fixation_2.started,fixation_2.stopped,docs.started,docs.stopped,image_2.started,image_2.stopped,black_com.started,black_com.stopped,reward_sub.started,reward_sub.stopped,palyerb.started,palyerb.stopped,reward__sub.started,reward__sub.stopped,compare.started,compare.stopped,red_compare.started,red_compare.stopped,green_com.started,green_com.stopped,yellow_com.started,yellow_com.stopped,blue_com.started,blue_com.stopped,rewardyellow,rewardred,rewardblue,rewardgreen,subchoose,playerb,image_3.started,image_3.stopped,slider.response,slider.rt,slider.started,slider.stopped,text.started,text.stopped,image_4.started,image_4.stopped,image_5.started,image_5.stopped,bigx.started,bigx.stopped,intertrialfix.started,intertrialfix.stopped,rest_response.rt,image.started,image.stopped,key_resp.keys,key_resp.started,key_resp.stopped,participant,Gender,Age,date,expName,psychopyVersion,frameRate,
,,,,,835.4678211999126,None,space,17.3577290000394,835.4678211999126,None,,,,,,,,,,,,,,,,,,,,,,,,,,,,,,,,,,,,,,,,,,,,,,,,,,,,,,,,,,,,,,,,,,,,,,,,,,,,,,,,,,,,,,,,,,138,f,22,2022_Dec_13_1336,RL,2021.2.3,60.17426476477965,
,,,,,,,,,,,852.8584092999808,None,space,141.19058900000528,852.8584092999808,None,,,,,,,,,,,,,,,,,,,,,,,,,,,,,,,,,,,,,,,,,,,,,,,,,,,,,,,,,,,,,,,,,,,,,,,,,,,,,,,,,,,,138,f,22,2022_Dec_13_1336,RL,2021.2.3,60.17426476477965,
1,0,0,0,0,,,,,,,,,,,,,994.0848747002892,None,None,None,None,None,None,995.1130782002583,None,995.1130782002583,None,995.1130782002583,None,995.1130782002583,None,f,0.5378767000511289,995.1130782002583,None,995.1130782002583,None,995.7056900002062,None,995.7056900002062,None,995.7056900002062,None,995.7056900002062,None,995.7056900002062,None,995.7056900002062,None,995.9907301999629,997.6192201999947,995.9907301999629,997.6192201999947,997.6574265002273,None,997.6574265002273,None,997.6574265002273,None,997.6574265002273,None,997.6574265002273,None,997.6574265002273,None,997.6574265002273,None,997.6574265002273,None,997.6574265002273,None,59,34,45,63,34,28,1000.1755591998808,None,5.0,3.5832564998418093,1000.1755591998808,None,1000.1755591998808,None,1000.1755591998808,None,1000.1755591998808,None,None,None,1003.8556809001602,None,,,,,,,138,f,22,2022_Dec_13_1336,RL,2021.2.3,60.17426476477965,
1,1,0,1,0,,,,,,,,,,,,,,,None,None,None,None,None,1005.6805231999606,None,1005.6805231999606,None,1005.6805231999606,None,1005.6805231999606,None,f,0.5291272001340985,1005.6805231999606,None,1005.6805231999606,None,1006.2384401001036,None,1006.2384401001036,None,1006.2384401001036,None,1006.2384401001036,None,1006.2384401001036,None,1006.2384401001036,None,1006.5289381998591,1007.7916214000434,1006.5289381998591,1007.7916214000434,1007.8189592999406,None,1007.8189592999406,None,1007.8189592999406,None,1007.8189592999406,None,1007.8189592999406,None,1007.8189592999406,None,1007.8189592999406,None,1007.8189592999406,None,1007.8189592999406,None,53,28,50,56,28,26,1010.325385000091,None,5.0,2.2819659002125263,1010.325385000091,None,1010.325385000091,None,1010.325385000091,None,1010.325385000091,None,None,None,1012.627538099885,None,,,,,,,138,f,22,2022_Dec_13_1336,RL,2021.2.3,60.17426476477965,
1,2,0,2,0,,,,,,,,,,,,,,,None,None,None,None,None,1014.1576390000992,None,1014.1576390000992,None,1014.1576390000992,None,1014.1576390000992,None,r,0.6339321001432836,1014.1576390000992,None,1014.1576390000992,None,1014.8348886999302,None,1014.8348886999302,None,1014.8348886999302,None,1014.8348886999302,None,1014.8348886999302,None,1014.8348886999302,None,1015.1216239002533,1016.3683611000888,1015.1216239002533,1016.3683611000888,1016.3932429999113,None,1016.3932429999113,None,1016.3932429999113,None,1016.3932429999113,None,1016.3932429999113,None,1016.3932429999113,None,1016.3932429999113,None,1016.3932429999113,None,1016.3932429999113,None,59,34,47,68,59,58,1018.9006640003063,None,7.0,2.135915799997747,1018.9006640003063,None,1018.9006640003063,None,1018.9006640003063,None,1018.9006640003063,None,None,None,1021.0545586999506,None,,,,,,,138,f,22,2022_Dec_13_1336,RL,2021.2.3,60.17426476477965,
1,3,0,3,0,,,,,,,,,,,,,,,None,None,None,None,None,1022.6344563001767,None,1022.6344563001767,None,1022.6344563001767,None,1022.6344563001767,None,i,0.32101850025355816,1022.6344563001767,None,1022.6344563001767,None,1022.9927683002315,None,1022.9927683002315,None,1022.9927683002315,None,1022.9927683002315,None,1022.9927683002315,None,1022.9927683002315,None,1023.2829900002107,None,1023.2829900002107,None,1024.5379122998565,None,1024.5379122998565,None,1024.5379122998565,None,1024.5379122998565,None,1024.5379122998565,None,1024.5379122998565,None,1024.5379122998565,None,1024.5379122998565,None,1024.5379122998565,None,58,29,34,63,34,37,1027.0446667000651,None,7.0,2.184804099611938,1027.0446667000651,None,1027.0446667000651,None,1027.0446667000651,None,1027.0446667000651,None,None,None,1029.2491934001446,None,,,,,,,138,f,22,2022_Dec_13_1336,RL,2021.2.3,60.17426476477965,
1,4,0,4,0,,,,,,,,,,,,,,,None,None,None,None,None,1031.0610433002003,None,1031.0610433002003,None,1031.0610433002003,None,1031.0610433002003,None,j,0.6806005001999438,1031.0610433002003,None,1031.0610433002003,None,1031.7735302001238,None,1031.7735302001238,None,1031.7735302001238,None,1031.7735302001238,None,1031.7735302001238,None,1031.7735302001238,None,1032.0592225999571,None,1032.0592225999571,None,1033.5249254000373,None,1033.5249254000373,None,1033.5249254000373,None,1033.5249254000373,None,1033.5249254000373,None,1033.5249254000373,None,1033.5249254000373,None,1033.5249254000373,None,1033.5249254000373,None,63,23,34,60,60,60,1036.0355982999317,None,7.0,1.422227299772203,1036.0355982999317,None,1036.0355982999317,None,1036.0355982999317,None,1036.0355982999317,None,None,None,1037.4662947999313,None,,,,,,,138,f,22,2022_Dec_13_1336,RL,2021.2.3,60.17426476477965,
1,5,0,5,0,,,,,,,,,,,,,,,None,None,None,None,None,1039.1389888999984,None,1039.1389888999984,None,1039.1389888999984,None,1039.1389888999984,None,f,0.3402412999421358,1039.1389888999984,None,1039.1389888999984,None,1039.515597099904,None,1039.515597099904,None,1039.515597099904,None,1039.515597099904,None,1039.515597099904,None,1039.515597099904,None,1039.8042839001864,1041.4000404002145,1039.8042839001864,1041.4000404002145,1041.420492600184,None,1041.420492600184,None,1041.420492600184,None,1041.420492600184,None,1041.420492600184,None,1041.420492600184,None,1041.420492600184,None,1041.420492600184,None,1041.420492600184,None,54,28,35,54,28,49,1043.9294556998648,None,4.0,2.7366184000857174,1043.9294556998648,None,1043.9294556998648,None,1043.9294556998648,None,1043.9294556998648,None,None,None,1046.6845086999238,None,,,,,,,138,f,22,2022_Dec_13_1336,RL,2021.2.3,60.17426476477965,
1,6,0,6,0,,,,,,,,,,,,,,,None,None,None,None,None,1048.2476798999123,None,1048.2476798999123,None,1048.2476798999123,None,1048.2476798999123,None,j,0.4724560999311507,1048.2476798999123,None,1048.2476798999123,None,1048.7561935000122,None,1048.7561935000122,None,1048.7561935000122,None,1048.7561935000122,None,1048.7561935000122,None,1048.7561935000122,None,1049.0462074000388,1050.8907003998756,1049.0462074000388,1050.8907003998756,1050.9121600002982,None,1050.9121600002982,None,1050.9121600002982,None,1050.9121600002982,None,1050.9121600002982,None,1050.9121600002982,None,1050.9121600002982,None,1050.9121600002982,None,1050.9121600002982,None,49,33,43,62,62,42,1053.4226673999801,None,7.0,2.0354149998165667,1053.4226673999801,None,1053.4226673999801,None,1053.4226673999801,None,1053.4226673999801,None,None,None,1055.4772528000176,None,,,,,,,138,f,22,2022_Dec_13_1336,RL,2021.2.3,60.17426476477965,
1,7,0,7,0,,,,,,,,,,,,,,,None,None,None,None,None,1057.4392971000634,None,1057.4392971000634,None,1057.4392971000634,None,1057.4392971000634,None,j,0.547588000074029,1057.4392971000634,None,1057.4392971000634,None,1058.0159479002468,None,1058.0159479002468,None,1058.0159479002468,None,1058.0159479002468,None,1058.0159479002468,None,1058.0159479002468,None,1058.303953900002,1059.7830374999903,1058.303953900002,1059.7830374999903,1059.8039998998865,None,1059.8039998998865,None,1059.8039998998865,None,1059.8039998998865,None,1059.8039998998865,None,1059.8039998998865,None,1059.8039998998865,None,1059.8039998998865,None,1059.8039998998865,None,54,27,35,69,69,53,1062.3125979001634,None,7.0,1.240290299989283,1062.3125979001634,None,1062.3125979001634,None,1062.3125979001634,None,1062.3125979001634,None,None,None,1063.5718336002901,None,,,,,,,138,f,22,2022_Dec_13_1336,RL,2021.2.3,60.17426476477965,
1,8,0,8,0,,,,,,,,,,,,,,,None,None,None,None,None,1065.3013995001093,None,1065.3013995001093,None,1065.3013995001093,None,1065.3013995001093,None,j,0.5182432001456618,1065.3013995001093,None,1065.3013995001093,None,1065.8610962000675,None,1065.8610962000675,None,1065.8610962000675,None,1065.8610962000675,None,1065.8610962000675,None,1065.8610962000675,None,1066.1494567999616,1066.9635465000756,1066.1494567999616,1066.9635465000756,1066.9840136999264,None,1066.9840136999264,None,1066.9840136999264,None,1066.9840136999264,None,1066.9840136999264,None,1066.9840136999264,None,1066.9840136999264,None,1066.9840136999264,None,1066.9840136999264,None,56,25,21,66,66,45,1069.4955903002992,None,7.0,1.5210021999664605,1069.4955903002992,None,1069.4955903002992,None,1069.4955903002992,None,1069.4955903002992,None,None,None,1071.0350768999197,None,,,,,,,138,f,22,2022_Dec_13_1336,RL,2021.2.3,60.17426476477965,
1,9,0,9,0,,,,,,,,,,,,,,,None,None,None,None,None,1072.7973505998962,None,1072.7973505998962,None,1072.7973505998962,None,1072.7973505998962,None,j,0.4105293001048267,1072.7973505998962,None,1072.7973505998962,None,1073.2436854001135,None,1073.2436854001135,None,1073.2436854001135,None,1073.2436854001135,None,1073.2436854001135,None,1073.2436854001135,None,1073.5289567001164,None,1073.5289567001164,None,1075.4461097000167,None,1075.4461097000167,None,1075.4461097000167,None,1075.4461097000167,None,1075.4461097000167,None,1075.4461097000167,None,1075.4461097000167,None,1075.4461097000167,None,1075.4461097000167,None,41,27,21,71,71,61,1077.9545859000646,None,7.0,0.5576255000196397,1077.9545859000646,None,1077.9545859000646,None,1077.9545859000646,None,1077.9545859000646,None,None,None,1078.5310406000353,None,,,,,,,138,f,22,2022_Dec_13_1336,RL,2021.2.3,60.17426476477965,
1,10,0,10,0,,,,,,,,,,,,,,,None,None,None,None,None,1080.3268031002954,None,1080.3268031002954,None,1080.3268031002954,None,1080.3268031002954,None,j,0.550135700032115,1080.3268031002954,None,1080.3268031002954,None,1080.9213630002923,None,1080.9213630002923,None,1080.9213630002923,None,1080.9213630002923,None,1080.9213630002923,None,1080.9213630002923,None,1081.208426900208,1082.0388654000126,1081.208426900208,1082.0388654000126,1082.0591541002505,None,1082.0591541002505,None,1082.0591541002505,None,1082.0591541002505,None,1082.0591541002505,None,1082.0591541002505,None,1082.0591541002505,None,1082.0591541002505,None,1082.0591541002505,None,53,34,32,59,59,39,1084.5681579001248,None,7.0,0.6087664999067783,1084.5681579001248,None,1084.5681579001248,None,1084.5681579001248,None,1084.5681579001248,None,None,None,1085.1961089000106,None,,,,,,,138,f,22,2022_Dec_13_1336,RL,2021.2.3,60.17426476477965,
1,11,0,11,0,,,,,,,,,,,,,,,None,None,None,None,None,1086.8421681001782,None,1086.8421681001782,None,1086.8421681001782,None,1086.8421681001782,None,j,0.3737075999379158,1086.8421681001782,None,1086.8421681001782,None,1087.2532365000807,None,1087.2532365000807,None,1087.2532365000807,None,1087.2532365000807,None,1087.2532365000807,None,1087.2532365000807,None,1087.5407155998982,None,1087.5407155998982,None,1089.5551070999354,None,1089.5551070999354,None,1089.5551070999354,None,1089.5551070999354,None,1089.5551070999354,None,1089.5551070999354,None,1089.5551070999354,None,1089.5551070999354,None,1089.5551070999354,None,55,32,32,58,58,48,1092.0641137002967,None,7.0,0.5762512995861471,1092.0641137002967,None,1092.0641137002967,None,1092.0641137002967,None,1092.0641137002967,None,None,None,1092.6591982999817,None,,,,,,,138,f,22,2022_Dec_13_1336,RL,2021.2.3,60.17426476477965,
1,12,0,12,0,,,,,,,,,,,,,,,None,None,None,None,None,1094.488443300128,None,1094.488443300128,None,1094.488443300128,None,1094.488443300128,None,j,0.38656509993597865,1094.488443300128,None,1094.488443300128,None,1094.914619800169,None,1094.914619800169,None,1094.914619800169,None,1094.914619800169,None,1094.914619800169,None,1094.914619800169,None,1095.2031295001507,1096.383014800027,1095.2031295001507,1096.383014800027,1096.4054920002818,None,1096.4054920002818,None,1096.4054920002818,None,1096.4054920002818,None,1096.4054920002818,None,1096.4054920002818,None,1096.4054920002818,None,1096.4054920002818,None,1096.4054920002818,None,55,39,30,59,59,50,1098.915654799901,None,7.0,0.7054439000785351,1098.915654799901,None,1098.915654799901,None,1098.915654799901,None,1098.915654799901,None,None,None,1099.6399170998484,None,,,,,,,138,f,22,2022_Dec_13_1336,RL,2021.2.3,60.17426476477965,
1,13,0,13,0,,,,,,,,,,,,,,,None,None,None,None,None,1101.2699827002361,None,1101.2699827002361,None,1101.2699827002361,None,1101.2699827002361,None,j,0.4432012001052499,1101.2699827002361,None,1101.2699827002361,None,1101.749515300151,None,1101.749515300151,None,1101.749515300151,None,1101.749515300151,None,1101.749515300151,None,1101.749515300151,None,1102.0344237000681,None,1102.0344237000681,None,1103.0378215000965,None,1103.0378215000965,None,1103.0378215000965,None,1103.0378215000965,None,1103.0378215000965,None,1103.0378215000965,None,1103.0378215000965,None,1103.0378215000965,None,1103.0378215000965,None,49,35,33,70,70,49,1105.5477085001767,None,7.0,0.4732281002216041,1105.5477085001767,None,1105.5477085001767,None,1105.5477085001767,None,1105.5477085001767,None,None,None,1106.0392431998625,None,,,,,,,138,f,22,2022_Dec_13_1336,RL,2021.2.3,60.17426476477965,
1,14,0,14,0,,,,,,,,,,,,,,,None,None,None,None,None,1107.9848307999782,None,1107.9848307999782,None,1107.9848307999782,None,1107.9848307999782,None,j,0.41840949980542064,1107.9848307999782,None,1107.9848307999782,None,1108.4427951001562,None,1108.4427951001562,None,1108.4427951001562,None,1108.4427951001562,None,1108.4427951001562,None,1108.4427951001562,None,1108.7335240002722,None,1108.7335240002722,None,1110.5820506000891,None,1110.5820506000891,None,1110.5820506000891,None,1110.5820506000891,None,1110.5820506000891,None,1110.5820506000891,None,1110.5820506000891,None,1110.5820506000891,None,1110.5820506000891,None,62,47,22,54,54,42,1113.0933143999428,None,7.0,0.5591110996901989,1113.0933143999428,None,1113.0933143999428,None,1113.0933143999428,None,1113.0933143999428,None,None,None,1113.668291900307,None,,,,,,,138,f,22,2022_Dec_13_1336,RL,2021.2.3,60.17426476477965,
1,15,0,15,0,,,,,,,,,,,,,,,None,None,None,None,None,1115.231759100221,None,1115.231759100221,None,1115.231759100221,None,1115.231759100221,None,j,0.4697545999661088,1115.231759100221,None,1115.231759100221,None,1115.7430302002467,None,1115.7430302002467,None,1115.7430302002467,None,1115.7430302002467,None,1115.7430302002467,None,1115.7430302002467,None,1116.0299927000888,1117.1269408999942,1116.0299927000888,1117.1269408999942,1117.1473039998673,None,1117.1473039998673,None,1117.1473039998673,None,1117.1473039998673,None,1117.1473039998673,None,1117.1473039998673,None,1117.1473039998673,None,1117.1473039998673,None,1117.1473039998673,None,56,37,25,57,57,38,1119.6566019998863,None,7.0,0.49112620018422604,1119.6566019998863,None,1119.6566019998863,None,1119.6566019998863,None,1119.6566019998863,None,None,None,1120.1672725002281,None,,,,,,,138,f,22,2022_Dec_13_1336,RL,2021.2.3,60.17426476477965,
1,16,0,16,0,,,,,,,,,,,,,,,None,None,None,None,None,1121.946719000116,None,1121.946719000116,None,1121.946719000116,None,1121.946719000116,None,j,0.6639002999290824,1121.946719000116,None,1121.946719000116,None,1122.6406002002768,None,1122.6406002002768,None,1122.6406002002768,None,1122.6406002002768,None,1122.6406002002768,None,1122.6406002002768,None,1122.9278469001874,None,1122.9278469001874,None,1124.8274517999962,None,1124.8274517999962,None,1124.8274517999962,None,1124.8274517999962,None,1124.8274517999962,None,1124.8274517999962,None,1124.8274517999962,None,1124.8274517999962,None,1124.8274517999962,None,55,27,42,69,69,42,1127.3372304001823,None,7.0,0.541815800126642,1127.3372304001823,None,1127.3372304001823,None,1127.3372304001823,None,1127.3372304001823,None,None,None,1127.896458200179,None,,,,,,,138,f,22,2022_Dec_13_1336,RL,2021.2.3,60.17426476477965,
1,17,0,17,0,,,,,,,,,,,,,,,None,None,None,None,None,1129.8583412002772,None,1129.8583412002772,None,1129.8583412002772,None,1129.8583412002772,None,j,0.39468920044600964,1129.8583412002772,None,1129.8583412002772,None,1130.284674800001,None,1130.284674800001,None,1130.284674800001,None,1130.284674800001,None,1130.284674800001,None,1130.284674800001,None,1130.57372280024,None,1130.57372280024,None,1132.589658900164,None,1132.589658900164,None,1132.589658900164,None,1132.589658900164,None,1132.589658900164,None,1132.589658900164,None,1132.589658900164,None,1132.589658900164,None,1132.589658900164,None,67,39,44,60,60,30,1135.1013827002607,None,7.0,0.5556967998854816,1135.1013827002607,None,1135.1013827002607,None,1135.1013827002607,None,1135.1013827002607,None,None,None,1135.6747343000025,None,,,,,,,138,f,22,2022_Dec_13_1336,RL,2021.2.3,60.17426476477965,
1,18,0,18,0,,,,,,,,,,,,,,,None,None,None,None,None,1137.5540415998548,None,1137.5540415998548,None,1137.5540415998548,None,1137.5540415998548,None,j,0.3037577997893095,1137.5540415998548,None,1137.5540415998548,None,1137.9005999001674,None,1137.9005999001674,None,1137.9005999001674,None,1137.9005999001674,None,1137.9005999001674,None,1137.9005999001674,None,1138.1859148000367,1139.831778400112,1138.1859148000367,1139.831778400112,1139.8526689000428,None,1139.8526689000428,None,1139.8526689000428,None,1139.8526689000428,None,1139.8526689000428,None,1139.8526689000428,None,1139.8526689000428,None,1139.8526689000428,None,1139.8526689000428,None,70,34,53,72,72,31,1142.3611619002186,None,7.0,0.5594730000011623,1142.3611619002186,None,1142.3611619002186,None,1142.3611619002186,None,1142.3611619002186,None,None,None,1142.9390936000273,None,,,,,,,138,f,22,2022_Dec_13_1336,RL,2021.2.3,60.17426476477965,
1,19,0,19,0,,,,,,,,,,,,,,,None,None,None,None,None,1144.452014000155,None,1144.452014000155,None,1144.452014000155,None,1144.452014000155,None,j,0.4934276998974383,1144.452014000155,None,1144.452014000155,None,1144.9812562000006,None,1144.9812562000006,None,1144.9812562000006,None,1144.9812562000006,None,1144.9812562000006,None,1144.9812562000006,None,1145.2667900999077,1146.7460948000662,1145.2667900999077,1146.7460948000662,1146.7677829000168,None,1146.7677829000168,None,1146.7677829000168,None,1146.7677829000168,None,1146.7677829000168,None,1146.7677829000168,None,1146.7677829000168,None,1146.7677829000168,None,1146.7677829000168,None,72,37,56,58,58,41,1149.280970199965,None,7.0,0.503815499600023,1149.280970199965,None,1149.280970199965,None,1149.280970199965,None,1149.280970199965,None,None,None,1149.8031289000064,None,,,,,,,138,f,22,2022_Dec_13_1336,RL,2021.2.3,60.17426476477965,
1,20,0,20,0,,,,,,,,,,,,,,,None,None,None,None,None,1151.3496182998642,None,1151.3496182998642,None,1151.3496182998642,None,1151.3496182998642,None,j,0.35497729992493987,1151.3496182998642,None,1151.3496182998642,None,1151.7434054003097,None,1151.7434054003097,None,1151.7434054003097,None,1151.7434054003097,None,1151.7434054003097,None,1151.7434054003097,None,1152.0317208999768,None,1152.0317208999768,None,1153.5142195001245,None,1153.5142195001245,None,1153.5142195001245,None,1153.5142195001245,None,1153.5142195001245,None,1153.5142195001245,None,1153.5142195001245,None,1153.5142195001245,None,1153.5142195001245,None,75,38,49,61,61,42,1156.0233638999052,None,7.0,0.4588834000751376,1156.0233638999052,None,1156.0233638999052,None,1156.0233638999052,None,1156.0233638999052,None,None,None,1156.5018050000072,None,,,,,,,138,f,22,2022_Dec_13_1336,RL,2021.2.3,60.17426476477965,
1,21,0,21,0,,,,,,,,,,,,,,,None,None,None,None,None,1158.0316967000253,None,1158.0316967000253,None,1158.0316967000253,None,1158.0316967000253,None,j,0.2976334998384118,1158.0316967000253,None,1158.0316967000253,None,1158.3589339000173,None,1158.3589339000173,None,1158.3589339000173,None,1158.3589339000173,None,1158.3589339000173,None,1158.3589339000173,None,1158.6468974002637,1160.2925491998903,1158.6468974002637,1160.2925491998903,1160.3127028001472,None,1160.3127028001472,None,1160.3127028001472,None,1160.3127028001472,None,1160.3127028001472,None,1160.3127028001472,None,1160.3127028001472,None,1160.3127028001472,None,1160.3127028001472,None,79,38,52,63,63,57,1162.8244799003005,None,7.0,0.44007060024887323,1162.8244799003005,None,1162.8244799003005,None,1162.8244799003005,None,1162.8244799003005,None,None,None,1163.2833095001988,None,,,,,,,138,f,22,2022_Dec_13_1336,RL,2021.2.3,60.17426476477965,
1,22,0,22,0,,,,,,,,,,,,,,,None,None,None,None,None,1165.0461066002026,None,1165.0461066002026,None,1165.0461066002026,None,1165.0461066002026,None,j,0.5061407997272909,1165.0461066002026,None,1165.0461066002026,None,1165.58786350023,None,1165.58786350023,None,1165.58786350023,None,1165.58786350023,None,1165.58786350023,None,1165.58786350023,None,1165.8775722999126,1166.724448100198,1165.8775722999126,1166.724448100198,1166.7435139999725,None,1166.7435139999725,None,1166.7435139999725,None,1166.7435139999725,None,1166.7435139999725,None,1166.7435139999725,None,1166.7435139999725,None,1166.7435139999725,None,1166.7435139999725,None,81,43,45,57,57,50,1169.2568818000145,None,7.0,0.5734952003695071,1169.2568818000145,None,1169.2568818000145,None,1169.2568818000145,None,1169.2568818000145,None,None,None,1169.8486526003107,None,,,,,,,138,f,22,2022_Dec_13_1336,RL,2021.2.3,60.17426476477965,
1,23,0,23,0,,,,,,,,,,,,,,,None,None,None,None,None,1171.511398800183,None,1171.511398800183,None,1171.511398800183,None,1171.511398800183,None,j,0.29300579987466335,1171.511398800183,None,1171.511398800183,None,1171.838889000006,None,1171.838889000006,None,1171.838889000006,None,1171.838889000006,None,1171.838889000006,None,1171.838889000006,None,1172.1269240998663,1173.6724657001905,1172.1269240998663,1173.6724657001905,1173.6937766000628,None,1173.6937766000628,None,1173.6937766000628,None,1173.6937766000628,None,1173.6937766000628,None,1173.6937766000628,None,1173.6937766000628,None,1173.6937766000628,None,1173.6937766000628,None,77,40,56,50,50,40,1176.2067730999552,None,7.0,2.1992546999827027,1176.2067730999552,None,1176.2067730999552,None,1176.2067730999552,None,1176.2067730999552,None,None,None,1178.425381100271,None,,,,,,,138,f,22,2022_Dec_13_1336,RL,2021.2.3,60.17426476477965,
1,24,0,24,0,,,,,,,,,,,,,,,None,None,None,None,None,1180.0550496000797,None,1180.0550496000797,None,1180.0550496000797,None,1180.0550496000797,None,j,0.8382271998561919,1180.0550496000797,None,1180.0550496000797,None,1180.9314462002367,None,1180.9314462002367,None,1180.9314462002367,None,1180.9314462002367,None,1180.9314462002367,None,1180.9314462002367,None,1181.2184474999085,1182.3821197003126,1181.2184474999085,1182.3821197003126,1182.4034076002426,None,1182.4034076002426,None,1182.4034076002426,None,1182.4034076002426,None,1182.4034076002426,None,1182.4034076002426,None,1182.4034076002426,None,1182.4034076002426,None,1182.4034076002426,None,82,27,69,47,47,46,1184.9142482001334,None,7.0,1.15422199992463,1184.9142482001334,None,1184.9142482001334,None,1184.9142482001334,None,1184.9142482001334,None,None,None,1186.087989800144,None,,,,,,,138,f,22,2022_Dec_13_1336,RL,2021.2.3,60.17426476477965,
1,25,0,25,0,,,,,,,,,,,,,,,None,None,None,None,None,1187.9498978001066,None,1187.9498978001066,None,1187.9498978001066,None,1187.9498978001066,None,i,1.0611643996089697,1187.9498978001066,None,1187.9498978001066,None,1189.043324700091,None,1189.043324700091,None,1189.043324700091,None,1189.043324700091,None,1189.043324700091,None,1189.043324700091,None,1189.33027460007,1190.7260723002255,1189.33027460007,1190.7260723002255,1190.746441599913,None,1190.746441599913,None,1190.746441599913,None,1190.746441599913,None,1190.746441599913,None,1190.746441599913,None,1190.746441599913,None,1190.746441599913,None,1190.746441599913,None,76,33,65,59,65,56,1193.2567145000212,None,7.0,1.0067289997823536,1193.2567145000212,None,1193.2567145000212,None,1193.2567145000212,None,1193.2567145000212,None,None,None,1194.2817819002084,None,,,,,,,138,f,22,2022_Dec_13_1336,RL,2021.2.3,60.17426476477965,
1,26,0,26,0,,,,,,,,,,,,,,,None,None,None,None,None,1196.127488899976,None,1196.127488899976,None,1196.127488899976,None,1196.127488899976,None,j,1.17479129973799,1196.127488899976,None,1196.127488899976,None,1197.3368758000433,None,1197.3368758000433,None,1197.3368758000433,None,1197.3368758000433,None,1197.3368758000433,None,1197.3368758000433,None,1197.6240693000145,1198.6542712002993,1197.6240693000145,1198.6542712002993,1198.6778053999878,None,1198.6778053999878,None,1198.6778053999878,None,1198.6778053999878,None,1198.6778053999878,None,1198.6778053999878,None,1198.6778053999878,None,1198.6778053999878,None,1198.6778053999878,None,65,37,70,55,55,31,1201.1861041001976,None,7.0,0.5386896999552846,1201.1861041001976,None,1201.1861041001976,None,1201.1861041001976,None,1201.1861041001976,None,None,None,1201.745024099946,None,,,,,,,138,f,22,2022_Dec_13_1336,RL,2021.2.3,60.17426476477965,
1,27,0,27,0,,,,,,,,,,,,,,,None,None,None,None,None,1203.590514600277,None,1203.590514600277,None,1203.590514600277,None,1203.590514600277,None,f,0.8259817003272474,1203.590514600277,None,1203.590514600277,None,1204.448448699899,None,1204.448448699899,None,1204.448448699899,None,1204.448448699899,None,1204.448448699899,None,1204.448448699899,None,1204.737681800034,None,1204.737681800034,None,1205.858132299967,None,1205.858132299967,None,1205.858132299967,None,1205.858132299967,None,1205.858132299967,None,1205.858132299967,None,1205.858132299967,None,1205.858132299967,None,1205.858132299967,None,63,45,67,47,45,36,1208.3679407001473,None,7.0,0.4544201004318893,1208.3679407001473,None,1208.3679407001473,None,1208.3679407001473,None,1208.3679407001473,None,None,None,1208.8421251000836,None,,,,,,,138,f,22,2022_Dec_13_1336,RL,2021.2.3,60.17426476477965,
1,28,0,28,0,,,,,,,,,,,,,,,None,None,None,None,None,1210.7876454000361,None,1210.7876454000361,None,1210.7876454000361,None,1210.7876454000361,None,j,0.4723935001529753,1210.7876454000361,None,1210.7876454000361,None,1211.2986702001654,None,1211.2986702001654,None,1211.2986702001654,None,1211.2986702001654,None,1211.2986702001654,None,1211.2986702001654,None,1211.5860784999095,None,1211.5860784999095,None,1213.3859728998505,None,1213.3859728998505,None,1213.3859728998505,None,1213.3859728998505,None,1213.3859728998505,None,1213.3859728998505,None,1213.3859728998505,None,1213.3859728998505,None,1213.3859728998505,None,63,39,53,57,57,46,1215.8974728002213,None,7.0,0.5872201002202928,1215.8974728002213,None,1215.8974728002213,None,1215.8974728002213,None,1215.8974728002213,None,None,None,1216.5044944998808,None,,,,,,,138,f,22,2022_Dec_13_1336,RL,2021.2.3,60.17426476477965,
1,29,0,29,0,,,,,,,,,,,,,,,None,None,None,None,None,1218.017833400052,None,1218.017833400052,None,1218.017833400052,None,1218.017833400052,None,j,0.7259057997725904,1218.017833400052,None,1218.017833400052,None,1218.776529100258,None,1218.776529100258,None,1218.776529100258,None,1218.776529100258,None,1218.776529100258,None,1218.776529100258,None,1219.0656334999949,1220.8438856001012,1219.0656334999949,1220.8438856001012,1220.864098600112,None,1220.864098600112,None,1220.864098600112,None,1220.864098600112,None,1220.864098600112,None,1220.864098600112,None,1220.864098600112,None,1220.864098600112,None,1220.864098600112,None,59,43,50,52,52,57,1223.3748639998958,None,7.0,1.2224332001060247,1223.3748639998958,None,1223.3748639998958,None,1223.3748639998958,None,1223.3748639998958,None,None,None,1224.6157809002325,None,,,,,,,138,f,22,2022_Dec_13_1336,RL,2021.2.3,60.17426476477965,
1,30,0,30,0,,,,,,,,,,,,,,,None,None,None,None,None,1226.1959530999884,None,1226.1959530999884,None,1226.1959530999884,None,1226.1959530999884,None,i,0.7450721999630332,1226.1959530999884,None,1226.1959530999884,None,1226.9710464002565,None,1226.9710464002565,None,1226.9710464002565,None,1226.9710464002565,None,1226.9710464002565,None,1226.9710464002565,None,1227.2599451001734,1228.6225940999575,1227.2599451001734,1228.6225940999575,1228.6431606998667,None,1228.6431606998667,None,1228.6431606998667,None,1228.6431606998667,None,1228.6431606998667,None,1228.6431606998667,None,1228.6431606998667,None,1228.6431606998667,None,1228.6431606998667,None,62,48,61,54,61,41,1231.1587588000111,None,7.0,0.46954220021143556,1231.1587588000111,None,1231.1587588000111,None,1231.1587588000111,None,1231.1587588000111,None,None,None,1231.6466866000555,None,,,,,,,138,f,22,2022_Dec_13_1336,RL,2021.2.3,60.17426476477965,
1,31,0,31,0,,,,,,,,,,,,,,,None,None,None,None,None,1233.2762686000206,None,1233.2762686000206,None,1233.2762686000206,None,1233.2762686000206,None,i,0.738446599803865,1233.2762686000206,None,1233.2762686000206,None,1234.0508977002464,None,1234.0508977002464,None,1234.0508977002464,None,1234.0508977002464,None,1234.0508977002464,None,1234.0508977002464,None,1234.3401363999583,None,1234.3401363999583,None,1235.6728814002126,None,1235.6728814002126,None,1235.6728814002126,None,1235.6728814002126,None,1235.6728814002126,None,1235.6728814002126,None,1235.6728814002126,None,1235.6728814002126,None,1235.6728814002126,None,63,45,63,49,63,32,1238.1829916001298,None,7.0,1.4894674001261592,1238.1829916001298,None,1238.1829916001298,None,1238.1829916001298,None,1238.1829916001298,None,None,None,1239.6915115001611,None,,,,,,,138,f,22,2022_Dec_13_1336,RL,2021.2.3,60.17426476477965,
1,32,0,32,0,,,,,,,,,,,,,,,None,None,None,None,None,1241.686807999853,None,1241.686807999853,None,1241.686807999853,None,1241.686807999853,None,i,0.4152510999701917,1241.686807999853,None,1241.686807999853,None,1242.1314663998783,None,1242.1314663998783,None,1242.1314663998783,None,1242.1314663998783,None,1242.1314663998783,None,1242.1314663998783,None,1242.4184050001204,None,1242.4184050001204,None,1243.7843907000497,None,1243.7843907000497,None,1243.7843907000497,None,1243.7843907000497,None,1243.7843907000497,None,1243.7843907000497,None,1243.7843907000497,None,1243.7843907000497,None,1243.7843907000497,None,70,49,65,51,65,48,1246.2936967001297,None,7.0,0.45841840002685785,1246.2936967001297,None,1246.2936967001297,None,1246.2936967001297,None,1246.2936967001297,None,None,None,1246.772038700059,None,,,,,,,138,f,22,2022_Dec_13_1336,RL,2021.2.3,60.17426476477965,
1,33,0,33,0,,,,,,,,,,,,,,,None,None,None,None,None,1248.4518329002894,None,1248.4518329002894,None,1248.4518329002894,None,1248.4518329002894,None,i,0.4384709997102618,1248.4518329002894,None,1248.4518329002894,None,1248.927075699903,None,1248.927075699903,None,1248.927075699903,None,1248.927075699903,None,1248.927075699903,None,1248.927075699903,None,1249.2167128999718,1250.8950892998837,1249.2167128999718,1250.8950892998837,1250.914946500212,None,1250.914946500212,None,1250.914946500212,None,1250.914946500212,None,1250.914946500212,None,1250.914946500212,None,1250.914946500212,None,1250.914946500212,None,1250.914946500212,None,62,51,60,45,60,38,1253.4250113000162,None,7.0,0.4582894998602569,1253.4250113000162,None,1253.4250113000162,None,1253.4250113000162,None,1253.4250113000162,None,None,None,1253.9026856999844,None,,,,,,,138,f,22,2022_Dec_13_1336,RL,2021.2.3,60.17426476477965,
1,34,0,34,0,,,,,,,,,,,,,,,None,None,None,None,None,1255.5487999999896,None,1255.5487999999896,None,1255.5487999999896,None,1255.5487999999896,None,i,0.4853873001411557,1255.5487999999896,None,1255.5487999999896,None,1256.0722838998772,None,1256.0722838998772,None,1256.0722838998772,None,1256.0722838998772,None,1256.0722838998772,None,1256.0722838998772,None,1256.363925800193,1257.2942512999289,1256.363925800193,1257.2942512999289,1257.3154024998657,None,1257.3154024998657,None,1257.3154024998657,None,1257.3154024998657,None,1257.3154024998657,None,1257.3154024998657,None,1257.3154024998657,None,1257.3154024998657,None,1257.3154024998657,None,63,47,64,46,64,40,1259.826965200249,None,7.0,0.45513000013306737,1259.826965200249,None,1259.826965200249,None,1259.826965200249,None,1259.826965200249,None,None,None,1260.3022110001184,None,,,,,,,138,f,22,2022_Dec_13_1336,RL,2021.2.3,60.17426476477965,
1,35,0,35,0,,,,,,,,,,,,,,,None,None,None,None,None,1262.0143365999684,None,1262.0143365999684,None,1262.0143365999684,None,1262.0143365999684,None,i,0.25497240014374256,1262.0143365999684,None,1262.0143365999684,None,1262.3094470002688,None,1262.3094470002688,None,1262.3094470002688,None,1262.3094470002688,None,1262.3094470002688,None,1262.3094470002688,None,1262.5968973999843,1263.4110795999877,1262.5968973999843,1263.4110795999877,1263.4334141002037,None,1263.4334141002037,None,1263.4334141002037,None,1263.4334141002037,None,1263.4334141002037,None,1263.4334141002037,None,1263.4334141002037,None,1263.4334141002037,None,1263.4334141002037,None,61,43,63,53,63,41,1265.9419025001116,None,7.0,1.3885951000265777,1265.9419025001116,None,1265.9419025001116,None,1265.9419025001116,None,1265.9419025001116,None,None,None,1267.3491364000365,None,,,,,,,138,f,22,2022_Dec_13_1336,RL,2021.2.3,60.17426476477965,
1,36,0,36,0,,,,,,,,,,,,,,,None,None,None,None,None,1269.3110577999614,None,1269.3110577999614,None,1269.3110577999614,None,1269.3110577999614,None,i,0.3672070000320673,1269.3110577999614,None,1269.3110577999614,None,1269.7053102999926,None,1269.7053102999926,None,1269.7053102999926,None,1269.7053102999926,None,1269.7053102999926,None,1269.7053102999926,None,1269.9929436999373,1271.8878378998488,1269.9929436999373,1271.8878378998488,1271.908966400195,None,1271.908966400195,None,1271.908966400195,None,1271.908966400195,None,1271.908966400195,None,1271.908966400195,None,1271.908966400195,None,1271.908966400195,None,1271.908966400195,None,66,48,59,48,59,45,1274.4226418002509,None,7.0,0.4373225998133421,1274.4226418002509,None,1274.4226418002509,None,1274.4226418002509,None,1274.4226418002509,None,None,None,1274.8788719000295,None,,,,,,,138,f,22,2022_Dec_13_1336,RL,2021.2.3,60.17426476477965,
1,37,0,37,0,,,,,,,,,,,,,,,None,None,None,None,None,1276.8424515002407,None,1276.8424515002407,None,1276.8424515002407,None,1276.8424515002407,None,i,0.2591258999891579,1276.8424515002407,None,1276.8424515002407,None,1277.133358700201,None,1277.133358700201,None,1277.133358700201,None,1277.133358700201,None,1277.133358700201,None,1277.133358700201,None,1277.4228000999428,None,1277.4228000999428,None,1278.6897792001255,None,1278.6897792001255,None,1278.6897792001255,None,1278.6897792001255,None,1278.6897792001255,None,1278.6897792001255,None,1278.6897792001255,None,1278.6897792001255,None,1278.6897792001255,None,55,50,56,47,56,54,1281.2012424999848,None,7.0,0.43993839994072914,1281.2012424999848,None,1281.2012424999848,None,1281.2012424999848,None,1281.2012424999848,None,None,None,1281.660182800144,None,,,,,,,138,f,22,2022_Dec_13_1336,RL,2021.2.3,60.17426476477965,
1,38,0,38,0,,,,,,,,,,,,,,,None,None,None,None,None,1283.223601100035,None,1283.223601100035,None,1283.223601100035,None,1283.223601100035,None,j,1.0814780998043716,1283.223601100035,None,1283.223601100035,None,1284.3336144001223,None,1284.3336144001223,None,1284.3336144001223,None,1284.3336144001223,None,1284.3336144001223,None,1284.3336144001223,None,1284.6200092001818,1286.082688299939,1284.6200092001818,1286.082688299939,1286.1055065998808,None,1286.1055065998808,None,1286.1055065998808,None,1286.1055065998808,None,1286.1055065998808,None,1286.1055065998808,None,1286.1055065998808,None,1286.1055065998808,None,1286.1055065998808,None,69,52,54,42,42,47,1288.614000600297,None,6.0,0.5736127998679876,1288.614000600297,None,1288.614000600297,None,1288.614000600297,None,1288.614000600297,None,None,None,1289.2065632999875,None,,,,,,,138,f,22,2022_Dec_13_1336,RL,2021.2.3,60.17426476477965,
1,39,0,39,0,,,,,,,,,,,,,,,None,None,None,None,None,1291.1018389998935,None,1291.1018389998935,None,1291.1018389998935,None,1291.1018389998935,None,None,,1291.1018389998935,None,1291.1018389998935,None,None,None,None,None,None,None,None,None,None,None,None,None,None,None,None,None,None,None,None,None,None,None,None,None,None,None,None,None,None,None,None,None,None,None,73,47,54,47,0,**,None,None,None,None,None,None,None,None,None,None,None,None,1292.6484584002756,None,1297.1515676002018,None,,,,,,,138,f,22,2022_Dec_13_1336,RL,2021.2.3,60.17426476477965,
1,40,0,40,0,,,,,,,,,,,,,,,None,None,None,None,None,1298.8307425002567,None,1298.8307425002567,None,1298.8307425002567,None,1298.8307425002567,None,i,0.37130670016631484,1298.8307425002567,None,1298.8307425002567,None,1299.2428592001088,None,1299.2428592001088,None,1299.2428592001088,None,1299.2428592001088,None,1299.2428592001088,None,1299.2428592001088,None,1299.5290661999024,1300.8590489001945,1299.5290661999024,1300.8590489001945,1300.881439300254,None,1300.881439300254,None,1300.881439300254,None,1300.881439300254,None,1300.881439300254,None,1300.881439300254,None,1300.881439300254,None,1300.881439300254,None,1300.881439300254,None,63,47,57,43,57,38,1303.3908164999448,None,7.0,1.9865263001993299,1303.3908164999448,None,1303.3908164999448,None,1303.3908164999448,None,1303.3908164999448,None,None,None,1305.3956756000407,None,,,,,,,138,f,22,2022_Dec_13_1336,RL,2021.2.3,60.17426476477965,
1,41,0,41,0,,,,,,,,,,,,,,,None,None,None,None,None,1307.1079686000012,None,1307.1079686000012,None,1307.1079686000012,None,1307.1079686000012,None,i,0.23093680012971163,1307.1079686000012,None,1307.1079686000012,None,1307.3673371998593,None,1307.3673371998593,None,1307.3673371998593,None,1307.3673371998593,None,1307.3673371998593,None,1307.3673371998593,None,1307.657301499974,None,1307.657301499974,None,1308.5257832002826,None,1308.5257832002826,None,1308.5257832002826,None,1308.5257832002826,None,1308.5257832002826,None,1308.5257832002826,None,1308.5257832002826,None,1308.5257832002826,None,1308.5257832002826,None,56,58,53,46,53,37,1311.0340533000417,None,7.0,0.5919592999853194,1311.0340533000417,None,1311.0340533000417,None,1311.0340533000417,None,1311.0340533000417,None,None,None,1311.6449833000079,None,,,,,,,138,f,22,2022_Dec_13_1336,RL,2021.2.3,60.17426476477965,
1,42,0,42,0,,,,,,,,,,,,,,,None,None,None,None,None,1313.6569242002442,None,1313.6569242002442,None,1313.6569242002442,None,1313.6569242002442,None,i,0.3115071998909116,1313.6569242002442,None,1313.6569242002442,None,1314.0000555003062,None,1314.0000555003062,None,1314.0000555003062,None,1314.0000555003062,None,1314.0000555003062,None,1314.0000555003062,None,1314.288857600186,1315.8347642002627,1314.288857600186,1315.8347642002627,1315.8565668002702,None,1315.8565668002702,None,1315.8565668002702,None,1315.8565668002702,None,1315.8565668002702,None,1315.8565668002702,None,1315.8565668002702,None,1315.8565668002702,None,1315.8565668002702,None,61,64,60,49,60,45,1318.3688525999896,None,7.0,0.7870191996917129,1318.3688525999896,None,1318.3688525999896,None,1318.3688525999896,None,1318.3688525999896,None,None,None,1319.174578399863,None,,,,,,,138,f,22,2022_Dec_13_1336,RL,2021.2.3,60.17426476477965,
1,43,0,43,0,,,,,,,,,,,,,,,None,None,None,None,None,1320.903750400059,None,1320.903750400059,None,1320.903750400059,None,1320.903750400059,None,i,0.21837650006636977,1320.903750400059,None,1320.903750400059,None,1321.1642106003128,None,1321.1642106003128,None,1321.1642106003128,None,1321.1642106003128,None,1321.1642106003128,None,1321.1642106003128,None,1321.4526380999014,1322.4835230000317,1321.4526380999014,1322.4835230000317,1322.5066066002473,None,1322.5066066002473,None,1322.5066066002473,None,1322.5066066002473,None,1322.5066066002473,None,1322.5066066002473,None,1322.5066066002473,None,1322.5066066002473,None,1322.5066066002473,None,60,62,56,55,56,47,1325.013621199876,None,7.0,0.6068567000329494,1325.013621199876,None,1325.013621199876,None,1325.013621199876,None,1325.013621199876,None,None,None,1325.6401622998528,None,,,,,,,138,f,22,2022_Dec_13_1336,RL,2021.2.3,60.17426476477965,
1,44,0,44,0,,,,,,,,,,,,,,,None,None,None,None,None,1327.203324300237,None,1327.203324300237,None,1327.203324300237,None,1327.203324300237,None,i,0.24938130006194115,1327.203324300237,None,1327.203324300237,None,1327.4823607001454,None,1327.4823607001454,None,1327.4823607001454,None,1327.4823607001454,None,1327.4823607001454,None,1327.4823607001454,None,1327.7688607000746,None,1327.7688607000746,None,1329.1328493002802,None,1329.1328493002802,None,1329.1328493002802,None,1329.1328493002802,None,1329.1328493002802,None,1329.1328493002802,None,1329.1328493002802,None,1329.1328493002802,None,1329.1328493002802,None,71,50,55,55,55,37,1331.6459881998599,None,7.0,0.44091220013797283,1331.6459881998599,None,1331.6459881998599,None,1331.6459881998599,None,1331.6459881998599,None,None,None,1332.1061948998831,None,,,,,,,138,f,22,2022_Dec_13_1336,RL,2021.2.3,60.17426476477965,
1,45,0,45,0,,,,,,,,,,,,,,,None,None,None,None,None,1334.0017834003083,None,1334.0017834003083,None,1334.0017834003083,None,1334.0017834003083,None,i,0.2207209998741746,1334.0017834003083,None,1334.0017834003083,None,1334.2626145002432,None,1334.2626145002432,None,1334.2626145002432,None,1334.2626145002432,None,1334.2626145002432,None,1334.2626145002432,None,1334.550345200114,1335.6141758998856,1334.550345200114,1335.6141758998856,1335.6344421003014,None,1335.6344421003014,None,1335.6344421003014,None,1335.6344421003014,None,1335.6344421003014,None,1335.6344421003014,None,1335.6344421003014,None,1335.6344421003014,None,1335.6344421003014,None,67,53,61,52,61,56,1338.146739399992,None,7.0,0.47227209992706776,1338.146739399992,None,1338.146739399992,None,1338.146739399992,None,1338.146739399992,None,None,None,1338.6382145001553,None,,,,,,,138,f,22,2022_Dec_13_1336,RL,2021.2.3,60.17426476477965,
1,46,0,46,0,,,,,,,,,,,,,,,None,None,None,None,None,1340.1847284999676,None,1340.1847284999676,None,1340.1847284999676,None,1340.1847284999676,None,i,0.3287134999409318,1340.1847284999676,None,1340.1847284999676,None,1340.5441129999235,None,1340.5441129999235,None,1340.5441129999235,None,1340.5441129999235,None,1340.5441129999235,None,1340.5441129999235,None,1340.8334880000912,1342.794420900289,1340.8334880000912,1342.794420900289,1342.8149085999466,None,1342.8149085999466,None,1342.8149085999466,None,1342.8149085999466,None,1342.8149085999466,None,1342.8149085999466,None,1342.8149085999466,None,1342.8149085999466,None,1342.8149085999466,None,69,61,55,53,55,27,1345.3270526002161,None,7.0,0.6225548000074923,1345.3270526002161,None,1345.3270526002161,None,1345.3270526002161,None,1345.3270526002161,None,None,None,1345.9681144002825,None,,,,,,,138,f,22,2022_Dec_13_1336,RL,2021.2.3,60.17426476477965,
1,47,0,47,0,,,,,,,,,,,,,,,None,None,None,None,None,1347.7471721000038,None,1347.7471721000038,None,1347.7471721000038,None,1347.7471721000038,None,i,0.4285544999875128,1347.7471721000038,None,1347.7471721000038,None,1348.2067988999188,None,1348.2067988999188,None,1348.2067988999188,None,1348.2067988999188,None,1348.2067988999188,None,1348.2067988999188,None,1348.495883999858,1349.3432117002085,1348.495883999858,1349.3432117002085,1349.3634802000597,None,1349.3634802000597,None,1349.3634802000597,None,1349.3634802000597,None,1349.3634802000597,None,1349.3634802000597,None,1349.3634802000597,None,1349.3634802000597,None,1349.3634802000597,None,64,52,60,60,60,40,1351.8740500002168,None,7.0,0.5738687999546528,1351.8740500002168,None,1351.8740500002168,None,1351.8740500002168,None,1351.8740500002168,None,None,None,1352.467005399987,None,,,,,,,138,f,22,2022_Dec_13_1336,RL,2021.2.3,60.17426476477965,
1,48,0,48,0,,,,,,,,,,,,,,,None,None,None,None,None,1354.3627631999552,None,1354.3627631999552,None,1354.3627631999552,None,1354.3627631999552,None,i,0.3434391999617219,1354.3627631999552,None,1354.3627631999552,None,1354.7385338000022,None,1354.7385338000022,None,1354.7385338000022,None,1354.7385338000022,None,1354.7385338000022,None,1354.7385338000022,None,1355.0277072000317,1356.7067499002442,1355.0277072000317,1356.7067499002442,1356.727059100289,None,1356.727059100289,None,1356.727059100289,None,1356.727059100289,None,1356.727059100289,None,1356.727059100289,None,1356.727059100289,None,1356.727059100289,None,1356.727059100289,None,67,46,62,68,62,30,1359.2379522002302,None,7.0,0.6402649004012346,1359.2379522002302,None,1359.2379522002302,None,1359.2379522002302,None,1359.2379522002302,None,None,None,1359.8969018002972,None,,,,,,,138,f,22,2022_Dec_13_1336,RL,2021.2.3,60.17426476477965,
1,49,0,49,0,,,,,,,,,,,,,,,None,None,None,None,None,1361.7756083002314,None,1361.7756083002314,None,1361.7756083002314,None,1361.7756083002314,None,i,0.23963250033557415,1361.7756083002314,None,1361.7756083002314,None,1362.0523899002,None,1362.0523899002,None,1362.0523899002,None,1362.0523899002,None,1362.0523899002,None,1362.0523899002,None,1362.3409171001986,None,1362.3409171001986,None,1363.708117700182,None,1363.708117700182,None,1363.708117700182,None,1363.708117700182,None,1363.708117700182,None,1363.708117700182,None,1363.708117700182,None,1363.708117700182,None,1363.708117700182,None,62,51,58,54,58,51,1366.2193225002848,None,7.0,0.4893394000828266,1366.2193225002848,None,1366.2193225002848,None,1366.2193225002848,None,1366.2193225002848,None,None,None,1366.7280474998988,None,,,,,,,138,f,22,2022_Dec_13_1336,RL,2021.2.3,60.17426476477965,
1,50,0,50,0,,,,,,,,,,,,,,,None,None,None,None,None,1368.3577275001444,None,1368.3577275001444,None,1368.3577275001444,None,1368.3577275001444,None,i,0.28229850018396974,1368.3577275001444,None,1368.3577275001444,None,1368.667503700126,None,1368.667503700126,None,1368.667503700126,None,1368.667503700126,None,1368.667503700126,None,1368.667503700126,None,1368.9566720998846,None,1368.9566720998846,None,1369.8741792999208,None,1369.8741792999208,None,1369.8741792999208,None,1369.8741792999208,None,1369.8741792999208,None,1369.8741792999208,None,1369.8741792999208,None,1369.8741792999208,None,1369.8741792999208,None,79,51,53,58,53,55,1372.3825942999683,None,7.0,0.8940580999478698,1372.3825942999683,None,1372.3825942999683,None,1372.3825942999683,None,1372.3825942999683,None,None,None,1373.2936769002117,None,,,,,,,138,f,22,2022_Dec_13_1336,RL,2021.2.3,60.17426476477965,
1,51,0,51,0,,,,,,,,,,,,,,,None,None,None,None,None,1375.0562054002658,None,1375.0562054002658,None,1375.0562054002658,None,1375.0562054002658,None,i,1.3524747998453677,1375.0562054002658,None,1375.0562054002658,None,1376.4467136003077,None,1376.4467136003077,None,1376.4467136003077,None,1376.4467136003077,None,1376.4467136003077,None,1376.4467136003077,None,1376.7356055001728,1378.1312853000127,1376.7356055001728,1378.1312853000127,1378.1531390002929,None,1378.1531390002929,None,1378.1531390002929,None,1378.1531390002929,None,1378.1531390002929,None,1378.1531390002929,None,1378.1531390002929,None,1378.1531390002929,None,1378.1531390002929,None,68,52,51,72,51,47,1380.6655047000386,None,7.0,1.618456399999559,1380.6655047000386,None,1380.6655047000386,None,1380.6655047000386,None,1380.6655047000386,None,None,None,1382.3021605000831,None,,,,,,,138,f,22,2022_Dec_13_1336,RL,2021.2.3,60.17426476477965,
1,52,0,52,0,,,,,,,,,,,,,,,None,None,None,None,None,1383.9484116001986,None,1383.9484116001986,None,1383.9484116001986,None,1383.9484116001986,None,i,0.24262099992483854,1383.9484116001986,None,1383.9484116001986,None,1384.2284098998643,None,1384.2284098998643,None,1384.2284098998643,None,1384.2284098998643,None,1384.2284098998643,None,1384.2284098998643,None,1384.5139485001564,1386.5087594999932,1384.5139485001564,1386.5087594999932,1386.5318241999485,None,1386.5318241999485,None,1386.5318241999485,None,1386.5318241999485,None,1386.5318241999485,None,1386.5318241999485,None,1386.5318241999485,None,1386.5318241999485,None,1386.5318241999485,None,64,51,60,72,60,53,1389.0416542002931,None,7.0,1.3527045999653637,1389.0416542002931,None,1389.0416542002931,None,1389.0416542002931,None,1389.0416542002931,None,None,None,1390.413298800122,None,,,,,,,138,f,22,2022_Dec_13_1336,RL,2021.2.3,60.17426476477965,
1,53,0,53,0,,,,,,,,,,,,,,,None,None,None,None,None,1392.0762602998875,None,1392.0762602998875,None,1392.0762602998875,None,1392.0762602998875,None,i,0.2671813000924885,1392.0762602998875,None,1392.0762602998875,None,1392.3701756000519,None,1392.3701756000519,None,1392.3701756000519,None,1392.3701756000519,None,1392.3701756000519,None,1392.3701756000519,None,1392.6588198002428,1394.5701240999624,1392.6588198002428,1394.5701240999624,1394.5910431002267,None,1394.5910431002267,None,1394.5910431002267,None,1394.5910431002267,None,1394.5910431002267,None,1394.5910431002267,None,1394.5910431002267,None,1394.5910431002267,None,1394.5910431002267,None,64,49,57,65,57,55,1397.1013167002238,None,7.0,1.404644699767232,1397.1013167002238,None,1397.1013167002238,None,1397.1013167002238,None,1397.1013167002238,None,None,None,1398.5245508002117,None,,,,,,,138,f,22,2022_Dec_13_1336,RL,2021.2.3,60.17426476477965,
1,54,0,54,0,,,,,,,,,,,,,,,None,None,None,None,None,1400.4701740001328,None,1400.4701740001328,None,1400.4701740001328,None,1400.4701740001328,None,i,0.23513139970600605,1400.4701740001328,None,1400.4701740001328,None,1400.7479113000445,None,1400.7479113000445,None,1400.7479113000445,None,1400.7479113000445,None,1400.7479113000445,None,1400.7479113000445,None,1401.0358330002055,None,1401.0358330002055,None,1402.570665200241,None,1402.570665200241,None,1402.570665200241,None,1402.570665200241,None,1402.570665200241,None,1402.570665200241,None,1402.570665200241,None,1402.570665200241,None,1402.570665200241,None,72,52,50,66,50,50,1405.0804404001683,None,7.0,1.3203714997507632,1405.0804404001683,None,1405.0804404001683,None,1405.0804404001683,None,1405.0804404001683,None,None,None,1406.4198111998849,None,,,,,,,138,f,22,2022_Dec_13_1336,RL,2021.2.3,60.17426476477965,
1,55,0,55,0,,,,,,,,,,,,,,,None,None,None,None,None,1408.3157429001294,None,1408.3157429001294,None,1408.3157429001294,None,1408.3157429001294,None,i,0.320125600323081,1408.3157429001294,None,1408.3157429001294,None,1408.6753027001396,None,1408.6753027001396,None,1408.6753027001396,None,1408.6753027001396,None,1408.6753027001396,None,1408.6753027001396,None,1408.9643752998672,1410.7754319002852,1408.9643752998672,1410.7754319002852,1410.7937917001545,None,1410.7937917001545,None,1410.7937917001545,None,1410.7937917001545,None,1410.7937917001545,None,1410.7937917001545,None,1410.7937917001545,None,1410.7937917001545,None,1410.7937917001545,None,63,43,56,68,56,50,1413.303588599898,None,7.0,1.5073032998479903,1413.303588599898,None,1413.303588599898,None,1413.303588599898,None,1413.303588599898,None,None,None,1414.830234200228,None,,,,,,,138,f,22,2022_Dec_13_1336,RL,2021.2.3,60.17426476477965,
1,56,0,56,0,,,,,,,,,,,,,,,None,None,None,None,None,1416.3936592000537,None,1416.3936592000537,None,1416.3936592000537,None,1416.3936592000537,None,i,0.502116700168699,1416.3936592000537,None,1416.3936592000537,None,1416.9354014000855,None,1416.9354014000855,None,1416.9354014000855,None,1416.9354014000855,None,1416.9354014000855,None,1416.9354014000855,None,1417.2250609998591,None,1417.2250609998591,None,1418.6582617000677,None,1418.6582617000677,None,1418.6582617000677,None,1418.6582617000677,None,1418.6582617000677,None,1418.6582617000677,None,1418.6582617000677,None,1418.6582617000677,None,1418.6582617000677,None,61,58,60,70,60,55,1421.167799900286,None,7.0,1.555247100070119,1421.167799900286,None,1421.167799900286,None,1421.167799900286,None,1421.167799900286,None,None,None,1422.7418634002097,None,,,,,,,138,f,22,2022_Dec_13_1336,RL,2021.2.3,60.17426476477965,
1,57,0,57,0,,,,,,,,,,,,,,,None,None,None,None,None,1424.5214141001925,None,1424.5214141001925,None,1424.5214141001925,None,1424.5214141001925,None,i,0.3314000996761024,1424.5214141001925,None,1424.5214141001925,None,1424.8836869001389,None,1424.8836869001389,None,1424.8836869001389,None,1424.8836869001389,None,1424.8836869001389,None,1424.8836869001389,None,1425.170047200285,1426.7488931999542,1425.170047200285,1426.7488931999542,1426.77041119989,None,1426.77041119989,None,1426.77041119989,None,1426.77041119989,None,1426.77041119989,None,1426.77041119989,None,1426.77041119989,None,1426.77041119989,None,1426.77041119989,None,59,47,61,67,61,67,1429.279948499985,None,5.0,2.369737199973315,1429.279948499985,None,1429.279948499985,None,1429.279948499985,None,1429.279948499985,None,None,None,1431.6676912000403,None,,,,,,,138,f,22,2022_Dec_13_1336,RL,2021.2.3,60.17426476477965,
1,58,0,58,0,,,,,,,,,,,,,,,None,None,None,None,None,1433.2308847000822,None,1433.2308847000822,None,1433.2308847000822,None,1433.2308847000822,None,j,0.6324413996189833,1433.2308847000822,None,1433.2308847000822,None,1433.8925530998968,None,1433.8925530998968,None,1433.8925530998968,None,1433.8925530998968,None,1433.8925530998968,None,1433.8925530998968,None,1434.1786854001693,1435.6076855002902,1434.1786854001693,1435.6076855002902,1435.628566400148,None,1435.628566400148,None,1435.628566400148,None,1435.628566400148,None,1435.628566400148,None,1435.628566400148,None,1435.628566400148,None,1435.628566400148,None,1435.628566400148,None,68,48,61,69,69,53,1438.144306300208,None,7.0,1.3164901998825371,1438.144306300208,None,1438.144306300208,None,1438.144306300208,None,1438.144306300208,None,None,None,1439.4795508999377,None,,,,,,,138,f,22,2022_Dec_13_1336,RL,2021.2.3,60.17426476477965,
1,59,0,59,0,,,,,,,,,,,,,,,None,None,None,None,None,1441.1591958999634,None,1441.1591958999634,None,1441.1591958999634,None,1441.1591958999634,None,j,0.42374640004709363,1441.1591958999634,None,1441.1591958999634,None,1441.618139500264,None,1441.618139500264,None,1441.618139500264,None,1441.618139500264,None,1441.618139500264,None,1441.618139500264,None,1441.9075164999813,None,1441.9075164999813,None,1443.0417261002585,None,1443.0417261002585,None,1443.0417261002585,None,1443.0417261002585,None,1443.0417261002585,None,1443.0417261002585,None,1443.0417261002585,None,1443.0417261002585,None,1443.0417261002585,None,54,44,61,60,60,29,1445.5506175998598,None,7.0,1.5888256002217531,1445.5506175998598,None,1445.5506175998598,None,1445.5506175998598,None,1445.5506175998598,None,None,None,1447.158804200124,None,,,,,,,138,f,22,2022_Dec_13_1336,RL,2021.2.3,60.17426476477965,
1,60,0,60,0,,,,,,,,,,,,,,,None,None,None,None,None,1449.1041172998957,None,1449.1041172998957,None,1449.1041172998957,None,1449.1041172998957,None,j,0.7439375999383628,1449.1041172998957,None,1449.1041172998957,None,1449.8815510002896,None,1449.8815510002896,None,1449.8815510002896,None,1449.8815510002896,None,1449.8815510002896,None,1449.8815510002896,None,1450.1681009000167,1451.8635742999613,1450.1681009000167,1451.8635742999613,1451.8846913999878,None,1451.8846913999878,None,1451.8846913999878,None,1451.8846913999878,None,1451.8846913999878,None,1451.8846913999878,None,1451.8846913999878,None,1451.8846913999878,None,1451.8846913999878,None,71,42,54,75,75,61,1454.3978300001472,None,7.0,0.8867235002107918,1454.3978300001472,None,1454.3978300001472,None,1454.3978300001472,None,1454.3978300001472,None,None,None,1455.3030861001462,None,,,,,,,138,f,22,2022_Dec_13_1336,RL,2021.2.3,60.17426476477965,
1,61,0,61,0,,,,,,,,,,,,,,,None,None,None,None,None,1457.1823074999265,None,1457.1823074999265,None,1457.1823074999265,None,1457.1823074999265,None,j,0.627741000149399,1457.1823074999265,None,1457.1823074999265,None,1457.8422198002227,None,1457.8422198002227,None,1457.8422198002227,None,1457.8422198002227,None,1457.8422198002227,None,1457.8422198002227,None,1458.1302899001166,None,1458.1302899001166,None,1459.8444189000875,None,1459.8444189000875,None,1459.8444189000875,None,1459.8444189000875,None,1459.8444189000875,None,1459.8444189000875,None,1459.8444189000875,None,1459.8444189000875,None,1459.8444189000875,None,62,42,56,74,74,58,1462.35757930018,None,7.0,0.43967430014163256,1462.35757930018,None,1462.35757930018,None,1462.35757930018,None,1462.35757930018,None,None,None,1462.8159509999678,None,,,,,,,138,f,22,2022_Dec_13_1336,RL,2021.2.3,60.17426476477965,
1,62,0,62,0,,,,,,,,,,,,,,,None,None,None,None,None,1464.5120597002096,None,1464.5120597002096,None,1464.5120597002096,None,1464.5120597002096,None,j,0.2672983999364078,1464.5120597002096,None,1464.5120597002096,None,1464.805835899897,None,1464.805835899897,None,1464.805835899897,None,1464.805835899897,None,1464.805835899897,None,1464.805835899897,None,1465.0941419000737,1466.8062460999936,1465.0941419000737,1466.8062460999936,1466.8284546001814,None,1466.8284546001814,None,1466.8284546001814,None,1466.8284546001814,None,1466.8284546001814,None,1466.8284546001814,None,1466.8284546001814,None,1466.8284546001814,None,1466.8284546001814,None,60,57,60,54,54,53,1469.3399533000775,None,5.0,0.9874202003702521,1469.3399533000775,None,1469.3399533000775,None,1469.3399533000775,None,1469.3399533000775,None,None,None,1470.3456938001327,None,,,,,,,138,f,22,2022_Dec_13_1336,RL,2021.2.3,60.17426476477965,
1,63,0,63,0,,,,,,,,,,,,,,,None,None,None,None,None,1472.0085634998977,None,1472.0085634998977,None,1472.0085634998977,None,1472.0085634998977,None,i,0.309973600320518,1472.0085634998977,None,1472.0085634998977,None,1472.3553279000334,None,1472.3553279000334,None,1472.3553279000334,None,1472.3553279000334,None,1472.3553279000334,None,1472.3553279000334,None,1472.6402921001427,1474.0529294000007,1472.6402921001427,1474.0529294000007,1474.072374700103,None,1474.072374700103,None,1474.072374700103,None,1474.072374700103,None,1474.072374700103,None,1474.072374700103,None,1474.072374700103,None,1474.072374700103,None,1474.072374700103,None,58,52,62,57,62,60,1476.5830971002579,None,7.0,1.2060493999160826,1476.5830971002579,None,1476.5830971002579,None,1476.5830971002579,None,1476.5830971002579,None,None,None,1477.8084809002466,None,,,,,,,138,f,22,2022_Dec_13_1336,RL,2021.2.3,60.17426476477965,
1,64,0,64,0,,,,,,,,,,,,,,,None,None,None,None,None,1479.4710837001912,None,1479.4710837001912,None,1479.4710837001912,None,1479.4710837001912,None,j,0.26487169973552227,1479.4710837001912,None,1479.4710837001912,None,1479.7635011002421,None,1479.7635011002421,None,1479.7635011002421,None,1479.7635011002421,None,1479.7635011002421,None,1479.7635011002421,None,1480.0534071000293,1481.0672929002903,1480.0534071000293,1481.0672929002903,1481.0880944998935,None,1481.0880944998935,None,1481.0880944998935,None,1481.0880944998935,None,1481.0880944998935,None,1481.0880944998935,None,1481.0880944998935,None,1481.0880944998935,None,1481.0880944998935,None,58,56,54,53,53,56,1483.5974995000288,None,3.0,2.0072456998750567,1483.5974995000288,None,1483.5974995000288,None,1483.5974995000288,None,1483.5974995000288,None,None,None,1485.620928300079,None,,,,,,,138,f,22,2022_Dec_13_1336,RL,2021.2.3,60.17426476477965,
1,65,0,65,0,,,,,,,,,,,,,,,None,None,None,None,None,1487.433026399929,None,1487.433026399929,None,1487.433026399929,None,1487.433026399929,None,i,0.33998019993305206,1487.433026399929,None,1487.433026399929,None,1487.8114169999026,None,1487.8114169999026,None,1487.8114169999026,None,1487.8114169999026,None,1487.8114169999026,None,1487.8114169999026,None,1488.0980547000654,None,1488.0980547000654,None,1489.4815127002075,None,1489.4815127002075,None,1489.4815127002075,None,1489.4815127002075,None,1489.4815127002075,None,1489.4815127002075,None,1489.4815127002075,None,1489.4815127002075,None,1489.4815127002075,None,66,51,62,53,62,48,1491.9925412000157,None,7.0,1.9362339000217617,1491.9925412000157,None,1491.9925412000157,None,1491.9925412000157,None,1491.9925412000157,None,None,None,1493.9478601003066,None,,,,,,,138,f,22,2022_Dec_13_1336,RL,2021.2.3,60.17426476477965,
1,66,0,66,0,,,,,,,,,,,,,,,None,None,None,None,None,1495.4775308002718,None,1495.4775308002718,None,1495.4775308002718,None,1495.4775308002718,None,f,0.4573063999414444,1495.4775308002718,None,1495.4775308002718,None,1495.9729166002944,None,1495.9729166002944,None,1495.9729166002944,None,1495.9729166002944,None,1495.9729166002944,None,1495.9729166002944,None,1496.2589890998788,1498.0045312000439,1496.2589890998788,1498.0045312000439,1498.0263418001123,None,1498.0263418001123,None,1498.0263418001123,None,1498.0263418001123,None,1498.0263418001123,None,1498.0263418001123,None,1498.0263418001123,None,1498.0263418001123,None,1498.0263418001123,None,61,53,61,49,53,51,1500.536632400006,None,4.0,2.9815050000324845,1500.536632400006,None,1500.536632400006,None,1500.536632400006,None,1500.536632400006,None,None,None,1503.5380978002213,None,,,,,,,138,f,22,2022_Dec_13_1336,RL,2021.2.3,60.17426476477965,
1,67,0,67,0,,,,,,,,,,,,,,,None,None,None,None,None,1505.4504269002937,None,1505.4504269002937,None,1505.4504269002937,None,1505.4504269002937,None,r,0.3143156999722123,1505.4504269002937,None,1505.4504269002937,None,1505.795949399937,None,1505.795949399937,None,1505.795949399937,None,1505.795949399937,None,1505.795949399937,None,1505.795949399937,None,1506.082619199995,1507.6946911001578,1506.082619199995,1507.6946911001578,1507.717060400173,None,1507.717060400173,None,1507.717060400173,None,1507.717060400173,None,1507.717060400173,None,1507.717060400173,None,1507.717060400173,None,1507.717060400173,None,1507.717060400173,None,61,50,58,51,61,32,1510.226022399962,None,6.0,1.1069708997383714,1510.226022399962,None,1510.226022399962,None,1510.226022399962,None,1510.226022399962,None,None,None,1511.3502001999877,None,,,,,,,138,f,22,2022_Dec_13_1336,RL,2021.2.3,60.17426476477965,
1,68,0,68,0,,,,,,,,,,,,,,,None,None,None,None,None,1512.8802470001392,None,1512.8802470001392,None,1512.8802470001392,None,1512.8802470001392,None,i,0.3644953998737037,1512.8802470001392,None,1512.8802470001392,None,1513.2747368998826,None,1513.2747368998826,None,1513.2747368998826,None,1513.2747368998826,None,1513.2747368998826,None,1513.2747368998826,None,1513.5617530001327,1514.7418802999891,1513.5617530001327,1514.7418802999891,1514.7628454002552,None,1514.7628454002552,None,1514.7628454002552,None,1514.7628454002552,None,1514.7628454002552,None,1514.7628454002552,None,1514.7628454002552,None,1514.7628454002552,None,1514.7628454002552,None,54,49,49,64,49,32,1517.2753447000869,None,3.0,1.551272299606353,1517.2753447000869,None,1517.2753447000869,None,1517.2753447000869,None,1517.2753447000869,None,None,None,1518.8463583001867,None,,,,,,,138,f,22,2022_Dec_13_1336,RL,2021.2.3,60.17426476477965,
1,69,0,69,0,,,,,,,,,,,,,,,None,None,None,None,None,1520.8253796002828,None,1520.8253796002828,None,1520.8253796002828,None,1520.8253796002828,None,j,0.38105469988659024,1520.8253796002828,None,1520.8253796002828,None,1521.2353416001424,None,1521.2353416001424,None,1521.2353416001424,None,1521.2353416001424,None,1521.2353416001424,None,1521.2353416001424,None,1521.5238602003083,1522.769801700022,1521.5238602003083,1522.769801700022,1522.7910380000249,None,1522.7910380000249,None,1522.7910380000249,None,1522.7910380000249,None,1522.7910380000249,None,1522.7910380000249,None,1522.7910380000249,None,1522.7910380000249,None,1522.7910380000249,None,45,52,59,55,55,57,1525.302205900196,None,4.0,0.8886681003496051,1525.302205900196,None,1525.302205900196,None,1525.302205900196,None,1525.302205900196,None,None,None,1526.209626799915,None,,,,,,,138,f,22,2022_Dec_13_1336,RL,2021.2.3,60.17426476477965,
1,70,0,70,0,,,,,,,,,,,,,,,None,None,None,None,None,1527.789767500013,None,1527.789767500013,None,1527.789767500013,None,1527.789767500013,None,i,0.43577179964631796,1527.789767500013,None,1527.789767500013,None,1528.265283100307,None,1528.265283100307,None,1528.265283100307,None,1528.265283100307,None,1528.265283100307,None,1528.265283100307,None,1528.5546777001582,1529.385095000267,1528.5546777001582,1529.385095000267,1529.4037729999982,None,1529.4037729999982,None,1529.4037729999982,None,1529.4037729999982,None,1529.4037729999982,None,1529.4037729999982,None,1529.4037729999982,None,1529.4037729999982,None,1529.4037729999982,None,54,49,63,53,63,41,1531.9154838002287,None,7.0,0.6760537000373006,1531.9154838002287,None,1531.9154838002287,None,1531.9154838002287,None,1531.9154838002287,None,None,None,1532.6090402002446,None,,,,,,,138,f,22,2022_Dec_13_1336,RL,2021.2.3,60.17426476477965,
1,71,0,71,0,,,,,,,,,,,,,,,None,None,None,None,None,1534.4876488000154,None,1534.4876488000154,None,1534.4876488000154,None,1534.4876488000154,None,i,0.27683279989287257,1534.4876488000154,None,1534.4876488000154,None,1534.798980299849,None,1534.798980299849,None,1534.798980299849,None,1534.798980299849,None,1534.798980299849,None,1534.798980299849,None,1535.0867853001691,1536.3164602001198,1535.0867853001691,1536.3164602001198,1536.3377840998583,None,1536.3377840998583,None,1536.3377840998583,None,1536.3377840998583,None,1536.3377840998583,None,1536.3377840998583,None,1536.3377840998583,None,1536.3377840998583,None,1536.3377840998583,None,54,41,69,59,69,45,1538.8483195998706,None,7.0,0.4741364996880293,1538.8483195998706,None,1538.8483195998706,None,1538.8483195998706,None,1538.8483195998706,None,None,None,1539.3405166999437,None,,,,,,,138,f,22,2022_Dec_13_1336,RL,2021.2.3,60.17426476477965,
1,72,0,72,0,,,,,,,,,,,,,,,None,None,None,None,None,1541.2194730001502,None,1541.2194730001502,None,1541.2194730001502,None,1541.2194730001502,None,i,0.2345091002061963,1541.2194730001502,None,1541.2194730001502,None,1541.497547000181,None,1541.497547000181,None,1541.497547000181,None,1541.497547000181,None,1541.497547000181,None,1541.497547000181,None,1541.785077100154,1542.9981261002831,1541.785077100154,1542.9981261002831,1543.01877540024,None,1543.01877540024,None,1543.01877540024,None,1543.01877540024,None,1543.01877540024,None,1543.01877540024,None,1543.01877540024,None,1543.01877540024,None,1543.01877540024,None,59,51,63,67,63,60,1545.5284207998775,None,7.0,0.3911599996499717,1545.5284207998775,None,1545.5284207998775,None,1545.5284207998775,None,1545.5284207998775,None,None,None,1545.939309200272,None,,,,,,,138,f,22,2022_Dec_13_1336,RL,2021.2.3,60.17426476477965,
1,73,0,73,0,,,,,,,,,,,,,,,None,None,None,None,None,1547.4859923999757,None,1547.4859923999757,None,1547.4859923999757,None,1547.4859923999757,None,i,0.3815993000753224,1547.4859923999757,None,1547.4859923999757,None,1547.8932707002386,None,1547.8932707002386,None,1547.8932707002386,None,1547.8932707002386,None,1547.8932707002386,None,1547.8932707002386,None,1548.1843497999944,1549.4307011002675,1548.1843497999944,1549.4307011002675,1549.4512501000427,None,1549.4512501000427,None,1549.4512501000427,None,1549.4512501000427,None,1549.4512501000427,None,1549.4512501000427,None,1549.4512501000427,None,1549.4512501000427,None,1549.4512501000427,None,53,50,64,56,64,60,1551.963000799995,None,7.0,0.4385791998356581,1551.963000799995,None,1551.963000799995,None,1551.963000799995,None,1551.963000799995,None,None,None,1552.4213828002103,None,,,,,,,138,f,22,2022_Dec_13_1336,RL,2021.2.3,60.17426476477965,
1,74,0,74,0,,,,,,,,,,,,,,,None,None,None,None,None,1554.2338268002495,None,1554.2338268002495,None,1554.2338268002495,None,1554.2338268002495,None,i,0.28320250008255243,1554.2338268002495,None,1554.2338268002495,None,1554.5437497003004,None,1554.5437497003004,None,1554.5437497003004,None,1554.5437497003004,None,1554.5437497003004,None,1554.5437497003004,None,1554.8325669001788,1556.8273736000992,1554.8325669001788,1556.8273736000992,1556.8485329998657,None,1556.8485329998657,None,1556.8485329998657,None,1556.8485329998657,None,1556.8485329998657,None,1556.8485329998657,None,1556.8485329998657,None,1556.8485329998657,None,1556.8485329998657,None,51,49,69,65,69,53,1559.3588751000352,None,7.0,0.522853100206703,1559.3588751000352,None,1559.3588751000352,None,1559.3588751000352,None,1559.3588751000352,None,None,None,1559.9009591001086,None,,,,,,,138,f,22,2022_Dec_13_1336,RL,2021.2.3,60.17426476477965,
1,75,0,75,0,,,,,,,,,,,,,,,1561.4807800999843,None,q,1561.4807800999843,None,1613.1896953000687,None,1613.1896953000687,None,1613.1896953000687,None,1613.1896953000687,None,None,,1613.1896953000687,None,1613.1896953000687,None,None,None,None,None,None,None,None,None,None,None,None,None,None,None,None,None,None,None,None,None,None,None,None,None,None,None,None,None,None,None,None,None,None,None,62,43,66,61,0,**,None,None,None,None,None,None,None,None,None,None,None,None,1614.7357994001359,None,1619.2394308000803,None,51.68394139967859,,,,,,138,f,22,2022_Dec_13_1336,RL,2021.2.3,60.17426476477965,
1,76,0,76,0,,,,,,,,,,,,,,,None,None,None,None,None,1620.9855189998634,None,1620.9855189998634,None,1620.9855189998634,None,1620.9855189998634,None,i,0.8303964999504387,1620.9855189998634,None,1620.9855189998634,None,1621.8446113001555,None,1621.8446113001555,None,1621.8446113001555,None,1621.8446113001555,None,1621.8446113001555,None,1621.8446113001555,None,1622.1325850998983,1623.727927400265,1622.1325850998983,1623.727927400265,1623.7514818999916,None,1623.7514818999916,None,1623.7514818999916,None,1623.7514818999916,None,1623.7514818999916,None,1623.7514818999916,None,1623.7514818999916,None,1623.7514818999916,None,1623.7514818999916,None,60,54,64,61,64,61,1626.262158700265,None,7.0,0.8526272997260094,1626.262158700265,None,1626.262158700265,None,1626.262158700265,None,1626.262158700265,None,None,None,1627.134415499866,None,,,,,,,138,f,22,2022_Dec_13_1336,RL,2021.2.3,60.17426476477965,
1,77,0,77,0,,,,,,,,,,,,,,,None,None,None,None,None,1629.0964575000107,None,1629.0964575000107,None,1629.0964575000107,None,1629.0964575000107,None,i,0.3423405000939965,1629.0964575000107,None,1629.0964575000107,None,1629.4746985998936,None,1629.4746985998936,None,1629.4746985998936,None,1629.4746985998936,None,1629.4746985998936,None,1629.4746985998936,None,1629.7616973002441,1630.576339200139,1629.7616973002441,1630.576339200139,1630.5968026001938,None,1630.5968026001938,None,1630.5968026001938,None,1630.5968026001938,None,1630.5968026001938,None,1630.5968026001938,None,1630.5968026001938,None,1630.5968026001938,None,1630.5968026001938,None,64,46,67,63,67,59,1633.1088117999025,None,7.0,0.4223667997866869,1633.1088117999025,None,1633.1088117999025,None,1633.1088117999025,None,1633.1088117999025,None,None,None,1633.5501492000185,None,,,,,,,138,f,22,2022_Dec_13_1336,RL,2021.2.3,60.17426476477965,
1,78,0,78,0,,,,,,,,,,,,,,,None,None,None,None,None,1635.196460899897,None,1635.196460899897,None,1635.196460899897,None,1635.196460899897,None,i,0.2882982003502548,1635.196460899897,None,1635.196460899897,None,1635.5234811999835,None,1635.5234811999835,None,1635.5234811999835,None,1635.5234811999835,None,1635.5234811999835,None,1635.5234811999835,None,1635.8115480002016,None,1635.8115480002016,None,1637.776761200279,None,1637.776761200279,None,1637.776761200279,None,1637.776761200279,None,1637.776761200279,None,1637.776761200279,None,1637.776761200279,None,1637.776761200279,None,1637.776761200279,None,58,42,64,61,64,58,1640.2852266998962,None,7.0,0.41078720008954406,1640.2852266998962,None,1640.2852266998962,None,1640.2852266998962,None,1640.2852266998962,None,None,None,1640.7139226002619,None,,,,,,,138,f,22,2022_Dec_13_1336,RL,2021.2.3,60.17426476477965,
1,79,0,79,0,,,,,,,,,,,,,,,None,None,None,None,None,1642.559632500168,None,1642.559632500168,None,1642.559632500168,None,1642.559632500168,None,i,0.21458759997040033,1642.559632500168,None,1642.559632500168,None,1642.8025516001508,None,1642.8025516001508,None,1642.8025516001508,None,1642.8025516001508,None,1642.8025516001508,None,1642.8025516001508,None,1643.0921755000018,1644.0390619002283,1643.0921755000018,1644.0390619002283,1644.0623339000158,None,1644.0623339000158,None,1644.0623339000158,None,1644.0623339000158,None,1644.0623339000158,None,1644.0623339000158,None,1644.0623339000158,None,1644.0623339000158,None,1644.0623339000158,None,57,39,57,66,57,53,1646.5710169002414,None,7.0,0.42246099980548024,1646.5710169002414,None,1646.5710169002414,None,1646.5710169002414,None,1646.5710169002414,None,None,None,1647.013435000088,None,,,,,,,138,f,22,2022_Dec_13_1336,RL,2021.2.3,60.17426476477965,
1,80,0,80,0,,,,,,,,,,,,,,,None,None,None,None,None,1648.8761204001494,None,1648.8761204001494,None,1648.8761204001494,None,1648.8761204001494,None,i,0.2121120998635888,1648.8761204001494,None,1648.8761204001494,None,1649.1204522000626,None,1649.1204522000626,None,1649.1204522000626,None,1649.1204522000626,None,1649.1204522000626,None,1649.1204522000626,None,1649.4079265003093,1650.8039259002544,1649.4079265003093,1650.8039259002544,1650.8245017998852,None,1650.8245017998852,None,1650.8245017998852,None,1650.8245017998852,None,1650.8245017998852,None,1650.8245017998852,None,1650.8245017998852,None,1650.8245017998852,None,1650.8245017998852,None,58,51,55,68,55,59,1653.3340791999362,None,5.0,0.7092233998700976,1653.3340791999362,None,1653.3340791999362,None,1653.3340791999362,None,1653.3340791999362,None,None,None,1654.0613421001472,None,,,,,,,138,f,22,2022_Dec_13_1336,RL,2021.2.3,60.17426476477965,
1,81,0,81,0,,,,,,,,,,,,,,,None,None,None,None,None,1655.9231512001716,None,1655.9231512001716,None,1655.9231512001716,None,1655.9231512001716,None,j,0.28852719999849796,1655.9231512001716,None,1655.9231512001716,None,1656.2512223999947,None,1656.2512223999947,None,1656.2512223999947,None,1656.2512223999947,None,1656.2512223999947,None,1656.2512223999947,None,1656.538625600282,None,1656.538625600282,None,1658.0548455999233,None,1658.0548455999233,None,1658.0548455999233,None,1658.0548455999233,None,1658.0548455999233,None,1658.0548455999233,None,1658.0548455999233,None,1658.0548455999233,None,1658.0548455999233,None,57,36,56,72,72,51,1660.5661094002426,None,7.0,0.8922831998206675,1660.5661094002426,None,1660.5661094002426,None,1660.5661094002426,None,1660.5661094002426,None,None,None,1661.4743095999584,None,,,,,,,138,f,22,2022_Dec_13_1336,RL,2021.2.3,60.17426476477965,
1,82,0,82,0,,,,,,,,,,,,,,,None,None,None,None,None,1662.9875205000862,None,1662.9875205000862,None,1662.9875205000862,None,1662.9875205000862,None,j,0.4827531003393233,1662.9875205000862,None,1662.9875205000862,None,1663.498911799863,None,1663.498911799863,None,1663.498911799863,None,1663.498911799863,None,1663.498911799863,None,1663.498911799863,None,1663.785454500001,1664.9321662001312,1663.785454500001,1664.9321662001312,1664.953044900205,None,1664.953044900205,None,1664.953044900205,None,1664.953044900205,None,1664.953044900205,None,1664.953044900205,None,1664.953044900205,None,1664.953044900205,None,1664.953044900205,None,47,43,51,65,65,58,1667.465545500163,None,7.0,1.2045843000523746,1667.465545500163,None,1667.465545500163,None,1667.465545500163,None,1667.465545500163,None,None,None,1668.6877741999924,None,,,,,,,138,f,22,2022_Dec_13_1336,RL,2021.2.3,60.17426476477965,
1,83,0,83,0,,,,,,,,,,,,,,,None,None,None,None,None,1670.5499033001252,None,1670.5499033001252,None,1670.5499033001252,None,1670.5499033001252,None,j,0.3697005999274552,1670.5499033001252,None,1670.5499033001252,None,1670.963901199866,None,1670.963901199866,None,1670.963901199866,None,1670.963901199866,None,1670.963901199866,None,1670.963901199866,None,1671.2483760998584,1673.2098782001995,1671.2483760998584,1673.2098782001995,1673.2311676000245,None,1673.2311676000245,None,1673.2311676000245,None,1673.2311676000245,None,1673.2311676000245,None,1673.2311676000245,None,1673.2311676000245,None,1673.2311676000245,None,1673.2311676000245,None,57,39,57,73,73,55,1675.7424888000824,None,7.0,0.47275030007585883,1675.7424888000824,None,1675.7424888000824,None,1675.7424888000824,None,1675.7424888000824,None,None,None,1676.233852900099,None,,,,,,,138,f,22,2022_Dec_13_1336,RL,2021.2.3,60.17426476477965,
1,84,0,84,0,,,,,,,,,,,,,,,None,None,None,None,None,1677.764094099868,None,1677.764094099868,None,1677.764094099868,None,1677.764094099868,None,j,0.3079645000398159,1677.764094099868,None,1677.764094099868,None,1678.1069634002633,None,1678.1069634002633,None,1678.1069634002633,None,1678.1069634002633,None,1678.1069634002633,None,1678.1069634002633,None,1678.396081900224,1680.2239696001634,1678.396081900224,1680.2239696001634,1680.2426396999508,None,1680.2426396999508,None,1680.2426396999508,None,1680.2426396999508,None,1680.2426396999508,None,1680.2426396999508,None,1680.2426396999508,None,1680.2426396999508,None,1680.2426396999508,None,56,38,58,73,73,46,1682.7545415000059,None,7.0,0.39502029959112406,1682.7545415000059,None,1682.7545415000059,None,1682.7545415000059,None,1682.7545415000059,None,None,None,1683.1649203002453,None,,,,,,,138,f,22,2022_Dec_13_1336,RL,2021.2.3,60.17426476477965,
1,85,0,85,0,,,,,,,,,,,,,,,None,None,None,None,None,1684.877662899904,None,1684.877662899904,None,1684.877662899904,None,1684.877662899904,None,j,0.2777652000077069,1684.877662899904,None,1684.877662899904,None,1685.1874061999843,None,1685.1874061999843,None,1685.1874061999843,None,1685.1874061999843,None,1685.1874061999843,None,1685.1874061999843,None,1685.4762788000517,None,1685.4762788000517,None,1686.676462800242,None,1686.676462800242,None,1686.676462800242,None,1686.676462800242,None,1686.676462800242,None,1686.676462800242,None,1686.676462800242,None,1686.676462800242,None,1686.676462800242,None,51,35,58,75,75,38,1689.1854028999805,None,7.0,0.5418552998453379,1689.1854028999805,None,1689.1854028999805,None,1689.1854028999805,None,1689.1854028999805,None,None,None,1689.7472533001564,None,,,,,,,138,f,22,2022_Dec_13_1336,RL,2021.2.3,60.17426476477965,
1,86,0,86,0,,,,,,,,,,,,,,,None,None,None,None,None,1691.6589307999238,None,1691.6589307999238,None,1691.6589307999238,None,1691.6589307999238,None,i,0.31157679995521903,1691.6589307999238,None,1691.6589307999238,None,1692.0020878999494,None,1692.0020878999494,None,1692.0020878999494,None,1692.0020878999494,None,1692.0020878999494,None,1692.0020878999494,None,1692.2910466999747,1693.1550925001502,1692.2910466999747,1693.1550925001502,1693.1757259001024,None,1693.1757259001024,None,1693.1757259001024,None,1693.1757259001024,None,1693.1757259001024,None,1693.1757259001024,None,1693.1757259001024,None,1693.1757259001024,None,1693.1757259001024,None,50,38,58,67,58,51,1695.6882143998519,None,7.0,0.40568859968334436,1695.6882143998519,None,1695.6882143998519,None,1695.6882143998519,None,1695.6882143998519,None,None,None,1696.1130794002675,None,,,,,,,138,f,22,2022_Dec_13_1336,RL,2021.2.3,60.17426476477965,
1,87,0,87,0,,,,,,,,,,,,,,,None,None,None,None,None,1697.7595138000324,None,1697.7595138000324,None,1697.7595138000324,None,1697.7595138000324,None,j,0.2909953002817929,1697.7595138000324,None,1697.7595138000324,None,1698.0862953001633,None,1698.0862953001633,None,1698.0862953001633,None,1698.0862953001633,None,1698.0862953001633,None,1698.0862953001633,None,1698.3748197001405,1699.521013500169,1698.3748197001405,1699.521013500169,1699.5415684999898,None,1699.5415684999898,None,1699.5415684999898,None,1699.5415684999898,None,1699.5415684999898,None,1699.5415684999898,None,1699.5415684999898,None,1699.5415684999898,None,1699.5415684999898,None,53,41,56,68,68,48,1702.0502549000084,None,7.0,0.4257398000918329,1702.0502549000084,None,1702.0502549000084,None,1702.0502549000084,None,1702.0502549000084,None,None,None,1702.4955370002426,None,,,,,,,138,f,22,2022_Dec_13_1336,RL,2021.2.3,60.17426476477965,
1,88,0,88,0,,,,,,,,,,,,,,,None,None,None,None,None,1704.1921449000947,None,1704.1921449000947,None,1704.1921449000947,None,1704.1921449000947,None,j,0.20831829961389303,1704.1921449000947,None,1704.1921449000947,None,1704.4359729001299,None,1704.4359729001299,None,1704.4359729001299,None,1704.4359729001299,None,1704.4359729001299,None,1704.4359729001299,None,1704.7239808999002,1706.0201091002673,1704.7239808999002,1706.0201091002673,1706.0411133999005,None,1706.0411133999005,None,1706.0411133999005,None,1706.0411133999005,None,1706.0411133999005,None,1706.0411133999005,None,1706.0411133999005,None,1706.0411133999005,None,1706.0411133999005,None,57,36,50,73,73,54,1708.5529750999995,None,7.0,0.45604259986430407,1708.5529750999995,None,1708.5529750999995,None,1708.5529750999995,None,1708.5529750999995,None,None,None,1709.0277531002648,None,,,,,,,138,f,22,2022_Dec_13_1336,RL,2021.2.3,60.17426476477965,
1,89,0,89,0,,,,,,,,,,,,,,,None,None,None,None,None,1710.9891333002597,None,1710.9891333002597,None,1710.9891333002597,None,1710.9891333002597,None,j,0.20549200009554625,1710.9891333002597,None,1710.9891333002597,None,1711.235976499971,None,1711.235976499971,None,1711.235976499971,None,1711.235976499971,None,1711.235976499971,None,1711.235976499971,None,1711.5218175002374,1712.4860641001724,1711.5218175002374,1712.4860641001724,1712.5059934998862,None,1712.5059934998862,None,1712.5059934998862,None,1712.5059934998862,None,1712.5059934998862,None,1712.5059934998862,None,1712.5059934998862,None,1712.5059934998862,None,1712.5059934998862,None,57,38,52,69,69,46,1715.0174973001704,None,7.0,0.4567347001284361,1715.0174973001704,None,1715.0174973001704,None,1715.0174973001704,None,1715.0174973001704,None,None,None,1715.493219899945,None,,,,,,,138,f,22,2022_Dec_13_1336,RL,2021.2.3,60.17426476477965,
1,90,0,90,0,,,,,,,,,,,,,,,None,None,None,None,None,1717.472634400241,None,1717.472634400241,None,1717.472634400241,None,1717.472634400241,None,j,0.27708169957622886,1717.472634400241,None,1717.472634400241,None,1717.7828919002786,None,1717.7828919002786,None,1717.7828919002786,None,1717.7828919002786,None,1717.7828919002786,None,1717.7828919002786,None,1718.0706333001144,1719.0350267998874,1718.0706333001144,1719.0350267998874,1719.0561353000812,None,1719.0561353000812,None,1719.0561353000812,None,1719.0561353000812,None,1719.0561353000812,None,1719.0561353000812,None,1719.0561353000812,None,1719.0561353000812,None,1719.0561353000812,None,52,41,56,61,61,52,1721.5650736000389,None,7.0,0.4418378002010286,1721.5650736000389,None,1721.5650736000389,None,1721.5650736000389,None,1721.5650736000389,None,None,None,1722.025797500275,None,,,,,,,138,f,22,2022_Dec_13_1336,RL,2021.2.3,60.17426476477965,
1,91,0,91,0,,,,,,,,,,,,,,,None,None,None,None,None,1723.6717900000513,None,1723.6717900000513,None,1723.6717900000513,None,1723.6717900000513,None,j,0.24392829975113273,1723.6717900000513,None,1723.6717900000513,None,1723.9473510999233,None,1723.9473510999233,None,1723.9473510999233,None,1723.9473510999233,None,1723.9473510999233,None,1723.9473510999233,None,1724.2375846998766,1725.616673100274,1724.2375846998766,1725.616673100274,1725.6376489000395,None,1725.6376489000395,None,1725.6376489000395,None,1725.6376489000395,None,1725.6376489000395,None,1725.6376489000395,None,1725.6376489000395,None,1725.6376489000395,None,1725.6376489000395,None,56,47,56,61,61,32,1728.148067700211,None,7.0,0.3893868001177907,1728.148067700211,None,1728.148067700211,None,1728.148067700211,None,1728.148067700211,None,None,None,1728.5580934002064,None,,,,,,,138,f,22,2022_Dec_13_1336,RL,2021.2.3,60.17426476477965,
1,92,0,92,0,,,,,,,,,,,,,,,None,None,None,None,None,1730.5700008999556,None,1730.5700008999556,None,1730.5700008999556,None,1730.5700008999556,None,j,0.21896070009097457,1730.5700008999556,None,1730.5700008999556,None,1730.8295249002986,None,1730.8295249002986,None,1730.8295249002986,None,1730.8295249002986,None,1730.8295249002986,None,1730.8295249002986,None,1731.118797100149,None,1731.118797100149,None,1732.8683949001133,None,1732.8683949001133,None,1732.8683949001133,None,1732.8683949001133,None,1732.8683949001133,None,1732.8683949001133,None,1732.8683949001133,None,1732.8683949001133,None,1732.8683949001133,None,57,44,43,68,68,46,1735.3808444002643,None,7.0,0.6373120998032391,1735.3808444002643,None,1735.3808444002643,None,1735.3808444002643,None,1735.3808444002643,None,None,None,1736.037393100094,None,,,,,,,138,f,22,2022_Dec_13_1336,RL,2021.2.3,60.17426476477965,
1,93,0,93,0,,,,,,,,,,,,,,,None,None,None,None,None,1737.8330641002394,None,1737.8330641002394,None,1737.8330641002394,None,1737.8330641002394,None,j,1.0385380000807345,1737.8330641002394,None,1737.8330641002394,None,1738.906492699869,None,1738.906492699869,None,1738.906492699869,None,1738.906492699869,None,1738.906492699869,None,1738.906492699869,None,1739.1967060999013,1740.57537649991,1739.1967060999013,1740.57537649991,1740.5943112000823,None,1740.5943112000823,None,1740.5943112000823,None,1740.5943112000823,None,1740.5943112000823,None,1740.5943112000823,None,1740.5943112000823,None,1740.5943112000823,None,1740.5943112000823,None,54,42,41,64,64,56,1743.1054254001938,None,7.0,0.35875519970431924,1743.1054254001938,None,1743.1054254001938,None,1743.1054254001938,None,1743.1054254001938,None,None,None,1743.485900899861,None,,,,,,,138,f,22,2022_Dec_13_1336,RL,2021.2.3,60.17426476477965,
1,94,0,94,0,,,,,,,,,,,,,,,None,None,None,None,None,1745.0965574001893,None,1745.0965574001893,None,1745.0965574001893,None,1745.0965574001893,None,j,0.2792563000693917,1745.0965574001893,None,1745.0965574001893,None,1745.4071583002806,None,1745.4071583002806,None,1745.4071583002806,None,1745.4071583002806,None,1745.4071583002806,None,1745.4071583002806,None,1745.6955953002907,None,1745.6955953002907,None,1746.7620807001367,None,1746.7620807001367,None,1746.7620807001367,None,1746.7620807001367,None,1746.7620807001367,None,1746.7620807001367,None,1746.7620807001367,None,1746.7620807001367,None,1746.7620807001367,None,57,46,46,69,69,50,1749.273299800232,None,7.0,0.45756669994443655,1749.273299800232,None,1749.273299800232,None,1749.273299800232,None,1749.273299800232,None,None,None,1749.7496601999737,None,,,,,,,138,f,22,2022_Dec_13_1336,RL,2021.2.3,60.17426476477965,
1,95,0,95,0,,,,,,,,,,,,,,,None,None,None,None,None,1751.3961839000694,None,1751.3961839000694,None,1751.3961839000694,None,1751.3961839000694,None,j,0.19956889981403947,1751.3961839000694,None,1751.3961839000694,None,1751.622856200207,None,1751.622856200207,None,1751.622856200207,None,1751.622856200207,None,1751.622856200207,None,1751.622856200207,None,1751.9117685002275,None,1751.9117685002275,None,1753.3109921999276,None,1753.3109921999276,None,1753.3109921999276,None,1753.3109921999276,None,1753.3109921999276,None,1753.3109921999276,None,1753.3109921999276,None,1753.3109921999276,None,1753.3109921999276,None,56,51,66,69,69,50,1755.8205744000152,None,7.0,0.47602599998936057,1755.8205744000152,None,1755.8205744000152,None,1755.8205744000152,None,1755.8205744000152,None,None,None,1756.315139000304,None,,,,,,,138,f,22,2022_Dec_13_1336,RL,2021.2.3,60.17426476477965,
1,96,0,96,0,,,,,,,,,,,,,,,None,None,None,None,None,1758.0943873003125,None,1758.0943873003125,None,1758.0943873003125,None,1758.0943873003125,None,j,0.23567589977756143,1758.0943873003125,None,1758.0943873003125,None,1758.3728728001006,None,1758.3728728001006,None,1758.3728728001006,None,1758.3728728001006,None,1758.3728728001006,None,1758.3728728001006,None,1758.6598705998622,1760.1227202001028,1758.6598705998622,1760.1227202001028,1760.1448218002915,None,1760.1448218002915,None,1760.1448218002915,None,1760.1448218002915,None,1760.1448218002915,None,1760.1448218002915,None,1760.1448218002915,None,1760.1448218002915,None,1760.1448218002915,None,47,44,48,70,70,57,1762.6550304000266,None,7.0,0.34193839970976114,1762.6550304000266,None,1762.6550304000266,None,1762.6550304000266,None,1762.6550304000266,None,None,None,1763.0137120001018,None,,,,,,,138,f,22,2022_Dec_13_1336,RL,2021.2.3,60.17426476477965,
1,97,0,97,0,,,,,,,,,,,,,,,None,None,None,None,None,1764.9426199998707,None,1764.9426199998707,None,1764.9426199998707,None,1764.9426199998707,None,j,0.1967901000753045,1764.9426199998707,None,1764.9426199998707,None,1765.171062400099,None,1765.171062400099,None,1765.171062400099,None,1765.171062400099,None,1765.171062400099,None,1765.171062400099,None,1765.4581007999368,1766.4219015999697,1765.4581007999368,1766.4219015999697,1766.4428572002798,None,1766.4428572002798,None,1766.4428572002798,None,1766.4428572002798,None,1766.4428572002798,None,1766.4428572002798,None,1766.4428572002798,None,1766.4428572002798,None,1766.4428572002798,None,59,51,55,67,67,53,1768.9538414999843,None,7.0,0.3745222999714315,1768.9538414999843,None,1768.9538414999843,None,1768.9538414999843,None,1768.9538414999843,None,None,None,1769.346864500083,None,,,,,,,138,f,22,2022_Dec_13_1336,RL,2021.2.3,60.17426476477965,
1,98,0,98,0,,,,,,,,,,,,,,,None,None,None,None,None,1770.8764519998804,None,1770.8764519998804,None,1770.8764519998804,None,1770.8764519998804,None,j,0.21822409983724356,1770.8764519998804,None,1770.8764519998804,None,1771.1370592000894,None,1771.1370592000894,None,1771.1370592000894,None,1771.1370592000894,None,1771.1370592000894,None,1771.1370592000894,None,1771.4253883999772,1772.256576300133,1771.4253883999772,1772.256576300133,1772.2769622001797,None,1772.2769622001797,None,1772.2769622001797,None,1772.2769622001797,None,1772.2769622001797,None,1772.2769622001797,None,1772.2769622001797,None,1772.2769622001797,None,1772.2769622001797,None,53,51,47,63,63,49,1774.787122800015,None,7.0,0.4724769997410476,1774.787122800015,None,1774.787122800015,None,1774.787122800015,None,1774.787122800015,None,None,None,1775.2802011999302,None,,,,,,,138,f,22,2022_Dec_13_1336,RL,2021.2.3,60.17426476477965,
1,99,0,99,0,,,,,,,,,,,,,,,None,None,None,None,None,1776.8431624001823,None,1776.8431624001823,None,1776.8431624001823,None,1776.8431624001823,None,j,0.24148879991844296,1776.8431624001823,None,1776.8431624001823,None,1777.120351199992,None,1777.120351199992,None,1777.120351199992,None,1777.120351199992,None,1777.120351199992,None,1777.120351199992,None,1777.4089907002635,1778.7714995001443,1777.4089907002635,1778.7714995001443,1778.7964751999825,None,1778.7964751999825,None,1778.7964751999825,None,1778.7964751999825,None,1778.7964751999825,None,1778.7964751999825,None,1778.7964751999825,None,1778.7964751999825,None,1778.7964751999825,None,59,47,57,59,59,51,1781.3037572000176,None,7.0,0.4575824001803994,1781.3037572000176,None,1781.3037572000176,None,1781.3037572000176,None,1781.3037572000176,None,None,None,1781.7791062998585,None,,,,,,,138,f,22,2022_Dec_13_1336,RL,2021.2.3,60.17426476477965,
1,100,0,100,0,,,,,,,,,,,,,,,None,None,None,None,None,1783.7078845002688,None,1783.7078845002688,None,1783.7078845002688,None,1783.7078845002688,None,i,0.23116569966077805,1783.7078845002688,None,1783.7078845002688,None,1783.9682209002785,None,1783.9682209002785,None,1783.9682209002785,None,1783.9682209002785,None,1783.9682209002785,None,1783.9682209002785,None,1784.2571268002503,1785.7691195001826,1784.2571268002503,1785.7691195001826,1785.7897474998608,None,1785.7897474998608,None,1785.7897474998608,None,1785.7897474998608,None,1785.7897474998608,None,1785.7897474998608,None,1785.7897474998608,None,1785.7897474998608,None,1785.7897474998608,None,64,45,63,69,63,51,1788.3018374000676,None,7.0,0.4093697997741401,1788.3018374000676,None,1788.3018374000676,None,1788.3018374000676,None,1788.3018374000676,None,None,None,1788.7269259998575,None,,,,,,,138,f,22,2022_Dec_13_1336,RL,2021.2.3,60.17426476477965,
1,101,0,101,0,,,,,,,,,,,,,,,None,None,None,None,None,1790.4065354000777,None,1790.4065354000777,None,1790.4065354000777,None,1790.4065354000777,None,j,0.2711563999764621,1790.4065354000777,None,1790.4065354000777,None,1790.7153767002746,None,1790.7153767002746,None,1790.7153767002746,None,1790.7153767002746,None,1790.7153767002746,None,1790.7153767002746,None,1791.0054247002117,1792.2016000999138,1791.0054247002117,1792.2016000999138,1792.2224123999476,None,1792.2224123999476,None,1792.2224123999476,None,1792.2224123999476,None,1792.2224123999476,None,1792.2224123999476,None,1792.2224123999476,None,1792.2224123999476,None,1792.2224123999476,None,62,49,65,55,55,49,1794.732423600275,None,7.0,0.39163789991289377,1794.732423600275,None,1794.732423600275,None,1794.732423600275,None,1794.732423600275,None,None,None,1795.1427949001081,None,,,,,,,138,f,22,2022_Dec_13_1336,RL,2021.2.3,60.17426476477965,
1,102,0,102,0,,,,,,,,,,,,,,,None,None,None,None,None,1796.8720960998908,None,1796.8720960998908,None,1796.8720960998908,None,1796.8720960998908,None,i,0.2403772003017366,1796.8720960998908,None,1796.8720960998908,None,1797.148196300026,None,1797.148196300026,None,1797.148196300026,None,1797.148196300026,None,1797.148196300026,None,1797.148196300026,None,1797.4379092999734,None,1797.4379092999734,None,1799.2191480002366,None,1799.2191480002366,None,1799.2191480002366,None,1799.2191480002366,None,1799.2191480002366,None,1799.2191480002366,None,1799.2191480002366,None,1799.2191480002366,None,1799.2191480002366,None,57,41,70,60,70,38,1801.730276899878,None,7.0,0.7903792997822165,1801.730276899878,None,1801.730276899878,None,1801.730276899878,None,1801.730276899878,None,None,None,1802.5391076998785,None,,,,,,,138,f,22,2022_Dec_13_1336,RL,2021.2.3,60.17426476477965,
1,103,0,103,0,,,,,,,,,,,,,,,None,None,None,None,None,1804.46780960029,None,1804.46780960029,None,1804.46780960029,None,1804.46780960029,None,i,0.22785810008645058,1804.46780960029,None,1804.46780960029,None,1804.727850700263,None,1804.727850700263,None,1804.727850700263,None,1804.727850700263,None,1804.727850700263,None,1804.727850700263,None,1805.0169119001366,None,1805.0169119001366,None,1806.5526930000633,None,1806.5526930000633,None,1806.5526930000633,None,1806.5526930000633,None,1806.5526930000633,None,1806.5526930000633,None,1806.5526930000633,None,1806.5526930000633,None,1806.5526930000633,None,57,39,68,65,68,50,1809.0611116001382,None,7.0,0.4410250000655651,1809.0611116001382,None,1809.0611116001382,None,1809.0611116001382,None,1809.0611116001382,None,None,None,1809.5200642002746,None,,,,,,,138,f,22,2022_Dec_13_1336,RL,2021.2.3,60.17426476477965,
1,104,0,104,0,,,,,,,,,,,,,,,None,None,None,None,None,1811.3988757999614,None,1811.3988757999614,None,1811.3988757999614,None,1811.3988757999614,None,i,0.3467435003258288,1811.3988757999614,None,1811.3988757999614,None,1811.7798291998915,None,1811.7798291998915,None,1811.7798291998915,None,1811.7798291998915,None,1811.7798291998915,None,1811.7798291998915,None,1812.0646166000515,1813.6931691998616,1812.0646166000515,1813.6931691998616,1813.7142109000124,None,1813.7142109000124,None,1813.7142109000124,None,1813.7142109000124,None,1813.7142109000124,None,1813.7142109000124,None,1813.7142109000124,None,1813.7142109000124,None,1813.7142109000124,None,63,46,71,67,71,41,1816.2239145999774,None,7.0,0.4236763999797404,1816.2239145999774,None,1816.2239145999774,None,1816.2239145999774,None,1816.2239145999774,None,None,None,1816.6678891000338,None,,,,,,,138,f,22,2022_Dec_13_1336,RL,2021.2.3,60.17426476477965,
1,105,0,105,0,,,,,,,,,,,,,,,None,None,None,None,None,1818.596055699978,None,1818.596055699978,None,1818.596055699978,None,1818.596055699978,None,i,0.32243379997089505,1818.596055699978,None,1818.596055699978,None,1818.9576230002567,None,1818.9576230002567,None,1818.9576230002567,None,1818.9576230002567,None,1818.9576230002567,None,1818.9576230002567,None,1819.2449560002424,None,1819.2449560002424,None,1820.312598099932,None,1820.312598099932,None,1820.312598099932,None,1820.312598099932,None,1820.312598099932,None,1820.312598099932,None,1820.312598099932,None,1820.312598099932,None,1820.312598099932,None,53,39,71,58,71,61,1822.8218511999585,None,7.0,0.44113250030204654,1822.8218511999585,None,1822.8218511999585,None,1822.8218511999585,None,1822.8218511999585,None,None,None,1823.2825128003024,None,,,,,,,138,f,22,2022_Dec_13_1336,RL,2021.2.3,60.17426476477965,
1,106,0,106,0,,,,,,,,,,,,,,,None,None,None,None,None,1825.078402900137,None,1825.078402900137,None,1825.078402900137,None,1825.078402900137,None,i,0.31479680025950074,1825.078402900137,None,1825.078402900137,None,1825.4215591000393,None,1825.4215591000393,None,1825.4215591000393,None,1825.4215591000393,None,1825.4215591000393,None,1825.4215591000393,None,1825.710271799937,1826.9235371001996,1825.710271799937,1826.9235371001996,1826.9441488999873,None,1826.9441488999873,None,1826.9441488999873,None,1826.9441488999873,None,1826.9441488999873,None,1826.9441488999873,None,1826.9441488999873,None,1826.9441488999873,None,1826.9441488999873,None,58,41,76,69,76,58,1829.4545555002987,None,7.0,0.391956000123173,1829.4545555002987,None,1829.4545555002987,None,1829.4545555002987,None,1829.4545555002987,None,None,None,1829.8648180998862,None,,,,,,,138,f,22,2022_Dec_13_1336,RL,2021.2.3,60.17426476477965,
1,107,0,107,0,,,,,,,,,,,,,,,None,None,None,None,None,1831.460868800059,None,1831.460868800059,None,1831.460868800059,None,1831.460868800059,None,i,0.2639663000591099,1831.460868800059,None,1831.460868800059,None,1831.7544730999507,None,1831.7544730999507,None,1831.7544730999507,None,1831.7544730999507,None,1831.7544730999507,None,1831.7544730999507,None,1832.0435839998536,1833.106864400208,1832.0435839998536,1833.106864400208,1833.1279895002954,None,1833.1279895002954,None,1833.1279895002954,None,1833.1279895002954,None,1833.1279895002954,None,1833.1279895002954,None,1833.1279895002954,None,1833.1279895002954,None,1833.1279895002954,None,58,46,70,61,70,26,1835.63865670003,None,7.0,0.39211250003427267,1835.63865670003,None,1835.63865670003,None,1835.63865670003,None,1835.63865670003,None,None,None,1836.0480821002275,None,,,,,,,138,f,22,2022_Dec_13_1336,RL,2021.2.3,60.17426476477965,
1,108,0,108,0,,,,,,,,,,,,,,,None,None,None,None,None,1837.9600463998504,None,1837.9600463998504,None,1837.9600463998504,None,1837.9600463998504,None,i,0.2584138996899128,1837.9600463998504,None,1837.9600463998504,None,1838.255899600219,None,1838.255899600219,None,1838.255899600219,None,1838.255899600219,None,1838.255899600219,None,1838.255899600219,None,1838.5423516998999,1840.0378517000936,1838.5423516998999,1840.0378517000936,1840.0588777000085,None,1840.0588777000085,None,1840.0588777000085,None,1840.0588777000085,None,1840.0588777000085,None,1840.0588777000085,None,1840.0588777000085,None,1840.0588777000085,None,1840.0588777000085,None,53,42,76,62,76,26,1842.5671216002665,None,7.0,0.45898700039833784,1842.5671216002665,None,1842.5671216002665,None,1842.5671216002665,None,1842.5671216002665,None,None,None,1843.0453353002667,None,,,,,,,138,f,22,2022_Dec_13_1336,RL,2021.2.3,60.17426476477965,
1,109,0,109,0,,,,,,,,,,,,,,,None,None,None,None,None,1844.5922265001573,None,1844.5922265001573,None,1844.5922265001573,None,1844.5922265001573,None,i,0.3410848001949489,1844.5922265001573,None,1844.5922265001573,None,1844.9693581000902,None,1844.9693581000902,None,1844.9693581000902,None,1844.9693581000902,None,1844.9693581000902,None,1844.9693581000902,None,1845.2572611002252,None,1845.2572611002252,None,1846.5071302000433,None,1846.5071302000433,None,1846.5071302000433,None,1846.5071302000433,None,1846.5071302000433,None,1846.5071302000433,None,1846.5071302000433,None,1846.5071302000433,None,1846.5071302000433,None,50,40,70,71,70,30,1849.0169315999374,None,7.0,0.4575391998514533,1849.0169315999374,None,1849.0169315999374,None,1849.0169315999374,None,1849.0169315999374,None,None,None,1849.4946896000765,None,,,,,,,138,f,22,2022_Dec_13_1336,RL,2021.2.3,60.17426476477965,
