bandit,trials.thisRepN,trials.thisTrialN,trials.thisN,trials.thisIndex,instru_img1.started,instru_img1.stopped,instru_resp.keys,instru_resp.rt,instru_resp.started,instru_resp.stopped,instru_img2.started,instru_img2.stopped,instru_resp2.keys,instru_resp2.rt,instru_resp2.started,instru_resp2.stopped,fixbefore_2.started,fixbefore_2.stopped,rest_image.started,rest_image.stopped,rest_response.keys,rest_response.started,rest_response.stopped,red.started,red.stopped,green.started,green.stopped,yellow.started,yellow.stopped,blue.started,blue.stopped,choose_bandit.keys,choose_bandit.rt,choose_bandit.started,choose_bandit.stopped,Fixation.started,Fixation.stopped,black.started,black.stopped,red_2.started,red_2.stopped,green_2.started,green_2.stopped,yellow_2.started,yellow_2.stopped,blue_2.started,blue_2.stopped,fixation_2.started,fixation_2.stopped,docs.started,docs.stopped,image_2.started,image_2.stopped,black_com.started,black_com.stopped,reward_sub.started,reward_sub.stopped,palyerb.started,palyerb.stopped,reward__sub.started,reward__sub.stopped,compare.started,compare.stopped,red_compare.started,red_compare.stopped,green_com.started,green_com.stopped,yellow_com.started,yellow_com.stopped,blue_com.started,blue_com.stopped,rewardyellow,rewardred,rewardblue,rewardgreen,subchoose,playerb,image_3.started,image_3.stopped,slider.response,slider.rt,slider.started,slider.stopped,text.started,text.stopped,image_4.started,image_4.stopped,image_5.started,image_5.stopped,bigx.started,bigx.stopped,intertrialfix.started,intertrialfix.stopped,rest_response.rt,image.started,image.stopped,key_resp.keys,key_resp.started,key_resp.stopped,participant,Gender,Age,date,expName,psychopyVersion,frameRate,
,,,,,3794.91499989992,None,space,40.10239419993013,3794.91499989992,None,,,,,,,,,,,,,,,,,,,,,,,,,,,,,,,,,,,,,,,,,,,,,,,,,,,,,,,,,,,,,,,,,,,,,,,,,,,,,,,,,,,,,,,,,,142,f,1,2022_Dec_13_1541,RL,2021.2.3,60.32938634927832,
,,,,,,,,,,,3835.053087399807,None,space,47.734722500201315,3835.053087399807,None,,,,,,,,,,,,,,,,,,,,,,,,,,,,,,,,,,,,,,,,,,,,,,,,,,,,,,,,,,,,,,,,,,,,,,,,,,,,,,,,,,,,142,f,1,2022_Dec_13_1541,RL,2021.2.3,60.32938634927832,
1,0,0,0,0,,,,,,,,,,,,,3882.813378099818,None,None,None,None,None,None,3883.830455500167,None,3883.830455500167,None,3883.830455500167,None,3883.830455500167,None,i,1.3387037999927998,3883.830455500167,None,3883.830455500167,None,3885.2110009999014,None,3885.2110009999014,None,3885.2110009999014,None,3885.2110009999014,None,3885.2110009999014,None,3885.2110009999014,None,3885.504737599753,None,3885.504737599753,None,3886.862434799783,None,3886.862434799783,None,3886.862434799783,None,3886.862434799783,None,3886.862434799783,None,3886.862434799783,None,3886.862434799783,None,3886.862434799783,None,3886.862434799783,None,53,35,78,55,78,63,3889.371388599742,None,4.0,3.297287099994719,3889.371388599742,None,3889.371388599742,None,3889.371388599742,None,3889.371388599742,None,None,None,3892.733891400043,None,,,,,,,142,f,1,2022_Dec_13_1541,RL,2021.2.3,60.32938634927832,
1,1,0,1,0,,,,,,,,,,,,,,,None,None,None,None,None,3894.579629200045,None,3894.579629200045,None,3894.579629200045,None,3894.579629200045,None,None,,3894.579629200045,None,3894.579629200045,None,None,None,None,None,None,None,None,None,None,None,None,None,None,None,None,None,None,None,None,None,None,None,None,None,None,None,None,None,None,None,None,None,None,None,53,32,69,66,0,**,None,None,None,None,None,None,None,None,None,None,None,None,3896.12771519972,None,3900.6289352998137,None,,,,,,,142,f,1,2022_Dec_13_1541,RL,2021.2.3,60.32938634927832,
1,2,0,2,0,,,,,,,,,,,,,,,None,None,None,None,None,3902.3777835997753,None,3902.3777835997753,None,3902.3777835997753,None,3902.3777835997753,None,j,0.8517098003067076,3902.3777835997753,None,3902.3777835997753,None,3903.270218899939,None,3903.270218899939,None,3903.270218899939,None,3903.270218899939,None,3903.270218899939,None,3903.270218899939,None,3903.555501599796,3904.518883700017,3903.555501599796,3904.518883700017,3904.54244570015,None,3904.54244570015,None,3904.54244570015,None,3904.54244570015,None,3904.54244570015,None,3904.54244570015,None,3904.54244570015,None,3904.54244570015,None,3904.54244570015,None,50,24,67,70,70,59,3907.051819200162,None,4.0,2.3681367998942733,3907.051819200162,None,3907.051819200162,None,3907.051819200162,None,3907.051819200162,None,None,None,3909.438107499853,None,,,,,,,142,f,1,2022_Dec_13_1541,RL,2021.2.3,60.32938634927832,
1,3,0,3,0,,,,,,,,,,,,,,,None,None,None,None,None,3911.0343716000207,None,3911.0343716000207,None,3911.0343716000207,None,3911.0343716000207,None,f,0.8781214999035001,3911.0343716000207,None,3911.0343716000207,None,3911.9426000998355,None,3911.9426000998355,None,3911.9426000998355,None,3911.9426000998355,None,3911.9426000998355,None,3911.9426000998355,None,3912.2316736998037,None,3912.2316736998037,None,3914.149487100076,None,3914.149487100076,None,3914.149487100076,None,3914.149487100076,None,3914.149487100076,None,3914.149487100076,None,3914.149487100076,None,3914.149487100076,None,3914.149487100076,None,36,24,67,64,24,49,3916.658362600021,None,4.0,3.0820264001376927,3916.658362600021,None,3916.658362600021,None,3916.658362600021,None,3916.658362600021,None,None,None,3919.759780699853,None,,,,,,,142,f,1,2022_Dec_13_1541,RL,2021.2.3,60.32938634927832,
1,4,0,4,0,,,,,,,,,,,,,,,None,None,None,None,None,3921.638639499899,None,3921.638639499899,None,3921.638639499899,None,3921.638639499899,None,i,0.9340936001390219,3921.638639499899,None,3921.638639499899,None,3922.616266499739,None,3922.616266499739,None,3922.616266499739,None,3922.616266499739,None,3922.616266499739,None,3922.616266499739,None,3922.9026959999464,3923.833018799778,3922.9026959999464,3923.833018799778,3923.8559078001417,None,3923.8559078001417,None,3923.8559078001417,None,3923.8559078001417,None,3923.8559078001417,None,3923.8559078001417,None,3923.8559078001417,None,3923.8559078001417,None,3923.8559078001417,None,52,28,67,60,67,49,3926.3655659998767,None,6.0,4.19706039968878,3926.3655659998767,None,3926.3655659998767,None,3926.3655659998767,None,3926.3655659998767,None,None,None,3930.5806946000084,None,,,,,,,142,f,1,2022_Dec_13_1541,RL,2021.2.3,60.32938634927832,
1,5,0,5,0,,,,,,,,,,,,,,,None,None,None,None,None,3932.2100029001012,None,3932.2100029001012,None,3932.2100029001012,None,3932.2100029001012,None,f,1.1038211998529732,3932.2100029001012,None,3932.2100029001012,None,3933.3540941998363,None,3933.3540941998363,None,3933.3540941998363,None,3933.3540941998363,None,3933.3540941998363,None,3933.3540941998363,None,3933.640228900127,3934.454359699972,3933.640228900127,3934.454359699972,3934.47899910016,None,3934.47899910016,None,3934.47899910016,None,3934.47899910016,None,3934.47899910016,None,3934.47899910016,None,3934.47899910016,None,3934.47899910016,None,3934.47899910016,None,57,38,47,69,38,35,3936.987184899859,None,4.0,1.9508549999445677,3936.987184899859,None,3936.987184899859,None,3936.987184899859,None,3936.987184899859,None,None,None,3938.9598590000533,None,,,,,,,142,f,1,2022_Dec_13_1541,RL,2021.2.3,60.32938634927832,
1,6,0,6,0,,,,,,,,,,,,,,,None,None,None,None,None,3940.73650670005,None,3940.73650670005,None,3940.73650670005,None,3940.73650670005,None,i,0.8090013000182807,3940.73650670005,None,3940.73650670005,None,3941.579706999939,None,3941.579706999939,None,3941.579706999939,None,3941.579706999939,None,3941.579706999939,None,3941.579706999939,None,3941.8673601998016,3943.363131099846,3941.8673601998016,3943.363131099846,3943.3843400999904,None,3943.3843400999904,None,3943.3843400999904,None,3943.3843400999904,None,3943.3843400999904,None,3943.3843400999904,None,3943.3843400999904,None,3943.3843400999904,None,3943.3843400999904,None,56,37,45,58,45,48,3945.8962793000974,None,4.0,1.355411000084132,3945.8962793000974,None,3945.8962793000974,None,3945.8962793000974,None,3945.8962793000974,None,None,None,3947.2705012997612,None,,,,,,,142,f,1,2022_Dec_13_1541,RL,2021.2.3,60.32938634927832,
1,7,0,7,0,,,,,,,,,,,,,,,None,None,None,None,None,3948.8313456997275,None,3948.8313456997275,None,3948.8313456997275,None,3948.8313456997275,None,r,0.6682108999229968,3948.8313456997275,None,3948.8313456997275,None,3949.5393889998086,None,3949.5393889998086,None,3949.5393889998086,None,3949.5393889998086,None,3949.5393889998086,None,3949.5393889998086,None,3949.8292032997124,3951.0586311998777,3949.8292032997124,3951.0586311998777,3951.079919199925,None,3951.079919199925,None,3951.079919199925,None,3951.079919199925,None,3951.079919199925,None,3951.079919199925,None,3951.079919199925,None,3951.079919199925,None,3951.079919199925,None,54,27,56,68,54,36,3953.590481000021,None,4.0,2.1026707999408245,3953.590481000021,None,3953.590481000021,None,3953.590481000021,None,3953.590481000021,None,None,None,3955.7119737998582,None,,,,,,,142,f,1,2022_Dec_13_1541,RL,2021.2.3,60.32938634927832,
1,8,0,8,0,,,,,,,,,,,,,,,None,None,None,None,None,3957.540702200029,None,3957.540702200029,None,3957.540702200029,None,3957.540702200029,None,r,1.0414867997169495,3957.540702200029,None,3957.540702200029,None,3958.619087200146,None,3958.619087200146,None,3958.619087200146,None,3958.619087200146,None,3958.619087200146,None,3958.619087200146,None,3958.9043156001717,3960.5828789998777,3958.9043156001717,3960.5828789998777,3960.6046027000993,None,3960.6046027000993,None,3960.6046027000993,None,3960.6046027000993,None,3960.6046027000993,None,3960.6046027000993,None,3960.6046027000993,None,3960.6046027000993,None,3960.6046027000993,None,56,13,52,54,56,51,3963.1149975997396,None,5.0,1.8696711999364197,3963.1149975997396,None,3963.1149975997396,None,3963.1149975997396,None,3963.1149975997396,None,None,None,3965.003117199987,None,,,,,,,142,f,1,2022_Dec_13_1541,RL,2021.2.3,60.32938634927832,
1,9,0,9,0,,,,,,,,,,,,,,,None,None,None,None,None,3966.6494745998643,None,3966.6494745998643,None,3966.6494745998643,None,3966.6494745998643,None,f,1.0651682997122407,3966.6494745998643,None,3966.6494745998643,None,3967.7577994000167,None,3967.7577994000167,None,3967.7577994000167,None,3967.7577994000167,None,3967.7577994000167,None,3967.7577994000167,None,3968.0459066000767,3968.960360100027,3968.0459066000767,3968.960360100027,3968.981585300062,None,3968.981585300062,None,3968.981585300062,None,3968.981585300062,None,3968.981585300062,None,3968.981585300062,None,3968.981585300062,None,3968.981585300062,None,3968.981585300062,None,56,26,45,60,26,59,3971.4932535998523,None,3.0,3.1647406998090446,3971.4932535998523,None,3971.4932535998523,None,3971.4932535998523,None,3971.4932535998523,None,None,None,3974.6784605998546,None,,,,,,,142,f,1,2022_Dec_13_1541,RL,2021.2.3,60.32938634927832,
1,10,0,10,0,,,,,,,,,,,,,,,None,None,None,None,None,3976.5555885001086,None,3976.5555885001086,None,3976.5555885001086,None,3976.5555885001086,None,i,1.1955690998584032,3976.5555885001086,None,3976.5555885001086,None,3977.782681599725,None,3977.782681599725,None,3977.782681599725,None,3977.782681599725,None,3977.782681599725,None,3977.782681599725,None,3978.068627799861,3979.26525319973,3978.068627799861,3979.26525319973,3979.287271199748,None,3979.287271199748,None,3979.287271199748,None,3979.287271199748,None,3979.287271199748,None,3979.287271199748,None,3979.287271199748,None,3979.287271199748,None,3979.287271199748,None,64,21,50,53,50,41,3981.796972199809,None,5.0,1.8199181999079883,3981.796972199809,None,3981.796972199809,None,3981.796972199809,None,3981.796972199809,None,None,None,3983.6356699001044,None,,,,,,,142,f,1,2022_Dec_13_1541,RL,2021.2.3,60.32938634927832,
1,11,0,11,0,,,,,,,,,,,,,,,None,None,None,None,None,3985.531212199945,None,3985.531212199945,None,3985.531212199945,None,3985.531212199945,None,i,0.7632730002515018,3985.531212199945,None,3985.531212199945,None,3986.3249062001705,None,3986.3249062001705,None,3986.3249062001705,None,3986.3249062001705,None,3986.3249062001705,None,3986.3249062001705,None,3986.611843199935,3987.443289699964,3986.611843199935,3987.443289699964,3987.464439000003,None,3987.464439000003,None,3987.464439000003,None,3987.464439000003,None,3987.464439000003,None,3987.464439000003,None,3987.464439000003,None,3987.464439000003,None,3987.464439000003,None,60,14,56,61,56,59,3989.976110999938,None,4.0,1.0044571999460459,3989.976110999938,None,3989.976110999938,None,3989.976110999938,None,3989.976110999938,None,None,None,3990.9989955998026,None,,,,,,,142,f,1,2022_Dec_13_1541,RL,2021.2.3,60.32938634927832,
1,12,0,12,0,,,,,,,,,,,,,,,None,None,None,None,None,3992.778048399836,None,3992.778048399836,None,3992.778048399836,None,3992.778048399836,None,r,0.8655814002268016,3992.778048399836,None,3992.778048399836,None,3993.670785800088,None,3993.670785800088,None,3993.670785800088,None,3993.670785800088,None,3993.670785800088,None,3993.670785800088,None,3993.958545600064,3995.8198371999897,3993.958545600064,3995.8198371999897,3995.841041999869,None,3995.841041999869,None,3995.841041999869,None,3995.841041999869,None,3995.841041999869,None,3995.841041999869,None,3995.841041999869,None,3995.841041999869,None,3995.841041999869,None,55,13,51,58,55,50,3998.3521651001647,None,4.0,1.5358616998419166,3998.3521651001647,None,3998.3521651001647,None,3998.3521651001647,None,3998.3521651001647,None,None,None,3999.907881699968,None,,,,,,,142,f,1,2022_Dec_13_1541,RL,2021.2.3,60.32938634927832,
1,13,0,13,0,,,,,,,,,,,,,,,None,None,None,None,None,4001.421375799924,None,4001.421375799924,None,4001.421375799924,None,4001.421375799924,None,i,0.6003000000491738,4001.421375799924,None,4001.421375799924,None,4002.064155300148,None,4002.064155300148,None,4002.064155300148,None,4002.064155300148,None,4002.064155300148,None,4002.064155300148,None,4002.352808699943,4004.3302373997867,4002.352808699943,4004.3302373997867,4004.3512271000072,None,4004.3512271000072,None,4004.3512271000072,None,4004.3512271000072,None,4004.3512271000072,None,4004.3512271000072,None,4004.3512271000072,None,4004.3512271000072,None,4004.3512271000072,None,65,17,52,63,52,45,4006.8606536998414,None,5.0,1.6384712997823954,4006.8606536998414,None,4006.8606536998414,None,4006.8606536998414,None,4006.8606536998414,None,None,None,4008.5177011000924,None,,,,,,,142,f,1,2022_Dec_13_1541,RL,2021.2.3,60.32938634927832,
1,14,0,14,0,,,,,,,,,,,,,,,None,None,None,None,None,4010.479941799771,None,4010.479941799771,None,4010.479941799771,None,4010.479941799771,None,j,1.0979813998565078,4010.479941799771,None,4010.479941799771,None,4011.607934900094,None,4011.607934900094,None,4011.607934900094,None,4011.607934900094,None,4011.607934900094,None,4011.607934900094,None,4011.893298599869,4013.8210092000663,4011.893298599869,4013.8210092000663,4013.8405126999132,None,4013.8405126999132,None,4013.8405126999132,None,4013.8405126999132,None,4013.8405126999132,None,4013.8405126999132,None,4013.8405126999132,None,4013.8405126999132,None,4013.8405126999132,None,85,14,52,55,55,50,4016.3501340998337,None,5.0,2.220305999740958,4016.3501340998337,None,4016.3501340998337,None,4016.3501340998337,None,4016.3501340998337,None,None,None,4018.5902288998477,None,,,,,,,142,f,1,2022_Dec_13_1541,RL,2021.2.3,60.32938634927832,
1,15,0,15,0,,,,,,,,,,,,,,,None,None,None,None,None,4020.436128700152,None,4020.436128700152,None,4020.436128700152,None,4020.436128700152,None,i,0.5577462003566325,4020.436128700152,None,4020.436128700152,None,4021.0294038997963,None,4021.0294038997963,None,4021.0294038997963,None,4021.0294038997963,None,4021.0294038997963,None,4021.0294038997963,None,4021.3172363997437,4023.245516399853,4021.3172363997437,4023.245516399853,4023.2656891997904,None,4023.2656891997904,None,4023.2656891997904,None,4023.2656891997904,None,4023.2656891997904,None,4023.2656891997904,None,4023.2656891997904,None,4023.2656891997904,None,4023.2656891997904,None,72,15,54,58,54,56,4025.7754595000297,None,4.0,1.7706923997029662,4025.7754595000297,None,4025.7754595000297,None,4025.7754595000297,None,4025.7754595000297,None,None,None,4027.5656393999234,None,,,,,,,142,f,1,2022_Dec_13_1541,RL,2021.2.3,60.32938634927832,
1,16,0,16,0,,,,,,,,,,,,,,,None,None,None,None,None,4029.345107600093,None,4029.345107600093,None,4029.345107600093,None,4029.345107600093,None,f,0.48095740005373955,4029.345107600093,None,4029.345107600093,None,4029.8524763998576,None,4029.8524763998576,None,4029.8524763998576,None,4029.8524763998576,None,4029.8524763998576,None,4029.8524763998576,None,4030.1433919998817,None,4030.1433919998817,None,4031.9582398999482,None,4031.9582398999482,None,4031.9582398999482,None,4031.9582398999482,None,4031.9582398999482,None,4031.9582398999482,None,4031.9582398999482,None,4031.9582398999482,None,4031.9582398999482,None,74,17,53,59,17,58,4034.47041910002,None,3.0,1.4542082003317773,4034.47041910002,None,4034.47041910002,None,4034.47041910002,None,4034.47041910002,None,None,None,4035.9431710997596,None,,,,,,,142,f,1,2022_Dec_13_1541,RL,2021.2.3,60.32938634927832,
1,17,0,17,0,,,,,,,,,,,,,,,None,None,None,None,None,4037.788589600008,None,4037.788589600008,None,4037.788589600008,None,4037.788589600008,None,f,0.5210140999406576,4037.788589600008,None,4037.788589600008,None,4038.3477366999723,None,4038.3477366999723,None,4038.3477366999723,None,4038.3477366999723,None,4038.3477366999723,None,4038.3477366999723,None,4038.6368598998524,None,4038.6368598998524,None,4040.2862093001604,None,4040.2862093001604,None,4040.2862093001604,None,4040.2862093001604,None,4040.2862093001604,None,4040.2862093001604,None,4040.2862093001604,None,4040.2862093001604,None,4040.2862093001604,None,75,25,55,55,25,54,4042.798691799864,None,3.0,2.1839181003160775,4042.798691799864,None,4042.798691799864,None,4042.798691799864,None,4042.798691799864,None,None,None,4045.001427200157,None,,,,,,,142,f,1,2022_Dec_13_1541,RL,2021.2.3,60.32938634927832,
1,18,0,18,0,,,,,,,,,,,,,,,None,None,None,None,None,4046.597999900114,None,4046.597999900114,None,4046.597999900114,None,4046.597999900114,None,i,0.5195239996537566,4046.597999900114,None,4046.597999900114,None,4047.159915499855,None,4047.159915499855,None,4047.159915499855,None,4047.159915499855,None,4047.159915499855,None,4047.159915499855,None,4047.445875899866,4048.892050900031,4047.445875899866,4048.892050900031,4048.913898699917,None,4048.913898699917,None,4048.913898699917,None,4048.913898699917,None,4048.913898699917,None,4048.913898699917,None,4048.913898699917,None,4048.913898699917,None,4048.913898699917,None,82,18,43,59,43,54,4051.424103099853,None,3.0,2.335619500372559,4051.424103099853,None,4051.424103099853,None,4051.424103099853,None,4051.424103099853,None,None,None,4053.7777158999816,None,,,,,,,142,f,1,2022_Dec_13_1541,RL,2021.2.3,60.32938634927832,
1,19,0,19,0,,,,,,,,,,,,,,,None,None,None,None,None,4055.723175900057,None,4055.723175900057,None,4055.723175900057,None,4055.723175900057,None,i,0.4472390003502369,4055.723175900057,None,4055.723175900057,None,4056.1986930998974,None,4056.1986930998974,None,4056.1986930998974,None,4056.1986930998974,None,4056.1986930998974,None,4056.1986930998974,None,4056.4879044997506,4058.3161523998715,4056.4879044997506,4058.3161523998715,4058.337238300126,None,4058.337238300126,None,4058.337238300126,None,4058.337238300126,None,4058.337238300126,None,4058.337238300126,None,4058.337238300126,None,4058.337238300126,None,4058.337238300126,None,72,24,48,53,48,58,4060.8486139001325,None,2.0,1.7854695999994874,4060.8486139001325,None,4060.8486139001325,None,4060.8486139001325,None,4060.8486139001325,None,None,None,4062.6535946000367,None,,,,,,,142,f,1,2022_Dec_13_1541,RL,2021.2.3,60.32938634927832,
1,20,0,20,0,,,,,,,,,,,,,,,None,None,None,None,None,4064.4824911998585,None,4064.4824911998585,None,4064.4824911998585,None,4064.4824911998585,None,j,0.37357759987935424,4064.4824911998585,None,4064.4824911998585,None,4064.8922009998932,None,4064.8922009998932,None,4064.8922009998932,None,4064.8922009998932,None,4064.8922009998932,None,4064.8922009998932,None,4065.181012999732,4066.4110958999954,4065.181012999732,4066.4110958999954,4066.4330727998167,None,4066.4330727998167,None,4066.4330727998167,None,4066.4330727998167,None,4066.4330727998167,None,4066.4330727998167,None,4066.4330727998167,None,4066.4330727998167,None,4066.4330727998167,None,75,25,44,53,53,50,4068.9431008999236,None,4.0,1.8697516997344792,4068.9431008999236,None,4068.9431008999236,None,4068.9431008999236,None,4068.9431008999236,None,None,None,4070.8309788997285,None,,,,,,,142,f,1,2022_Dec_13_1541,RL,2021.2.3,60.32938634927832,
1,21,0,21,0,,,,,,,,,,,,,,,None,None,None,None,None,4072.360987899825,None,4072.360987899825,None,4072.360987899825,None,4072.360987899825,None,i,0.5187423997558653,4072.360987899825,None,4072.360987899825,None,4072.9235741999,None,4072.9235741999,None,4072.9235741999,None,4072.9235741999,None,4072.9235741999,None,4072.9235741999,None,4073.20878789993,4074.887591399718,4073.20878789993,4074.887591399718,4074.9086325997487,None,4074.9086325997487,None,4074.9086325997487,None,4074.9086325997487,None,4074.9086325997487,None,4074.9086325997487,None,4074.9086325997487,None,4074.9086325997487,None,4074.9086325997487,None,81,24,49,45,49,40,4077.418711700011,None,4.0,1.007371800020337,4077.418711700011,None,4077.418711700011,None,4077.418711700011,None,4077.418711700011,None,None,None,4078.443788600154,None,,,,,,,142,f,1,2022_Dec_13_1541,RL,2021.2.3,60.32938634927832,
1,22,0,22,0,,,,,,,,,,,,,,,None,None,None,None,None,4080.1063429000787,None,4080.1063429000787,None,4080.1063429000787,None,4080.1063429000787,None,None,,4080.1063429000787,None,4080.1063429000787,None,None,None,None,None,None,None,None,None,None,None,None,None,None,None,None,None,None,None,None,None,None,None,None,None,None,None,None,None,None,None,None,None,None,None,82,19,44,47,0,**,None,None,None,None,None,None,None,None,None,None,None,None,4081.6500820000656,None,4086.156056900043,None,,,,,,,142,f,1,2022_Dec_13_1541,RL,2021.2.3,60.32938634927832,
1,23,0,23,0,,,,,,,,,,,,,,,None,None,None,None,None,4087.968840399757,None,4087.968840399757,None,4087.968840399757,None,4087.968840399757,None,j,0.5236388999037445,4087.968840399757,None,4087.968840399757,None,4088.5289046997204,None,4088.5289046997204,None,4088.5289046997204,None,4088.5289046997204,None,4088.5289046997204,None,4088.5289046997204,None,4088.8165096999146,None,4088.8165096999146,None,4089.751967200078,None,4089.751967200078,None,4089.751967200078,None,4089.751967200078,None,4089.751967200078,None,4089.751967200078,None,4089.751967200078,None,4089.751967200078,None,4089.751967200078,None,79,32,51,43,43,51,4092.263858200051,None,3.0,3.829378299880773,4092.263858200051,None,4092.263858200051,None,4092.263858200051,None,4092.263858200051,None,None,None,4096.112008899916,None,,,,,,,142,f,1,2022_Dec_13_1541,RL,2021.2.3,60.32938634927832,
1,24,0,24,0,,,,,,,,,,,,,,,None,None,None,None,None,4097.857787599787,None,4097.857787599787,None,4097.857787599787,None,4097.857787599787,None,i,0.28664099983870983,4097.857787599787,None,4097.857787599787,None,4098.185487600043,None,4098.185487600043,None,4098.185487600043,None,4098.185487600043,None,4098.185487600043,None,4098.185487600043,None,4098.473440600093,4099.985874599777,4098.473440600093,4099.985874599777,4100.0065822000615,None,4100.0065822000615,None,4100.0065822000615,None,4100.0065822000615,None,4100.0065822000615,None,4100.0065822000615,None,4100.0065822000615,None,4100.0065822000615,None,4100.0065822000615,None,82,42,55,55,55,49,4102.516415399965,None,4.0,1.3878912003710866,4102.516415399965,None,4102.516415399965,None,4102.516415399965,None,4102.516415399965,None,None,None,4103.924098900054,None,,,,,,,142,f,1,2022_Dec_13_1541,RL,2021.2.3,60.32938634927832,
1,25,0,25,0,,,,,,,,,,,,,,,None,None,None,None,None,4105.88640139997,None,4105.88640139997,None,4105.88640139997,None,4105.88640139997,None,i,0.994236099999398,4105.88640139997,None,4105.88640139997,None,4106.910021400079,None,4106.910021400079,None,4106.910021400079,None,4106.910021400079,None,4106.910021400079,None,4106.910021400079,None,4107.199883399997,None,4107.199883399997,None,4108.433483399916,None,4108.433483399916,None,4108.433483399916,None,4108.433483399916,None,4108.433483399916,None,4108.433483399916,None,4108.433483399916,None,4108.433483399916,None,4108.433483399916,None,86,38,51,56,51,59,4110.94660979975,None,4.0,2.1184482001699507,4110.94660979975,None,4110.94660979975,None,4110.94660979975,None,4110.94660979975,None,None,None,4113.082515100017,None,,,,,,,142,f,1,2022_Dec_13_1541,RL,2021.2.3,60.32938634927832,
1,26,0,26,0,,,,,,,,,,,,,,,None,None,None,None,None,4114.645681899972,None,4114.645681899972,None,4114.645681899972,None,4114.645681899972,None,j,1.0376336998306215,4114.645681899972,None,4114.645681899972,None,4115.721960199997,None,4115.721960199997,None,4115.721960199997,None,4115.721960199997,None,4115.721960199997,None,4115.721960199997,None,4116.009254899807,4117.737232099753,4116.009254899807,4117.737232099753,4117.759320599958,None,4117.759320599958,None,4117.759320599958,None,4117.759320599958,None,4117.759320599958,None,4117.759320599958,None,4117.759320599958,None,4117.759320599958,None,4117.759320599958,None,91,33,45,58,58,66,4120.268809699919,None,4.0,2.3014537999406457,4120.268809699919,None,4120.268809699919,None,4120.268809699919,None,4120.268809699919,None,None,None,4122.590044499841,None,,,,,,,142,f,1,2022_Dec_13_1541,RL,2021.2.3,60.32938634927832,
1,27,0,27,0,,,,,,,,,,,,,,,None,None,None,None,None,4124.352783099748,None,4124.352783099748,None,4124.352783099748,None,4124.352783099748,None,i,0.5870624999515712,4124.352783099748,None,4124.352783099748,None,4124.979567099828,None,4124.979567099828,None,4124.979567099828,None,4124.979567099828,None,4124.979567099828,None,4124.979567099828,None,4125.266943399794,4126.729575700127,4125.266943399794,4126.729575700127,4126.750692700036,None,4126.750692700036,None,4126.750692700036,None,4126.750692700036,None,4126.750692700036,None,4126.750692700036,None,4126.750692700036,None,4126.750692700036,None,4126.750692700036,None,90,29,50,55,50,67,4129.260214599781,None,3.0,1.3398821000009775,4129.260214599781,None,4129.260214599781,None,4129.260214599781,None,4129.260214599781,None,None,None,4130.6179551999085,None,,,,,,,142,f,1,2022_Dec_13_1541,RL,2021.2.3,60.32938634927832,
1,28,0,28,0,,,,,,,,,,,,,,,None,None,None,None,None,4132.5636348999105,None,4132.5636348999105,None,4132.5636348999105,None,4132.5636348999105,None,i,0.41980679985135794,4132.5636348999105,None,4132.5636348999105,None,4133.025266099721,None,4133.025266099721,None,4133.025266099721,None,4133.025266099721,None,4133.025266099721,None,4133.025266099721,None,4133.312112799846,4134.458285799716,4133.312112799846,4134.458285799716,4134.480933799874,None,4134.480933799874,None,4134.480933799874,None,4134.480933799874,None,4134.480933799874,None,4134.480933799874,None,4134.480933799874,None,4134.480933799874,None,4134.480933799874,None,83,29,58,55,58,68,4136.99124039989,None,3.0,0.7548695998266339,4136.99124039989,None,4136.99124039989,None,4136.99124039989,None,4136.99124039989,None,None,None,4137.765119499993,None,,,,,,,142,f,1,2022_Dec_13_1541,RL,2021.2.3,60.32938634927832,
1,29,0,29,0,,,,,,,,,,,,,,,None,None,None,None,None,4139.494484799914,None,4139.494484799914,None,4139.494484799914,None,4139.494484799914,None,r,0.6246620998717844,4139.494484799914,None,4139.494484799914,None,4140.154992399737,None,4140.154992399737,None,4140.154992399737,None,4140.154992399737,None,4140.154992399737,None,4140.154992399737,None,4140.442700400017,4141.539338000119,4140.442700400017,4141.539338000119,4141.560497900005,None,4141.560497900005,None,4141.560497900005,None,4141.560497900005,None,4141.560497900005,None,4141.560497900005,None,4141.560497900005,None,4141.560497900005,None,4141.560497900005,None,68,29,46,67,68,58,4144.071532799862,None,4.0,1.7034445996396244,4144.071532799862,None,4144.071532799862,None,4144.071532799862,None,4144.071532799862,None,None,None,4145.793645800091,None,,,,,,,142,f,1,2022_Dec_13_1541,RL,2021.2.3,60.32938634927832,
1,30,0,30,0,,,,,,,,,,,,,,,None,None,None,None,None,4147.323107399978,None,4147.323107399978,None,4147.323107399978,None,4147.323107399978,None,j,0.5041812001727521,4147.323107399978,None,4147.323107399978,None,4147.86840219982,None,4147.86840219982,None,4147.86840219982,None,4147.86840219982,None,4147.86840219982,None,4147.86840219982,None,4148.154652200174,None,4148.154652200174,None,4149.221161299851,None,4149.221161299851,None,4149.221161299851,None,4149.221161299851,None,4149.221161299851,None,4149.221161299851,None,4149.221161299851,None,4149.221161299851,None,4149.221161299851,None,74,38,48,68,68,29,4151.734534599818,None,6.0,1.7212944999337196,4151.734534599818,None,4151.734534599818,None,4151.734534599818,None,4151.734534599818,None,None,None,4153.472329599783,None,,,,,,,142,f,1,2022_Dec_13_1541,RL,2021.2.3,60.32938634927832,
1,31,0,31,0,,,,,,,,,,,,,,,None,None,None,None,None,4155.384387299884,None,4155.384387299884,None,4155.384387299884,None,4155.384387299884,None,r,0.4815254001878202,4155.384387299884,None,4155.384387299884,None,4155.893108699936,None,4155.893108699936,None,4155.893108699936,None,4155.893108699936,None,4155.893108699936,None,4155.893108699936,None,4156.183026799932,None,4156.183026799932,None,4157.083304999862,None,4157.083304999862,None,4157.083304999862,None,4157.083304999862,None,4157.083304999862,None,4157.083304999862,None,4157.083304999862,None,4157.083304999862,None,4157.083304999862,None,67,32,44,69,67,58,4159.592829899862,None,5.0,1.4227505000308156,4159.592829899862,None,4159.592829899862,None,4159.592829899862,None,4159.592829899862,None,None,None,4161.035183799919,None,,,,,,,142,f,1,2022_Dec_13_1541,RL,2021.2.3,60.32938634927832,
1,32,0,32,0,,,,,,,,,,,,,,,None,None,None,None,None,4162.980562400073,None,4162.980562400073,None,4162.980562400073,None,4162.980562400073,None,j,0.3548444998450577,4162.980562400073,None,4162.980562400073,None,4163.374515300151,None,4163.374515300151,None,4163.374515300151,None,4163.374515300151,None,4163.374515300151,None,4163.374515300151,None,4163.6626893999055,4165.208161099814,4163.6626893999055,4165.208161099814,4165.230652300175,None,4165.230652300175,None,4165.230652300175,None,4165.230652300175,None,4165.230652300175,None,4165.230652300175,None,4165.230652300175,None,4165.230652300175,None,4165.230652300175,None,76,37,56,67,67,51,4167.739927500021,None,5.0,1.8531393995508552,4167.739927500021,None,4167.739927500021,None,4167.739927500021,None,4167.739927500021,None,None,None,4169.611623100005,None,,,,,,,142,f,1,2022_Dec_13_1541,RL,2021.2.3,60.32938634927832,
1,33,0,33,0,,,,,,,,,,,,,,,None,None,None,None,None,4171.340991999954,None,4171.340991999954,None,4171.340991999954,None,4171.340991999954,None,i,1.031861700117588,4171.340991999954,None,4171.340991999954,None,4172.400056899991,None,4172.400056899991,None,4172.400056899991,None,4172.400056899991,None,4172.400056899991,None,4172.400056899991,None,4172.687874999829,4173.585462999996,4172.687874999829,4173.585462999996,4173.607999700122,None,4173.607999700122,None,4173.607999700122,None,4173.607999700122,None,4173.607999700122,None,4173.607999700122,None,4173.607999700122,None,4173.607999700122,None,4173.607999700122,None,70,39,63,64,63,53,4176.118350499775,None,6.0,1.3854994997382164,4176.118350499775,None,4176.118350499775,None,4176.118350499775,None,4176.118350499775,None,None,None,4177.523783099838,None,,,,,,,142,f,1,2022_Dec_13_1541,RL,2021.2.3,60.32938634927832,
1,34,0,34,0,,,,,,,,,,,,,,,None,None,None,None,None,4179.186525099911,None,4179.186525099911,None,4179.186525099911,None,4179.186525099911,None,j,0.6903473003767431,4179.186525099911,None,4179.186525099911,None,4179.912691600155,None,4179.912691600155,None,4179.912691600155,None,4179.912691600155,None,4179.912691600155,None,4179.912691600155,None,4180.200512900017,4181.762687500101,4180.200512900017,4181.762687500101,4181.783931300044,None,4181.783931300044,None,4181.783931300044,None,4181.783931300044,None,4181.783931300044,None,4181.783931300044,None,4181.783931300044,None,4181.783931300044,None,4181.783931300044,None,69,33,60,56,56,50,4184.295170899946,None,6.0,1.6366967996582389,4184.295170899946,None,4184.295170899946,None,4184.295170899946,None,4184.295170899946,None,None,None,4185.950232599862,None,,,,,,,142,f,1,2022_Dec_13_1541,RL,2021.2.3,60.32938634927832,
1,35,0,35,0,,,,,,,,,,,,,,,None,None,None,None,None,4187.846204699948,None,4187.846204699948,None,4187.846204699948,None,4187.846204699948,None,f,1.277407200075686,4187.846204699948,None,4187.846204699948,None,4189.152450799942,None,4189.152450799942,None,4189.152450799942,None,4189.152450799942,None,4189.152450799942,None,4189.152450799942,None,4189.442235900089,4190.88794689998,4189.442235900089,4190.88794689998,4190.90884430008,None,4190.90884430008,None,4190.90884430008,None,4190.90884430008,None,4190.90884430008,None,4190.90884430008,None,4190.90884430008,None,4190.90884430008,None,4190.90884430008,None,64,30,60,53,30,52,4193.419640100095,None,4.0,1.6557084997184575,4193.419640100095,None,4193.419640100095,None,4193.419640100095,None,4193.419640100095,None,None,None,4195.092056800146,None,,,,,,,142,f,1,2022_Dec_13_1541,RL,2021.2.3,60.32938634927832,
1,36,0,36,0,,,,,,,,,,,,,,,None,None,None,None,None,4196.738522099797,None,4196.738522099797,None,4196.738522099797,None,4196.738522099797,None,r,1.0630709999240935,4196.738522099797,None,4196.738522099797,None,4197.830964900088,None,4197.830964900088,None,4197.830964900088,None,4197.830964900088,None,4197.830964900088,None,4197.830964900088,None,4198.118436200079,4198.949013100006,4198.118436200079,4198.949013100006,4198.970767999999,None,4198.970767999999,None,4198.970767999999,None,4198.970767999999,None,4198.970767999999,None,4198.970767999999,None,4198.970767999999,None,4198.970767999999,None,4198.970767999999,None,66,37,60,56,66,48,4201.478889999911,None,5.0,1.2403041999787092,4201.478889999911,None,4201.478889999911,None,4201.478889999911,None,4201.478889999911,None,None,None,4202.7382502998225,None,,,,,,,142,f,1,2022_Dec_13_1541,RL,2021.2.3,60.32938634927832,
1,37,0,37,0,,,,,,,,,,,,,,,None,None,None,None,None,4204.417601699941,None,4204.417601699941,None,4204.417601699941,None,4204.417601699941,None,i,0.948694699909538,4204.417601699941,None,4204.417601699941,None,4205.393105099909,None,4205.393105099909,None,4205.393105099909,None,4205.393105099909,None,4205.393105099909,None,4205.393105099909,None,4205.6813007001765,None,4205.6813007001765,None,4207.646545399912,None,4207.646545399912,None,4207.646545399912,None,4207.646545399912,None,4207.646545399912,None,4207.646545399912,None,4207.646545399912,None,4207.646545399912,None,4207.646545399912,None,76,31,54,47,54,15,4210.157032200135,None,7.0,1.6046603000722826,4210.157032200135,None,4210.157032200135,None,4210.157032200135,None,4210.157032200135,None,None,None,4211.779893499799,None,,,,,,,142,f,1,2022_Dec_13_1541,RL,2021.2.3,60.32938634927832,
1,38,0,38,0,,,,,,,,,,,,,,,None,None,None,None,None,4213.575883499812,None,4213.575883499812,None,4213.575883499812,None,4213.575883499812,None,i,0.33354869997128844,4213.575883499812,None,4213.575883499812,None,4213.952464200091,None,4213.952464200091,None,4213.952464200091,None,4213.952464200091,None,4213.952464200091,None,4213.952464200091,None,4214.241033999715,4215.5371340001,4214.241033999715,4215.5371340001,4215.560973099899,None,4215.560973099899,None,4215.560973099899,None,4215.560973099899,None,4215.560973099899,None,4215.560973099899,None,4215.560973099899,None,4215.560973099899,None,4215.560973099899,None,66,30,56,50,56,51,4218.071137600113,None,7.0,1.6543286996893585,4218.071137600113,None,4218.071137600113,None,4218.071137600113,None,4218.071137600113,None,None,None,4219.741649399977,None,,,,,,,142,f,1,2022_Dec_13_1541,RL,2021.2.3,60.32938634927832,
1,39,0,39,0,,,,,,,,,,,,,,,None,None,None,None,None,4221.570316600148,None,4221.570316600148,None,4221.570316600148,None,4221.570316600148,None,i,0.5073158000595868,4221.570316600148,None,4221.570316600148,None,4222.114140899852,None,4222.114140899852,None,4222.114140899852,None,4222.114140899852,None,4222.114140899852,None,4222.114140899852,None,4222.402044699993,4223.865022900049,4222.402044699993,4223.865022900049,4223.891424700152,None,4223.891424700152,None,4223.891424700152,None,4223.891424700152,None,4223.891424700152,None,4223.891424700152,None,4223.891424700152,None,4223.891424700152,None,4223.891424700152,None,74,27,62,51,62,54,4226.3975196997635,None,7.0,1.2199793001636863,4226.3975196997635,None,4226.3975196997635,None,4226.3975196997635,None,4226.3975196997635,None,None,None,4227.636502800044,None,,,,,,,142,f,1,2022_Dec_13_1541,RL,2021.2.3,60.32938634927832,
1,40,0,40,0,,,,,,,,,,,,,,,None,None,None,None,None,4229.183224500157,None,4229.183224500157,None,4229.183224500157,None,4229.183224500157,None,i,0.710667799692601,4229.183224500157,None,4229.183224500157,None,4229.928508399986,None,4229.928508399986,None,4229.928508399986,None,4229.928508399986,None,4229.928508399986,None,4229.928508399986,None,4230.214084600098,4231.660363799892,4230.214084600098,4231.660363799892,4231.680303900037,None,4231.680303900037,None,4231.680303900037,None,4231.680303900037,None,4231.680303900037,None,4231.680303900037,None,4231.680303900037,None,4231.680303900037,None,4231.680303900037,None,69,32,63,47,63,43,4234.192134799901,None,6.0,1.4704375001601875,4234.192134799901,None,4234.192134799901,None,4234.192134799901,None,4234.192134799901,None,None,None,4235.681446199771,None,,,,,,,142,f,1,2022_Dec_13_1541,RL,2021.2.3,60.32938634927832,
1,41,0,41,0,,,,,,,,,,,,,,,None,None,None,None,None,4237.560283300001,None,4237.560283300001,None,4237.560283300001,None,4237.560283300001,None,r,1.2693211999721825,4237.560283300001,None,4237.560283300001,None,4238.869328499772,None,4238.869328499772,None,4238.869328499772,None,4238.869328499772,None,4238.869328499772,None,4238.869328499772,None,4239.156771800015,4240.269842300098,4239.156771800015,4240.269842300098,4240.290883100126,None,4240.290883100126,None,4240.290883100126,None,4240.290883100126,None,4240.290883100126,None,4240.290883100126,None,4240.290883100126,None,4240.290883100126,None,4240.290883100126,None,73,39,58,61,73,45,4242.8006143998355,None,6.0,0.7578606000170112,4242.8006143998355,None,4242.8006143998355,None,4242.8006143998355,None,4242.8006143998355,None,None,None,4243.576477000024,None,,,,,,,142,f,1,2022_Dec_13_1541,RL,2021.2.3,60.32938634927832,
1,42,0,42,0,,,,,,,,,,,,,,,None,None,None,None,None,4245.123027099762,None,4245.123027099762,None,4245.123027099762,None,4245.123027099762,None,i,0.38779439963400364,4245.123027099762,None,4245.123027099762,None,4245.551157699898,None,4245.551157699898,None,4245.551157699898,None,4245.551157699898,None,4245.551157699898,None,4245.551157699898,None,4245.8380757998675,4247.350863900036,4245.8380757998675,4247.350863900036,4247.370904900134,None,4247.370904900134,None,4247.370904900134,None,4247.370904900134,None,4247.370904900134,None,4247.370904900134,None,4247.370904900134,None,4247.370904900134,None,4247.370904900134,None,70,35,60,57,60,53,4249.881106799934,None,6.0,0.6744017996825278,4249.881106799934,None,4249.881106799934,None,4249.881106799934,None,4249.881106799934,None,None,None,4250.573988799937,None,,,,,,,142,f,1,2022_Dec_13_1541,RL,2021.2.3,60.32938634927832,
1,43,0,43,0,,,,,,,,,,,,,,,None,None,None,None,None,4252.403096499853,None,4252.403096499853,None,4252.403096499853,None,4252.403096499853,None,i,0.33168919989839196,4252.403096499853,None,4252.403096499853,None,4252.767375899944,None,4252.767375899944,None,4252.767375899944,None,4252.767375899944,None,4252.767375899944,None,4252.767375899944,None,4253.052199800033,4254.99654390011,4253.052199800033,4254.99654390011,4255.01704069972,None,4255.01704069972,None,4255.01704069972,None,4255.01704069972,None,4255.01704069972,None,4255.01704069972,None,4255.01704069972,None,4255.01704069972,None,4255.01704069972,None,62,33,62,62,62,57,4257.528092999943,None,6.0,0.6233785003423691,4257.528092999943,None,4257.528092999943,None,4257.528092999943,None,4257.528092999943,None,None,None,4258.170316400006,None,,,,,,,142,f,1,2022_Dec_13_1541,RL,2021.2.3,60.32938634927832,
1,44,0,44,0,,,,,,,,,,,,,,,None,None,None,None,None,4259.783094099723,None,4259.783094099723,None,4259.783094099723,None,4259.783094099723,None,j,0.36987779987975955,4259.783094099723,None,4259.783094099723,None,4260.194952500053,None,4260.194952500053,None,4260.194952500053,None,4260.194952500053,None,4260.194952500053,None,4260.194952500053,None,4260.481751900166,4262.459326999728,4260.481751900166,4262.459326999728,4262.48304789979,None,4262.48304789979,None,4262.48304789979,None,4262.48304789979,None,4262.48304789979,None,4262.48304789979,None,4262.48304789979,None,4262.48304789979,None,4262.48304789979,None,65,34,66,53,53,19,4264.991678199731,None,6.0,0.6722814999520779,4264.991678199731,None,4264.991678199731,None,4264.991678199731,None,4264.991678199731,None,None,None,4265.683501500171,None,,,,,,,142,f,1,2022_Dec_13_1541,RL,2021.2.3,60.32938634927832,
1,45,0,45,0,,,,,,,,,,,,,,,None,None,None,None,None,4267.595213199966,None,4267.595213199966,None,4267.595213199966,None,4267.595213199966,None,None,,4267.595213199966,None,4267.595213199966,None,None,None,None,None,None,None,None,None,None,None,None,None,None,None,None,None,None,None,None,None,None,None,None,None,None,None,None,None,None,None,None,None,None,None,67,37,67,62,0,**,None,None,None,None,None,None,None,None,None,None,None,None,4269.137806700077,None,4273.6447326997295,None,,,,,,,142,f,1,2022_Dec_13_1541,RL,2021.2.3,60.32938634927832,
1,46,0,46,0,,,,,,,,,,,,,,,None,None,None,None,None,4275.307814000174,None,4275.307814000174,None,4275.307814000174,None,4275.307814000174,None,j,0.3758287997916341,4275.307814000174,None,4275.307814000174,None,4275.720462100115,None,4275.720462100115,None,4275.720462100115,None,4275.720462100115,None,4275.720462100115,None,4275.720462100115,None,4276.005819699727,4277.385254299734,4276.005819699727,4277.385254299734,4277.408733400051,None,4277.408733400051,None,4277.408733400051,None,4277.408733400051,None,4277.408733400051,None,4277.408733400051,None,4277.408733400051,None,4277.408733400051,None,4277.408733400051,None,66,33,60,62,62,60,4279.920159699861,None,5.0,1.5509490999393165,4279.920159699861,None,4279.920159699861,None,4279.920159699861,None,4279.920159699861,None,None,None,4281.48997720005,None,,,,,,,142,f,1,2022_Dec_13_1541,RL,2021.2.3,60.32938634927832,
1,47,0,47,0,,,,,,,,,,,,,,,None,None,None,None,None,4283.335227599833,None,4283.335227599833,None,4283.335227599833,None,4283.335227599833,None,i,0.2917558001354337,4283.335227599833,None,4283.335227599833,None,4283.663377999794,None,4283.663377999794,None,4283.663377999794,None,4283.663377999794,None,4283.663377999794,None,4283.663377999794,None,4283.950879599899,4285.928437099792,4283.950879599899,4285.928437099792,4285.94865990011,None,4285.94865990011,None,4285.94865990011,None,4285.94865990011,None,4285.94865990011,None,4285.94865990011,None,4285.94865990011,None,4285.94865990011,None,4285.94865990011,None,63,36,59,67,59,41,4288.459833600093,None,5.0,0.690510299988091,4288.459833600093,None,4288.459833600093,None,4288.459833600093,None,4288.459833600093,None,None,None,4289.168751500081,None,,,,,,,142,f,1,2022_Dec_13_1541,RL,2021.2.3,60.32938634927832,
1,48,0,48,0,,,,,,,,,,,,,,,None,None,None,None,None,4290.94832389988,None,4290.94832389988,None,4290.94832389988,None,4290.94832389988,None,i,0.8589448998682201,4290.94832389988,None,4290.94832389988,None,4291.843833299819,None,4291.843833299819,None,4291.843833299819,None,4291.843833299819,None,4291.843833299819,None,4291.843833299819,None,4292.128884899896,4293.474835800007,4292.128884899896,4293.474835800007,4293.497605099808,None,4293.497605099808,None,4293.497605099808,None,4293.497605099808,None,4293.497605099808,None,4293.497605099808,None,4293.497605099808,None,4293.497605099808,None,4293.497605099808,None,60,27,56,62,56,65,4296.007317800075,None,5.0,1.1544620003551245,4296.007317800075,None,4296.007317800075,None,4296.007317800075,None,4296.007317800075,None,None,None,4297.180612599943,None,,,,,,,142,f,1,2022_Dec_13_1541,RL,2021.2.3,60.32938634927832,
1,49,0,49,0,,,,,,,,,,,,,,,None,None,None,None,None,4298.993009299971,None,4298.993009299971,None,4298.993009299971,None,4298.993009299971,None,i,0.47706850012764335,4298.993009299971,None,4298.993009299971,None,4299.50274279993,None,4299.50274279993,None,4299.50274279993,None,4299.50274279993,None,4299.50274279993,None,4299.50274279993,None,4299.7912268000655,4300.605293599889,4299.7912268000655,4300.605293599889,4300.627293299884,None,4300.627293299884,None,4300.627293299884,None,4300.627293299884,None,4300.627293299884,None,4300.627293299884,None,4300.627293299884,None,4300.627293299884,None,4300.627293299884,None,63,43,59,72,59,71,4303.137958299834,None,4.0,0.7387079000473022,4303.137958299834,None,4303.137958299834,None,4303.137958299834,None,4303.137958299834,None,None,None,4303.895590399858,None,,,,,,,142,f,1,2022_Dec_13_1541,RL,2021.2.3,60.32938634927832,
1,50,0,50,0,,,,,,,,,,,,,,,None,None,None,None,None,4305.657821199857,None,4305.657821199857,None,4305.657821199857,None,4305.657821199857,None,j,0.5325238998048007,4305.657821199857,None,4305.657821199857,None,4306.216314000078,None,4306.216314000078,None,4306.216314000078,None,4306.216314000078,None,4306.216314000078,None,4306.216314000078,None,4306.505854399875,None,4306.505854399875,None,4308.203930600081,None,4308.203930600081,None,4308.203930600081,None,4308.203930600081,None,4308.203930600081,None,4308.203930600081,None,4308.203930600081,None,4308.203930600081,None,4308.203930600081,None,64,38,56,64,64,68,4310.715100300033,None,4.0,0.5595074002631009,4310.715100300033,None,4310.715100300033,None,4310.715100300033,None,4310.715100300033,None,None,None,4311.2916600001045,None,,,,,,,142,f,1,2022_Dec_13_1541,RL,2021.2.3,60.32938634927832,
1,51,0,51,0,,,,,,,,,,,,,,,None,None,None,None,None,4312.855078099761,None,4312.855078099761,None,4312.855078099761,None,4312.855078099761,None,None,,4312.855078099761,None,4312.855078099761,None,None,None,None,None,None,None,None,None,None,None,None,None,None,None,None,None,None,None,None,None,None,None,None,None,None,None,None,None,None,None,None,None,None,None,62,43,63,59,0,**,None,None,None,None,None,None,None,None,None,None,None,None,4314.398266099859,None,4318.904459899757,None,,,,,,,142,f,1,2022_Dec_13_1541,RL,2021.2.3,60.32938634927832,
1,52,0,52,0,,,,,,,,,,,,,,,None,None,None,None,None,4320.733777000103,None,4320.733777000103,None,4320.733777000103,None,4320.733777000103,None,f,0.3402799000032246,4320.733777000103,None,4320.733777000103,None,4321.110166099854,None,4321.110166099854,None,4321.110166099854,None,4321.110166099854,None,4321.110166099854,None,4321.110166099854,None,4321.398867900018,4322.860924699809,4321.398867900018,4322.860924699809,4322.885661699809,None,4322.885661699809,None,4322.885661699809,None,4322.885661699809,None,4322.885661699809,None,4322.885661699809,None,4322.885661699809,None,4322.885661699809,None,4322.885661699809,None,60,46,67,63,46,24,4325.392682299949,None,4.0,1.3217295999638736,4325.392682299949,None,4325.392682299949,None,4325.392682299949,None,4325.392682299949,None,None,None,4326.7331300997175,None,,,,,,,142,f,1,2022_Dec_13_1541,RL,2021.2.3,60.32938634927832,
1,53,0,53,0,,,,,,,,,,,,,,,None,None,None,None,None,4328.429483999964,None,4328.429483999964,None,4328.429483999964,None,4328.429483999964,None,f,0.3093278999440372,4328.429483999964,None,4328.429483999964,None,4328.771449299995,None,4328.771449299995,None,4328.771449299995,None,4328.771449299995,None,4328.771449299995,None,4328.771449299995,None,4329.061334199738,None,4329.061334199738,None,4331.077417099848,None,4331.077417099848,None,4331.077417099848,None,4331.077417099848,None,4331.077417099848,None,4331.077417099848,None,4331.077417099848,None,4331.077417099848,None,4331.077417099848,None,50,37,76,65,37,67,4333.5894243000075,None,4.0,1.3184571000747383,4333.5894243000075,None,4333.5894243000075,None,4333.5894243000075,None,4333.5894243000075,None,None,None,4334.927378599998,None,,,,,,,142,f,1,2022_Dec_13_1541,RL,2021.2.3,60.32938634927832,
1,54,0,54,0,,,,,,,,,,,,,,,None,None,None,None,None,4336.739702700172,None,4336.739702700172,None,4336.739702700172,None,4336.739702700172,None,i,0.26204939978197217,4336.739702700172,None,4336.739702700172,None,4337.033833499998,None,4337.033833499998,None,4337.033833499998,None,4337.033833499998,None,4337.033833499998,None,4337.033833499998,None,4337.322011400014,4338.701528300066,4337.322011400014,4338.701528300066,4338.721523600165,None,4338.721523600165,None,4338.721523600165,None,4338.721523600165,None,4338.721523600165,None,4338.721523600165,None,4338.721523600165,None,4338.721523600165,None,4338.721523600165,None,56,36,66,70,66,78,4341.231377500109,None,4.0,0.507683000061661,4341.231377500109,None,4341.231377500109,None,4341.231377500109,None,4341.231377500109,None,None,None,4341.7584906001575,None,,,,,,,142,f,1,2022_Dec_13_1541,RL,2021.2.3,60.32938634927832,
1,55,0,55,0,,,,,,,,,,,,,,,None,None,None,None,None,4343.588551499881,None,4343.588551499881,None,4343.588551499881,None,4343.588551499881,None,j,0.9128002002835274,4343.588551499881,None,4343.588551499881,None,4344.530114799738,None,4344.530114799738,None,4344.530114799738,None,4344.530114799738,None,4344.530114799738,None,4344.530114799738,None,4344.818216199987,None,4344.818216199987,None,4346.002961100079,None,4346.002961100079,None,4346.002961100079,None,4346.002961100079,None,4346.002961100079,None,4346.002961100079,None,4346.002961100079,None,4346.002961100079,None,4346.002961100079,None,55,36,66,59,59,70,4348.511693499982,None,4.0,0.5080013000406325,4348.511693499982,None,4348.511693499982,None,4348.511693499982,None,4348.511693499982,None,None,None,4349.038761400152,None,,,,,,,142,f,1,2022_Dec_13_1541,RL,2021.2.3,60.32938634927832,
1,56,0,56,0,,,,,,,,,,,,,,,None,None,None,None,None,4350.8843923998065,None,4350.8843923998065,None,4350.8843923998065,None,4350.8843923998065,None,i,0.2925836998037994,4350.8843923998065,None,4350.8843923998065,None,4351.214392099995,None,4351.214392099995,None,4351.214392099995,None,4351.214392099995,None,4351.214392099995,None,4351.214392099995,None,4351.500097100157,4353.361607099883,4351.500097100157,4353.361607099883,4353.38381579984,None,4353.38381579984,None,4353.38381579984,None,4353.38381579984,None,4353.38381579984,None,4353.38381579984,None,4353.38381579984,None,4353.38381579984,None,4353.38381579984,None,64,40,62,66,62,46,4355.8945071999915,None,4.0,1.1528794998303056,4355.8945071999915,None,4355.8945071999915,None,4355.8945071999915,None,4355.8945071999915,None,None,None,4357.0669347997755,None,,,,,,,142,f,1,2022_Dec_13_1541,RL,2021.2.3,60.32938634927832,
1,57,0,57,0,,,,,,,,,,,,,,,None,None,None,None,None,4358.630346599966,None,4358.630346599966,None,4358.630346599966,None,4358.630346599966,None,i,0.28032669983804226,4358.630346599966,None,4358.630346599966,None,4358.942455700133,None,4358.942455700133,None,4358.942455700133,None,4358.942455700133,None,4358.942455700133,None,4358.942455700133,None,4359.229021899868,4360.392295899801,4359.229021899868,4360.392295899801,4360.414921999909,None,4360.414921999909,None,4360.414921999909,None,4360.414921999909,None,4360.414921999909,None,4360.414921999909,None,4360.414921999909,None,4360.414921999909,None,4360.414921999909,None,72,45,64,58,64,71,4362.9251605998725,None,4.0,1.4034778997302055,4362.9251605998725,None,4362.9251605998725,None,4362.9251605998725,None,4362.9251605998725,None,None,None,4364.347228799947,None,,,,,,,142,f,1,2022_Dec_13_1541,RL,2021.2.3,60.32938634927832,
1,58,0,58,0,,,,,,,,,,,,,,,None,None,None,None,None,4366.27616189979,None,4366.27616189979,None,4366.27616189979,None,4366.27616189979,None,i,1.0580911003053188,4366.27616189979,None,4366.27616189979,None,4367.369526300114,None,4367.369526300114,None,4367.369526300114,None,4367.369526300114,None,4367.369526300114,None,4367.369526300114,None,4367.655885799788,4369.434170300141,4367.655885799788,4369.434170300141,4369.455580600072,None,4369.455580600072,None,4369.455580600072,None,4369.455580600072,None,4369.455580600072,None,4369.455580600072,None,4369.455580600072,None,4369.455580600072,None,4369.455580600072,None,67,39,68,68,68,49,4371.967009400018,None,4.0,1.0221437998116016,4371.967009400018,None,4371.967009400018,None,4371.967009400018,None,4371.967009400018,None,None,None,4373.007609100081,None,,,,,,,142,f,1,2022_Dec_13_1541,RL,2021.2.3,60.32938634927832,
1,59,0,59,0,,,,,,,,,,,,,,,None,None,None,None,None,4374.702942300122,None,4374.702942300122,None,4374.702942300122,None,4374.702942300122,None,i,0.9600152997300029,4374.702942300122,None,4374.702942300122,None,4375.700287499931,None,4375.700287499931,None,4375.700287499931,None,4375.700287499931,None,4375.700287499931,None,4375.700287499931,None,4375.983093599789,4377.06348290015,4375.983093599789,4377.06348290015,4377.088227400091,None,4377.088227400091,None,4377.088227400091,None,4377.088227400091,None,4377.088227400091,None,4377.088227400091,None,4377.088227400091,None,4377.088227400091,None,4377.088227400091,None,65,44,75,74,75,48,4379.596714499872,None,5.0,1.8505283002741635,4379.596714499872,None,4379.596714499872,None,4379.596714499872,None,4379.596714499872,None,None,None,4381.467145400122,None,,,,,,,142,f,1,2022_Dec_13_1541,RL,2021.2.3,60.32938634927832,
1,60,0,60,0,,,,,,,,,,,,,,,None,None,None,None,None,4383.346446800046,None,4383.346446800046,None,4383.346446800046,None,4383.346446800046,None,i,0.3810451999306679,4383.346446800046,None,4383.346446800046,None,4383.754409899935,None,4383.754409899935,None,4383.754409899935,None,4383.754409899935,None,4383.754409899935,None,4383.754409899935,None,4384.044513799716,4385.506853399798,4384.044513799716,4385.506853399798,4385.530297999736,None,4385.530297999736,None,4385.530297999736,None,4385.530297999736,None,4385.530297999736,None,4385.530297999736,None,4385.530297999736,None,4385.530297999736,None,4385.530297999736,None,68,45,71,67,71,29,4388.038553100079,None,5.0,0.5724479998461902,4388.038553100079,None,4388.038553100079,None,4388.038553100079,None,4388.038553100079,None,None,None,4388.63063280005,None,,,,,,,142,f,1,2022_Dec_13_1541,RL,2021.2.3,60.32938634927832,
1,61,0,61,0,,,,,,,,,,,,,,,None,None,None,None,None,4390.426465900149,None,4390.426465900149,None,4390.426465900149,None,4390.426465900149,None,i,0.4952823999337852,4390.426465900149,None,4390.426465900149,None,4390.955544999801,None,4390.955544999801,None,4390.955544999801,None,4390.955544999801,None,4390.955544999801,None,4390.955544999801,None,4391.241597400047,4392.388191499747,4391.241597400047,4392.388191499747,4392.409325900022,None,4392.409325900022,None,4392.409325900022,None,4392.409325900022,None,4392.409325900022,None,4392.409325900022,None,4392.409325900022,None,4392.409325900022,None,4392.409325900022,None,71,49,57,66,57,28,4394.923768300097,None,5.0,0.5698392000049353,4394.923768300097,None,4394.923768300097,None,4394.923768300097,None,4394.923768300097,None,None,None,4395.512898999732,None,,,,,,,142,f,1,2022_Dec_13_1541,RL,2021.2.3,60.32938634927832,
1,62,0,62,0,,,,,,,,,,,,,,,None,None,None,None,None,4397.491193399765,None,4397.491193399765,None,4397.491193399765,None,4397.491193399765,None,j,1.3793693999759853,4397.491193399765,None,4397.491193399765,None,4398.897374900058,None,4398.897374900058,None,4398.897374900058,None,4398.897374900058,None,4398.897374900058,None,4398.897374900058,None,4399.186486599967,4400.383293599822,4399.186486599967,4400.383293599822,4400.407645400148,None,4400.407645400148,None,4400.407645400148,None,4400.407645400148,None,4400.407645400148,None,4400.407645400148,None,4400.407645400148,None,4400.407645400148,None,4400.407645400148,None,74,52,63,69,69,69,4402.916582500096,None,5.0,0.5220792996697128,4402.916582500096,None,4402.916582500096,None,4402.916582500096,None,4402.916582500096,None,None,None,4403.456837699749,None,,,,,,,142,f,1,2022_Dec_13_1541,RL,2021.2.3,60.32938634927832,
1,63,0,63,0,,,,,,,,,,,,,,,None,None,None,None,None,4405.352660399862,None,4405.352660399862,None,4405.352660399862,None,4405.352660399862,None,i,0.35857139993458986,4405.352660399862,None,4405.352660399862,None,4405.7477380000055,None,4405.7477380000055,None,4405.7477380000055,None,4405.7477380000055,None,4405.7477380000055,None,4405.7477380000055,None,4406.034410899971,4408.012066000141,4406.034410899971,4408.012066000141,4408.033164199907,None,4408.033164199907,None,4408.033164199907,None,4408.033164199907,None,4408.033164199907,None,4408.033164199907,None,4408.033164199907,None,4408.033164199907,None,4408.033164199907,None,74,51,69,64,69,69,4410.542746500112,None,5.0,1.2231208002194762,4410.542746500112,None,4410.542746500112,None,4410.542746500112,None,4410.542746500112,None,None,None,4411.784680599812,None,,,,,,,142,f,1,2022_Dec_13_1541,RL,2021.2.3,60.32938634927832,
1,64,0,64,0,,,,,,,,,,,,,,,None,None,None,None,None,4413.680493100081,None,4413.680493100081,None,4413.680493100081,None,4413.680493100081,None,i,0.2929253997281194,4413.680493100081,None,4413.680493100081,None,4414.00901849987,None,4414.00901849987,None,4414.00901849987,None,4414.00901849987,None,4414.00901849987,None,4414.00901849987,None,4414.295563399792,4416.13984580012,4414.295563399792,4416.13984580012,4416.160269299988,None,4416.160269299988,None,4416.160269299988,None,4416.160269299988,None,4416.160269299988,None,4416.160269299988,None,4416.160269299988,None,4416.160269299988,None,4416.160269299988,None,80,50,61,60,61,65,4418.673679499887,None,5.0,0.7214410998858511,4418.673679499887,None,4418.673679499887,None,4418.673679499887,None,4418.673679499887,None,None,None,4419.4133553998545,None,,,,,,,142,f,1,2022_Dec_13_1541,RL,2021.2.3,60.32938634927832,
1,65,0,65,0,,,,,,,,,,,,,,,None,None,None,None,None,4420.943704499863,None,4420.943704499863,None,4420.943704499863,None,4420.943704499863,None,j,0.4194330000318587,4420.943704499863,None,4420.943704499863,None,4421.405827399809,None,4421.405827399809,None,4421.405827399809,None,4421.405827399809,None,4421.405827399809,None,4421.405827399809,None,4421.692120200023,4422.6553974999115,4421.692120200023,4422.6553974999115,4422.678323599976,None,4422.678323599976,None,4422.678323599976,None,4422.678323599976,None,4422.678323599976,None,4422.678323599976,None,4422.678323599976,None,4422.678323599976,None,4422.678323599976,None,71,54,68,65,65,64,4425.18869430013,None,5.0,1.2707342999055982,4425.18869430013,None,4425.18869430013,None,4425.18869430013,None,4425.18869430013,None,None,None,4426.4778904998675,None,,,,,,,142,f,1,2022_Dec_13_1541,RL,2021.2.3,60.32938634927832,
1,66,0,66,0,,,,,,,,,,,,,,,None,None,None,None,None,4428.323447399773,None,4428.323447399773,None,4428.323447399773,None,4428.323447399773,None,i,0.5241673002019525,4428.323447399773,None,4428.323447399773,None,4428.886285699904,None,4428.886285699904,None,4428.886285699904,None,4428.886285699904,None,4428.886285699904,None,4428.886285699904,None,4429.171586399898,4430.33448279975,4429.171586399898,4430.33448279975,4430.357108599972,None,4430.357108599972,None,4430.357108599972,None,4430.357108599972,None,4430.357108599972,None,4430.357108599972,None,4430.357108599972,None,4430.357108599972,None,4430.357108599972,None,68,48,56,63,56,60,4432.86730539985,None,5.0,0.5560000003315508,4432.86730539985,None,4432.86730539985,None,4432.86730539985,None,4432.86730539985,None,None,None,4433.441834100056,None,,,,,,,142,f,1,2022_Dec_13_1541,RL,2021.2.3,60.32938634927832,
1,67,0,67,0,,,,,,,,,,,,,,,None,None,None,None,None,4435.354197899811,None,4435.354197899811,None,4435.354197899811,None,4435.354197899811,None,f,1.2834433000534773,4435.354197899811,None,4435.354197899811,None,4436.677539600059,None,4436.677539600059,None,4436.677539600059,None,4436.677539600059,None,4436.677539600059,None,4436.677539600059,None,4436.966639399994,4438.479263599962,4436.966639399994,4438.479263599962,4438.499642899726,None,4438.499642899726,None,4438.499642899726,None,4438.499642899726,None,4438.499642899726,None,4438.499642899726,None,4438.499642899726,None,4438.499642899726,None,4438.499642899726,None,74,57,64,63,57,59,4441.011091799941,None,4.0,1.5701162000186741,4441.011091799941,None,4441.011091799941,None,4441.011091799941,None,4441.011091799941,None,None,None,4442.600295399781,None,,,,,,,142,f,1,2022_Dec_13_1541,RL,2021.2.3,60.32938634927832,
1,68,0,68,0,,,,,,,,,,,,,,,None,None,None,None,None,4444.528741300106,None,4444.528741300106,None,4444.528741300106,None,4444.528741300106,None,r,0.4317844002507627,4444.528741300106,None,4444.528741300106,None,4444.986683699768,None,4444.986683699768,None,4444.986683699768,None,4444.986683699768,None,4444.986683699768,None,4444.986683699768,None,4445.27720770007,4447.23858640017,4445.27720770007,4447.23858640017,4447.259946399834,None,4447.259946399834,None,4447.259946399834,None,4447.259946399834,None,4447.259946399834,None,4447.259946399834,None,4447.259946399834,None,4447.259946399834,None,4447.259946399834,None,66,51,58,68,66,30,4449.768350000028,None,5.0,1.8090868997387588,4449.768350000028,None,4449.768350000028,None,4449.768350000028,None,4449.768350000028,None,None,None,4451.592520100065,None,,,,,,,142,f,1,2022_Dec_13_1541,RL,2021.2.3,60.32938634927832,
1,69,0,69,0,,,,,,,,,,,,,,,None,None,None,None,None,4453.2883032001555,None,4453.2883032001555,None,4453.2883032001555,None,4453.2883032001555,None,f,0.7340517002157867,4453.2883032001555,None,4453.2883032001555,None,4454.063858000096,None,4454.063858000096,None,4454.063858000096,None,4454.063858000096,None,4454.063858000096,None,4454.063858000096,None,4454.352822400164,None,4454.352822400164,None,4455.652670099866,None,4455.652670099866,None,4455.652670099866,None,4455.652670099866,None,4455.652670099866,None,4455.652670099866,None,4455.652670099866,None,4455.652670099866,None,4455.652670099866,None,71,65,62,68,65,64,4458.162668599747,None,4.0,0.6427247002720833,4458.162668599747,None,4458.162668599747,None,4458.162668599747,None,4458.162668599747,None,None,None,4458.8225682997145,None,,,,,,,142,f,1,2022_Dec_13_1541,RL,2021.2.3,60.32938634927832,
1,70,0,70,0,,,,,,,,,,,,,,,None,None,None,None,None,4460.767949900124,None,4460.767949900124,None,4460.767949900124,None,4460.767949900124,None,r,0.4090098002925515,4460.767949900124,None,4460.767949900124,None,4461.212799400091,None,4461.212799400091,None,4461.212799400091,None,4461.212799400091,None,4461.212799400091,None,4461.212799400091,None,4461.499922200106,4462.330965799745,4461.499922200106,4462.330965799745,4462.3515988998115,None,4462.3515988998115,None,4462.3515988998115,None,4462.3515988998115,None,4462.3515988998115,None,4462.3515988998115,None,4462.3515988998115,None,4462.3515988998115,None,4462.3515988998115,None,64,65,66,74,64,66,4464.860161200166,None,4.0,0.6570715997368097,4464.860161200166,None,4464.860161200166,None,4464.860161200166,None,4464.860161200166,None,None,None,4465.537627299782,None,,,,,,,142,f,1,2022_Dec_13_1541,RL,2021.2.3,60.32938634927832,
1,71,0,71,0,,,,,,,,,,,,,,,None,None,None,None,None,4467.1673661000095,None,4467.1673661000095,None,4467.1673661000095,None,4467.1673661000095,None,r,0.6162079996429384,4467.1673661000095,None,4467.1673661000095,None,4467.8116298997775,None,4467.8116298997775,None,4467.8116298997775,None,4467.8116298997775,None,4467.8116298997775,None,4467.8116298997775,None,4468.098407600075,4469.494556799997,4468.098407600075,4469.494556799997,4469.515946399886,None,4469.515946399886,None,4469.515946399886,None,4469.515946399886,None,4469.515946399886,None,4469.515946399886,None,4469.515946399886,None,4469.515946399886,None,4469.515946399886,None,71,63,58,69,71,62,4472.027349600103,None,5.0,0.722462700214237,4472.027349600103,None,4472.027349600103,None,4472.027349600103,None,4472.027349600103,None,None,None,4472.768147400115,None,,,,,,,142,f,1,2022_Dec_13_1541,RL,2021.2.3,60.32938634927832,
1,72,0,72,0,,,,,,,,,,,,,,,None,None,None,None,None,4474.281503399834,None,4474.281503399834,None,4474.281503399834,None,4474.281503399834,None,f,0.44749779999256134,4474.281503399834,None,4474.281503399834,None,4474.760003100149,None,4474.760003100149,None,4474.760003100149,None,4474.760003100149,None,4474.760003100149,None,4474.760003100149,None,4475.046044900082,4476.076432500035,4475.046044900082,4476.076432500035,4476.097889000084,None,4476.097889000084,None,4476.097889000084,None,4476.097889000084,None,4476.097889000084,None,4476.097889000084,None,4476.097889000084,None,4476.097889000084,None,4476.097889000084,None,68,60,52,74,60,72,4478.609942200128,None,5.0,0.954812899697572,4478.609942200128,None,4478.609942200128,None,4478.609942200128,None,4478.609942200128,None,None,None,4479.582603999879,None,,,,,,,142,f,1,2022_Dec_13_1541,RL,2021.2.3,60.32938634927832,
1,73,0,73,0,,,,,,,,,,,,,,,None,None,None,None,None,4481.2458123997785,None,4481.2458123997785,None,4481.2458123997785,None,4481.2458123997785,None,f,0.3600547001697123,4481.2458123997785,None,4481.2458123997785,None,4481.640359600075,None,4481.640359600075,None,4481.640359600075,None,4481.640359600075,None,4481.640359600075,None,4481.640359600075,None,4481.92711459985,None,4481.92711459985,None,4483.344225499779,None,4483.344225499779,None,4483.344225499779,None,4483.344225499779,None,4483.344225499779,None,4483.344225499779,None,4483.344225499779,None,4483.344225499779,None,4483.344225499779,None,60,68,70,75,68,67,4485.8536236998625,None,5.0,0.7240177998319268,4485.8536236998625,None,4485.8536236998625,None,4485.8536236998625,None,4485.8536236998625,None,None,None,4486.597080399748,None,,,,,,,142,f,1,2022_Dec_13_1541,RL,2021.2.3,60.32938634927832,
1,74,0,74,0,,,,,,,,,,,,,,,None,None,None,None,None,4488.575412099715,None,4488.575412099715,None,4488.575412099715,None,4488.575412099715,None,f,0.9227392002940178,4488.575412099715,None,4488.575412099715,None,4489.532462600153,None,4489.532462600153,None,4489.532462600153,None,4489.532462600153,None,4489.532462600153,None,4489.532462600153,None,4489.822621699888,4490.869401599746,4489.822621699888,4490.869401599746,4490.891613699961,None,4490.891613699961,None,4490.891613699961,None,4490.891613699961,None,4490.891613699961,None,4490.891613699961,None,4490.891613699961,None,4490.891613699961,None,4490.891613699961,None,59,67,70,65,67,66,4493.403277299833,None,4.0,1.618016299791634,4493.403277299833,None,4493.403277299833,None,4493.403277299833,None,4493.403277299833,None,None,None,4495.040823199786,None,,,,,,,142,f,1,2022_Dec_13_1541,RL,2021.2.3,60.32938634927832,
1,75,0,75,0,,,,,,,,,,,,,,,4496.736598200165,None,q,4496.736598200165,None,4535.331179900095,None,4535.331179900095,None,4535.331179900095,None,4535.331179900095,None,None,,4535.331179900095,None,4535.331179900095,None,None,None,None,None,None,None,None,None,None,None,None,None,None,None,None,None,None,None,None,None,None,None,None,None,None,None,None,None,None,None,None,None,None,None,65,54,69,78,0,**,None,None,None,None,None,None,None,None,None,None,None,None,4536.8746317997575,None,4541.38094069995,None,38.563637000042945,,,,,,142,f,1,2022_Dec_13_1541,RL,2021.2.3,60.32938634927832,
1,76,0,76,0,,,,,,,,,,,,,,,None,None,None,None,None,4543.109974999912,None,4543.109974999912,None,4543.109974999912,None,4543.109974999912,None,j,0.38471199991181493,4543.109974999912,None,4543.109974999912,None,4543.5365141998045,None,4543.5365141998045,None,4543.5365141998045,None,4543.5365141998045,None,4543.5365141998045,None,4543.5365141998045,None,4543.825263999868,4545.8032240001485,4543.825263999868,4545.8032240001485,4545.826097799931,None,4545.826097799931,None,4545.826097799931,None,4545.826097799931,None,4545.826097799931,None,4545.826097799931,None,4545.826097799931,None,4545.826097799931,None,4545.826097799931,None,63,66,70,71,71,63,4548.336532799993,None,5.0,0.9875262998975813,4548.336532799993,None,4548.336532799993,None,4548.336532799993,None,4548.336532799993,None,None,None,4549.342162400018,None,,,,,,,142,f,1,2022_Dec_13_1541,RL,2021.2.3,60.32938634927832,
1,77,0,77,0,,,,,,,,,,,,,,,None,None,None,None,None,4550.971908299718,None,4550.971908299718,None,4550.971908299718,None,4550.971908299718,None,i,0.2857929999008775,4550.971908299718,None,4550.971908299718,None,4551.300305000041,None,4551.300305000041,None,4551.300305000041,None,4551.300305000041,None,4551.300305000041,None,4551.300305000041,None,4551.587179400027,4553.216147100087,4551.587179400027,4553.216147100087,4553.237902400084,None,4553.237902400084,None,4553.237902400084,None,4553.237902400084,None,4553.237902400084,None,4553.237902400084,None,4553.237902400084,None,4553.237902400084,None,4553.237902400084,None,61,55,68,70,68,68,4555.747272700071,None,4.0,0.557368699926883,4555.747272700071,None,4555.747272700071,None,4555.747272700071,None,4555.747272700071,None,None,None,4556.323386100121,None,,,,,,,142,f,1,2022_Dec_13_1541,RL,2021.2.3,60.32938634927832,
1,78,0,78,0,,,,,,,,,,,,,,,None,None,None,None,None,4558.285334399901,None,4558.285334399901,None,4558.285334399901,None,4558.285334399901,None,i,0.40689059998840094,4558.285334399901,None,4558.285334399901,None,4558.727897500154,None,4558.727897500154,None,4558.727897500154,None,4558.727897500154,None,4558.727897500154,None,4558.727897500154,None,4559.0170172001235,4560.728961599991,4559.0170172001235,4560.728961599991,4560.7497151000425,None,4560.7497151000425,None,4560.7497151000425,None,4560.7497151000425,None,4560.7497151000425,None,4560.7497151000425,None,4560.7497151000425,None,4560.7497151000425,None,4560.7497151000425,None,59,57,62,69,62,51,4563.258448000066,None,5.0,1.19120329990983,4563.258448000066,None,4563.258448000066,None,4563.258448000066,None,4563.258448000066,None,None,None,4564.467625299934,None,,,,,,,142,f,1,2022_Dec_13_1541,RL,2021.2.3,60.32938634927832,
1,79,0,79,0,,,,,,,,,,,,,,,None,None,None,None,None,4566.346639699768,None,4566.346639699768,None,4566.346639699768,None,4566.346639699768,None,j,0.3188298000022769,4566.346639699768,None,4566.346639699768,None,4566.707702800166,None,4566.707702800166,None,4566.707702800166,None,4566.707702800166,None,4566.707702800166,None,4566.707702800166,None,4566.99541429989,4568.574088399764,4566.99541429989,4568.574088399764,4568.599403100088,None,4568.599403100088,None,4568.599403100088,None,4568.599403100088,None,4568.599403100088,None,4568.599403100088,None,4568.599403100088,None,4568.599403100088,None,4568.599403100088,None,54,68,66,69,69,64,4571.10754820006,None,5.0,1.0368431000970304,4571.10754820006,None,4571.10754820006,None,4571.10754820006,None,4571.10754820006,None,None,None,4572.16372129973,None,,,,,,,142,f,1,2022_Dec_13_1541,RL,2021.2.3,60.32938634927832,
1,80,0,80,0,,,,,,,,,,,,,,,None,None,None,None,None,4574.125753500033,None,4574.125753500033,None,4574.125753500033,None,4574.125753500033,None,i,0.26416750019416213,4574.125753500033,None,4574.125753500033,None,4574.4187913001515,None,4574.4187913001515,None,4574.4187913001515,None,4574.4187913001515,None,4574.4187913001515,None,4574.4187913001515,None,4574.707518199924,None,4574.707518199924,None,4575.909869899973,None,4575.909869899973,None,4575.909869899973,None,4575.909869899973,None,4575.909869899973,None,4575.909869899973,None,4575.909869899973,None,4575.909869899973,None,4575.909869899973,None,59,56,68,69,68,54,4578.421541099902,None,5.0,1.3678488000296056,4578.421541099902,None,4578.421541099902,None,4578.421541099902,None,4578.421541099902,None,None,None,4579.809427800123,None,,,,,,,142,f,1,2022_Dec_13_1541,RL,2021.2.3,60.32938634927832,
1,81,0,81,0,,,,,,,,,,,,,,,None,None,None,None,None,4581.754951199982,None,4581.754951199982,None,4581.754951199982,None,4581.754951199982,None,i,0.2835520999506116,4581.754951199982,None,4581.754951199982,None,4582.06628189981,None,4582.06628189981,None,4582.06628189981,None,4582.06628189981,None,4582.06628189981,None,4582.06628189981,None,4582.353741399944,4583.3008563998155,4582.353741399944,4583.3008563998155,4583.323318599723,None,4583.323318599723,None,4583.323318599723,None,4583.323318599723,None,4583.323318599723,None,4583.323318599723,None,4583.323318599723,None,4583.323318599723,None,4583.323318599723,None,69,54,60,65,60,54,4585.8329147999175,None,5.0,0.789355699904263,4585.8329147999175,None,4585.8329147999175,None,4585.8329147999175,None,4585.8329147999175,None,None,None,4586.6406874000095,None,,,,,,,142,f,1,2022_Dec_13_1541,RL,2021.2.3,60.32938634927832,
1,82,0,82,0,,,,,,,,,,,,,,,None,None,None,None,None,4588.386369399726,None,4588.386369399726,None,4588.386369399726,None,4588.386369399726,None,i,0.2969475002028048,4588.386369399726,None,4588.386369399726,None,4588.714648999739,None,4588.714648999739,None,4588.714648999739,None,4588.714648999739,None,4588.714648999739,None,4588.714648999739,None,4589.002075799741,4589.832811899949,4589.002075799741,4589.832811899949,4589.850423200056,None,4589.850423200056,None,4589.850423200056,None,4589.850423200056,None,4589.850423200056,None,4589.850423200056,None,4589.850423200056,None,4589.850423200056,None,4589.850423200056,None,74,66,54,66,54,46,4592.363615099806,None,5.0,0.5238407999277115,4592.363615099806,None,4592.363615099806,None,4592.363615099806,None,4592.363615099806,None,None,None,4592.906632000115,None,,,,,,,142,f,1,2022_Dec_13_1541,RL,2021.2.3,60.32938634927832,
1,83,0,83,0,,,,,,,,,,,,,,,None,None,None,None,None,4594.78579369979,None,4594.78579369979,None,4594.78579369979,None,4594.78579369979,None,j,0.28849769989028573,4594.78579369979,None,4594.78579369979,None,4595.113732799888,None,4595.113732799888,None,4595.113732799888,None,4595.113732799888,None,4595.113732799888,None,4595.113732799888,None,4595.401502700057,4596.730830399785,4595.401502700057,4596.730830399785,4596.753224399872,None,4596.753224399872,None,4596.753224399872,None,4596.753224399872,None,4596.753224399872,None,4596.753224399872,None,4596.753224399872,None,4596.753224399872,None,4596.753224399872,None,72,70,62,73,73,32,4599.262454600073,None,7.0,1.3219093000516295,4599.262454600073,None,4599.262454600073,None,4599.262454600073,None,4599.262454600073,None,None,None,4600.603446600027,None,,,,,,,142,f,1,2022_Dec_13_1541,RL,2021.2.3,60.32938634927832,
1,84,0,84,0,,,,,,,,,,,,,,,None,None,None,None,None,4602.198781199753,None,4602.198781199753,None,4602.198781199753,None,4602.198781199753,None,i,0.2506310995668173,4602.198781199753,None,4602.198781199753,None,4602.47593079973,None,4602.47593079973,None,4602.47593079973,None,4602.47593079973,None,4602.47593079973,None,4602.47593079973,None,4602.764345199801,None,4602.764345199801,None,4604.498114999849,None,4604.498114999849,None,4604.498114999849,None,4604.498114999849,None,4604.498114999849,None,4604.498114999849,None,4604.498114999849,None,4604.498114999849,None,4604.498114999849,None,75,62,64,66,64,54,4607.008066100068,None,7.0,1.0053594997152686,4607.008066100068,None,4607.008066100068,None,4607.008066100068,None,4607.008066100068,None,None,None,4608.032573199831,None,,,,,,,142,f,1,2022_Dec_13_1541,RL,2021.2.3,60.32938634927832,
1,85,0,85,0,,,,,,,,,,,,,,,None,None,None,None,None,4609.595375299919,None,4609.595375299919,None,4609.595375299919,None,4609.595375299919,None,i,0.2625978998839855,4609.595375299919,None,4609.595375299919,None,4609.8915483998135,None,4609.8915483998135,None,4609.8915483998135,None,4609.8915483998135,None,4609.8915483998135,None,4609.8915483998135,None,4610.177503400017,4610.991795499809,4610.177503400017,4610.991795499809,4611.014455900062,None,4611.014455900062,None,4611.014455900062,None,4611.014455900062,None,4611.014455900062,None,4611.014455900062,None,4611.014455900062,None,4611.014455900062,None,4611.014455900062,None,72,64,67,69,67,53,4613.523513299879,None,7.0,0.6876066001132131,4613.523513299879,None,4613.523513299879,None,4613.523513299879,None,4613.523513299879,None,None,None,4614.232102999929,None,,,,,,,142,f,1,2022_Dec_13_1541,RL,2021.2.3,60.32938634927832,
1,86,0,86,0,,,,,,,,,,,,,,,None,None,None,None,None,4615.961107700132,None,4615.961107700132,None,4615.961107700132,None,4615.961107700132,None,j,0.2882344997487962,4615.961107700132,None,4615.961107700132,None,4616.288656000048,None,4616.288656000048,None,4616.288656000048,None,4616.288656000048,None,4616.288656000048,None,4616.288656000048,None,4616.576755499933,None,4616.576755499933,None,4617.960073399823,None,4617.960073399823,None,4617.960073399823,None,4617.960073399823,None,4617.960073399823,None,4617.960073399823,None,4617.960073399823,None,4617.960073399823,None,4617.960073399823,None,75,56,58,81,81,53,4620.47102969978,None,7.0,0.6727761998772621,4620.47102969978,None,4620.47102969978,None,4620.47102969978,None,4620.47102969978,None,None,None,4621.162908799946,None,,,,,,,142,f,1,2022_Dec_13_1541,RL,2021.2.3,60.32938634927832,
1,87,0,87,0,,,,,,,,,,,,,,,None,None,None,None,None,4623.158864900004,None,4623.158864900004,None,4623.158864900004,None,4623.158864900004,None,i,0.41026189969852567,4623.158864900004,None,4623.158864900004,None,4623.608148099855,None,4623.608148099855,None,4623.608148099855,None,4623.608148099855,None,4623.608148099855,None,4623.608148099855,None,4623.890110699926,4625.319476199802,4623.890110699926,4625.319476199802,4625.341391399968,None,4625.341391399968,None,4625.341391399968,None,4625.341391399968,None,4625.341391399968,None,4625.341391399968,None,4625.341391399968,None,4625.341391399968,None,4625.341391399968,None,70,64,70,72,70,50,4627.852543400135,None,7.0,0.8052453999407589,4627.852543400135,None,4627.852543400135,None,4627.852543400135,None,4627.852543400135,None,None,None,4628.675936799962,None,,,,,,,142,f,1,2022_Dec_13_1541,RL,2021.2.3,60.32938634927832,
1,88,0,88,0,,,,,,,,,,,,,,,None,None,None,None,None,4630.554908399936,None,4630.554908399936,None,4630.554908399936,None,4630.554908399936,None,i,0.25908439978957176,4630.554908399936,None,4630.554908399936,None,4630.8511259998195,None,4630.8511259998195,None,4630.8511259998195,None,4630.8511259998195,None,4630.8511259998195,None,4630.8511259998195,None,4631.136760099791,None,4631.136760099791,None,4632.802598500159,None,4632.802598500159,None,4632.802598500159,None,4632.802598500159,None,4632.802598500159,None,4632.802598500159,None,4632.802598500159,None,4632.802598500159,None,4632.802598500159,None,67,74,67,68,67,50,4635.3131806999445,None,7.0,0.5903189000673592,4635.3131806999445,None,4635.3131806999445,None,4635.3131806999445,None,4635.3131806999445,None,None,None,4635.923005499877,None,,,,,,,142,f,1,2022_Dec_13_1541,RL,2021.2.3,60.32938634927832,
1,89,0,89,0,,,,,,,,,,,,,,,None,None,None,None,None,4637.718413699884,None,4637.718413699884,None,4637.718413699884,None,4637.718413699884,None,j,0.32554539991542697,4637.718413699884,None,4637.718413699884,None,4638.080220200121,None,4638.080220200121,None,4638.080220200121,None,4638.080220200121,None,4638.080220200121,None,4638.080220200121,None,4638.367421899922,4640.278522099834,4638.367421899922,4640.278522099834,4640.299736899789,None,4640.299736899789,None,4640.299736899789,None,4640.299736899789,None,4640.299736899789,None,4640.299736899789,None,4640.299736899789,None,4640.299736899789,None,4640.299736899789,None,75,64,64,69,69,58,4642.808806099929,None,7.0,0.8401645999401808,4642.808806099929,None,4642.808806099929,None,4642.808806099929,None,4642.808806099929,None,None,None,4643.6685850997455,None,,,,,,,142,f,1,2022_Dec_13_1541,RL,2021.2.3,60.32938634927832,
1,90,0,90,0,,,,,,,,,,,,,,,None,None,None,None,None,4645.580720900092,None,4645.580720900092,None,4645.580720900092,None,4645.580720900092,None,f,0.32753390027210116,4645.580720900092,None,4645.580720900092,None,4645.941395000089,None,4645.941395000089,None,4645.941395000089,None,4645.941395000089,None,4645.941395000089,None,4645.941395000089,None,4646.229105799925,4647.093386400025,4646.229105799925,4647.093386400025,4647.113931200001,None,4647.113931200001,None,4647.113931200001,None,4647.113931200001,None,4647.113931200001,None,4647.113931200001,None,4647.113931200001,None,4647.113931200001,None,4647.113931200001,None,77,65,73,66,65,51,4649.624495800119,None,7.0,0.6405378999188542,4649.624495800119,None,4649.624495800119,None,4649.624495800119,None,4649.624495800119,None,None,None,4650.283652800135,None,,,,,,,142,f,1,2022_Dec_13_1541,RL,2021.2.3,60.32938634927832,
1,91,0,91,0,,,,,,,,,,,,,,,None,None,None,None,None,4651.863419999834,None,4651.863419999834,None,4651.863419999834,None,4651.863419999834,None,f,0.335487499833107,4651.863419999834,None,4651.863419999834,None,4652.242381799966,None,4652.242381799966,None,4652.242381799966,None,4652.242381799966,None,4652.242381799966,None,4652.242381799966,None,4652.52868059976,4653.409427300096,4652.52868059976,4653.409427300096,4653.430503999814,None,4653.430503999814,None,4653.430503999814,None,4653.430503999814,None,4653.430503999814,None,4653.430503999814,None,4653.430503999814,None,4653.430503999814,None,4653.430503999814,None,75,68,75,64,68,48,4655.941411300097,None,7.0,0.6562604000791907,4655.941411300097,None,4655.941411300097,None,4655.941411300097,None,4655.941411300097,None,None,None,4656.616490799934,None,,,,,,,142,f,1,2022_Dec_13_1541,RL,2021.2.3,60.32938634927832,
1,92,0,92,0,,,,,,,,,,,,,,,None,None,None,None,None,4658.262596299872,None,4658.262596299872,None,4658.262596299872,None,4658.262596299872,None,r,0.25765169970691204,4658.262596299872,None,4658.262596299872,None,4658.55757179996,None,4658.55757179996,None,4658.55757179996,None,4658.55757179996,None,4658.55757179996,None,4658.55757179996,None,4658.844697599765,4660.80587660009,4658.844697599765,4660.80587660009,4660.827821999788,None,4660.827821999788,None,4660.827821999788,None,4660.827821999788,None,4660.827821999788,None,4660.827821999788,None,4660.827821999788,None,4660.827821999788,None,4660.827821999788,None,74,65,67,78,74,31,4663.339683900122,None,7.0,0.6560541000217199,4663.339683900122,None,4663.339683900122,None,4663.339683900122,None,4663.339683900122,None,None,None,4664.013209399767,None,,,,,,,142,f,1,2022_Dec_13_1541,RL,2021.2.3,60.32938634927832,
1,93,0,93,0,,,,,,,,,,,,,,,None,None,None,None,None,4665.775729499757,None,4665.775729499757,None,4665.775729499757,None,4665.775729499757,None,r,0.24363659974187613,4665.775729499757,None,4665.775729499757,None,4666.05317959981,None,4666.05317959981,None,4666.05317959981,None,4666.05317959981,None,4666.05317959981,None,4666.05317959981,None,4666.3409108999185,None,4666.3409108999185,None,4667.907223999966,None,4667.907223999966,None,4667.907223999966,None,4667.907223999966,None,4667.907223999966,None,4667.907223999966,None,4667.907223999966,None,4667.907223999966,None,4667.907223999966,None,87,65,61,69,87,59,4670.41652749991,None,7.0,0.5920234001241624,4670.41652749991,None,4670.41652749991,None,4670.41652749991,None,4670.41652749991,None,None,None,4671.028878099751,None,,,,,,,142,f,1,2022_Dec_13_1541,RL,2021.2.3,60.32938634927832,
1,94,0,94,0,,,,,,,,,,,,,,,None,None,None,None,None,4672.839619599748,None,4672.839619599748,None,4672.839619599748,None,4672.839619599748,None,f,0.3051887000910938,4672.839619599748,None,4672.839619599748,None,4673.18564389972,None,4673.18564389972,None,4673.18564389972,None,4673.18564389972,None,4673.18564389972,None,4673.18564389972,None,4673.471550299786,4674.368930099998,4673.471550299786,4674.368930099998,4674.390064300038,None,4674.390064300038,None,4674.390064300038,None,4674.390064300038,None,4674.390064300038,None,4674.390064300038,None,4674.390064300038,None,4674.390064300038,None,4674.390064300038,None,80,73,73,75,73,55,4676.90167819988,None,7.0,0.5408904999494553,4676.90167819988,None,4676.90167819988,None,4676.90167819988,None,4676.90167819988,None,None,None,4677.459356499836,None,,,,,,,142,f,1,2022_Dec_13_1541,RL,2021.2.3,60.32938634927832,
1,95,0,95,0,,,,,,,,,,,,,,,None,None,None,None,None,4679.138921000063,None,4679.138921000063,None,4679.138921000063,None,4679.138921000063,None,f,0.2421952998265624,4679.138921000063,None,4679.138921000063,None,4679.417429800145,None,4679.417429800145,None,4679.417429800145,None,4679.417429800145,None,4679.417429800145,None,4679.417429800145,None,4679.704591199756,None,4679.704591199756,None,4681.7023426997475,None,4681.7023426997475,None,4681.7023426997475,None,4681.7023426997475,None,4681.7023426997475,None,4681.7023426997475,None,4681.7023426997475,None,4681.7023426997475,None,4681.7023426997475,None,70,56,73,77,56,50,4684.215250900015,None,7.0,0.48964119981974363,4684.215250900015,None,4684.215250900015,None,4684.215250900015,None,4684.215250900015,None,None,None,4684.723050199915,None,,,,,,,142,f,1,2022_Dec_13_1541,RL,2021.2.3,60.32938634927832,
1,96,0,96,0,,,,,,,,,,,,,,,None,None,None,None,None,4686.485381499864,None,4686.485381499864,None,4686.485381499864,None,4686.485381499864,None,r,0.20560159999877214,4686.485381499864,None,4686.485381499864,None,4686.729811599944,None,4686.729811599944,None,4686.729811599944,None,4686.729811599944,None,4686.729811599944,None,4686.729811599944,None,4687.017853999976,4688.929014299996,4687.017853999976,4688.929014299996,4688.9501808998175,None,4688.9501808998175,None,4688.9501808998175,None,4688.9501808998175,None,4688.9501808998175,None,4688.9501808998175,None,4688.9501808998175,None,4688.9501808998175,None,4688.9501808998175,None,74,65,65,77,74,61,4691.460882999934,None,7.0,0.5737240999005735,4691.460882999934,None,4691.460882999934,None,4691.460882999934,None,4691.460882999934,None,None,None,4692.0532849999145,None,,,,,,,142,f,1,2022_Dec_13_1541,RL,2021.2.3,60.32938634927832,
1,97,0,97,0,,,,,,,,,,,,,,,None,None,None,None,None,4693.649412699975,None,4693.649412699975,None,4693.649412699975,None,4693.649412699975,None,r,0.26179709983989596,4693.649412699975,None,4693.649412699975,None,4693.944418199826,None,4693.944418199826,None,4693.944418199826,None,4693.944418199826,None,4693.944418199826,None,4693.944418199826,None,4694.231850000098,None,4694.231850000098,None,4696.147511099931,None,4696.147511099931,None,4696.147511099931,None,4696.147511099931,None,4696.147511099931,None,4696.147511099931,None,4696.147511099931,None,4696.147511099931,None,4696.147511099931,None,67,69,71,82,67,49,4698.657319100108,None,7.0,0.9085145001299679,4698.657319100108,None,4698.657319100108,None,4698.657319100108,None,4698.657319100108,None,None,None,4699.5828366000205,None,,,,,,,142,f,1,2022_Dec_13_1541,RL,2021.2.3,60.32938634927832,
1,98,0,98,0,,,,,,,,,,,,,,,None,None,None,None,None,4701.162016499788,None,4701.162016499788,None,4701.162016499788,None,4701.162016499788,None,r,0.2985875001177192,4701.162016499788,None,4701.162016499788,None,4701.489904999733,None,4701.489904999733,None,4701.489904999733,None,4701.489904999733,None,4701.489904999733,None,4701.489904999733,None,4701.77772699995,None,4701.77772699995,None,4703.574609799776,None,4703.574609799776,None,4703.574609799776,None,4703.574609799776,None,4703.574609799776,None,4703.574609799776,None,4703.574609799776,None,4703.574609799776,None,4703.574609799776,None,64,62,73,73,64,36,4706.087382399943,None,7.0,0.5571401002816856,4706.087382399943,None,4706.087382399943,None,4706.087382399943,None,4706.087382399943,None,None,None,4706.666210799944,None,,,,,,,142,f,1,2022_Dec_13_1541,RL,2021.2.3,60.32938634927832,
1,99,0,99,0,,,,,,,,,,,,,,,None,None,None,None,None,4708.492048599757,None,4708.492048599757,None,4708.492048599757,None,4708.492048599757,None,f,0.30844160029664636,4708.492048599757,None,4708.492048599757,None,4708.836216799915,None,4708.836216799915,None,4708.836216799915,None,4708.836216799915,None,4708.836216799915,None,4708.836216799915,None,4709.1246090000495,4710.8530446998775,4709.1246090000495,4710.8530446998775,4710.875557499938,None,4710.875557499938,None,4710.875557499938,None,4710.875557499938,None,4710.875557499938,None,4710.875557499938,None,4710.875557499938,None,4710.875557499938,None,4710.875557499938,None,70,66,64,69,66,55,4713.385431999806,None,7.0,0.5224649999290705,4713.385431999806,None,4713.385431999806,None,4713.385431999806,None,4713.385431999806,None,None,None,4713.926742400043,None,,,,,,,142,f,1,2022_Dec_13_1541,RL,2021.2.3,60.32938634927832,
1,100,0,100,0,,,,,,,,,,,,,,,None,None,None,None,None,4715.905212900136,None,4715.905212900136,None,4715.905212900136,None,4715.905212900136,None,f,0.3407724997960031,4715.905212900136,None,4715.905212900136,None,4716.281501799822,None,4716.281501799822,None,4716.281501799822,None,4716.281501799822,None,4716.281501799822,None,4716.281501799822,None,4716.570521399844,4717.4351782999,4716.570521399844,4717.4351782999,4717.456952999812,None,4717.456952999812,None,4717.456952999812,None,4717.456952999812,None,4717.456952999812,None,4717.456952999812,None,4717.456952999812,None,4717.456952999812,None,4717.456952999812,None,66,65,71,88,65,45,4719.966941399965,None,7.0,0.4717957996763289,4719.966941399965,None,4719.966941399965,None,4719.966941399965,None,4719.966941399965,None,None,None,4720.45929550007,None,,,,,,,142,f,1,2022_Dec_13_1541,RL,2021.2.3,60.32938634927832,
1,101,0,101,0,,,,,,,,,,,,,,,None,None,None,None,None,4722.072177699767,None,4722.072177699767,None,4722.072177699767,None,4722.072177699767,None,f,0.3696583001874387,4722.072177699767,None,4722.072177699767,None,4722.481394299772,None,4722.481394299772,None,4722.481394299772,None,4722.481394299772,None,4722.481394299772,None,4722.481394299772,None,4722.770282799844,4724.482369999867,4722.770282799844,4724.482369999867,4724.50245529972,None,4724.50245529972,None,4724.50245529972,None,4724.50245529972,None,4724.50245529972,None,4724.50245529972,None,4724.50245529972,None,4724.50245529972,None,4724.50245529972,None,64,58,64,80,58,52,4727.012135900091,None,7.0,1.2419536001980305,4727.012135900091,None,4727.012135900091,None,4727.012135900091,None,4727.012135900091,None,None,None,4728.271319299936,None,,,,,,,142,f,1,2022_Dec_13_1541,RL,2021.2.3,60.32938634927832,
1,102,0,102,0,,,,,,,,,,,,,,,None,None,None,None,None,4729.966899400111,None,4729.966899400111,None,4729.966899400111,None,4729.966899400111,None,j,0.3345371000468731,4729.966899400111,None,4729.966899400111,None,4730.34446279984,None,4730.34446279984,None,4730.34446279984,None,4730.34446279984,None,4730.34446279984,None,4730.34446279984,None,4730.6320360000245,None,4730.6320360000245,None,4732.336604599841,None,4732.336604599841,None,4732.336604599841,None,4732.336604599841,None,4732.336604599841,None,4732.336604599841,None,4732.336604599841,None,4732.336604599841,None,4732.336604599841,None,64,69,58,76,76,41,4734.84248929983,None,7.0,1.004592000041157,4734.84248929983,None,4734.84248929983,None,4734.84248929983,None,4734.84248929983,None,None,None,4735.86689649988,None,,,,,,,142,f,1,2022_Dec_13_1541,RL,2021.2.3,60.32938634927832,
1,103,0,103,0,,,,,,,,,,,,,,,None,None,None,None,None,4737.430130099878,None,4737.430130099878,None,4737.430130099878,None,4737.430130099878,None,j,0.40058569982647896,4737.430130099878,None,4737.430130099878,None,4737.858856000006,None,4737.858856000006,None,4737.858856000006,None,4737.858856000006,None,4737.858856000006,None,4737.858856000006,None,4738.145351700019,4739.657661700156,4738.145351700019,4739.657661700156,4739.679174699821,None,4739.679174699821,None,4739.679174699821,None,4739.679174699821,None,4739.679174699821,None,4739.679174699821,None,4739.679174699821,None,4739.679174699821,None,4739.679174699821,None,59,62,70,64,64,25,4742.189820699859,None,7.0,0.4899077001027763,4742.189820699859,None,4742.189820699859,None,4742.189820699859,None,4742.189820699859,None,None,None,4742.698161299806,None,,,,,,,142,f,1,2022_Dec_13_1541,RL,2021.2.3,60.32938634927832,
1,104,0,104,0,,,,,,,,,,,,,,,None,None,None,None,None,4744.527593200095,None,4744.527593200095,None,4744.527593200095,None,4744.527593200095,None,i,0.28353819996118546,4744.527593200095,None,4744.527593200095,None,4744.842474499717,None,4744.842474499717,None,4744.842474499717,None,4744.842474499717,None,4744.842474499717,None,4744.842474499717,None,4745.125844299793,4746.787938999943,4745.125844299793,4746.787938999943,4746.810638099909,None,4746.810638099909,None,4746.810638099909,None,4746.810638099909,None,4746.810638099909,None,4746.810638099909,None,4746.810638099909,None,4746.810638099909,None,4746.810638099909,None,55,67,60,74,60,30,4749.320429099724,None,7.0,0.4732177001424134,4749.320429099724,None,4749.320429099724,None,4749.320429099724,None,4749.320429099724,None,None,None,4749.812004900072,None,,,,,,,142,f,1,2022_Dec_13_1541,RL,2021.2.3,60.32938634927832,
1,105,0,105,0,,,,,,,,,,,,,,,None,None,None,None,None,4751.57495070016,None,4751.57495070016,None,4751.57495070016,None,4751.57495070016,None,j,0.20638009998947382,4751.57495070016,None,4751.57495070016,None,4751.818925300147,None,4751.818925300147,None,4751.818925300147,None,4751.818925300147,None,4751.818925300147,None,4751.818925300147,None,4752.106877299957,4754.018339899834,4752.106877299957,4754.018339899834,4754.039551400114,None,4754.039551400114,None,4754.039551400114,None,4754.039551400114,None,4754.039551400114,None,4754.039551400114,None,4754.039551400114,None,4754.039551400114,None,4754.039551400114,None,50,59,62,86,86,53,4756.54968990013,None,7.0,0.6562104998156428,4756.54968990013,None,4756.54968990013,None,4756.54968990013,None,4756.54968990013,None,None,None,4757.225284299813,None,,,,,,,142,f,1,2022_Dec_13_1541,RL,2021.2.3,60.32938634927832,
1,106,0,106,0,,,,,,,,,,,,,,,None,None,None,None,None,4758.738720300142,None,4758.738720300142,None,4758.738720300142,None,4758.738720300142,None,i,0.388075300026685,4758.738720300142,None,4758.738720300142,None,4759.167762700003,None,4759.167762700003,None,4759.167762700003,None,4759.167762700003,None,4759.167762700003,None,4759.167762700003,None,4759.453839600086,4760.3513154000975,4759.453839600086,4760.3513154000975,4760.373268099967,None,4760.373268099967,None,4760.373268099967,None,4760.373268099967,None,4760.373268099967,None,4760.373268099967,None,4760.373268099967,None,4760.373268099967,None,4760.373268099967,None,54,61,65,69,65,44,4762.885586500168,None,7.0,0.638810200151056,4762.885586500168,None,4762.885586500168,None,4762.885586500168,None,4762.885586500168,None,None,None,4763.541558700148,None,,,,,,,142,f,1,2022_Dec_13_1541,RL,2021.2.3,60.32938634927832,
1,107,0,107,0,,,,,,,,,,,,,,,None,None,None,None,None,4765.088095000014,None,4765.088095000014,None,4765.088095000014,None,4765.088095000014,None,i,1.1300290999934077,4765.088095000014,None,4765.088095000014,None,4766.248996300157,None,4766.248996300157,None,4766.248996300157,None,4766.248996300157,None,4766.248996300157,None,4766.248996300157,None,4766.534364399966,4767.913690399844,4766.534364399966,4767.913690399844,4767.936232499778,None,4767.936232499778,None,4767.936232499778,None,4767.936232499778,None,4767.936232499778,None,4767.936232499778,None,4767.936232499778,None,4767.936232499778,None,4767.936232499778,None,59,52,55,78,55,29,4770.447259999812,None,7.0,0.8698211996816099,4770.447259999812,None,4770.447259999812,None,4770.447259999812,None,4770.447259999812,None,None,None,4771.336627900135,None,,,,,,,142,f,1,2022_Dec_13_1541,RL,2021.2.3,60.32938634927832,
1,108,0,108,0,,,,,,,,,,,,,,,None,None,None,None,None,4772.999898800161,None,4772.999898800161,None,4772.999898800161,None,4772.999898800161,None,i,0.7067962996661663,4772.999898800161,None,4772.999898800161,None,4773.742943100166,None,4773.742943100166,None,4773.742943100166,None,4773.742943100166,None,4773.742943100166,None,4773.742943100166,None,4774.030616399832,4775.709358399734,4774.030616399832,4775.709358399734,4775.731013900135,None,4775.731013900135,None,4775.731013900135,None,4775.731013900135,None,4775.731013900135,None,4775.731013900135,None,4775.731013900135,None,4775.731013900135,None,4775.731013900135,None,60,51,63,78,63,57,4778.244493599981,None,7.0,0.6198742999695241,4778.244493599981,None,4778.244493599981,None,4778.244493599981,None,4778.244493599981,None,None,None,4778.883175099734,None,,,,,,,142,f,1,2022_Dec_13_1541,RL,2021.2.3,60.32938634927832,
1,109,0,109,0,,,,,,,,,,,,,,,None,None,None,None,None,4780.5788277997635,None,4780.5788277997635,None,4780.5788277997635,None,4780.5788277997635,None,i,0.2984835999086499,4780.5788277997635,None,4780.5788277997635,None,4780.907247799914,None,4780.907247799914,None,4780.907247799914,None,4780.907247799914,None,4780.907247799914,None,4780.907247799914,None,4781.1945011997595,4782.241163100116,4781.1945011997595,4782.241163100116,4782.262874700129,None,4782.262874700129,None,4782.262874700129,None,4782.262874700129,None,4782.262874700129,None,4782.262874700129,None,4782.262874700129,None,4782.262874700129,None,4782.262874700129,None,56,51,75,87,75,52,4784.773427899927,None,7.0,0.6394903003238142,4784.773427899927,None,4784.773427899927,None,4784.773427899927,None,4784.773427899927,None,None,None,4785.431502199732,None,,,,,,,142,f,1,2022_Dec_13_1541,RL,2021.2.3,60.32938634927832,
1,110,0,110,0,,,,,,,,,,,,,,,None,None,None,None,None,4787.1774244001135,None,4787.1774244001135,None,4787.1774244001135,None,4787.1774244001135,None,j,0.2904795999638736,4787.1774244001135,None,4787.1774244001135,None,4787.505093200132,None,4787.505093200132,None,4787.505093200132,None,4787.505093200132,None,4787.505093200132,None,4787.505093200132,None,4787.793278299738,4789.5715608000755,4787.793278299738,4789.5715608000755,4789.593081600033,None,4789.593081600033,None,4789.593081600033,None,4789.593081600033,None,4789.593081600033,None,4789.593081600033,None,4789.593081600033,None,4789.593081600033,None,4789.593081600033,None,57,55,62,77,77,53,4792.104228000157,None,7.0,0.5254195998422801,4792.104228000157,None,4792.104228000157,None,4792.104228000157,None,4792.104228000157,None,None,None,4792.645592799876,None,,,,,,,142,f,1,2022_Dec_13_1541,RL,2021.2.3,60.32938634927832,
1,111,0,111,0,,,,,,,,,,,,,,,None,None,None,None,None,4794.341589199845,None,4794.341589199845,None,4794.341589199845,None,4794.341589199845,None,i,0.3168667000718415,4794.341589199845,None,4794.341589199845,None,4794.702305700164,None,4794.702305700164,None,4794.702305700164,None,4794.702305700164,None,4794.702305700164,None,4794.702305700164,None,4794.990295799915,4796.5524073001,4794.990295799915,4796.5524073001,4796.574727799743,None,4796.574727799743,None,4796.574727799743,None,4796.574727799743,None,4796.574727799743,None,4796.574727799743,None,4796.574727799743,None,4796.574727799743,None,4796.574727799743,None,67,50,73,84,73,51,4799.084269300103,None,7.0,0.5061345002613962,4799.084269300103,None,4799.084269300103,None,4799.084269300103,None,4799.084269300103,None,None,None,4799.609558399767,None,,,,,,,142,f,1,2022_Dec_13_1541,RL,2021.2.3,60.32938634927832,
1,112,0,112,0,,,,,,,,,,,,,,,None,None,None,None,None,4801.289211299736,None,4801.289211299736,None,4801.289211299736,None,4801.289211299736,None,i,0.2598069002851844,4801.289211299736,None,4801.289211299736,None,4801.584472599905,None,4801.584472599905,None,4801.584472599905,None,4801.584472599905,None,4801.584472599905,None,4801.584472599905,None,4801.871350700036,4803.267333999742,4801.871350700036,4803.267333999742,4803.2892343997955,None,4803.2892343997955,None,4803.2892343997955,None,4803.2892343997955,None,4803.2892343997955,None,4803.2892343997955,None,4803.2892343997955,None,4803.2892343997955,None,4803.2892343997955,None,65,50,73,81,73,31,4805.799020399805,None,7.0,0.4391544000245631,4805.799020399805,None,4805.799020399805,None,4805.799020399805,None,4805.799020399805,None,None,None,4806.258012299892,None,,,,,,,142,f,1,2022_Dec_13_1541,RL,2021.2.3,60.32938634927832,
