bandit,trials.thisRepN,trials.thisTrialN,trials.thisN,trials.thisIndex,instru_img1.started,instru_img1.stopped,instru_resp.keys,instru_resp.rt,instru_resp.started,instru_resp.stopped,instru_img2.started,instru_img2.stopped,instru_resp2.keys,instru_resp2.rt,instru_resp2.started,instru_resp2.stopped,fixbefore_2.started,fixbefore_2.stopped,rest_image.started,rest_image.stopped,rest_response.keys,rest_response.started,rest_response.stopped,red.started,red.stopped,green.started,green.stopped,yellow.started,yellow.stopped,blue.started,blue.stopped,choose_bandit.keys,choose_bandit.rt,choose_bandit.started,choose_bandit.stopped,Fixation.started,Fixation.stopped,black.started,black.stopped,red_2.started,red_2.stopped,green_2.started,green_2.stopped,yellow_2.started,yellow_2.stopped,blue_2.started,blue_2.stopped,fixation_2.started,fixation_2.stopped,docs.started,docs.stopped,image_2.started,image_2.stopped,black_com.started,black_com.stopped,reward_sub.started,reward_sub.stopped,palyerb.started,palyerb.stopped,reward__sub.started,reward__sub.stopped,compare.started,compare.stopped,red_compare.started,red_compare.stopped,green_com.started,green_com.stopped,yellow_com.started,yellow_com.stopped,blue_com.started,blue_com.stopped,rewardyellow,rewardred,rewardblue,rewardgreen,subchoose,playerb,image_3.started,image_3.stopped,slider.response,slider.rt,slider.started,slider.stopped,text.started,text.stopped,image_4.started,image_4.stopped,image_5.started,image_5.stopped,bigx.started,bigx.stopped,intertrialfix.started,intertrialfix.stopped,rest_response.rt,image.started,image.stopped,key_resp.keys,key_resp.started,key_resp.stopped,participant,Gender,Age,date,expName,psychopyVersion,frameRate,
,,,,,996.9416594998911,None,space,16.06118919979781,996.9416594998911,None,,,,,,,,,,,,,,,,,,,,,,,,,,,,,,,,,,,,,,,,,,,,,,,,,,,,,,,,,,,,,,,,,,,,,,,,,,,,,,,,,,,,,,,,,,146,f,22,2022_Dec_13_1800,RL,2021.2.3,60.174337099954215,
,,,,,,,,,,,1013.0359088000841,None,space,72.84519969997928,1013.0359088000841,None,,,,,,,,,,,,,,,,,,,,,,,,,,,,,,,,,,,,,,,,,,,,,,,,,,,,,,,,,,,,,,,,,,,,,,,,,,,,,,,,,,,,146,f,22,2022_Dec_13_1800,RL,2021.2.3,60.174337099954215,
1,0,0,0,0,,,,,,,,,,,,,1085.912579299882,None,None,None,None,None,None,1086.9269548999146,None,1086.9269548999146,None,1086.9269548999146,None,1086.9269548999146,None,i,1.3352553001604974,1086.9269548999146,None,1086.9269548999146,None,1088.3082840996794,None,1088.3082840996794,None,1088.3082840996794,None,1088.3082840996794,None,1088.3082840996794,None,1088.3082840996794,None,1088.6020037000999,None,1088.6020037000999,None,1089.7149641998112,None,1089.7149641998112,None,1089.7149641998112,None,1089.7149641998112,None,1089.7149641998112,None,1089.7149641998112,None,1089.7149641998112,None,1089.7149641998112,None,1089.7149641998112,None,28,45,71,46,71,58,1092.2373373000883,None,6.0,3.7786530000157654,1092.2373373000883,None,1092.2373373000883,None,1092.2373373000883,None,1092.2373373000883,None,None,None,1096.0830111997202,None,,,,,,,146,f,22,2022_Dec_13_1800,RL,2021.2.3,60.174337099954215,
1,1,0,1,0,,,,,,,,,,,,,,,None,None,None,None,None,1097.8763222997077,None,1097.8763222997077,None,1097.8763222997077,None,1097.8763222997077,None,None,,1097.8763222997077,None,1097.8763222997077,None,None,None,None,None,None,None,None,None,None,None,None,None,None,None,None,None,None,None,None,None,None,None,None,None,None,None,None,None,None,None,None,None,None,None,30,53,74,50,0,**,None,None,None,None,None,None,None,None,None,None,None,None,1099.423591800034,None,1103.9261321998201,None,,,,,,,146,f,22,2022_Dec_13_1800,RL,2021.2.3,60.174337099954215,
1,2,0,2,0,,,,,,,,,,,,,,,None,None,None,None,None,1105.5388023001142,None,1105.5388023001142,None,1105.5388023001142,None,1105.5388023001142,None,None,,1105.5388023001142,None,1105.5388023001142,None,None,None,None,None,None,None,None,None,None,None,None,None,None,None,None,None,None,None,None,None,None,None,None,None,None,None,None,None,None,None,None,None,None,None,24,48,61,57,0,**,None,None,None,None,None,None,None,None,None,None,None,None,1107.0823550997302,None,1111.5884905997664,None,,,,,,,146,f,22,2022_Dec_13_1800,RL,2021.2.3,60.174337099954215,
1,3,0,3,0,,,,,,,,,,,,,,,None,None,None,None,None,1113.5835563000292,None,1113.5835563000292,None,1113.5835563000292,None,1113.5835563000292,None,f,0.9261087002232671,1113.5835563000292,None,1113.5835563000292,None,1114.5452813999727,None,1114.5452813999727,None,1114.5452813999727,None,1114.5452813999727,None,1114.5452813999727,None,1114.5452813999727,None,1114.830277199857,1115.811190399807,1114.830277199857,1115.811190399807,1115.835781000089,None,1115.835781000089,None,1115.835781000089,None,1115.835781000089,None,1115.835781000089,None,1115.835781000089,None,1115.835781000089,None,1115.835781000089,None,1115.835781000089,None,32,54,76,53,54,65,1118.3472310998477,None,2.0,4.94166069990024,1118.3472310998477,None,1118.3472310998477,None,1118.3472310998477,None,1118.3472310998477,None,None,None,1123.3063209000975,None,,,,,,,146,f,22,2022_Dec_13_1800,RL,2021.2.3,60.174337099954215,
1,4,0,4,0,,,,,,,,,,,,,,,None,None,None,None,None,1124.868907999713,None,1124.868907999713,None,1124.868907999713,None,1124.868907999713,None,i,0.29629760002717376,1124.868907999713,None,1124.868907999713,None,1125.1978992996737,None,1125.1978992996737,None,1125.1978992996737,None,1125.1978992996737,None,1125.1978992996737,None,1125.1978992996737,None,1125.4848461998627,1127.0802861996926,1125.4848461998627,1127.0802861996926,1127.1044263998047,None,1127.1044263998047,None,1127.1044263998047,None,1127.1044263998047,None,1127.1044263998047,None,1127.1044263998047,None,1127.1044263998047,None,1127.1044263998047,None,1127.1044263998047,None,29,50,73,47,73,33,1129.6115526999347,None,6.0,1.371011700015515,1129.6115526999347,None,1129.6115526999347,None,1129.6115526999347,None,1129.6115526999347,None,None,None,1131.0018957001157,None,,,,,,,146,f,22,2022_Dec_13_1800,RL,2021.2.3,60.174337099954215,
1,5,0,5,0,,,,,,,,,,,,,,,None,None,None,None,None,1132.5485926000401,None,1132.5485926000401,None,1132.5485926000401,None,1132.5485926000401,None,r,0.6347310999408364,1132.5485926000401,None,1132.5485926000401,None,1133.223624699749,None,1133.223624699749,None,1133.223624699749,None,1133.223624699749,None,1133.223624699749,None,1133.223624699749,None,1133.5129362000152,None,1133.5129362000152,None,1134.4655635999516,None,1134.4655635999516,None,1134.4655635999516,None,1134.4655635999516,None,1134.4655635999516,None,1134.4655635999516,None,1134.4655635999516,None,1134.4655635999516,None,1134.4655635999516,None,32,56,68,57,32,66,1136.9747756998986,None,3.0,1.2890238002873957,1136.9747756998986,None,1136.9747756998986,None,1136.9747756998986,None,1136.9747756998986,None,None,None,1138.2823446998373,None,,,,,,,146,f,22,2022_Dec_13_1800,RL,2021.2.3,60.174337099954215,
1,6,0,6,0,,,,,,,,,,,,,,,None,None,None,None,None,1140.1942949998192,None,1140.1942949998192,None,1140.1942949998192,None,1140.1942949998192,None,i,0.6148586999624968,1140.1942949998192,None,1140.1942949998192,None,1140.8342707999982,None,1140.8342707999982,None,1140.8342707999982,None,1140.8342707999982,None,1140.8342707999982,None,1140.8342707999982,None,1141.1255306000821,None,1141.1255306000821,None,1143.0295799998567,None,1143.0295799998567,None,1143.0295799998567,None,1143.0295799998567,None,1143.0295799998567,None,1143.0295799998567,None,1143.0295799998567,None,1143.0295799998567,None,1143.0295799998567,None,28,56,67,62,67,67,1145.5162335997447,None,5.0,1.771931099705398,1145.5162335997447,None,1145.5162335997447,None,1145.5162335997447,None,1145.5162335997447,None,None,None,1147.3074296996929,None,,,,,,,146,f,22,2022_Dec_13_1800,RL,2021.2.3,60.174337099954215,
1,7,0,7,0,,,,,,,,,,,,,,,None,None,None,None,None,1149.1531143998727,None,1149.1531143998727,None,1149.1531143998727,None,1149.1531143998727,None,j,0.5170340999029577,1149.1531143998727,None,1149.1531143998727,None,1149.713555299677,None,1149.713555299677,None,1149.713555299677,None,1149.713555299677,None,1149.713555299677,None,1149.713555299677,None,1150.0011130999774,1151.9124245997518,1150.0011130999774,1151.9124245997518,1151.9360931999981,None,1151.9360931999981,None,1151.9360931999981,None,1151.9360931999981,None,1151.9360931999981,None,1151.9360931999981,None,1151.9360931999981,None,1151.9360931999981,None,1151.9360931999981,None,32,52,76,49,49,50,1154.444395700004,None,3.0,1.5200589997693896,1154.444395700004,None,1154.444395700004,None,1154.444395700004,None,1154.444395700004,None,None,None,1155.9835819997825,None,,,,,,,146,f,22,2022_Dec_13_1800,RL,2021.2.3,60.174337099954215,
1,8,0,8,0,,,,,,,,,,,,,,,None,None,None,None,None,1157.762830699794,None,1157.762830699794,None,1157.762830699794,None,1157.762830699794,None,r,0.7094438001513481,1157.762830699794,None,1157.762830699794,None,1158.5057037998922,None,1158.5057037998922,None,1158.5057037998922,None,1158.5057037998922,None,1158.5057037998922,None,1158.5057037998922,None,1158.7940152999945,1160.4390298998915,1158.7940152999945,1160.4390298998915,1160.4594187997282,None,1160.4594187997282,None,1160.4594187997282,None,1160.4594187997282,None,1160.4594187997282,None,1160.4594187997282,None,1160.4594187997282,None,1160.4594187997282,None,1160.4594187997282,None,25,58,80,50,25,57,1162.9698568000458,None,2.0,1.3878721999935806,1162.9698568000458,None,1162.9698568000458,None,1162.9698568000458,None,1162.9698568000458,None,None,None,1164.3775181998499,None,,,,,,,146,f,22,2022_Dec_13_1800,RL,2021.2.3,60.174337099954215,
1,9,0,9,0,,,,,,,,,,,,,,,None,None,None,None,None,1165.9241367001086,None,1165.9241367001086,None,1165.9241367001086,None,1165.9241367001086,None,f,0.5113645000383258,1165.9241367001086,None,1165.9241367001086,None,1166.4705719999038,None,1166.4705719999038,None,1166.4705719999038,None,1166.4705719999038,None,1166.4705719999038,None,1166.4705719999038,None,1166.755640000105,1167.8522832999006,1166.755640000105,1167.8522832999006,1167.8746275999583,None,1167.8746275999583,None,1167.8746275999583,None,1167.8746275999583,None,1167.8746275999583,None,1167.8746275999583,None,1167.8746275999583,None,1167.8746275999583,None,1167.8746275999583,None,29,51,78,50,51,66,1170.387235299684,None,4.0,2.2199447001330554,1170.387235299684,None,1170.387235299684,None,1170.387235299684,None,1170.387235299684,None,None,None,1172.6214666999876,None,,,,,,,146,f,22,2022_Dec_13_1800,RL,2021.2.3,60.174337099954215,
1,10,0,10,0,,,,,,,,,,,,,,,None,None,None,None,None,1174.4340065000579,None,1174.4340065000579,None,1174.4340065000579,None,1174.4340065000579,None,j,0.6687574000097811,1174.4340065000579,None,1174.4340065000579,None,1175.1438064998947,None,1175.1438064998947,None,1175.1438064998947,None,1175.1438064998947,None,1175.1438064998947,None,1175.1438064998947,None,1175.4315331000835,None,1175.4315331000835,None,1176.4648921000771,None,1176.4648921000771,None,1176.4648921000771,None,1176.4648921000771,None,1176.4648921000771,None,1176.4648921000771,None,1176.4648921000771,None,1176.4648921000771,None,1176.4648921000771,None,26,47,86,43,43,51,1178.9751766999252,None,3.0,1.854729600250721,1178.9751766999252,None,1178.9751766999252,None,1178.9751766999252,None,1178.9751766999252,None,None,None,1180.8491130000912,None,,,,,,,146,f,22,2022_Dec_13_1800,RL,2021.2.3,60.174337099954215,
1,11,0,11,0,,,,,,,,,,,,,,,None,None,None,None,None,1182.3956826999784,None,1182.3956826999784,None,1182.3956826999784,None,1182.3956826999784,None,i,0.49182000011205673,1182.3956826999784,None,1182.3956826999784,None,1182.922600199934,None,1182.922600199934,None,1182.922600199934,None,1182.922600199934,None,1182.922600199934,None,1182.922600199934,None,1183.2104445998557,1184.67291809991,1183.2104445998557,1184.67291809991,1184.6940581998788,None,1184.6940581998788,None,1184.6940581998788,None,1184.6940581998788,None,1184.6940581998788,None,1184.6940581998788,None,1184.6940581998788,None,1184.6940581998788,None,1184.6940581998788,None,32,50,87,59,87,61,1187.2032053996809,None,6.0,2.0039286999963224,1187.2032053996809,None,1187.2032053996809,None,1187.2032053996809,None,1187.2032053996809,None,None,None,1189.2262099999934,None,,,,,,,146,f,22,2022_Dec_13_1800,RL,2021.2.3,60.174337099954215,
1,12,0,12,0,,,,,,,,,,,,,,,None,None,None,None,None,1191.0220153001137,None,1191.0220153001137,None,1191.0220153001137,None,1191.0220153001137,None,f,0.6274600001052022,1191.0220153001137,None,1191.0220153001137,None,1191.6833811998367,None,1191.6833811998367,None,1191.6833811998367,None,1191.6833811998367,None,1191.6833811998367,None,1191.6833811998367,None,1191.9699693000875,1193.7313973996788,1191.9699693000875,1193.7313973996788,1193.7542697996832,None,1193.7542697996832,None,1193.7542697996832,None,1193.7542697996832,None,1193.7542697996832,None,1193.7542697996832,None,1193.7542697996832,None,1193.7542697996832,None,1193.7542697996832,None,25,38,84,58,38,59,1196.2640185998753,None,3.0,1.038806099910289,1196.2640185998753,None,1196.2640185998753,None,1196.2640185998753,None,1196.2640185998753,None,None,None,1197.3228853000328,None,,,,,,,146,f,22,2022_Dec_13_1800,RL,2021.2.3,60.174337099954215,
1,13,0,13,0,,,,,,,,,,,,,,,None,None,None,None,None,1199.2495753997937,None,1199.2495753997937,None,1199.2495753997937,None,1199.2495753997937,None,i,0.3580755000002682,1199.2495753997937,None,1199.2495753997937,None,1199.642670399975,None,1199.642670399975,None,1199.642670399975,None,1199.642670399975,None,1199.642670399975,None,1199.642670399975,None,1199.9313906999305,1201.6103169000708,1199.9313906999305,1201.6103169000708,1201.6312763998285,None,1201.6312763998285,None,1201.6312763998285,None,1201.6312763998285,None,1201.6312763998285,None,1201.6312763998285,None,1201.6312763998285,None,1201.6312763998285,None,1201.6312763998285,None,33,50,82,61,82,54,1204.1436887998134,None,6.0,1.1869055000133812,1204.1436887998134,None,1204.1436887998134,None,1204.1436887998134,None,1204.1436887998134,None,None,None,1205.3491064999253,None,,,,,,,146,f,22,2022_Dec_13_1800,RL,2021.2.3,60.174337099954215,
1,14,0,14,0,,,,,,,,,,,,,,,None,None,None,None,None,1206.9463578998111,None,1206.9463578998111,None,1206.9463578998111,None,1206.9463578998111,None,i,0.36609180038794875,1206.9463578998111,None,1206.9463578998111,None,1207.3411543997936,None,1207.3411543997936,None,1207.3411543997936,None,1207.3411543997936,None,1207.3411543997936,None,1207.3411543997936,None,1207.6273901998065,1209.405905999709,1207.6273901998065,1209.405905999709,1209.4278293000534,None,1209.4278293000534,None,1209.4278293000534,None,1209.4278293000534,None,1209.4278293000534,None,1209.4278293000534,None,1209.4278293000534,None,1209.4278293000534,None,1209.4278293000534,None,38,44,79,59,79,55,1211.9406562000513,None,6.0,0.7197378999553621,1211.9406562000513,None,1211.9406562000513,None,1211.9406562000513,None,1211.9406562000513,None,None,None,1212.679284399841,None,,,,,,,146,f,22,2022_Dec_13_1800,RL,2021.2.3,60.174337099954215,
1,15,0,15,0,,,,,,,,,,,,,,,None,None,None,None,None,1214.3585426998325,None,1214.3585426998325,None,1214.3585426998325,None,1214.3585426998325,None,i,0.5087517001666129,1214.3585426998325,None,1214.3585426998325,None,1214.901169499848,None,1214.901169499848,None,1214.901169499848,None,1214.901169499848,None,1214.901169499848,None,1214.901169499848,None,1215.1899741999805,None,1215.1899741999805,None,1217.2072982001118,None,1217.2072982001118,None,1217.2072982001118,None,1217.2072982001118,None,1217.2072982001118,None,1217.2072982001118,None,1217.2072982001118,None,1217.2072982001118,None,1217.2072982001118,None,24,53,74,54,74,64,1219.716617600061,None,6.0,2.216850600205362,1219.716617600061,None,1219.716617600061,None,1219.716617600061,None,1219.716617600061,None,None,None,1221.953611599747,None,,,,,,,146,f,22,2022_Dec_13_1800,RL,2021.2.3,60.174337099954215,
1,16,0,16,0,,,,,,,,,,,,,,,None,None,None,None,None,1223.5000841999426,None,1223.5000841999426,None,1223.5000841999426,None,1223.5000841999426,None,i,0.5270680002868176,1223.5000841999426,None,1223.5000841999426,None,1224.0594738996588,None,1224.0594738996588,None,1224.0594738996588,None,1224.0594738996588,None,1224.0594738996588,None,1224.0594738996588,None,1224.3485465999693,1226.3426067000255,1224.3485465999693,1226.3426067000255,1226.3665694999509,None,1226.3665694999509,None,1226.3665694999509,None,1226.3665694999509,None,1226.3665694999509,None,1226.3665694999509,None,1226.3665694999509,None,1226.3665694999509,None,1226.3665694999509,None,22,52,83,59,83,56,1228.8745622998103,None,7.0,1.1377282999455929,1228.8745622998103,None,1228.8745622998103,None,1228.8745622998103,None,1228.8745622998103,None,None,None,1230.0316706998274,None,,,,,,,146,f,22,2022_Dec_13_1800,RL,2021.2.3,60.174337099954215,
1,17,0,17,0,,,,,,,,,,,,,,,None,None,None,None,None,1231.877332800068,None,1231.877332800068,None,1231.877332800068,None,1231.877332800068,None,i,0.3227913002483547,1231.877332800068,None,1231.877332800068,None,1232.2403258997947,None,1232.2403258997947,None,1232.2403258997947,None,1232.2403258997947,None,1232.2403258997947,None,1232.2403258997947,None,1232.526161099784,1234.3543140999973,1232.526161099784,1234.3543140999973,1234.377016399987,None,1234.377016399987,None,1234.377016399987,None,1234.377016399987,None,1234.377016399987,None,1234.377016399987,None,1234.377016399987,None,1234.377016399987,None,1234.377016399987,None,30,54,81,68,81,52,1236.8861004998907,None,7.0,1.0053802002221346,1236.8861004998907,None,1236.8861004998907,None,1236.8861004998907,None,1236.8861004998907,None,None,None,1237.9105835999362,None,,,,,,,146,f,22,2022_Dec_13_1800,RL,2021.2.3,60.174337099954215,
1,18,0,18,0,,,,,,,,,,,,,,,None,None,None,None,None,1239.5731036998332,None,1239.5731036998332,None,1239.5731036998332,None,1239.5731036998332,None,i,0.32114719972014427,1239.5731036998332,None,1239.5731036998332,None,1239.9338448001072,None,1239.9338448001072,None,1239.9338448001072,None,1239.9338448001072,None,1239.9338448001072,None,1239.9338448001072,None,1240.221386199817,1241.8336573997512,1240.221386199817,1241.8336573997512,1241.8543871999718,None,1241.8543871999718,None,1241.8543871999718,None,1241.8543871999718,None,1241.8543871999718,None,1241.8543871999718,None,1241.8543871999718,None,1241.8543871999718,None,1241.8543871999718,None,32,41,81,66,81,50,1244.3681772998534,None,7.0,0.9532030997797847,1244.3681772998534,None,1244.3681772998534,None,1244.3681772998534,None,1244.3681772998534,None,None,None,1245.3402879000641,None,,,,,,,146,f,22,2022_Dec_13_1800,RL,2021.2.3,60.174337099954215,
1,19,0,19,0,,,,,,,,,,,,,,,None,None,None,None,None,1247.3187732999213,None,1247.3187732999213,None,1247.3187732999213,None,1247.3187732999213,None,i,0.3239127001725137,1247.3187732999213,None,1247.3187732999213,None,1247.680998600088,None,1247.680998600088,None,1247.680998600088,None,1247.680998600088,None,1247.680998600088,None,1247.680998600088,None,1247.9672773000784,1249.496306499932,1247.9672773000784,1249.496306499932,1249.5182823999785,None,1249.5182823999785,None,1249.5182823999785,None,1249.5182823999785,None,1249.5182823999785,None,1249.5182823999785,None,1249.5182823999785,None,1249.5182823999785,None,1249.5182823999785,None,35,30,74,68,74,54,1252.0296737998724,None,6.0,1.9348854003474116,1252.0296737998724,None,1252.0296737998724,None,1252.0296737998724,None,1252.0296737998724,None,None,None,1253.98295089975,None,,,,,,,146,f,22,2022_Dec_13_1800,RL,2021.2.3,60.174337099954215,
1,20,0,20,0,,,,,,,,,,,,,,,None,None,None,None,None,1255.7124723000452,None,1255.7124723000452,None,1255.7124723000452,None,1255.7124723000452,None,i,0.3789344998076558,1255.7124723000452,None,1255.7124723000452,None,1256.1213492997922,None,1256.1213492997922,None,1256.1213492997922,None,1256.1213492997922,None,1256.1213492997922,None,1256.1213492997922,None,1256.4105754001066,None,1256.4105754001066,None,1257.8967244001105,None,1257.8967244001105,None,1257.8967244001105,None,1257.8967244001105,None,1257.8967244001105,None,1257.8967244001105,None,1257.8967244001105,None,1257.8967244001105,None,1257.8967244001105,None,31,42,71,65,71,53,1260.4058543997817,None,5.0,2.601445199921727,1260.4058543997817,None,1260.4058543997817,None,1260.4058543997817,None,1260.4058543997817,None,None,None,1263.024962599855,None,,,,,,,146,f,22,2022_Dec_13_1800,RL,2021.2.3,60.174337099954215,
1,21,0,21,0,,,,,,,,,,,,,,,None,None,None,None,None,1264.837686599698,None,1264.837686599698,None,1264.837686599698,None,1264.837686599698,None,r,0.3009915999136865,1264.837686599698,None,1264.837686599698,None,1265.1645804997534,None,1265.1645804997534,None,1265.1645804997534,None,1265.1645804997534,None,1265.1645804997534,None,1265.1645804997534,None,1265.4528315998614,1267.031522799749,1265.4528315998614,1267.031522799749,1267.051833000034,None,1267.051833000034,None,1267.051833000034,None,1267.051833000034,None,1267.051833000034,None,1267.051833000034,None,1267.051833000034,None,1267.051833000034,None,1267.051833000034,None,36,37,57,56,36,69,1269.5612598001026,None,2.0,2.4200173001736403,1269.5612598001026,None,1269.5612598001026,None,1269.5612598001026,None,1269.5612598001026,None,None,None,1272.0006883996539,None,,,,,,,146,f,22,2022_Dec_13_1800,RL,2021.2.3,60.174337099954215,
1,22,0,22,0,,,,,,,,,,,,,,,None,None,None,None,None,1273.6300305998884,None,1273.6300305998884,None,1273.6300305998884,None,1273.6300305998884,None,f,0.34116609999909997,1273.6300305998884,None,1273.6300305998884,None,1274.0078245000914,None,1274.0078245000914,None,1274.0078245000914,None,1274.0078245000914,None,1274.0078245000914,None,1274.0078245000914,None,1274.2954325000755,1275.7742842999287,1274.2954325000755,1275.7742842999287,1275.7955843000673,None,1275.7955843000673,None,1275.7955843000673,None,1275.7955843000673,None,1275.7955843000673,None,1275.7955843000673,None,1275.7955843000673,None,1275.7955843000673,None,1275.7955843000673,None,28,38,58,59,38,66,1278.3067199997604,None,3.0,3.0018062996678054,1278.3067199997604,None,1278.3067199997604,None,1278.3067199997604,None,1278.3067199997604,None,None,None,1281.3252644999884,None,,,,,,,146,f,22,2022_Dec_13_1800,RL,2021.2.3,60.174337099954215,
1,23,0,23,0,,,,,,,,,,,,,,,None,None,None,None,None,1283.1874509998597,None,1283.1874509998597,None,1283.1874509998597,None,1283.1874509998597,None,i,0.3105009999126196,1283.1874509998597,None,1283.1874509998597,None,1283.5338718998246,None,1283.5338718998246,None,1283.5338718998246,None,1283.5338718998246,None,1283.5338718998246,None,1283.5338718998246,None,1283.8195094997063,1285.115483299829,1283.8195094997063,1285.115483299829,1285.1365579999983,None,1285.1365579999983,None,1285.1365579999983,None,1285.1365579999983,None,1285.1365579999983,None,1285.1365579999983,None,1285.1365579999983,None,1285.1365579999983,None,1285.1365579999983,None,47,37,62,57,62,61,1287.6453762999736,None,4.0,2.6861816002056003,1287.6453762999736,None,1287.6453762999736,None,1287.6453762999736,None,1287.6453762999736,None,None,None,1290.3503783000633,None,,,,,,,146,f,22,2022_Dec_13_1800,RL,2021.2.3,60.174337099954215,
1,24,0,24,0,,,,,,,,,,,,,,,None,None,None,None,None,1292.3290312997997,None,1292.3290312997997,None,1292.3290312997997,None,1292.3290312997997,None,i,0.27159819984808564,1292.3290312997997,None,1292.3290312997997,None,1292.6393194999546,None,1292.6393194999546,None,1292.6393194999546,None,1292.6393194999546,None,1292.6393194999546,None,1292.6393194999546,None,1292.9279579999857,1294.1741070998833,1292.9279579999857,1294.1741070998833,1294.1946657998487,None,1294.1946657998487,None,1294.1946657998487,None,1294.1946657998487,None,1294.1946657998487,None,1294.1946657998487,None,1294.1946657998487,None,1294.1946657998487,None,1294.1946657998487,None,40,41,60,69,60,49,1296.7046063998714,None,4.0,2.1035132999531925,1296.7046063998714,None,1296.7046063998714,None,1296.7046063998714,None,1296.7046063998714,None,None,None,1298.8274651998654,None,,,,,,,146,f,22,2022_Dec_13_1800,RL,2021.2.3,60.174337099954215,
1,25,0,25,0,,,,,,,,,,,,,,,None,None,None,None,None,1300.373821000103,None,1300.373821000103,None,1300.373821000103,None,1300.373821000103,None,i,0.2961527002044022,1300.373821000103,None,1300.373821000103,None,1300.7025484000333,None,1300.7025484000333,None,1300.7025484000333,None,1300.7025484000333,None,1300.7025484000333,None,1300.7025484000333,None,1300.9891547998413,1302.9673452000134,1300.9891547998413,1302.9673452000134,1302.9895456000231,None,1302.9895456000231,None,1302.9895456000231,None,1302.9895456000231,None,1302.9895456000231,None,1302.9895456000231,None,1302.9895456000231,None,1302.9895456000231,None,1302.9895456000231,None,40,47,59,70,59,41,1305.5007187998854,None,4.0,1.218790200073272,1305.5007187998854,None,1305.5007187998854,None,1305.5007187998854,None,1305.5007187998854,None,None,None,1306.7393286000006,None,,,,,,,146,f,22,2022_Dec_13_1800,RL,2021.2.3,60.174337099954215,
1,26,0,26,0,,,,,,,,,,,,,,,None,None,None,None,None,1308.4017277997918,None,1308.4017277997918,None,1308.4017277997918,None,1308.4017277997918,None,i,0.46066630026325583,1308.4017277997918,None,1308.4017277997918,None,1308.8969922000542,None,1308.8969922000542,None,1308.8969922000542,None,1308.8969922000542,None,1308.8969922000542,None,1308.8969922000542,None,1309.1834577997215,1310.6792119001038,1309.1834577997215,1310.6792119001038,1310.7003208999522,None,1310.7003208999522,None,1310.7003208999522,None,1310.7003208999522,None,1310.7003208999522,None,1310.7003208999522,None,1310.7003208999522,None,1310.7003208999522,None,1310.7003208999522,None,34,42,54,66,54,48,1313.2140309996903,None,5.0,2.049382199998945,1313.2140309996903,None,1313.2140309996903,None,1313.2140309996903,None,1313.2140309996903,None,None,None,1315.2846431997605,None,,,,,,,146,f,22,2022_Dec_13_1800,RL,2021.2.3,60.174337099954215,
1,27,0,27,0,,,,,,,,,,,,,,,None,None,None,None,None,1317.1447497000918,None,1317.1447497000918,None,1317.1447497000918,None,1317.1447497000918,None,j,0.251018900424242,1317.1447497000918,None,1317.1447497000918,None,1317.4235811997205,None,1317.4235811997205,None,1317.4235811997205,None,1317.4235811997205,None,1317.4235811997205,None,1317.4235811997205,None,1317.710382499732,1319.421931500081,1317.710382499732,1319.421931500081,1319.4434130000882,None,1319.4434130000882,None,1319.4434130000882,None,1319.4434130000882,None,1319.4434130000882,None,1319.4434130000882,None,1319.4434130000882,None,1319.4434130000882,None,1319.4434130000882,None,33,46,63,77,77,45,1321.9558306997642,None,6.0,0.6394241000525653,1321.9558306997642,None,1321.9558306997642,None,1321.9558306997642,None,1321.9558306997642,None,None,None,1322.6126655996777,None,,,,,,,146,f,22,2022_Dec_13_1800,RL,2021.2.3,60.174337099954215,
1,28,0,28,0,,,,,,,,,,,,,,,None,None,None,None,None,1324.158972099889,None,1324.158972099889,None,1324.158972099889,None,1324.158972099889,None,j,0.2822869997471571,1324.158972099889,None,1324.158972099889,None,1324.4704370996915,None,1324.4704370996915,None,1324.4704370996915,None,1324.4704370996915,None,1324.4704370996915,None,1324.4704370996915,None,1324.7578118997626,1326.7021977999248,1324.7578118997626,1326.7021977999248,1326.722243799828,None,1326.722243799828,None,1326.722243799828,None,1326.722243799828,None,1326.722243799828,None,1326.722243799828,None,1326.722243799828,None,1326.722243799828,None,1326.722243799828,None,41,47,61,62,62,40,1329.232363499701,None,6.0,1.0899282000027597,1329.232363499701,None,1329.232363499701,None,1329.232363499701,None,1329.232363499701,None,None,None,1330.3412373000756,None,,,,,,,146,f,22,2022_Dec_13_1800,RL,2021.2.3,60.174337099954215,
1,29,0,29,0,,,,,,,,,,,,,,,None,None,None,None,None,1332.1037475001067,None,1332.1037475001067,None,1332.1037475001067,None,1332.1037475001067,None,j,0.3465913999825716,1332.1037475001067,None,1332.1037475001067,None,1332.4844978000037,None,1332.4844978000037,None,1332.4844978000037,None,1332.4844978000037,None,1332.4844978000037,None,1332.4844978000037,None,1332.769124600105,1333.650250399951,1332.769124600105,1333.650250399951,1333.6737075997517,None,1333.6737075997517,None,1333.6737075997517,None,1333.6737075997517,None,1333.6737075997517,None,1333.6737075997517,None,1333.6737075997517,None,1333.6737075997517,None,1333.6737075997517,None,38,47,60,68,68,36,1336.1852203998715,None,5.0,1.852772600017488,1336.1852203998715,None,1336.1852203998715,None,1336.1852203998715,None,1336.1852203998715,None,None,None,1338.0534655996598,None,,,,,,,146,f,22,2022_Dec_13_1800,RL,2021.2.3,60.174337099954215,
1,30,0,30,0,,,,,,,,,,,,,,,None,None,None,None,None,1339.5667650001124,None,1339.5667650001124,None,1339.5667650001124,None,1339.5667650001124,None,i,0.6129105002619326,1339.5667650001124,None,1339.5667650001124,None,1340.2095444998704,None,1340.2095444998704,None,1340.2095444998704,None,1340.2095444998704,None,1340.2095444998704,None,1340.2095444998704,None,1340.4982352997176,1342.3427845998667,1340.4982352997176,1342.3427845998667,1342.3633150998503,None,1342.3633150998503,None,1342.3633150998503,None,1342.3633150998503,None,1342.3633150998503,None,1342.3633150998503,None,1342.3633150998503,None,1342.3633150998503,None,1342.3633150998503,None,39,54,67,57,67,48,1344.8749310998246,None,5.0,1.7035297001712024,1344.8749310998246,None,1344.8749310998246,None,1344.8749310998246,None,1344.8749310998246,None,None,None,1346.598172799684,None,,,,,,,146,f,22,2022_Dec_13_1800,RL,2021.2.3,60.174337099954215,
1,31,0,31,0,,,,,,,,,,,,,,,None,None,None,None,None,1348.5588241997175,None,1348.5588241997175,None,1348.5588241997175,None,1348.5588241997175,None,j,0.25404200004413724,1348.5588241997175,None,1348.5588241997175,None,1348.854534199927,None,1348.854534199927,None,1348.854534199927,None,1348.854534199927,None,1348.854534199927,None,1348.854534199927,None,1349.1413972997107,1350.6202336996794,1349.1413972997107,1350.6202336996794,1350.6407262999564,None,1350.6407262999564,None,1350.6407262999564,None,1350.6407262999564,None,1350.6407262999564,None,1350.6407262999564,None,1350.6407262999564,None,1350.6407262999564,None,1350.6407262999564,None,26,40,63,69,69,56,1353.1514562997036,None,5.0,1.422481999732554,1353.1514562997036,None,1353.1514562997036,None,1353.1514562997036,None,1353.1514562997036,None,None,None,1354.5919093000703,None,,,,,,,146,f,22,2022_Dec_13_1800,RL,2021.2.3,60.174337099954215,
1,32,0,32,0,,,,,,,,,,,,,,,None,None,None,None,None,1356.1387763996609,None,1356.1387763996609,None,1356.1387763996609,None,1356.1387763996609,None,i,0.3433864996768534,1356.1387763996609,None,1356.1387763996609,None,1356.5168734998442,None,1356.5168734998442,None,1356.5168734998442,None,1356.5168734998442,None,1356.5168734998442,None,1356.5168734998442,None,1356.8036258998327,1357.9833603999577,1356.8036258998327,1357.9833603999577,1358.0038140998222,None,1358.0038140998222,None,1358.0038140998222,None,1358.0038140998222,None,1358.0038140998222,None,1358.0038140998222,None,1358.0038140998222,None,1358.0038140998222,None,1358.0038140998222,None,30,44,53,68,53,42,1360.514053999912,None,5.0,2.037541900295764,1360.514053999912,None,1360.514053999912,None,1360.514053999912,None,1360.514053999912,None,None,None,1362.5701480996795,None,,,,,,,146,f,22,2022_Dec_13_1800,RL,2021.2.3,60.174337099954215,
1,33,0,33,0,,,,,,,,,,,,,,,None,None,None,None,None,1364.083718399983,None,1364.083718399983,None,1364.083718399983,None,1364.083718399983,None,j,0.2628913000226021,1364.083718399983,None,1364.083718399983,None,1364.3775716996752,None,1364.3775716996752,None,1364.3775716996752,None,1364.3775716996752,None,1364.3775716996752,None,1364.3775716996752,None,1364.6657710997388,1366.427107299678,1364.6657710997388,1366.427107299678,1366.4495872999541,None,1366.4495872999541,None,1366.4495872999541,None,1366.4495872999541,None,1366.4495872999541,None,1366.4495872999541,None,1366.4495872999541,None,1366.4495872999541,None,1366.4495872999541,None,34,42,54,70,70,35,1368.9597287001088,None,5.0,1.3376058000139892,1368.9597287001088,None,1368.9597287001088,None,1368.9597287001088,None,1368.9597287001088,None,None,None,1370.3154539000243,None,,,,,,,146,f,22,2022_Dec_13_1800,RL,2021.2.3,60.174337099954215,
1,34,0,34,0,,,,,,,,,,,,,,,None,None,None,None,None,1372.0787591999397,None,1372.0787591999397,None,1372.0787591999397,None,1372.0787591999397,None,j,0.2666194997727871,1372.0787591999397,None,1372.0787591999397,None,1372.3732026997022,None,1372.3732026997022,None,1372.3732026997022,None,1372.3732026997022,None,1372.3732026997022,None,1372.3732026997022,None,1372.6605011997744,1373.55811299989,1372.6605011997744,1373.55811299989,1373.5795200997964,None,1373.5795200997964,None,1373.5795200997964,None,1373.5795200997964,None,1373.5795200997964,None,1373.5795200997964,None,1373.5795200997964,None,1373.5795200997964,None,1373.5795200997964,None,44,47,48,85,85,28,1376.0890958998352,None,7.0,0.8884581001475453,1376.0890958998352,None,1376.0890958998352,None,1376.0890958998352,None,1376.0890958998352,None,None,None,1376.9974622000009,None,,,,,,,146,f,22,2022_Dec_13_1800,RL,2021.2.3,60.174337099954215,
1,35,0,35,0,,,,,,,,,,,,,,,None,None,None,None,None,1378.9759808997624,None,1378.9759808997624,None,1378.9759808997624,None,1378.9759808997624,None,j,0.2300579003058374,1378.9759808997624,None,1378.9759808997624,None,1379.234608199913,None,1379.234608199913,None,1379.234608199913,None,1379.234608199913,None,1379.234608199913,None,1379.234608199913,None,1379.5245107999071,1380.671333000064,1379.5245107999071,1380.671333000064,1380.6915398999117,None,1380.6915398999117,None,1380.6915398999117,None,1380.6915398999117,None,1380.6915398999117,None,1380.6915398999117,None,1380.6915398999117,None,1380.6915398999117,None,1380.6915398999117,None,38,48,45,84,84,65,1383.20172500005,None,7.0,0.87522909976542,1383.20172500005,None,1383.20172500005,None,1383.20172500005,None,1383.20172500005,None,None,None,1384.0945820999332,None,,,,,,,146,f,22,2022_Dec_13_1800,RL,2021.2.3,60.174337099954215,
1,36,0,36,0,,,,,,,,,,,,,,,None,None,None,None,None,1385.8737646997906,None,1385.8737646997906,None,1385.8737646997906,None,1385.8737646997906,None,j,0.2422238001599908,1385.8737646997906,None,1385.8737646997906,None,1386.1555705997162,None,1386.1555705997162,None,1386.1555705997162,None,1386.1555705997162,None,1386.1555705997162,None,1386.1555705997162,None,1386.4394640997052,1388.3008367996663,1386.4394640997052,1388.3008367996663,1388.3219858999364,None,1388.3219858999364,None,1388.3219858999364,None,1388.3219858999364,None,1388.3219858999364,None,1388.3219858999364,None,1388.3219858999364,None,1388.3219858999364,None,1388.3219858999364,None,35,54,53,77,77,67,1390.8301999997348,None,7.0,0.9094861997291446,1390.8301999997348,None,1390.8301999997348,None,1390.8301999997348,None,1390.8301999997348,None,None,None,1391.7571155000478,None,,,,,,,146,f,22,2022_Dec_13_1800,RL,2021.2.3,60.174337099954215,
1,37,0,37,0,,,,,,,,,,,,,,,None,None,None,None,None,1393.4030623999424,None,1393.4030623999424,None,1393.4030623999424,None,1393.4030623999424,None,j,0.43719550035893917,1393.4030623999424,None,1393.4030623999424,None,1393.8799668997526,None,1393.8799668997526,None,1393.8799668997526,None,1393.8799668997526,None,1393.8799668997526,None,1393.8799668997526,None,1394.1685452000238,1395.9133671997115,1394.1685452000238,1395.9133671997115,1395.9373192000203,None,1395.9373192000203,None,1395.9373192000203,None,1395.9373192000203,None,1395.9373192000203,None,1395.9373192000203,None,1395.9373192000203,None,1395.9373192000203,None,1395.9373192000203,None,34,50,48,84,84,22,1398.4464545999654,None,7.0,0.888332000002265,1398.4464545999654,None,1398.4464545999654,None,1398.4464545999654,None,1398.4464545999654,None,None,None,1399.3528586998582,None,,,,,,,146,f,22,2022_Dec_13_1800,RL,2021.2.3,60.174337099954215,
1,38,0,38,0,,,,,,,,,,,,,,,None,None,None,None,None,1401.181932500098,None,1401.181932500098,None,1401.181932500098,None,1401.181932500098,None,j,0.3439000998623669,1401.181932500098,None,1401.181932500098,None,1401.558794300072,None,1401.558794300072,None,1401.558794300072,None,1401.558794300072,None,1401.558794300072,None,1401.558794300072,None,1401.8475134000182,None,1401.8475134000182,None,1403.4306628997438,None,1403.4306628997438,None,1403.4306628997438,None,1403.4306628997438,None,1403.4306628997438,None,1403.4306628997438,None,1403.4306628997438,None,1403.4306628997438,None,1403.4306628997438,None,33,63,41,81,81,69,1405.941224299837,None,7.0,1.0053363000042737,1405.941224299837,None,1405.941224299837,None,1405.941224299837,None,1405.941224299837,None,None,None,1406.965613800101,None,,,,,,,146,f,22,2022_Dec_13_1800,RL,2021.2.3,60.174337099954215,
1,39,0,39,0,,,,,,,,,,,,,,,None,None,None,None,None,1408.910783499945,None,1408.910783499945,None,1408.910783499945,None,1408.910783499945,None,i,0.2684106999076903,1408.910783499945,None,1408.910783499945,None,1409.220113999676,None,1409.220113999676,None,1409.220113999676,None,1409.220113999676,None,1409.220113999676,None,1409.220113999676,None,1409.5096092997119,1410.7565838000737,1409.5096092997119,1410.7565838000737,1410.778914900031,None,1410.778914900031,None,1410.778914900031,None,1410.778914900031,None,1410.778914900031,None,1410.778914900031,None,1410.778914900031,None,1410.778914900031,None,1410.778914900031,None,34,40,47,80,47,42,1413.2887065997347,None,4.0,0.8715437999926507,1413.2887065997347,None,1413.2887065997347,None,1413.2887065997347,None,1413.2887065997347,None,None,None,1414.1791272996925,None,,,,,,,146,f,22,2022_Dec_13_1800,RL,2021.2.3,60.174337099954215,
1,40,0,40,0,,,,,,,,,,,,,,,None,None,None,None,None,1416.141214599833,None,1416.141214599833,None,1416.141214599833,None,1416.141214599833,None,j,0.25318989995867014,1416.141214599833,None,1416.141214599833,None,1416.433528599795,None,1416.433528599795,None,1416.433528599795,None,1416.433528599795,None,1416.433528599795,None,1416.433528599795,None,1416.7231990001164,1418.5186397000216,1416.7231990001164,1418.5186397000216,1418.540847199969,None,1418.540847199969,None,1418.540847199969,None,1418.540847199969,None,1418.540847199969,None,1418.540847199969,None,1418.540847199969,None,1418.540847199969,None,1418.540847199969,None,26,51,45,83,83,44,1421.050136699807,None,7.0,0.9546392997726798,1421.050136699807,None,1421.050136699807,None,1421.050136699807,None,1421.050136699807,None,None,None,1422.0243718996644,None,,,,,,,146,f,22,2022_Dec_13_1800,RL,2021.2.3,60.174337099954215,
1,41,0,41,0,,,,,,,,,,,,,,,None,None,None,None,None,1423.92003379995,None,1423.92003379995,None,1423.92003379995,None,1423.92003379995,None,j,0.23334330040961504,1423.92003379995,None,1423.92003379995,None,1424.181145099923,None,1424.181145099923,None,1424.181145099923,None,1424.181145099923,None,1424.181145099923,None,1424.181145099923,None,1424.4692679997534,1426.0481346999295,1424.4692679997534,1426.0481346999295,1426.0695454999804,None,1426.0695454999804,None,1426.0695454999804,None,1426.0695454999804,None,1426.0695454999804,None,1426.0695454999804,None,1426.0695454999804,None,1426.0695454999804,None,1426.0695454999804,None,29,43,56,76,76,64,1428.5800141999498,None,7.0,0.739591300021857,1428.5800141999498,None,1428.5800141999498,None,1428.5800141999498,None,1428.5800141999498,None,None,None,1429.3378111999482,None,,,,,,,146,f,22,2022_Dec_13_1800,RL,2021.2.3,60.174337099954215,
1,42,0,42,0,,,,,,,,,,,,,,,None,None,None,None,None,1431.0006969999522,None,1431.0006969999522,None,1431.0006969999522,None,1431.0006969999522,None,j,0.22705940017476678,1431.0006969999522,None,1431.0006969999522,None,1431.2622098997235,None,1431.2622098997235,None,1431.2622098997235,None,1431.2622098997235,None,1431.2622098997235,None,1431.2622098997235,None,1431.549519599881,1433.3280639001168,1431.549519599881,1433.3280639001168,1433.3485483000986,None,1433.3485483000986,None,1433.3485483000986,None,1433.3485483000986,None,1433.3485483000986,None,1433.3485483000986,None,1433.3485483000986,None,1433.3485483000986,None,1433.3485483000986,None,30,40,55,75,75,41,1435.857637600042,None,7.0,1.0906662000343204,1435.857637600042,None,1435.857637600042,None,1435.857637600042,None,1435.857637600042,None,None,None,1436.9673536000773,None,,,,,,,146,f,22,2022_Dec_13_1800,RL,2021.2.3,60.174337099954215,
1,43,0,43,0,,,,,,,,,,,,,,,None,None,None,None,None,1438.6963343997486,None,1438.6963343997486,None,1438.6963343997486,None,1438.6963343997486,None,j,0.2955264998599887,1438.6963343997486,None,1438.6963343997486,None,1439.023767599836,None,1439.023767599836,None,1439.023767599836,None,1439.023767599836,None,1439.023767599836,None,1439.023767599836,None,1439.311769399792,1440.6747646997683,1439.311769399792,1440.6747646997683,1440.6975170997903,None,1440.6975170997903,None,1440.6975170997903,None,1440.6975170997903,None,1440.6975170997903,None,1440.6975170997903,None,1440.6975170997903,None,1440.6975170997903,None,1440.6975170997903,None,23,42,52,67,67,64,1443.205333400052,None,4.0,5.512244099751115,1443.205333400052,None,1443.205333400052,None,1443.205333400052,None,1443.205333400052,None,None,None,1448.7351644998416,None,,,,,,,146,f,22,2022_Dec_13_1800,RL,2021.2.3,60.174337099954215,
1,44,0,44,0,,,,,,,,,,,,,,,None,None,None,None,None,1450.547726399731,None,1450.547726399731,None,1450.547726399731,None,1450.547726399731,None,f,0.4074955000542104,1450.547726399731,None,1450.547726399731,None,1450.9934580000117,None,1450.9934580000117,None,1450.9934580000117,None,1450.9934580000117,None,1450.9934580000117,None,1450.9934580000117,None,1451.2792205000296,1452.874818299897,1451.2792205000296,1452.874818299897,1452.8943610000424,None,1452.8943610000424,None,1452.8943610000424,None,1452.8943610000424,None,1452.8943610000424,None,1452.8943610000424,None,1452.8943610000424,None,1452.8943610000424,None,1452.8943610000424,None,26,41,50,82,41,61,1455.4064703998156,None,3.0,1.2547510000877082,1455.4064703998156,None,1455.4064703998156,None,1455.4064703998156,None,1455.4064703998156,None,None,None,1456.6802349998616,None,,,,,,,146,f,22,2022_Dec_13_1800,RL,2021.2.3,60.174337099954215,
1,45,0,45,0,,,,,,,,,,,,,,,None,None,None,None,None,1458.591888899915,None,1458.591888899915,None,1458.591888899915,None,1458.591888899915,None,j,0.24714169977232814,1458.591888899915,None,1458.591888899915,None,1458.8722264999524,None,1458.8722264999524,None,1458.8722264999524,None,1458.8722264999524,None,1458.8722264999524,None,1458.8722264999524,None,1459.157631999813,1460.088331299834,1459.157631999813,1460.088331299834,1460.1097721997648,None,1460.1097721997648,None,1460.1097721997648,None,1460.1097721997648,None,1460.1097721997648,None,1460.1097721997648,None,1460.1097721997648,None,1460.1097721997648,None,1460.1097721997648,None,24,41,53,67,67,41,1462.6212732000276,None,6.0,1.3206409998238087,1462.6212732000276,None,1462.6212732000276,None,1462.6212732000276,None,1462.6212732000276,None,None,None,1463.9602438998409,None,,,,,,,146,f,22,2022_Dec_13_1800,RL,2021.2.3,60.174337099954215,
1,46,0,46,0,,,,,,,,,,,,,,,None,None,None,None,None,1465.7893062001094,None,1465.7893062001094,None,1465.7893062001094,None,1465.7893062001094,None,j,0.2536669997498393,1465.7893062001094,None,1465.7893062001094,None,1466.0841987999156,None,1466.0841987999156,None,1466.0841987999156,None,1466.0841987999156,None,1466.0841987999156,None,1466.0841987999156,None,1466.3715683999471,1467.5510128997266,1466.3715683999471,1467.5510128997266,1467.572018200066,None,1467.572018200066,None,1467.572018200066,None,1467.572018200066,None,1467.572018200066,None,1467.572018200066,None,1467.572018200066,None,1467.572018200066,None,1467.572018200066,None,31,37,42,74,74,64,1470.0828959997743,None,6.0,0.7747065001167357,1470.0828959997743,None,1470.0828959997743,None,1470.0828959997743,None,1470.0828959997743,None,None,None,1470.8745997999795,None,,,,,,,146,f,22,2022_Dec_13_1800,RL,2021.2.3,60.174337099954215,
1,47,0,47,0,,,,,,,,,,,,,,,None,None,None,None,None,1472.6040578996763,None,1472.6040578996763,None,1472.6040578996763,None,1472.6040578996763,None,j,0.24455289961770177,1472.6040578996763,None,1472.6040578996763,None,1472.8823557998985,None,1472.8823557998985,None,1472.8823557998985,None,1472.8823557998985,None,1472.8823557998985,None,1472.8823557998985,None,1473.1693468997255,1474.150090399664,1473.1693468997255,1474.150090399664,1474.17076550005,None,1474.17076550005,None,1474.17076550005,None,1474.17076550005,None,1474.17076550005,None,1474.17076550005,None,1474.17076550005,None,1474.17076550005,None,1474.17076550005,None,37,45,46,72,72,63,1476.6800778000616,None,5.0,0.8738034996204078,1476.6800778000616,None,1476.6800778000616,None,1476.6800778000616,None,1476.6800778000616,None,None,None,1477.5728257000446,None,,,,,,,146,f,22,2022_Dec_13_1800,RL,2021.2.3,60.174337099954215,
1,48,0,48,0,,,,,,,,,,,,,,,None,None,None,None,None,1479.5352070000954,None,1479.5352070000954,None,1479.5352070000954,None,1479.5352070000954,None,j,0.25329199992120266,1479.5352070000954,None,1479.5352070000954,None,1479.8274338999763,None,1479.8274338999763,None,1479.8274338999763,None,1479.8274338999763,None,1479.8274338999763,None,1479.8274338999763,None,1480.1171879996546,1481.546584600117,1480.1171879996546,1481.546584600117,1481.5695890998468,None,1481.5695890998468,None,1481.5695890998468,None,1481.5695890998468,None,1481.5695890998468,None,1481.5695890998468,None,1481.5695890998468,None,1481.5695890998468,None,1481.5695890998468,None,36,48,36,74,74,35,1484.0782992998138,None,5.0,1.60417789965868,1484.0782992998138,None,1484.0782992998138,None,1484.0782992998138,None,1484.0782992998138,None,None,None,1485.7008074996993,None,,,,,,,146,f,22,2022_Dec_13_1800,RL,2021.2.3,60.174337099954215,
1,49,0,49,0,,,,,,,,,,,,,,,None,None,None,None,None,1487.5464367996901,None,1487.5464367996901,None,1487.5464367996901,None,1487.5464367996901,None,j,0.3049320001155138,1487.5464367996901,None,1487.5464367996901,None,1487.890789899975,None,1487.890789899975,None,1487.890789899975,None,1487.890789899975,None,1487.890789899975,None,1487.890789899975,None,1488.1784501997754,1489.225492599886,1488.1784501997754,1489.225492599886,1489.2482980997302,None,1489.2482980997302,None,1489.2482980997302,None,1489.2482980997302,None,1489.2482980997302,None,1489.2482980997302,None,1489.2482980997302,None,1489.2482980997302,None,1489.2482980997302,None,32,46,41,66,66,45,1491.7568806000054,None,4.0,0.8227768996730447,1491.7568806000054,None,1491.7568806000054,None,1491.7568806000054,None,1491.7568806000054,None,None,None,1492.5989707997069,None,,,,,,,146,f,22,2022_Dec_13_1800,RL,2021.2.3,60.174337099954215,
1,50,0,50,0,,,,,,,,,,,,,,,None,None,None,None,None,1494.21155430004,None,1494.21155430004,None,1494.21155430004,None,1494.21155430004,None,j,0.34553940035402775,1494.21155430004,None,1494.21155430004,None,1494.589632899966,None,1494.589632899966,None,1494.589632899966,None,1494.589632899966,None,1494.589632899966,None,1494.589632899966,None,1494.8773093000054,None,1494.8773093000054,None,1496.4917978998274,None,1496.4917978998274,None,1496.4917978998274,None,1496.4917978998274,None,1496.4917978998274,None,1496.4917978998274,None,1496.4917978998274,None,1496.4917978998274,None,1496.4917978998274,None,28,54,33,69,69,63,1499.0021259998903,None,4.0,0.8080260995775461,1499.0021259998903,None,1499.0021259998903,None,1499.0021259998903,None,1499.0021259998903,None,None,None,1499.8288467000239,None,,,,,,,146,f,22,2022_Dec_13_1800,RL,2021.2.3,60.174337099954215,
1,51,0,51,0,,,,,,,,,,,,,,,None,None,None,None,None,1501.6081856000237,None,1501.6081856000237,None,1501.6081856000237,None,1501.6081856000237,None,j,0.3024271000176668,1501.6081856000237,None,1501.6081856000237,None,1501.9523053998128,None,1501.9523053998128,None,1501.9523053998128,None,1501.9523053998128,None,1501.9523053998128,None,1501.9523053998128,None,1502.2402307000011,1503.154061499983,1502.2402307000011,1503.154061499983,1503.1755856997333,None,1503.1755856997333,None,1503.1755856997333,None,1503.1755856997333,None,1503.1755856997333,None,1503.1755856997333,None,1503.1755856997333,None,1503.1755856997333,None,1503.1755856997333,None,33,54,35,77,77,35,1505.6851419997402,None,5.0,0.9234279999509454,1505.6851419997402,None,1505.6851419997402,None,1505.6851419997402,None,1505.6851419997402,None,None,None,1506.6269724001177,None,,,,,,,146,f,22,2022_Dec_13_1800,RL,2021.2.3,60.174337099954215,
1,52,0,52,0,,,,,,,,,,,,,,,None,None,None,None,None,1508.422907100059,None,1508.422907100059,None,1508.422907100059,None,1508.422907100059,None,j,0.313260399736464,1508.422907100059,None,1508.422907100059,None,1508.7661675000563,None,1508.7661675000563,None,1508.7661675000563,None,1508.7661675000563,None,1508.7661675000563,None,1508.7661675000563,None,1509.055059199687,1510.1685966998339,1509.055059199687,1510.1685966998339,1510.1908712000586,None,1510.1908712000586,None,1510.1908712000586,None,1510.1908712000586,None,1510.1908712000586,None,1510.1908712000586,None,1510.1908712000586,None,1510.1908712000586,None,1510.1908712000586,None,45,42,32,69,69,69,1512.6995998998173,None,4.0,0.6394545999355614,1512.6995998998173,None,1512.6995998998173,None,1512.6995998998173,None,1512.6995998998173,None,None,None,1513.3585576000623,None,,,,,,,146,f,22,2022_Dec_13_1800,RL,2021.2.3,60.174337099954215,
1,53,0,53,0,,,,,,,,,,,,,,,None,None,None,None,None,1515.304450799711,None,1515.304450799711,None,1515.304450799711,None,1515.304450799711,None,r,0.4214911996386945,1515.304450799711,None,1515.304450799711,None,1515.7656376999803,None,1515.7656376999803,None,1515.7656376999803,None,1515.7656376999803,None,1515.7656376999803,None,1515.7656376999803,None,1516.0526104997844,1517.698052899912,1516.0526104997844,1517.698052899912,1517.7203031997196,None,1517.7203031997196,None,1517.7203031997196,None,1517.7203031997196,None,1517.7203031997196,None,1517.7203031997196,None,1517.7203031997196,None,1517.7203031997196,None,1517.7203031997196,None,40,45,40,80,40,44,1520.231652900111,None,3.0,0.9691943000070751,1520.231652900111,None,1520.231652900111,None,1520.231652900111,None,1520.231652900111,None,None,None,1521.220408000052,None,,,,,,,146,f,22,2022_Dec_13_1800,RL,2021.2.3,60.174337099954215,
1,54,0,54,0,,,,,,,,,,,,,,,None,None,None,None,None,1522.8169351997785,None,1522.8169351997785,None,1522.8169351997785,None,1522.8169351997785,None,j,0.313345099799335,1522.8169351997785,None,1522.8169351997785,None,1523.161009399686,None,1523.161009399686,None,1523.161009399686,None,1523.161009399686,None,1523.161009399686,None,1523.161009399686,None,1523.448989099823,1524.2633708999492,1523.448989099823,1524.2633708999492,1524.2854108000174,None,1524.2854108000174,None,1524.2854108000174,None,1524.2854108000174,None,1524.2854108000174,None,1524.2854108000174,None,1524.2854108000174,None,1524.2854108000174,None,1524.2854108000174,None,46,38,37,82,82,85,1526.7949492996559,None,6.0,0.6565815000794828,1526.7949492996559,None,1526.7949492996559,None,1526.7949492996559,None,1526.7949492996559,None,None,None,1527.4702455997467,None,,,,,,,146,f,22,2022_Dec_13_1800,RL,2021.2.3,60.174337099954215,
1,55,0,55,0,,,,,,,,,,,,,,,None,None,None,None,None,1529.448760099709,None,1529.448760099709,None,1529.448760099709,None,1529.448760099709,None,j,0.24763890029862523,1529.448760099709,None,1529.448760099709,None,1529.7273136996664,None,1529.7273136996664,None,1529.7273136996664,None,1529.7273136996664,None,1529.7273136996664,None,1529.7273136996664,None,1530.0142629998736,1531.742624399718,1530.0142629998736,1531.742624399718,1531.7633682996966,None,1531.7633682996966,None,1531.7633682996966,None,1531.7633682996966,None,1531.7633682996966,None,1531.7633682996966,None,1531.7633682996966,None,1531.7633682996966,None,1531.7633682996966,None,42,47,43,79,79,74,1534.2740425998345,None,5.0,1.0057883001863956,1534.2740425998345,None,1534.2740425998345,None,1534.2740425998345,None,1534.2740425998345,None,None,None,1535.2990464996547,None,,,,,,,146,f,22,2022_Dec_13_1800,RL,2021.2.3,60.174337099954215,
1,56,0,56,0,,,,,,,,,,,,,,,None,None,None,None,None,1537.2276550997049,None,1537.2276550997049,None,1537.2276550997049,None,1537.2276550997049,None,j,0.33738499972969294,1537.2276550997049,None,1537.2276550997049,None,1537.603187199682,None,1537.603187199682,None,1537.603187199682,None,1537.603187199682,None,1537.603187199682,None,1537.603187199682,None,1537.8932034000754,1539.3388882,1537.8932034000754,1539.3388882,1539.3618083996698,None,1539.3618083996698,None,1539.3618083996698,None,1539.3618083996698,None,1539.3618083996698,None,1539.3618083996698,None,1539.3618083996698,None,1539.3618083996698,None,1539.3618083996698,None,51,38,48,75,75,46,1541.8717310996726,None,5.0,0.6887632999569178,1541.8717310996726,None,1541.8717310996726,None,1541.8717310996726,None,1541.8717310996726,None,None,None,1542.579263200052,None,,,,,,,146,f,22,2022_Dec_13_1800,RL,2021.2.3,60.174337099954215,
1,57,0,57,0,,,,,,,,,,,,,,,None,None,None,None,None,1544.5412836000323,None,1544.5412836000323,None,1544.5412836000323,None,1544.5412836000323,None,j,0.27801260026171803,1544.5412836000323,None,1544.5412836000323,None,1544.8510559001006,None,1544.8510559001006,None,1544.8510559001006,None,1544.8510559001006,None,1544.8510559001006,None,1544.8510559001006,None,1545.1399328997359,1547.0679897000082,1545.1399328997359,1547.0679897000082,1547.089132499881,None,1547.089132499881,None,1547.089132499881,None,1547.089132499881,None,1547.089132499881,None,1547.089132499881,None,1547.089132499881,None,1547.089132499881,None,1547.089132499881,None,42,41,45,80,80,67,1549.5993618997745,None,6.0,0.9049855000339448,1549.5993618997745,None,1549.5993618997745,None,1549.5993618997745,None,1549.5993618997745,None,None,None,1550.5238284999505,None,,,,,,,146,f,22,2022_Dec_13_1800,RL,2021.2.3,60.174337099954215,
1,58,0,58,0,,,,,,,,,,,,,,,None,None,None,None,None,1552.5028335000388,None,1552.5028335000388,None,1552.5028335000388,None,1552.5028335000388,None,j,0.21597470017150044,1552.5028335000388,None,1552.5028335000388,None,1552.7460619998164,None,1552.7460619998164,None,1552.7460619998164,None,1552.7460619998164,None,1552.7460619998164,None,1552.7460619998164,None,1553.0351521000266,1554.6636160998605,1553.0351521000266,1554.6636160998605,1554.6857909997925,None,1554.6857909997925,None,1554.6857909997925,None,1554.6857909997925,None,1554.6857909997925,None,1554.6857909997925,None,1554.6857909997925,None,1554.6857909997925,None,1554.6857909997925,None,47,42,54,85,85,76,1557.194928099867,None,7.0,0.8899639002047479,1557.194928099867,None,1557.194928099867,None,1557.194928099867,None,1557.194928099867,None,None,None,1558.1032603997737,None,,,,,,,146,f,22,2022_Dec_13_1800,RL,2021.2.3,60.174337099954215,
1,59,0,59,0,,,,,,,,,,,,,,,None,None,None,None,None,1559.8491686000489,None,1559.8491686000489,None,1559.8491686000489,None,1559.8491686000489,None,i,0.28899289993569255,1559.8491686000489,None,1559.8491686000489,None,1560.1784703000449,None,1560.1784703000449,None,1560.1784703000449,None,1560.1784703000449,None,1560.1784703000449,None,1560.1784703000449,None,1560.4646192998625,None,1560.4646192998625,None,1562.3627213998698,None,1562.3627213998698,None,1562.3627213998698,None,1562.3627213998698,None,1562.3627213998698,None,1562.3627213998698,None,1562.3627213998698,None,1562.3627213998698,None,1562.3627213998698,None,44,37,44,83,44,27,1564.8724404997192,None,3.0,1.2897374001331627,1564.8724404997192,None,1564.8724404997192,None,1564.8724404997192,None,1564.8724404997192,None,None,None,1566.1810897998512,None,,,,,,,146,f,22,2022_Dec_13_1800,RL,2021.2.3,60.174337099954215,
1,60,0,60,0,,,,,,,,,,,,,,,None,None,None,None,None,1567.877469100058,None,1567.877469100058,None,1567.877469100058,None,1567.877469100058,None,j,0.2892297999933362,1567.877469100058,None,1567.877469100058,None,1568.204595099669,None,1568.204595099669,None,1568.204595099669,None,1568.204595099669,None,1568.204595099669,None,1568.204595099669,None,1568.4927785000764,1570.3374699996784,1568.4927785000764,1570.3374699996784,1570.3605277999304,None,1570.3605277999304,None,1570.3605277999304,None,1570.3605277999304,None,1570.3605277999304,None,1570.3605277999304,None,1570.3605277999304,None,1570.3605277999304,None,1570.3605277999304,None,41,42,62,80,80,44,1572.8722570999525,None,7.0,1.683978000190109,1572.8722570999525,None,1572.8722570999525,None,1572.8722570999525,None,1572.8722570999525,None,None,None,1574.574934199918,None,,,,,,,146,f,22,2022_Dec_13_1800,RL,2021.2.3,60.174337099954215,
1,61,0,61,0,,,,,,,,,,,,,,,None,None,None,None,None,1576.4376697996631,None,1576.4376697996631,None,1576.4376697996631,None,1576.4376697996631,None,j,0.24173180013895035,1576.4376697996631,None,1576.4376697996631,None,1576.7149231000803,None,1576.7149231000803,None,1576.7149231000803,None,1576.7149231000803,None,1576.7149231000803,None,1576.7149231000803,None,1577.002964799758,None,1577.002964799758,None,1578.6027087997645,None,1578.6027087997645,None,1578.6027087997645,None,1578.6027087997645,None,1578.6027087997645,None,1578.6027087997645,None,1578.6027087997645,None,1578.6027087997645,None,1578.6027087997645,None,48,47,57,86,86,78,1581.1118529997766,None,7.0,0.42592080030590296,1581.1118529997766,None,1581.1118529997766,None,1581.1118529997766,None,1581.1118529997766,None,None,None,1581.5562848998234,None,,,,,,,146,f,22,2022_Dec_13_1800,RL,2021.2.3,60.174337099954215,
1,62,0,62,0,,,,,,,,,,,,,,,None,None,None,None,None,1583.2852138997987,None,1583.2852138997987,None,1583.2852138997987,None,1583.2852138997987,None,j,0.22900839988142252,1583.2852138997987,None,1583.2852138997987,None,1583.5470039998181,None,1583.5470039998181,None,1583.5470039998181,None,1583.5470039998181,None,1583.5470039998181,None,1583.5470039998181,None,1583.8344247997738,None,1583.8344247997738,None,1585.1835777000524,None,1585.1835777000524,None,1585.1835777000524,None,1585.1835777000524,None,1585.1835777000524,None,1585.1835777000524,None,1585.1835777000524,None,1585.1835777000524,None,1585.1835777000524,None,44,42,45,87,87,71,1587.695882699918,None,7.0,0.45589290000498295,1587.695882699918,None,1587.695882699918,None,1587.695882699918,None,1587.695882699918,None,None,None,1588.1714161001146,None,,,,,,,146,f,22,2022_Dec_13_1800,RL,2021.2.3,60.174337099954215,
1,63,0,63,0,,,,,,,,,,,,,,,None,None,None,None,None,1589.8009524000809,None,1589.8009524000809,None,1589.8009524000809,None,1589.8009524000809,None,j,0.37298320000991225,1589.8009524000809,None,1589.8009524000809,None,1590.211246700026,None,1590.211246700026,None,1590.211246700026,None,1590.211246700026,None,1590.211246700026,None,1590.211246700026,None,1590.4992790999822,1591.745756200049,1590.4992790999822,1591.745756200049,1591.7658520997502,None,1591.7658520997502,None,1591.7658520997502,None,1591.7658520997502,None,1591.7658520997502,None,1591.7658520997502,None,1591.7658520997502,None,1591.7658520997502,None,1591.7658520997502,None,48,45,58,86,86,72,1594.276416900102,None,7.0,0.32459620013833046,1594.276416900102,None,1594.276416900102,None,1594.276416900102,None,1594.276416900102,None,None,None,1594.6202460997738,None,,,,,,,146,f,22,2022_Dec_13_1800,RL,2021.2.3,60.174337099954215,
1,64,0,64,0,,,,,,,,,,,,,,,None,None,None,None,None,1596.4330628998578,None,1596.4330628998578,None,1596.4330628998578,None,1596.4330628998578,None,j,0.28113560006022453,1596.4330628998578,None,1596.4330628998578,None,1596.74374169996,None,1596.74374169996,None,1596.74374169996,None,1596.74374169996,None,1596.74374169996,None,1596.74374169996,None,1597.0314575997181,1598.2447458999231,1597.0314575997181,1598.2447458999231,1598.2646969999187,None,1598.2646969999187,None,1598.2646969999187,None,1598.2646969999187,None,1598.2646969999187,None,1598.2646969999187,None,1598.2646969999187,None,1598.2646969999187,None,1598.2646969999187,None,44,45,53,88,88,66,1600.7780693001114,None,7.0,0.7882993002422154,1600.7780693001114,None,1600.7780693001114,None,1600.7780693001114,None,1600.7780693001114,None,None,None,1601.5846036998555,None,,,,,,,146,f,22,2022_Dec_13_1800,RL,2021.2.3,60.174337099954215,
1,65,0,65,0,,,,,,,,,,,,,,,None,None,None,None,None,1603.1480632000603,None,1603.1480632000603,None,1603.1480632000603,None,1603.1480632000603,None,j,0.3107490004040301,1603.1480632000603,None,1603.1480632000603,None,1603.491679099854,None,1603.491679099854,None,1603.491679099854,None,1603.491679099854,None,1603.491679099854,None,1603.491679099854,None,1603.7798382998444,1604.9765793997794,1603.7798382998444,1604.9765793997794,1604.998816699721,None,1604.998816699721,None,1604.998816699721,None,1604.998816699721,None,1604.998816699721,None,1604.998816699721,None,1604.998816699721,None,1604.998816699721,None,1604.998816699721,None,50,40,53,81,81,66,1607.5094355996698,None,6.0,1.684781700372696,1607.5094355996698,None,1607.5094355996698,None,1607.5094355996698,None,1607.5094355996698,None,None,None,1609.2142219999805,None,,,,,,,146,f,22,2022_Dec_13_1800,RL,2021.2.3,60.174337099954215,
1,66,0,66,0,,,,,,,,,,,,,,,None,None,None,None,None,1610.9599556000903,None,1610.9599556000903,None,1610.9599556000903,None,1610.9599556000903,None,j,0.2425766997039318,1610.9599556000903,None,1610.9599556000903,None,1611.2382765999064,None,1611.2382765999064,None,1611.2382765999064,None,1611.2382765999064,None,1611.2382765999064,None,1611.2382765999064,None,1611.5256884000264,1612.8385107996874,1611.5256884000264,1612.8385107996874,1612.8586408998817,None,1612.8586408998817,None,1612.8586408998817,None,1612.8586408998817,None,1612.8586408998817,None,1612.8586408998817,None,1612.8586408998817,None,1612.8586408998817,None,1612.8586408998817,None,60,32,66,91,91,39,1615.369601899758,None,7.0,0.7892590998671949,1615.369601899758,None,1615.369601899758,None,1615.369601899758,None,1615.369601899758,None,None,None,1616.1781268999912,None,,,,,,,146,f,22,2022_Dec_13_1800,RL,2021.2.3,60.174337099954215,
1,67,0,67,0,,,,,,,,,,,,,,,None,None,None,None,None,1617.9077654997818,None,1617.9077654997818,None,1617.9077654997818,None,1617.9077654997818,None,j,0.26982339983806014,1617.9077654997818,None,1617.9077654997818,None,1618.2199732000008,None,1618.2199732000008,None,1618.2199732000008,None,1618.2199732000008,None,1618.2199732000008,None,1618.2199732000008,None,1618.506355999969,None,1618.506355999969,None,1619.9062783997506,None,1619.9062783997506,None,1619.9062783997506,None,1619.9062783997506,None,1619.9062783997506,None,1619.9062783997506,None,1619.9062783997506,None,1619.9062783997506,None,1619.9062783997506,None,53,37,51,88,88,64,1622.4158201999962,None,7.0,0.42410209961235523,1622.4158201999962,None,1622.4158201999962,None,1622.4158201999962,None,1622.4158201999962,None,None,None,1622.8599404999986,None,,,,,,,146,f,22,2022_Dec_13_1800,RL,2021.2.3,60.174337099954215,
1,68,0,68,0,,,,,,,,,,,,,,,None,None,None,None,None,1624.6226721997373,None,1624.6226721997373,None,1624.6226721997373,None,1624.6226721997373,None,j,0.2902616998180747,1624.6226721997373,None,1624.6226721997373,None,1624.948120399844,None,1624.948120399844,None,1624.948120399844,None,1624.948120399844,None,1624.948120399844,None,1624.948120399844,None,1625.2380947000347,1626.617412999738,1625.2380947000347,1626.617412999738,1626.6393173998222,None,1626.6393173998222,None,1626.6393173998222,None,1626.6393173998222,None,1626.6393173998222,None,1626.6393173998222,None,1626.6393173998222,None,1626.6393173998222,None,1626.6393173998222,None,56,29,52,86,86,28,1629.1495284996927,None,7.0,0.35585880000144243,1629.1495284996927,None,1629.1495284996927,None,1629.1495284996927,None,1629.1495284996927,None,None,None,1629.5252314996906,None,,,,,,,146,f,22,2022_Dec_13_1800,RL,2021.2.3,60.174337099954215,
1,69,0,69,0,,,,,,,,,,,,,,,None,None,None,None,None,1631.2212356999516,None,1631.2212356999516,None,1631.2212356999516,None,1631.2212356999516,None,j,0.29689399991184473,1631.2212356999516,None,1631.2212356999516,None,1631.5484921000898,None,1631.5484921000898,None,1631.5484921000898,None,1631.5484921000898,None,1631.5484921000898,None,1631.5484921000898,None,1631.8368502999656,1632.7342246999033,1631.8368502999656,1632.7342246999033,1632.7552331998013,None,1632.7552331998013,None,1632.7552331998013,None,1632.7552331998013,None,1632.7552331998013,None,1632.7552331998013,None,1632.7552331998013,None,1632.7552331998013,None,1632.7552331998013,None,63,36,44,98,98,61,1635.2659446997568,None,7.0,0.3568070000037551,1635.2659446997568,None,1635.2659446997568,None,1635.2659446997568,None,1635.2659446997568,None,None,None,1635.6417199997231,None,,,,,,,146,f,22,2022_Dec_13_1800,RL,2021.2.3,60.174337099954215,
1,70,0,70,0,,,,,,,,,,,,,,,None,None,None,None,None,1637.5038592000492,None,1637.5038592000492,None,1637.5038592000492,None,1637.5038592000492,None,j,0.2702607996761799,1637.5038592000492,None,1637.5038592000492,None,1637.8181032999419,None,1637.8181032999419,None,1637.8181032999419,None,1637.8181032999419,None,1637.8181032999419,None,1637.8181032999419,None,1638.1027235998772,1639.5156457996927,1638.1027235998772,1639.5156457996927,1639.5368802999146,None,1639.5368802999146,None,1639.5368802999146,None,1639.5368802999146,None,1639.5368802999146,None,1639.5368802999146,None,1639.5368802999146,None,1639.5368802999146,None,1639.5368802999146,None,60,45,54,92,92,70,1642.0460729999468,None,7.0,0.4411884001456201,1642.0460729999468,None,1642.0460729999468,None,1642.0460729999468,None,1642.0460729999468,None,None,None,1642.5062091997825,None,,,,,,,146,f,22,2022_Dec_13_1800,RL,2021.2.3,60.174337099954215,
1,71,0,71,0,,,,,,,,,,,,,,,None,None,None,None,None,1644.1191944000311,None,1644.1191944000311,None,1644.1191944000311,None,1644.1191944000311,None,j,1.3640693998895586,1644.1191944000311,None,1644.1191944000311,None,1645.5250798999332,None,1645.5250798999332,None,1645.5250798999332,None,1645.5250798999332,None,1645.5250798999332,None,1645.5250798999332,None,1645.8151699998416,1647.344047300052,1645.8151699998416,1647.344047300052,1647.366222300101,None,1647.366222300101,None,1647.366222300101,None,1647.366222300101,None,1647.366222300101,None,1647.366222300101,None,1647.366222300101,None,1647.366222300101,None,1647.366222300101,None,59,41,51,96,96,35,1649.8776290998794,None,7.0,0.3216832000762224,1649.8776290998794,None,1649.8776290998794,None,1649.8776290998794,None,1649.8776290998794,None,None,None,1650.2185295997187,None,,,,,,,146,f,22,2022_Dec_13_1800,RL,2021.2.3,60.174337099954215,
1,72,0,72,0,,,,,,,,,,,,,,,None,None,None,None,None,1651.9810073999688,None,1651.9810073999688,None,1651.9810073999688,None,1651.9810073999688,None,j,0.26885770028457046,1651.9810073999688,None,1651.9810073999688,None,1652.2929471000098,None,1652.2929471000098,None,1652.2929471000098,None,1652.2929471000098,None,1652.2929471000098,None,1652.2929471000098,None,1652.5803088000976,1654.2587092998438,1652.5803088000976,1654.2587092998438,1654.280642800033,None,1654.280642800033,None,1654.280642800033,None,1654.280642800033,None,1654.280642800033,None,1654.280642800033,None,1654.280642800033,None,1654.280642800033,None,1654.280642800033,None,62,38,62,97,97,57,1656.7884575999342,None,7.0,0.3598523996770382,1656.7884575999342,None,1656.7884575999342,None,1656.7884575999342,None,1656.7884575999342,None,None,None,1657.1663450999185,None,,,,,,,146,f,22,2022_Dec_13_1800,RL,2021.2.3,60.174337099954215,
1,73,0,73,0,,,,,,,,,,,,,,,None,None,None,None,None,1659.0285883997567,None,1659.0285883997567,None,1659.0285883997567,None,1659.0285883997567,None,j,0.21971150022000074,1659.0285883997567,None,1659.0285883997567,None,1659.2908728998154,None,1659.2908728998154,None,1659.2908728998154,None,1659.2908728998154,None,1659.2908728998154,None,1659.2908728998154,None,1659.5778894000687,1661.123503800016,1659.5778894000687,1661.123503800016,1661.1458796998486,None,1661.1458796998486,None,1661.1458796998486,None,1661.1458796998486,None,1661.1458796998486,None,1661.1458796998486,None,1661.1458796998486,None,1661.1458796998486,None,1661.1458796998486,None,65,40,53,94,94,42,1663.653692400083,None,7.0,0.3572025001049042,1663.653692400083,None,1663.653692400083,None,1663.653692400083,None,1663.653692400083,None,None,None,1664.031030899845,None,,,,,,,146,f,22,2022_Dec_13_1800,RL,2021.2.3,60.174337099954215,
1,74,0,74,0,,,,,,,,,,,,,,,None,None,None,None,None,1665.7768676998094,None,1665.7768676998094,None,1665.7768676998094,None,1665.7768676998094,None,j,0.28660860005766153,1665.7768676998094,None,1665.7768676998094,None,1666.103356800042,None,1666.103356800042,None,1666.103356800042,None,1666.103356800042,None,1666.103356800042,None,1666.103356800042,None,1666.3922514999285,1667.4890685998835,1666.3922514999285,1667.4890685998835,1667.514170399867,None,1667.514170399867,None,1667.514170399867,None,1667.514170399867,None,1667.514170399867,None,1667.514170399867,None,1667.514170399867,None,1667.514170399867,None,1667.514170399867,None,65,47,51,100,100,51,1670.0214347001165,None,7.0,0.5890848999843001,1670.0214347001165,None,1670.0214347001165,None,1670.0214347001165,None,1670.0214347001165,None,None,None,1670.6297142999247,None,,,,,,,146,f,22,2022_Dec_13_1800,RL,2021.2.3,60.174337099954215,
1,75,0,75,0,,,,,,,,,,,,,,,1672.1763623999432,None,q,1672.1763623999432,None,1876.8678196999244,None,1876.8678196999244,None,1876.8678196999244,None,1876.8678196999244,None,None,,1876.8678196999244,None,1876.8678196999244,None,None,None,None,None,None,None,None,None,None,None,None,None,None,None,None,None,None,None,None,None,None,None,None,None,None,None,None,None,None,None,None,None,None,None,61,42,57,95,0,**,None,None,None,None,None,None,None,None,None,None,None,None,1878.4147796998732,None,1882.917597499676,None,204.66953469999135,,,,,,146,f,22,2022_Dec_13_1800,RL,2021.2.3,60.174337099954215,
1,76,0,76,0,,,,,,,,,,,,,,,None,None,None,None,None,1884.6798485000618,None,1884.6798485000618,None,1884.6798485000618,None,1884.6798485000618,None,j,0.8560214997269213,1884.6798485000618,None,1884.6798485000618,None,1885.5725942999125,None,1885.5725942999125,None,1885.5725942999125,None,1885.5725942999125,None,1885.5725942999125,None,1885.5725942999125,None,1885.8604919998907,1887.4391458998434,1885.8604919998907,1887.4391458998434,1887.4594438998029,None,1887.4594438998029,None,1887.4594438998029,None,1887.4594438998029,None,1887.4594438998029,None,1887.4594438998029,None,1887.4594438998029,None,1887.4594438998029,None,1887.4594438998029,None,67,42,53,98,98,52,1889.9687985996716,None,7.0,1.1069836998358369,1889.9687985996716,None,1889.9687985996716,None,1889.9687985996716,None,1889.9687985996716,None,None,None,1891.0946647999808,None,,,,,,,146,f,22,2022_Dec_13_1800,RL,2021.2.3,60.174337099954215,
1,77,0,77,0,,,,,,,,,,,,,,,None,None,None,None,None,1892.9738197997212,None,1892.9738197997212,None,1892.9738197997212,None,1892.9738197997212,None,j,0.2567487000487745,1892.9738197997212,None,1892.9738197997212,None,1893.2669824999757,None,1893.2669824999757,None,1893.2669824999757,None,1893.2669824999757,None,1893.2669824999757,None,1893.2669824999757,None,1893.5558519000188,1894.9852750999853,1893.5558519000188,1894.9852750999853,1895.005326999817,None,1895.005326999817,None,1895.005326999817,None,1895.005326999817,None,1895.005326999817,None,1895.005326999817,None,1895.005326999817,None,1895.005326999817,None,1895.005326999817,None,59,40,53,89,89,58,1897.5156978997402,None,7.0,2.5046429000794888,1897.5156978997402,None,1897.5156978997402,None,1897.5156978997402,None,1897.5156978997402,None,None,None,1900.039419699926,None,,,,,,,146,f,22,2022_Dec_13_1800,RL,2021.2.3,60.174337099954215,
1,78,0,78,0,,,,,,,,,,,,,,,None,None,None,None,None,1901.550254299771,None,1901.550254299771,None,1901.550254299771,None,1901.550254299771,None,j,0.5121552003547549,1901.550254299771,None,1901.550254299771,None,1902.0966535997577,None,1902.0966535997577,None,1902.0966535997577,None,1902.0966535997577,None,1902.0966535997577,None,1902.0966535997577,None,1902.3818334001116,None,1902.3818334001116,None,1903.783733899705,None,1903.783733899705,None,1903.783733899705,None,1903.783733899705,None,1903.783733899705,None,1903.783733899705,None,1903.783733899705,None,1903.783733899705,None,1903.783733899705,None,59,44,58,84,84,52,1906.29210099997,None,7.0,1.14078569971025,1906.29210099997,None,1906.29210099997,None,1906.29210099997,None,1906.29210099997,None,None,None,1907.4503929996863,None,,,,,,,146,f,22,2022_Dec_13_1800,RL,2021.2.3,60.174337099954215,
1,79,0,79,0,,,,,,,,,,,,,,,None,None,None,None,None,1908.9969016998075,None,1908.9969016998075,None,1908.9969016998075,None,1908.9969016998075,None,j,0.2897557998076081,1908.9969016998075,None,1908.9969016998075,None,1909.3237840998918,None,1909.3237840998918,None,1909.3237840998918,None,1909.3237840998918,None,1909.3237840998918,None,1909.3237840998918,None,1909.6121000000276,1910.6924164998345,1909.6121000000276,1910.6924164998345,1910.71279089991,None,1910.71279089991,None,1910.71279089991,None,1910.71279089991,None,1910.71279089991,None,1910.71279089991,None,1910.71279089991,None,1910.71279089991,None,1910.71279089991,None,65,28,51,92,92,34,1913.2220538998954,None,7.0,1.140569900162518,1913.2220538998954,None,1913.2220538998954,None,1913.2220538998954,None,1913.2220538998954,None,None,None,1914.381230399944,None,,,,,,,146,f,22,2022_Dec_13_1800,RL,2021.2.3,60.174337099954215,
1,80,0,80,0,,,,,,,,,,,,,,,None,None,None,None,None,1916.2771831001155,None,1916.2771831001155,None,1916.2771831001155,None,1916.2771831001155,None,j,0.2736672000028193,1916.2771831001155,None,1916.2771831001155,None,1916.5894800000824,None,1916.5894800000824,None,1916.5894800000824,None,1916.5894800000824,None,1916.5894800000824,None,1916.5894800000824,None,1916.8758215997368,1917.7894544997253,1916.8758215997368,1917.7894544997253,1917.8097080998123,None,1917.8097080998123,None,1917.8097080998123,None,1917.8097080998123,None,1917.8097080998123,None,1917.8097080998123,None,1917.8097080998123,None,1917.8097080998123,None,1917.8097080998123,None,59,31,49,92,92,37,1920.3219498000108,None,7.0,0.9061133996583521,1920.3219498000108,None,1920.3219498000108,None,1920.3219498000108,None,1920.3219498000108,None,None,None,1921.2462603999302,None,,,,,,,146,f,22,2022_Dec_13_1800,RL,2021.2.3,60.174337099954215,
1,81,0,81,0,,,,,,,,,,,,,,,None,None,None,None,None,1922.808874499984,None,1922.808874499984,None,1922.808874499984,None,1922.808874499984,None,j,0.2676915000192821,1922.808874499984,None,1922.808874499984,None,1923.1032274998724,None,1923.1032274998724,None,1923.1032274998724,None,1923.1032274998724,None,1923.1032274998724,None,1923.1032274998724,None,1923.3912041001022,1924.6545883999206,1923.3912041001022,1924.6545883999206,1924.675105900038,None,1924.675105900038,None,1924.675105900038,None,1924.675105900038,None,1924.675105900038,None,1924.675105900038,None,1924.675105900038,None,1924.675105900038,None,1924.675105900038,None,62,29,44,83,83,55,1927.1861397996545,None,7.0,0.3728706003166735,1927.1861397996545,None,1927.1861397996545,None,1927.1861397996545,None,1927.1861397996545,None,None,None,1927.578867000062,None,,,,,,,146,f,22,2022_Dec_13_1800,RL,2021.2.3,60.174337099954215,
1,82,0,82,0,,,,,,,,,,,,,,,None,None,None,None,None,1929.1913680997677,None,1929.1913680997677,None,1929.1913680997677,None,1929.1913680997677,None,j,0.23151429975405335,1929.1913680997677,None,1929.1913680997677,None,1929.452596699819,None,1929.452596699819,None,1929.452596699819,None,1929.452596699819,None,1929.452596699819,None,1929.452596699819,None,1929.7405113000423,1930.7378163998947,1929.7405113000423,1930.7378163998947,1930.7600475996733,None,1930.7600475996733,None,1930.7600475996733,None,1930.7600475996733,None,1930.7600475996733,None,1930.7600475996733,None,1930.7600475996733,None,1930.7600475996733,None,1930.7600475996733,None,61,37,49,95,95,47,1933.2690979996696,None,7.0,0.5403549000620842,1933.2690979996696,None,1933.2690979996696,None,1933.2690979996696,None,1933.2690979996696,None,None,None,1933.8284362000413,None,,,,,,,146,f,22,2022_Dec_13_1800,RL,2021.2.3,60.174337099954215,
1,83,0,83,0,,,,,,,,,,,,,,,None,None,None,None,None,1935.6907262997702,None,1935.6907262997702,None,1935.6907262997702,None,1935.6907262997702,None,j,0.22683870000764728,1935.6907262997702,None,1935.6907262997702,None,1935.9502984997816,None,1935.9502984997816,None,1935.9502984997816,None,1935.9502984997816,None,1935.9502984997816,None,1935.9502984997816,None,1936.239635199774,None,1936.239635199774,None,1937.0606941999868,None,1937.0606941999868,None,1937.0606941999868,None,1937.0606941999868,None,1937.0606941999868,None,1937.0606941999868,None,1937.0606941999868,None,1937.0606941999868,None,1937.0606941999868,None,53,41,52,94,94,53,1939.5682194996625,None,7.0,0.30862159980461,1939.5682194996625,None,1939.5682194996625,None,1939.5682194996625,None,1939.5682194996625,None,None,None,1939.8953285999596,None,,,,,,,146,f,22,2022_Dec_13_1800,RL,2021.2.3,60.174337099954215,
1,84,0,84,0,,,,,,,,,,,,,,,None,None,None,None,None,1941.7411241000518,None,1941.7411241000518,None,1941.7411241000518,None,1941.7411241000518,None,j,0.22234829980880022,1941.7411241000518,None,1941.7411241000518,None,1942.0012129000388,None,1942.0012129000388,None,1942.0012129000388,None,1942.0012129000388,None,1942.0012129000388,None,1942.0012129000388,None,1942.2896297997795,1943.1702330997214,1942.2896297997795,1943.1702330997214,1943.193538399879,None,1943.193538399879,None,1943.193538399879,None,1943.193538399879,None,1943.193538399879,None,1943.193538399879,None,1943.193538399879,None,1943.193538399879,None,1943.193538399879,None,53,32,55,95,95,40,1945.7049952996895,None,7.0,0.3217273997142911,1945.7049952996895,None,1945.7049952996895,None,1945.7049952996895,None,1945.7049952996895,None,None,None,1946.044984899927,None,,,,,,,146,f,22,2022_Dec_13_1800,RL,2021.2.3,60.174337099954215,
1,85,0,85,0,,,,,,,,,,,,,,,None,None,None,None,None,1948.0571411000565,None,1948.0571411000565,None,1948.0571411000565,None,1948.0571411000565,None,j,0.26204019971191883,1948.0571411000565,None,1948.0571411000565,None,1948.351292999927,None,1948.351292999927,None,1948.351292999927,None,1948.351292999927,None,1948.351292999927,None,1948.351292999927,None,1948.638945600018,1950.2844599997625,1948.638945600018,1950.2844599997625,1950.3049296997488,None,1950.3049296997488,None,1950.3049296997488,None,1950.3049296997488,None,1950.3049296997488,None,1950.3049296997488,None,1950.3049296997488,None,1950.3049296997488,None,1950.3049296997488,None,49,30,44,87,87,35,1952.8164764000103,None,7.0,0.3058243999257684,1952.8164764000103,None,1952.8164764000103,None,1952.8164764000103,None,1952.8164764000103,None,None,None,1953.1421753996983,None,,,,,,,146,f,22,2022_Dec_13_1800,RL,2021.2.3,60.174337099954215,
1,86,0,86,0,,,,,,,,,,,,,,,None,None,None,None,None,1954.9545029997826,None,1954.9545029997826,None,1954.9545029997826,None,1954.9545029997826,None,j,0.23971909983083606,1954.9545029997826,None,1954.9545029997826,None,1955.2336319996975,None,1955.2336319996975,None,1955.2336319996975,None,1955.2336319996975,None,1955.2336319996975,None,1955.2336319996975,None,1955.5202616997994,1956.9825989999808,1955.5202616997994,1956.9825989999808,1957.002727800049,None,1957.002727800049,None,1957.002727800049,None,1957.002727800049,None,1957.002727800049,None,1957.002727800049,None,1957.002727800049,None,1957.002727800049,None,1957.002727800049,None,54,33,48,92,92,64,1959.5135701997206,None,7.0,0.27469930006191134,1959.5135701997206,None,1959.5135701997206,None,1959.5135701997206,None,1959.5135701997206,None,None,None,1959.807932099793,None,,,,,,,146,f,22,2022_Dec_13_1800,RL,2021.2.3,60.174337099954215,
1,87,0,87,0,,,,,,,,,,,,,,,None,None,None,None,None,1961.3209337000735,None,1961.3209337000735,None,1961.3209337000735,None,1961.3209337000735,None,j,0.2739416998811066,1961.3209337000735,None,1961.3209337000735,None,1961.6303035998717,None,1961.6303035998717,None,1961.6303035998717,None,1961.6303035998717,None,1961.6303035998717,None,1961.6303035998717,None,1961.9199359999038,1963.0994302998297,1961.9199359999038,1963.0994302998297,1963.1217616000213,None,1963.1217616000213,None,1963.1217616000213,None,1963.1217616000213,None,1963.1217616000213,None,1963.1217616000213,None,1963.1217616000213,None,1963.1217616000213,None,1963.1217616000213,None,58,27,47,85,85,55,1965.6299672001041,None,6.0,0.5599381001666188,1965.6299672001041,None,1965.6299672001041,None,1965.6299672001041,None,1965.6299672001041,None,None,None,1966.2066516997293,None,,,,,,,146,f,22,2022_Dec_13_1800,RL,2021.2.3,60.174337099954215,
1,88,0,88,0,,,,,,,,,,,,,,,None,None,None,None,None,1968.0688931997865,None,1968.0688931997865,None,1968.0688931997865,None,1968.0688931997865,None,j,0.22133699990808964,1968.0688931997865,None,1968.0688931997865,None,1968.3292453996837,None,1968.3292453996837,None,1968.3292453996837,None,1968.3292453996837,None,1968.3292453996837,None,1968.3292453996837,None,1968.6179941999726,1970.0636849999428,1968.6179941999726,1970.0636849999428,1970.08557439968,None,1970.08557439968,None,1970.08557439968,None,1970.08557439968,None,1970.08557439968,None,1970.08557439968,None,1970.08557439968,None,1970.08557439968,None,1970.08557439968,None,52,30,42,92,92,61,1972.5941558000632,None,7.0,1.1884217001497746,1972.5941558000632,None,1972.5941558000632,None,1972.5941558000632,None,1972.5941558000632,None,None,None,1973.8023711997084,None,,,,,,,146,f,22,2022_Dec_13_1800,RL,2021.2.3,60.174337099954215,
1,89,0,89,0,,,,,,,,,,,,,,,None,None,None,None,None,1975.5654126997106,None,1975.5654126997106,None,1975.5654126997106,None,1975.5654126997106,None,j,0.21859229961410165,1975.5654126997106,None,1975.5654126997106,None,1975.8250118000433,None,1975.8250118000433,None,1975.8250118000433,None,1975.8250118000433,None,1975.8250118000433,None,1975.8250118000433,None,1976.1142502999865,None,1976.1142502999865,None,1977.2642105999403,None,1977.2642105999403,None,1977.2642105999403,None,1977.2642105999403,None,1977.2642105999403,None,1977.2642105999403,None,1977.2642105999403,None,1977.2642105999403,None,1977.2642105999403,None,50,30,41,95,95,37,1979.7747879996896,None,7.0,0.3615796002559364,1979.7747879996896,None,1979.7747879996896,None,1979.7747879996896,None,1979.7747879996896,None,None,None,1980.152294700034,None,,,,,,,146,f,22,2022_Dec_13_1800,RL,2021.2.3,60.174337099954215,
1,90,0,90,0,,,,,,,,,,,,,,,None,None,None,None,None,1981.8150094999,None,1981.8150094999,None,1981.8150094999,None,1981.8150094999,None,j,0.24447109969332814,1981.8150094999,None,1981.8150094999,None,1982.0913657997735,None,1982.0913657997735,None,1982.0913657997735,None,1982.0913657997735,None,1982.0913657997735,None,1982.0913657997735,None,1982.3800542997196,1983.8094631996937,1982.3800542997196,1983.8094631996937,1983.8302262998186,None,1983.8302262998186,None,1983.8302262998186,None,1983.8302262998186,None,1983.8302262998186,None,1983.8302262998186,None,1983.8302262998186,None,1983.8302262998186,None,1983.8302262998186,None,47,33,53,93,93,28,1986.343790799845,None,6.0,0.8864863002672791,1986.343790799845,None,1986.343790799845,None,1986.343790799845,None,1986.343790799845,None,None,None,1987.2491648998111,None,,,,,,,146,f,22,2022_Dec_13_1800,RL,2021.2.3,60.174337099954215,
1,91,0,91,0,,,,,,,,,,,,,,,None,None,None,None,None,1988.9120573997498,None,1988.9120573997498,None,1988.9120573997498,None,1988.9120573997498,None,j,0.24189720023423433,1988.9120573997498,None,1988.9120573997498,None,1989.1880807001144,None,1989.1880807001144,None,1989.1880807001144,None,1989.1880807001144,None,1989.1880807001144,None,1989.1880807001144,None,1989.4776218999177,None,1989.4776218999177,None,1990.8773444998078,None,1990.8773444998078,None,1990.8773444998078,None,1990.8773444998078,None,1990.8773444998078,None,1990.8773444998078,None,1990.8773444998078,None,1990.8773444998078,None,1990.8773444998078,None,44,35,63,94,94,51,1993.3878163998015,None,7.0,0.8895005998201668,1993.3878163998015,None,1993.3878163998015,None,1993.3878163998015,None,1993.3878163998015,None,None,None,1994.2964828000404,None,,,,,,,146,f,22,2022_Dec_13_1800,RL,2021.2.3,60.174337099954215,
1,92,0,92,0,,,,,,,,,,,,,,,None,None,None,None,None,1996.0095645999536,None,1996.0095645999536,None,1996.0095645999536,None,1996.0095645999536,None,j,0.3141481000930071,1996.0095645999536,None,1996.0095645999536,None,1996.3506066999398,None,1996.3506066999398,None,1996.3506066999398,None,1996.3506066999398,None,1996.3506066999398,None,1996.3506066999398,None,1996.641235299874,None,1996.641235299874,None,1997.5258343000896,None,1997.5258343000896,None,1997.5258343000896,None,1997.5258343000896,None,1997.5258343000896,None,1997.5258343000896,None,1997.5258343000896,None,1997.5258343000896,None,1997.5258343000896,None,47,32,53,102,102,40,2000.0364904999733,None,7.0,0.37420570012182,2000.0364904999733,None,2000.0364904999733,None,2000.0364904999733,None,2000.0364904999733,None,None,None,2000.4299836996943,None,,,,,,,146,f,22,2022_Dec_13_1800,RL,2021.2.3,60.174337099954215,
1,93,0,93,0,,,,,,,,,,,,,,,None,None,None,None,None,2002.1093536997214,None,2002.1093536997214,None,2002.1093536997214,None,2002.1093536997214,None,j,0.22540870029479265,2002.1093536997214,None,2002.1093536997214,None,2002.3701144000515,None,2002.3701144000515,None,2002.3701144000515,None,2002.3701144000515,None,2002.3701144000515,None,2002.3701144000515,None,2002.6585001996718,2003.9050660999492,2002.6585001996718,2003.9050660999492,2003.9263877999038,None,2003.9263877999038,None,2003.9263877999038,None,2003.9263877999038,None,2003.9263877999038,None,2003.9263877999038,None,2003.9263877999038,None,2003.9263877999038,None,2003.9263877999038,None,51,37,58,100,100,40,2006.4361453000456,None,6.0,0.7727621998637915,2006.4361453000456,None,2006.4361453000456,None,2006.4361453000456,None,2006.4361453000456,None,None,None,2007.228280399926,None,,,,,,,146,f,22,2022_Dec_13_1800,RL,2021.2.3,60.174337099954215,
1,94,0,94,0,,,,,,,,,,,,,,,None,None,None,None,None,2009.1899395999499,None,2009.1899395999499,None,2009.1899395999499,None,2009.1899395999499,None,j,0.20968389976769686,2009.1899395999499,None,2009.1899395999499,None,2009.4343174998648,None,2009.4343174998648,None,2009.4343174998648,None,2009.4343174998648,None,2009.4343174998648,None,2009.4343174998648,None,2009.7224514996633,None,2009.7224514996633,None,2010.5936183999293,None,2010.5936183999293,None,2010.5936183999293,None,2010.5936183999293,None,2010.5936183999293,None,2010.5936183999293,None,2010.5936183999293,None,2010.5936183999293,None,2010.5936183999293,None,49,38,55,93,93,30,2013.102868199814,None,6.0,1.8357526999898255,2013.102868199814,None,2013.102868199814,None,2013.102868199814,None,2013.102868199814,None,None,None,2014.9571678000502,None,,,,,,,146,f,22,2022_Dec_13_1800,RL,2021.2.3,60.174337099954215,
1,95,0,95,0,,,,,,,,,,,,,,,None,None,None,None,None,2016.487222299911,None,2016.487222299911,None,2016.487222299911,None,2016.487222299911,None,j,0.27702589984983206,2016.487222299911,None,2016.487222299911,None,2016.7974379998632,None,2016.7974379998632,None,2016.7974379998632,None,2016.7974379998632,None,2016.7974379998632,None,2016.7974379998632,None,2017.0855188998394,2018.1489697000943,2017.0855188998394,2018.1489697000943,2018.169263099786,None,2018.169263099786,None,2018.169263099786,None,2018.169263099786,None,2018.169263099786,None,2018.169263099786,None,2018.169263099786,None,2018.169263099786,None,2018.169263099786,None,54,31,46,89,89,46,2020.6800685999915,None,5.0,0.64039590023458,2020.6800685999915,None,2020.6800685999915,None,2020.6800685999915,None,2020.6800685999915,None,None,None,2021.3399376999587,None,,,,,,,146,f,22,2022_Dec_13_1800,RL,2021.2.3,60.174337099954215,
1,96,0,96,0,,,,,,,,,,,,,,,None,None,None,None,None,2023.1850573997945,None,2023.1850573997945,None,2023.1850573997945,None,2023.1850573997945,None,j,0.21411919966340065,2023.1850573997945,None,2023.1850573997945,None,2023.4273064997979,None,2023.4273064997979,None,2023.4273064997979,None,2023.4273064997979,None,2023.4273064997979,None,2023.4273064997979,None,2023.7177899000235,None,2023.7177899000235,None,2025.4489786997437,None,2025.4489786997437,None,2025.4489786997437,None,2025.4489786997437,None,2025.4489786997437,None,2025.4489786997437,None,2025.4489786997437,None,2025.4489786997437,None,2025.4489786997437,None,45,39,43,103,103,37,2027.9589688996784,None,7.0,0.8247717004269361,2027.9589688996784,None,2027.9589688996784,None,2027.9589688996784,None,2027.9589688996784,None,None,None,2028.802366899792,None,,,,,,,146,f,22,2022_Dec_13_1800,RL,2021.2.3,60.174337099954215,
1,97,0,97,0,,,,,,,,,,,,,,,None,None,None,None,None,2030.3489145999774,None,2030.3489145999774,None,2030.3489145999774,None,2030.3489145999774,None,j,0.2758205998688936,2030.3489145999774,None,2030.3489145999774,None,2030.6598346000537,None,2030.6598346000537,None,2030.6598346000537,None,2030.6598346000537,None,2030.6598346000537,None,2030.6598346000537,None,2030.94814259978,None,2030.94814259978,None,2032.0802885000594,None,2032.0802885000594,None,2032.0802885000594,None,2032.0802885000594,None,2032.0802885000594,None,2032.0802885000594,None,2032.0802885000594,None,2032.0802885000594,None,2032.0802885000594,None,48,29,41,93,93,38,2034.591348899994,None,7.0,0.5924634002149105,2034.591348899994,None,2034.591348899994,None,2034.591348899994,None,2034.591348899994,None,None,None,2035.201873399783,None,,,,,,,146,f,22,2022_Dec_13_1800,RL,2021.2.3,60.174337099954215,
1,98,0,98,0,,,,,,,,,,,,,,,None,None,None,None,None,2036.9974273000844,None,2036.9974273000844,None,2036.9974273000844,None,2036.9974273000844,None,j,0.2466016998514533,2036.9974273000844,None,2036.9974273000844,None,2037.274604300037,None,2037.274604300037,None,2037.274604300037,None,2037.274604300037,None,2037.274604300037,None,2037.274604300037,None,2037.5630569998175,2039.3082606000826,2037.5630569998175,2039.3082606000826,2039.3291843999177,None,2039.3291843999177,None,2039.3291843999177,None,2039.3291843999177,None,2039.3291843999177,None,2039.3291843999177,None,2039.3291843999177,None,2039.3291843999177,None,2039.3291843999177,None,54,40,52,90,90,48,2041.8386948998086,None,5.0,1.173526800237596,2041.8386948998086,None,2041.8386948998086,None,2041.8386948998086,None,2041.8386948998086,None,None,None,2043.030192699749,None,,,,,,,146,f,22,2022_Dec_13_1800,RL,2021.2.3,60.174337099954215,
1,99,0,99,0,,,,,,,,,,,,,,,None,None,None,None,None,2044.9761047000065,None,2044.9761047000065,None,2044.9761047000065,None,2044.9761047000065,None,j,0.2204636000096798,2044.9761047000065,None,2044.9761047000065,None,2045.2384970998392,None,2045.2384970998392,None,2045.2384970998392,None,2045.2384970998392,None,2045.2384970998392,None,2045.2384970998392,None,2045.5247627999634,2046.6050505996682,2045.5247627999634,2046.6050505996682,2046.6271640998311,None,2046.6271640998311,None,2046.6271640998311,None,2046.6271640998311,None,2046.6271640998311,None,2046.6271640998311,None,2046.6271640998311,None,2046.6271640998311,None,2046.6271640998311,None,52,30,50,83,83,53,2049.1352192000486,None,4.0,0.6912448997609317,2049.1352192000486,None,2049.1352192000486,None,2049.1352192000486,None,2049.1352192000486,None,None,None,2049.8452687999234,None,,,,,,,146,f,22,2022_Dec_13_1800,RL,2021.2.3,60.174337099954215,
1,100,0,100,0,,,,,,,,,,,,,,,None,None,None,None,None,2051.690915700048,None,2051.690915700048,None,2051.690915700048,None,2051.690915700048,None,j,0.22579960012808442,2051.690915700048,None,2051.690915700048,None,2051.953898599837,None,2051.953898599837,None,2051.953898599837,None,2051.953898599837,None,2051.953898599837,None,2051.953898599837,None,2052.2396440999582,2053.3863102998585,2052.2396440999582,2053.3863102998585,2053.408779299818,None,2053.408779299818,None,2053.408779299818,None,2053.408779299818,None,2053.408779299818,None,2053.408779299818,None,2053.408779299818,None,2053.408779299818,None,2053.408779299818,None,58,38,53,82,82,43,2055.9194855000824,None,5.0,2.7147896997630596,2055.9194855000824,None,2055.9194855000824,None,2055.9194855000824,None,2055.9194855000824,None,None,None,2058.654236599803,None,,,,,,,146,f,22,2022_Dec_13_1800,RL,2021.2.3,60.174337099954215,
1,101,0,101,0,,,,,,,,,,,,,,,None,None,None,None,None,2060.1676411996596,None,2060.1676411996596,None,2060.1676411996596,None,2060.1676411996596,None,j,0.25195749988779426,2060.1676411996596,None,2060.1676411996596,None,2060.462309199851,None,2060.462309199851,None,2060.462309199851,None,2060.462309199851,None,2060.462309199851,None,2060.462309199851,None,2060.7498702998273,2062.0300475000404,2060.7498702998273,2062.0300475000404,2062.052143699955,None,2062.052143699955,None,2062.052143699955,None,2062.052143699955,None,2062.052143699955,None,2062.052143699955,None,2062.052143699955,None,2062.052143699955,None,2062.052143699955,None,55,36,58,86,86,50,2064.563309499994,None,4.0,2.0668673999607563,2064.563309499994,None,2064.563309499994,None,2064.563309499994,None,2064.563309499994,None,None,None,2066.6494108997285,None,,,,,,,146,f,22,2022_Dec_13_1800,RL,2021.2.3,60.174337099954215,
1,102,0,102,0,,,,,,,,,,,,,,,None,None,None,None,None,2068.5279612997547,None,2068.5279612997547,None,2068.5279612997547,None,2068.5279612997547,None,j,0.23897850001230836,2068.5279612997547,None,2068.5279612997547,None,2068.807435600087,None,2068.807435600087,None,2068.807435600087,None,2068.807435600087,None,2068.807435600087,None,2068.807435600087,None,2069.093716399744,2070.5726179997437,2069.093716399744,2070.5726179997437,2070.593373999931,None,2070.593373999931,None,2070.593373999931,None,2070.593373999931,None,2070.593373999931,None,2070.593373999931,None,2070.593373999931,None,2070.593373999931,None,2070.593373999931,None,58,27,59,88,88,34,2073.105047099758,None,6.0,1.5899699996225536,2073.105047099758,None,2073.105047099758,None,2073.105047099758,None,2073.105047099758,None,None,None,2074.7106109997258,None,,,,,,,146,f,22,2022_Dec_13_1800,RL,2021.2.3,60.174337099954215,
1,103,0,103,0,,,,,,,,,,,,,,,None,None,None,None,None,2076.6563252997585,None,2076.6563252997585,None,2076.6563252997585,None,2076.6563252997585,None,j,0.2288025999441743,2076.6563252997585,None,2076.6563252997585,None,2076.9173794998787,None,2076.9173794998787,None,2076.9173794998787,None,2076.9173794998787,None,2076.9173794998787,None,2076.9173794998787,None,2077.2049846998416,None,2077.2049846998416,None,2078.0403505000286,None,2078.0403505000286,None,2078.0403505000286,None,2078.0403505000286,None,2078.0403505000286,None,2078.0403505000286,None,2078.0403505000286,None,2078.0403505000286,None,2078.0403505000286,None,52,24,55,85,85,38,2080.551574099809,None,6.0,1.6371327000670135,2080.551574099809,None,2080.551574099809,None,2080.551574099809,None,2080.551574099809,None,None,None,2082.2068559997715,None,,,,,,,146,f,22,2022_Dec_13_1800,RL,2021.2.3,60.174337099954215,
1,104,0,104,0,,,,,,,,,,,,,,,None,None,None,None,None,2084.0524216997437,None,2084.0524216997437,None,2084.0524216997437,None,2084.0524216997437,None,j,0.33181210001930594,2084.0524216997437,None,2084.0524216997437,None,2084.4147312999703,None,2084.4147312999703,None,2084.4147312999703,None,2084.4147312999703,None,2084.4147312999703,None,2084.4147312999703,None,2084.7012144997716,2085.5318168997765,2084.7012144997716,2085.5318168997765,2085.5529976999387,None,2085.5529976999387,None,2085.5529976999387,None,2085.5529976999387,None,2085.5529976999387,None,2085.5529976999387,None,2085.5529976999387,None,2085.5529976999387,None,2085.5529976999387,None,55,26,55,91,91,54,2088.0681615998037,None,6.0,1.5830020001158118,2088.0681615998037,None,2088.0681615998037,None,2088.0681615998037,None,2088.0681615998037,None,None,None,2089.6699208999053,None,,,,,,,146,f,22,2022_Dec_13_1800,RL,2021.2.3,60.174337099954215,
1,105,0,105,0,,,,,,,,,,,,,,,None,None,None,None,None,2091.6486463998444,None,2091.6486463998444,None,2091.6486463998444,None,2091.6486463998444,None,j,0.22925370000302792,2091.6486463998444,None,2091.6486463998444,None,2091.9092584997416,None,2091.9092584997416,None,2091.9092584997416,None,2091.9092584997416,None,2091.9092584997416,None,2091.9092584997416,None,2092.1976397000253,2093.925684100017,2092.1976397000253,2093.925684100017,2093.9483930999413,None,2093.9483930999413,None,2093.9483930999413,None,2093.9483930999413,None,2093.9483930999413,None,2093.9483930999413,None,2093.9483930999413,None,2093.9483930999413,None,2093.9483930999413,None,52,27,56,91,91,57,2096.459021399729,None,6.0,0.33988110022619367,2096.459021399729,None,2096.459021399729,None,2096.459021399729,None,2096.459021399729,None,None,None,2096.81721680006,None,,,,,,,146,f,22,2022_Dec_13_1800,RL,2021.2.3,60.174337099954215,
1,106,0,106,0,,,,,,,,,,,,,,,None,None,None,None,None,2098.5795297999866,None,2098.5795297999866,None,2098.5795297999866,None,2098.5795297999866,None,j,0.23856440000236034,2098.5795297999866,None,2098.5795297999866,None,2098.855740299914,None,2098.855740299914,None,2098.855740299914,None,2098.855740299914,None,2098.855740299914,None,2098.855740299914,None,2099.1451010997407,2100.225480000023,2099.1451010997407,2100.225480000023,2100.2483466998674,None,2100.2483466998674,None,2100.2483466998674,None,2100.2483466998674,None,2100.2483466998674,None,2100.2483466998674,None,2100.2483466998674,None,2100.2483466998674,None,2100.2483466998674,None,57,22,52,88,88,33,2102.7579536000267,None,5.0,1.0385965998284519,2102.7579536000267,None,2102.7579536000267,None,2102.7579536000267,None,2102.7579536000267,None,None,None,2103.8149481997825,None,,,,,,,146,f,22,2022_Dec_13_1800,RL,2021.2.3,60.174337099954215,
1,107,0,107,0,,,,,,,,,,,,,,,None,None,None,None,None,2105.3946564998478,None,2105.3946564998478,None,2105.3946564998478,None,2105.3946564998478,None,j,0.2583796000108123,2105.3946564998478,None,2105.3946564998478,None,2105.6877374998294,None,2105.6877374998294,None,2105.6877374998294,None,2105.6877374998294,None,2105.6877374998294,None,2105.6877374998294,None,2105.9766798000783,2107.05704850005,2105.9766798000783,2107.05704850005,2107.07954589976,None,2107.07954589976,None,2107.07954589976,None,2107.07954589976,None,2107.07954589976,None,2107.07954589976,None,2107.07954589976,None,2107.07954589976,None,2107.07954589976,None,54,31,62,89,89,53,2109.5902966996655,None,5.0,4.078880900051445,2109.5902966996655,None,2109.5902966996655,None,2109.5902966996655,None,2109.5902966996655,None,None,None,2113.6874402998947,None,,,,,,,146,f,22,2022_Dec_13_1800,RL,2021.2.3,60.174337099954215,
1,108,0,108,0,,,,,,,,,,,,,,,None,None,None,None,None,2115.682854199782,None,2115.682854199782,None,2115.682854199782,None,2115.682854199782,None,j,0.22405000030994415,2115.682854199782,None,2115.682854199782,None,2115.945553800091,None,2115.945553800091,None,2115.945553800091,None,2115.945553800091,None,2115.945553800091,None,2115.945553800091,None,2116.2316234996542,None,2116.2316234996542,None,2117.102565499954,None,2117.102565499954,None,2117.102565499954,None,2117.102565499954,None,2117.102565499954,None,2117.102565499954,None,2117.102565499954,None,2117.102565499954,None,2117.102565499954,None,60,25,56,93,93,49,2119.6122535998,None,6.0,0.8720611999742687,2119.6122535998,None,2119.6122535998,None,2119.6122535998,None,2119.6122535998,None,None,None,2120.5022430000827,None,,,,,,,146,f,22,2022_Dec_13_1800,RL,2021.2.3,60.174337099954215,
1,109,0,109,0,,,,,,,,,,,,,,,None,None,None,None,None,2122.1817600997165,None,2122.1817600997165,None,2122.1817600997165,None,2122.1817600997165,None,j,0.2255567000247538,2122.1817600997165,None,2122.1817600997165,None,2122.445051900111,None,2122.445051900111,None,2122.445051900111,None,2122.445051900111,None,2122.445051900111,None,2122.445051900111,None,2122.730671599973,None,2122.730671599973,None,2123.7822318999097,None,2123.7822318999097,None,2123.7822318999097,None,2123.7822318999097,None,2123.7822318999097,None,2123.7822318999097,None,2123.7822318999097,None,2123.7822318999097,None,2123.7822318999097,None,53,29,64,86,86,59,2126.2916409000754,None,5.0,0.756768099963665,2126.2916409000754,None,2126.2916409000754,None,2126.2916409000754,None,2126.2916409000754,None,None,None,2127.0679783998057,None,,,,,,,146,f,22,2022_Dec_13_1800,RL,2021.2.3,60.174337099954215,
