arm1,arm2,arm3,arm4,trials.thisRepN,trials.thisTrialN,trials.thisN,trials.thisIndex,instru_img1.started,instru_resp.started,instru_resp.keys,instru_resp.rt,image_2.started,text_2.started,fixbefore_2.started,rest_response.keys,red.started,green.started,yellow.started,blue.started,choose_bandit.started,Fixation.started,choose_bandit.keys,choose_bandit.rt,black.started,red_2.started,green_2.started,yellow_2.started,blue_2.started,fixation_2.started,docs.started,docs.stopped,black.stopped,red_2.stopped,green_2.stopped,yellow_2.stopped,blue_2.stopped,fixation_2.stopped,black_com.started,reward_sub.started,reward__sub.started,red_compare.started,green_com.started,yellow_com.started,blue_com.started,black_com.stopped,reward_sub.stopped,reward__sub.stopped,red_compare.stopped,green_com.stopped,yellow_com.stopped,blue_com.stopped,rewardred,rewardyellow,rewardblue,rewardgreen,subchoose,expectation,intertrialfix.started,intertrialfix.stopped,rest_image.started,rest_response.started,rest_response.rt,image_expect_after.started,text_exp_after.started,image_expect_after.stopped,text_exp_after.stopped,image.started,key_resp.started,key_resp.keys,participant,Gender,Age,date,expName,psychopyVersion,frameRate,
,,,,,,,,14.703529599821195,14.703529599821195,space,2.376421900000423,,,,,,,,,,,,,,,,,,,,,,,,,,,,,,,,,,,,,,,,,,,,,,,,,,,,,,,,,,,001,f,23,2023-05-13_12h06.36.688,RL,2022.2.5,60.057462942665616,
45,42,50,53,0,0,0,0,,,,,17.105911399936303,17.105911399936303,22.106111499946564,None,23.113602299941704,23.113602299941704,23.113602299941704,23.113602299941704,23.113602299941704,23.113602299941704,f,0.5526579001452774,23.701258899876848,23.701258899876848,23.701258899876848,23.701258899876848,23.701258899876848,23.701258899876848,23.989945099921897,24.839520399924368,24.860865299822763,24.860865299822763,24.860865299822763,24.860865299822763,24.860865299822763,24.860865299822763,24.860865299822763,24.860865299822763,24.860865299822763,24.860865299822763,24.860865299822763,24.860865299822763,24.860865299822763,26.052798699820414,26.052798699820414,26.052798699820414,26.052798699820414,26.052798699820414,26.052798699820414,26.052798699820414,50,53,45,42,50,60,26.052798699820414,27.93920629983768,,,,,,,,,,,001,f,23,2023-05-13_12h06.36.688,RL,2022.2.5,60.057462942665616,
32,43,50,58,0,1,1,1,,,,,,,,None,27.93920629983768,27.93920629983768,27.93920629983768,27.93920629983768,27.93920629983768,27.93920629983768,j,0.5252078999765217,28.488678899826482,28.488678899826482,28.488678899826482,28.488678899826482,28.488678899826482,28.488678899826482,28.772757899947464,30.554934199899435,30.572092399932444,30.572092399932444,30.572092399932444,30.572092399932444,30.572092399932444,30.572092399932444,30.572092399932444,30.572092399932444,30.572092399932444,30.572092399932444,30.572092399932444,30.572092399932444,30.572092399932444,32.65569599997252,32.65569599997252,32.65569599997252,32.65569599997252,32.65569599997252,32.65569599997252,32.65569599997252,50,58,32,43,43,60,32.65569599997252,34.48845129995607,,,,,,,,,,,001,f,23,2023-05-13_12h06.36.688,RL,2022.2.5,60.057462942665616,
43,50,57,55,0,2,2,2,,,,,,,,None,34.48845129995607,34.48845129995607,34.48845129995607,34.48845129995607,34.48845129995607,34.48845129995607,r,0.4565998998004943,34.977812099969015,34.977812099969015,34.977812099969015,34.977812099969015,34.977812099969015,34.977812099969015,35.27057129982859,37.13604649994522,37.13604649994522,37.13604649994522,37.13604649994522,37.13604649994522,37.13604649994522,37.13604649994522,37.13604649994522,37.13604649994522,37.13604649994522,37.13604649994522,37.13604649994522,37.13604649994522,37.13604649994522,39.303659699857235,39.303659699857235,39.303659699857235,39.303659699857235,39.303659699857235,39.303659699857235,39.303659699857235,57,55,43,50,55,60,39.303659699857235,41.236909199971706,,,,,,,,,,,001,f,23,2023-05-13_12h06.36.688,RL,2022.2.5,60.057462942665616,
42,44,52,56,0,3,3,3,,,,,,,,None,41.236909199971706,41.236909199971706,41.236909199971706,41.236909199971706,41.236909199971706,41.236909199971706,i,0.46351959998719394,41.72407549992204,41.72407549992204,41.72407549992204,41.72407549992204,41.72407549992204,41.72407549992204,42.0036145998165,43.6702449999284,43.68939769989811,43.68939769989811,43.68939769989811,43.68939769989811,43.68939769989811,43.68939769989811,43.68939769989811,43.68939769989811,43.68939769989811,43.68939769989811,43.68939769989811,43.68939769989811,43.68939769989811,45.65304789994843,45.65304789994843,45.65304789994843,45.65304789994843,45.65304789994843,45.65304789994843,45.65304789994843,52,56,42,44,42,60,45.65304789994843,47.18464689981192,,,,,,,,,,,001,f,23,2023-05-13_12h06.36.688,RL,2022.2.5,60.057462942665616,
49,38,49,67,0,4,4,4,,,,,,,,None,47.18464689981192,47.18464689981192,47.18464689981192,47.18464689981192,47.18464689981192,47.18464689981192,f,0.4034336998593062,47.623535899911076,47.623535899911076,47.623535899911076,47.623535899911076,47.623535899911076,47.623535899911076,47.90268059982918,49.369065899867564,49.389124899869785,49.389124899869785,49.389124899869785,49.389124899869785,49.389124899869785,49.389124899869785,49.389124899869785,49.389124899869785,49.389124899869785,49.389124899869785,49.389124899869785,49.389124899869785,49.389124899869785,51.151725800009444,51.151725800009444,51.151725800009444,51.151725800009444,51.151725800009444,51.151725800009444,51.151725800009444,49,67,49,38,49,60,51.151725800009444,53.10134319984354,,,,,,,,,,,001,f,23,2023-05-13_12h06.36.688,RL,2022.2.5,60.057462942665616,
44,40,59,51,0,5,5,5,,,,,,,,None,53.10134319984354,53.10134319984354,53.10134319984354,53.10134319984354,53.10134319984354,53.10134319984354,i,0.4466108998749405,53.58194909989834,53.58194909989834,53.58194909989834,53.58194909989834,53.58194909989834,53.58194909989834,53.86789849982597,54.73486869991757,54.75276850000955,54.75276850000955,54.75276850000955,54.75276850000955,54.75276850000955,54.75276850000955,54.75276850000955,54.75276850000955,54.75276850000955,54.75276850000955,54.75276850000955,54.75276850000955,54.75276850000955,55.91731789987534,55.91731789987534,55.91731789987534,55.91731789987534,55.91731789987534,55.91731789987534,55.91731789987534,59,51,44,40,44,60,55.91731789987534,57.50082580000162,,,,,,,,,,,001,f,23,2023-05-13_12h06.36.688,RL,2022.2.5,60.057462942665616,
53,40,54,56,0,6,6,6,,,,,,,,None,57.50082580000162,57.50082580000162,57.50082580000162,57.50082580000162,57.50082580000162,57.50082580000162,r,0.4007836999371648,57.948535499861464,57.948535499861464,57.948535499861464,57.948535499861464,57.948535499861464,57.948535499861464,58.217279399978,59.334876499837264,59.369939299998805,59.369939299998805,59.369939299998805,59.369939299998805,59.369939299998805,59.369939299998805,59.369939299998805,59.369939299998805,59.369939299998805,59.369939299998805,59.369939299998805,59.369939299998805,59.369939299998805,60.78379469993524,60.78379469993524,60.78379469993524,60.78379469993524,60.78379469993524,60.78379469993524,60.78379469993524,54,56,53,40,56,60,60.78379469993524,62.56654479983263,,,,,,,,,,,001,f,23,2023-05-13_12h06.36.688,RL,2022.2.5,60.057462942665616,
58,40,47,59,0,7,7,7,,,,,,,,None,62.56654479983263,62.56654479983263,62.56654479983263,62.56654479983263,62.56654479983263,62.56654479983263,r,0.4465874000452459,63.04070549993776,63.04070549993776,63.04070549993776,63.04070549993776,63.04070549993776,63.04070549993776,63.33372319978662,64.19951809989288,64.21522509981878,64.21522509981878,64.21522509981878,64.21522509981878,64.21522509981878,64.21522509981878,64.21522509981878,64.21522509981878,64.21522509981878,64.21522509981878,64.21522509981878,64.21522509981878,64.21522509981878,65.38324519991875,65.38324519991875,65.38324519991875,65.38324519991875,65.38324519991875,65.38324519991875,65.38324519991875,47,59,58,40,59,60,65.38324519991875,67.13202239992097,,,,,,,,,,,001,f,23,2023-05-13_12h06.36.688,RL,2022.2.5,60.057462942665616,
58,37,56,51,0,8,8,8,,,,,,,,None,67.13202239992097,67.13202239992097,67.13202239992097,67.13202239992097,67.13202239992097,67.13202239992097,r,0.39341529994271696,67.55292339995503,67.55292339995503,67.55292339995503,67.55292339995503,67.55292339995503,67.55292339995503,67.83146839984693,69.76448309980333,69.80228209984489,69.80228209984489,69.80228209984489,69.80228209984489,69.80228209984489,69.80228209984489,69.80228209984489,69.80228209984489,69.80228209984489,69.80228209984489,69.80228209984489,69.80228209984489,69.80228209984489,72.04859239980578,72.04859239980578,72.04859239980578,72.04859239980578,72.04859239980578,72.04859239980578,72.04859239980578,56,51,58,37,51,60,72.04859239980578,73.86416050000116,,,,,,,,,,,001,f,23,2023-05-13_12h06.36.688,RL,2022.2.5,60.057462942665616,
52,42,56,61,0,9,9,9,,,,,,,,None,73.86416050000116,73.86416050000116,73.86416050000116,73.86416050000116,73.86416050000116,73.86416050000116,r,0.3830067999660969,74.26829389994964,74.26829389994964,74.26829389994964,74.26829389994964,74.26829389994964,74.26829389994964,74.54831729992293,76.24598239990883,76.26249929983169,76.26249929983169,76.26249929983169,76.26249929983169,76.26249929983169,76.26249929983169,76.26249929983169,76.26249929983169,76.26249929983169,76.26249929983169,76.26249929983169,76.26249929983169,76.26249929983169,78.26346499985084,78.26346499985084,78.26346499985084,78.26346499985084,78.26346499985084,78.26346499985084,78.26346499985084,56,61,52,42,61,60,78.26346499985084,80.12978839990683,,,,,,,,,,,001,f,23,2023-05-13_12h06.36.688,RL,2022.2.5,60.057462942665616,
56,42,59,50,0,10,10,10,,,,,,,,None,80.12978839990683,80.12978839990683,80.12978839990683,80.12978839990683,80.12978839990683,80.12978839990683,r,0.40107570006512105,80.56862249993719,80.56862249993719,80.56862249993719,80.56862249993719,80.56862249993719,80.56862249993719,80.86295979982242,82.52861009980552,82.52861009980552,82.52861009980552,82.52861009980552,82.52861009980552,82.52861009980552,82.52861009980552,82.52861009980552,82.52861009980552,82.52861009980552,82.52861009980552,82.52861009980552,82.52861009980552,82.52861009980552,84.47966689988971,84.47966689988971,84.47966689988971,84.47966689988971,84.47966689988971,84.47966689988971,84.47966689988971,59,50,56,42,50,60,84.47966689988971,86.24588979990222,,,,,,,,,,,001,f,23,2023-05-13_12h06.36.688,RL,2022.2.5,60.057462942665616,
52,42,58,54,0,11,11,11,,,,,,,,None,86.24588979990222,86.24588979990222,86.24588979990222,86.24588979990222,86.24588979990222,86.24588979990222,j,0.4807357001118362,86.74890229990706,86.74890229990706,86.74890229990706,86.74890229990706,86.74890229990706,86.74890229990706,87.04539649980143,88.77878259983845,88.77878259983845,88.77878259983845,88.77878259983845,88.77878259983845,88.77878259983845,88.77878259983845,88.77878259983845,88.77878259983845,88.77878259983845,88.77878259983845,88.77878259983845,88.77878259983845,88.77878259983845,90.81174769997597,90.81174769997597,90.81174769997597,90.81174769997597,90.81174769997597,90.81174769997597,90.81174769997597,58,54,52,42,42,60,90.81174769997597,92.47788589983247,,,,,,,,,,,001,f,23,2023-05-13_12h06.36.688,RL,2022.2.5,60.057462942665616,
59,40,70,50,0,12,12,12,,,,,,,,None,92.47788589983247,92.47788589983247,92.47788589983247,92.47788589983247,92.47788589983247,92.47788589983247,f,0.4220247999764979,92.94121570000425,92.94121570000425,92.94121570000425,92.94121570000425,92.94121570000425,92.94121570000425,93.22706359997392,94.37770309997723,94.39615709986538,94.39615709986538,94.39615709986538,94.39615709986538,94.39615709986538,94.39615709986538,94.39615709986538,94.39615709986538,94.39615709986538,94.39615709986538,94.39615709986538,94.39615709986538,94.39615709986538,95.84370039985515,95.84370039985515,95.84370039985515,95.84370039985515,95.84370039985515,95.84370039985515,95.84370039985515,70,50,59,40,70,60,95.84370039985515,97.80997359985486,,,,,,,,,,,001,f,23,2023-05-13_12h06.36.688,RL,2022.2.5,60.057462942665616,
54,44,75,44,0,13,13,13,,,,,,,,None,97.80997359985486,97.80997359985486,97.80997359985486,97.80997359985486,97.80997359985486,97.80997359985486,f,0.7065016000997275,98.54584619984962,98.54584619984962,98.54584619984962,98.54584619984962,98.54584619984962,98.54584619984962,98.82691790000536,100.32627979991958,100.34275419986807,100.34275419986807,100.34275419986807,100.34275419986807,100.34275419986807,100.34275419986807,100.34275419986807,100.34275419986807,100.34275419986807,100.34275419986807,100.34275419986807,100.34275419986807,100.34275419986807,102.14243719982915,102.14243719982915,102.14243719982915,102.14243719982915,102.14243719982915,102.14243719982915,102.14243719982915,75,44,54,44,75,60,102.14243719982915,103.75804449990392,,,,,,,,,,,001,f,23,2023-05-13_12h06.36.688,RL,2022.2.5,60.057462942665616,
53,46,78,44,0,14,14,14,,,,,,,,None,103.75804449990392,103.75804449990392,103.75804449990392,103.75804449990392,103.75804449990392,103.75804449990392,f,0.8106370000168681,104.59285179991275,104.59285179991275,104.59285179991275,104.59285179991275,104.59285179991275,104.59285179991275,104.87503789993934,106.72507349983789,106.74113229988143,106.74113229988143,106.74113229988143,106.74113229988143,106.74113229988143,106.74113229988143,106.74113229988143,106.74113229988143,106.74113229988143,106.74113229988143,106.74113229988143,106.74113229988143,106.74113229988143,108.8912414999213,108.8912414999213,108.8912414999213,108.8912414999213,108.8912414999213,108.8912414999213,108.8912414999213,78,44,53,46,78,60,108.8912414999213,110.52447750000283,,,,,,,,,,,001,f,23,2023-05-13_12h06.36.688,RL,2022.2.5,60.057462942665616,
50,41,78,45,0,15,15,15,,,,,,,,None,110.52447750000283,110.52447750000283,110.52447750000283,110.52447750000283,110.52447750000283,110.52447750000283,f,0.3951186998747289,110.95584429986775,110.95584429986775,110.95584429986775,110.95584429986775,110.95584429986775,110.95584429986775,111.24162169988267,112.57490999996662,112.5943035997916,112.5943035997916,112.5943035997916,112.5943035997916,112.5943035997916,112.5943035997916,112.5943035997916,112.5943035997916,112.5943035997916,112.5943035997916,112.5943035997916,112.5943035997916,112.5943035997916,114.22464349982329,114.22464349982329,114.22464349982329,114.22464349982329,114.22464349982329,114.22464349982329,114.22464349982329,78,45,50,41,78,60,114.22464349982329,115.9575224998407,,,,,,,,,,,001,f,23,2023-05-13_12h06.36.688,RL,2022.2.5,60.057462942665616,
49,47,77,45,0,16,16,16,,,,,,,,None,115.9575224998407,115.9575224998407,115.9575224998407,115.9575224998407,115.9575224998407,115.9575224998407,f,0.4382066000252962,116.4380516000092,116.4380516000092,116.4380516000092,116.4380516000092,116.4380516000092,116.4380516000092,116.72462389990687,117.92295449995436,117.94026499986649,117.94026499986649,117.94026499986649,117.94026499986649,117.94026499986649,117.94026499986649,117.94026499986649,117.94026499986649,117.94026499986649,117.94026499986649,117.94026499986649,117.94026499986649,117.94026499986649,119.4400835998822,119.4400835998822,119.4400835998822,119.4400835998822,119.4400835998822,119.4400835998822,119.4400835998822,77,45,49,47,77,60,119.4400835998822,121.12314009992406,,,,,,,,,,,001,f,23,2023-05-13_12h06.36.688,RL,2022.2.5,60.057462942665616,
45,52,68,47,0,17,17,17,,,,,,,,None,121.12314009992406,121.12314009992406,121.12314009992406,121.12314009992406,121.12314009992406,121.12314009992406,f,0.45950370002537966,121.61117699998431,121.61117699998431,121.61117699998431,121.61117699998431,121.61117699998431,121.61117699998431,121.90641529997811,122.7881905999966,122.7881905999966,122.7881905999966,122.7881905999966,122.7881905999966,122.7881905999966,122.7881905999966,122.7881905999966,122.7881905999966,122.7881905999966,122.7881905999966,122.7881905999966,122.7881905999966,122.7881905999966,123.95642809988931,123.95642809988931,123.95642809988931,123.95642809988931,123.95642809988931,123.95642809988931,123.95642809988931,68,47,45,52,68,60,123.95642809988931,125.6221192998346,,,,,,,,,,,001,f,23,2023-05-13_12h06.36.688,RL,2022.2.5,60.057462942665616,
43,43,67,56,0,18,18,18,,,,,,,,None,125.6221192998346,125.6221192998346,125.6221192998346,125.6221192998346,125.6221192998346,125.6221192998346,f,0.39498330000787973,126.04494900000282,126.04494900000282,126.04494900000282,126.04494900000282,126.04494900000282,126.04494900000282,126.33740069996566,127.99177649989724,127.99177649989724,127.99177649989724,127.99177649989724,127.99177649989724,127.99177649989724,127.99177649989724,127.99177649989724,127.99177649989724,127.99177649989724,127.99177649989724,127.99177649989724,127.99177649989724,127.99177649989724,129.93839729996398,129.93839729996398,129.93839729996398,129.93839729996398,129.93839729996398,129.93839729996398,129.93839729996398,67,56,43,43,67,60,129.93839729996398,131.704278399935,,,,,,,,,,,001,f,23,2023-05-13_12h06.36.688,RL,2022.2.5,60.057462942665616,
40,48,68,50,0,19,19,19,,,,,,,,None,131.704278399935,131.704278399935,131.704278399935,131.704278399935,131.704278399935,131.704278399935,f,0.4338903999887407,132.1583784997929,132.1583784997929,132.1583784997929,132.1583784997929,132.1583784997929,132.1583784997929,132.45462289988063,133.5722709998954,133.5722709998954,133.5722709998954,133.5722709998954,133.5722709998954,133.5722709998954,133.5722709998954,133.5722709998954,133.5722709998954,133.5722709998954,133.5722709998954,133.5722709998954,133.5722709998954,133.5722709998954,134.9870126999449,134.9870126999449,134.9870126999449,134.9870126999449,134.9870126999449,134.9870126999449,134.9870126999449,68,50,40,48,68,60,134.9870126999449,136.52045469987206,,,,,,,,,,,001,f,23,2023-05-13_12h06.36.688,RL,2022.2.5,60.057462942665616,
45,42,46,47,0,20,20,20,,,,,,,,None,136.52045469987206,136.52045469987206,136.52045469987206,136.52045469987206,136.52045469987206,136.52045469987206,f,0.3553273999132216,136.91795479995199,136.91795479995199,136.91795479995199,136.91795479995199,136.91795479995199,136.91795479995199,137.2032829998061,138.26943089999259,138.28709369990975,138.28709369990975,138.28709369990975,138.28709369990975,138.28709369990975,138.28709369990975,138.28709369990975,138.28709369990975,138.28709369990975,138.28709369990975,138.28709369990975,138.28709369990975,138.28709369990975,139.65281649981625,139.65281649981625,139.65281649981625,139.65281649981625,139.65281649981625,139.65281649981625,139.65281649981625,46,47,45,42,46,60,139.65281649981625,141.2691873998847,,,,,,,,,,,001,f,23,2023-05-13_12h06.36.688,RL,2022.2.5,60.057462942665616,
34,44,54,42,0,21,21,21,,,,,,,,None,141.2691873998847,141.2691873998847,141.2691873998847,141.2691873998847,141.2691873998847,141.2691873998847,i,0.41981270001269877,141.72317889984697,141.72317889984697,141.72317889984697,141.72317889984697,141.72317889984697,141.72317889984697,142.0035623998847,143.76948259980418,143.80413539987057,143.80413539987057,143.80413539987057,143.80413539987057,143.80413539987057,143.80413539987057,143.80413539987057,143.80413539987057,143.80413539987057,143.80413539987057,143.80413539987057,143.80413539987057,143.80413539987057,145.86944679985754,145.86944679985754,145.86944679985754,145.86944679985754,145.86944679985754,145.86944679985754,145.86944679985754,54,42,34,44,34,60,145.86944679985754,147.85127340001054,,,,,,,,,,,001,f,23,2023-05-13_12h06.36.688,RL,2022.2.5,60.057462942665616,
46,45,56,44,0,22,22,22,,,,,,,,None,147.85127340001054,147.85127340001054,147.85127340001054,147.85127340001054,147.85127340001054,147.85127340001054,j,0.4111873002257198,148.2990986998193,148.2990986998193,148.2990986998193,148.2990986998193,148.2990986998193,148.2990986998193,148.56825129990466,150.31690239999443,150.33387759979814,150.33387759979814,150.33387759979814,150.33387759979814,150.33387759979814,150.33387759979814,150.33387759979814,150.33387759979814,150.33387759979814,150.33387759979814,150.33387759979814,150.33387759979814,150.33387759979814,152.38469369988889,152.38469369988889,152.38469369988889,152.38469369988889,152.38469369988889,152.38469369988889,152.38469369988889,56,44,46,45,45,60,152.38469369988889,154.3010473998729,,,,,,,,,,,001,f,23,2023-05-13_12h06.36.688,RL,2022.2.5,60.057462942665616,
39,43,55,48,0,23,23,23,,,,,,,,None,154.3010473998729,154.3010473998729,154.3010473998729,154.3010473998729,154.3010473998729,154.3010473998729,r,0.4310848999302834,154.7549138998147,154.7549138998147,154.7549138998147,154.7549138998147,154.7549138998147,154.7549138998147,155.03405069978908,156.86543879983947,156.90316300000995,156.90316300000995,156.90316300000995,156.90316300000995,156.90316300000995,156.90316300000995,156.90316300000995,156.90316300000995,156.90316300000995,156.90316300000995,156.90316300000995,156.90316300000995,156.90316300000995,159.0325267999433,159.0325267999433,159.0325267999433,159.0325267999433,159.0325267999433,159.0325267999433,159.0325267999433,55,48,39,43,48,60,159.0325267999433,160.66570309991948,,,,,,,,,,,001,f,23,2023-05-13_12h06.36.688,RL,2022.2.5,60.057462942665616,
46,53,52,41,0,24,24,24,,,,,,,,None,160.66570309991948,160.66570309991948,160.66570309991948,160.66570309991948,160.66570309991948,160.66570309991948,f,0.5180921999271959,161.22972029983066,161.22972029983066,161.22972029983066,161.22972029983066,161.22972029983066,161.22972029983066,161.4998198999092,163.31642659986392,163.3509044998791,163.3509044998791,163.3509044998791,163.3509044998791,163.3509044998791,163.3509044998791,163.3509044998791,163.3509044998791,163.3509044998791,163.3509044998791,163.3509044998791,163.3509044998791,163.3509044998791,165.46555399987847,165.46555399987847,165.46555399987847,165.46555399987847,165.46555399987847,165.46555399987847,165.46555399987847,52,41,46,53,52,60,165.46555399987847,167.36481869989075,,,,,,,,,,,001,f,23,2023-05-13_12h06.36.688,RL,2022.2.5,60.057462942665616,
38,55,57,56,0,25,25,25,,,,,,,,None,167.36481869989075,167.36481869989075,167.36481869989075,167.36481869989075,167.36481869989075,167.36481869989075,i,0.6199642000719905,168.01936659985222,168.01936659985222,168.01936659985222,168.01936659985222,168.01936659985222,168.01936659985222,168.31528579979204,169.69955159979872,169.69955159979872,169.69955159979872,169.69955159979872,169.69955159979872,169.69955159979872,169.69955159979872,169.69955159979872,169.69955159979872,169.69955159979872,169.69955159979872,169.69955159979872,169.69955159979872,169.69955159979872,171.3801444999408,171.3801444999408,171.3801444999408,171.3801444999408,171.3801444999408,171.3801444999408,171.3801444999408,57,56,38,55,38,60,171.3801444999408,173.08062859997153,,,,,,,,,,,001,f,23,2023-05-13_12h06.36.688,RL,2022.2.5,60.057462942665616,
35,58,55,55,0,26,26,26,,,,,,,,None,173.08062859997153,173.08062859997153,173.08062859997153,173.08062859997153,173.08062859997153,173.08062859997153,j,0.8357771001756191,173.96090089995414,173.96090089995414,173.96090089995414,173.96090089995414,173.96090089995414,173.96090089995414,174.23048539995216,176.147137099877,176.16414719983004,176.16414719983004,176.16414719983004,176.16414719983004,176.16414719983004,176.16414719983004,176.16414719983004,176.16414719983004,176.16414719983004,176.16414719983004,176.16414719983004,176.16414719983004,176.16414719983004,178.38013949990273,178.38013949990273,178.38013949990273,178.38013949990273,178.38013949990273,178.38013949990273,178.38013949990273,55,55,35,58,58,60,178.38013949990273,179.96197009994648,,,,,,,,,,,001,f,23,2023-05-13_12h06.36.688,RL,2022.2.5,60.057462942665616,
29,64,59,53,0,27,27,27,,,,,,,,None,179.96197009994648,179.96197009994648,179.96197009994648,179.96197009994648,179.96197009994648,179.96197009994648,r,0.6301251000259072,180.618675599806,180.618675599806,180.618675599806,180.618675599806,180.618675599806,180.618675599806,180.91302769980393,182.31336209992878,182.31336209992878,182.31336209992878,182.31336209992878,182.31336209992878,182.31336209992878,182.31336209992878,182.31336209992878,182.31336209992878,182.31336209992878,182.31336209992878,182.31336209992878,182.31336209992878,182.31336209992878,184.0125209998805,184.0125209998805,184.0125209998805,184.0125209998805,184.0125209998805,184.0125209998805,184.0125209998805,59,53,29,64,53,60,184.0125209998805,185.8953346000053,,,,,,,,,,,001,f,23,2023-05-13_12h06.36.688,RL,2022.2.5,60.057462942665616,
38,51,60,68,0,28,28,28,,,,,,,,None,185.8953346000053,185.8953346000053,185.8953346000053,185.8953346000053,185.8953346000053,185.8953346000053,r,0.4539618999697268,186.38232879992574,186.38232879992574,186.38232879992574,186.38232879992574,186.38232879992574,186.38232879992574,186.6785190999508,187.5630569998175,187.5630569998175,187.5630569998175,187.5630569998175,187.5630569998175,187.5630569998175,187.5630569998175,187.5630569998175,187.5630569998175,187.5630569998175,187.5630569998175,187.5630569998175,187.5630569998175,187.5630569998175,188.7439242999535,188.7439242999535,188.7439242999535,188.7439242999535,188.7439242999535,188.7439242999535,188.7439242999535,60,68,38,51,68,60,188.7439242999535,190.31058029993437,,,,,,,,,,,001,f,23,2023-05-13_12h06.36.688,RL,2022.2.5,60.057462942665616,
29,47,58,59,0,29,29,29,,,,,,,,None,190.31058029993437,190.31058029993437,190.31058029993437,190.31058029993437,190.31058029993437,190.31058029993437,f,0.3272088998928666,190.6664054999128,190.6664054999128,190.6664054999128,190.6664054999128,190.6664054999128,190.6664054999128,190.9607974998653,192.2788258998189,192.2788258998189,192.2788258998189,192.2788258998189,192.2788258998189,192.2788258998189,192.2788258998189,192.2788258998189,192.2788258998189,192.2788258998189,192.2788258998189,192.2788258998189,192.2788258998189,192.2788258998189,193.89395289984532,193.89395289984532,193.89395289984532,193.89395289984532,193.89395289984532,193.89395289984532,193.89395289984532,58,59,29,47,58,60,193.89395289984532,195.86016379995272,,,,,,,,,,,001,f,23,2023-05-13_12h06.36.688,RL,2022.2.5,60.057462942665616,
28,58,69,55,0,30,30,30,,,,,,,,None,195.86016379995272,195.86016379995272,195.86016379995272,195.86016379995272,195.86016379995272,195.86016379995272,r,0.40120760002173483,196.30764149990864,196.30764149990864,196.30764149990864,196.30764149990864,196.30764149990864,196.30764149990864,196.5752331998665,198.44365279981866,198.46214899979532,198.46214899979532,198.46214899979532,198.46214899979532,198.46214899979532,198.46214899979532,198.46214899979532,198.46214899979532,198.46214899979532,198.46214899979532,198.46214899979532,198.46214899979532,198.46214899979532,200.6263980998192,200.6263980998192,200.6263980998192,200.6263980998192,200.6263980998192,200.6263980998192,200.6263980998192,69,55,28,58,55,60,200.6263980998192,202.27595549984835,,,,,,,,,,,001,f,23,2023-05-13_12h06.36.688,RL,2022.2.5,60.057462942665616,
40,56,58,53,0,31,31,31,,,,,,,,None,202.27595549984835,202.27595549984835,202.27595549984835,202.27595549984835,202.27595549984835,202.27595549984835,i,0.38514419994316995,202.69868769985624,202.69868769985624,202.69868769985624,202.69868769985624,202.69868769985624,202.69868769985624,202.99167429981753,204.99213139992207,205.01003349991515,205.01003349991515,205.01003349991515,205.01003349991515,205.01003349991515,205.01003349991515,205.01003349991515,205.01003349991515,205.01003349991515,205.01003349991515,205.01003349991515,205.01003349991515,205.01003349991515,207.30686509981751,207.30686509981751,207.30686509981751,207.30686509981751,207.30686509981751,207.30686509981751,207.30686509981751,58,53,40,56,40,60,207.30686509981751,209.25825629988685,,,,,,,,,,,001,f,23,2023-05-13_12h06.36.688,RL,2022.2.5,60.057462942665616,
38,55,68,55,0,32,32,32,,,,,,,,None,209.25825629988685,209.25825629988685,209.25825629988685,209.25825629988685,209.25825629988685,209.25825629988685,i,0.3263506998773664,209.62124879984185,209.62124879984185,209.62124879984185,209.62124879984185,209.62124879984185,209.62124879984185,209.90816419990733,211.69157889997587,211.69157889997587,211.69157889997587,211.69157889997587,211.69157889997587,211.69157889997587,211.69157889997587,211.69157889997587,211.69157889997587,211.69157889997587,211.69157889997587,211.69157889997587,211.69157889997587,211.69157889997587,213.7738730998244,213.7738730998244,213.7738730998244,213.7738730998244,213.7738730998244,213.7738730998244,213.7738730998244,68,55,38,55,38,60,213.7738730998244,215.4718494999688,,,,,,,,,,,001,f,23,2023-05-13_12h06.36.688,RL,2022.2.5,60.057462942665616,
29,57,61,60,0,33,33,33,,,,,,,,None,215.4718494999688,215.4718494999688,215.4718494999688,215.4718494999688,215.4718494999688,215.4718494999688,f,0.34514259989373386,215.84599949978292,215.84599949978292,215.84599949978292,215.84599949978292,215.84599949978292,215.84599949978292,216.13940309989266,217.50622679991648,217.52418449986726,217.52418449986726,217.52418449986726,217.52418449986726,217.52418449986726,217.52418449986726,217.52418449986726,217.52418449986726,217.52418449986726,217.52418449986726,217.52418449986726,217.52418449986726,217.52418449986726,219.1894988999702,219.1894988999702,219.1894988999702,219.1894988999702,219.1894988999702,219.1894988999702,219.1894988999702,61,60,29,57,61,60,219.1894988999702,220.75589829985984,,,,,,,,,,,001,f,23,2023-05-13_12h06.36.688,RL,2022.2.5,60.057462942665616,
40,57,72,68,0,34,34,34,,,,,,,,None,220.75589829985984,220.75589829985984,220.75589829985984,220.75589829985984,220.75589829985984,220.75589829985984,f,0.38694319990463555,221.17953650001436,221.17953650001436,221.17953650001436,221.17953650001436,221.17953650001436,221.17953650001436,221.4718587999232,223.45456829993054,223.4707307999488,223.4707307999488,223.4707307999488,223.4707307999488,223.4707307999488,223.4707307999488,223.4707307999488,223.4707307999488,223.4707307999488,223.4707307999488,223.4707307999488,223.4707307999488,223.4707307999488,225.75503279990517,225.75503279990517,225.75503279990517,225.75503279990517,225.75503279990517,225.75503279990517,225.75503279990517,72,68,40,57,72,60,225.75503279990517,227.60477029997855,,,,,,,,,,,001,f,23,2023-05-13_12h06.36.688,RL,2022.2.5,60.057462942665616,
36,53,67,66,0,35,35,35,,,,,,,,None,227.60477029997855,227.60477029997855,227.60477029997855,227.60477029997855,227.60477029997855,227.60477029997855,f,0.3213032998610288,227.96841849992052,227.96841849992052,227.96841849992052,227.96841849992052,227.96841849992052,227.96841849992052,228.25438989978284,229.2741310999263,229.2741310999263,229.2741310999263,229.2741310999263,229.2741310999263,229.2741310999263,229.2741310999263,229.2741310999263,229.2741310999263,229.2741310999263,229.2741310999263,229.2741310999263,229.2741310999263,229.2741310999263,230.58697509998456,230.58697509998456,230.58697509998456,230.58697509998456,230.58697509998456,230.58697509998456,230.58697509998456,67,66,36,53,67,60,230.58697509998456,232.353246799903,,,,,,,,,,,001,f,23,2023-05-13_12h06.36.688,RL,2022.2.5,60.057462942665616,
35,43,58,71,0,36,36,36,,,,,,,,None,232.353246799903,232.353246799903,232.353246799903,232.353246799903,232.353246799903,232.353246799903,r,0.4569817997980863,232.84182139998302,232.84182139998302,232.84182139998302,232.84182139998302,232.84182139998302,232.84182139998302,233.1202359998133,234.2375034999568,234.2738578999415,234.2738578999415,234.2738578999415,234.2738578999415,234.2738578999415,234.2738578999415,234.2738578999415,234.2738578999415,234.2738578999415,234.2738578999415,234.2738578999415,234.2738578999415,234.2738578999415,235.70235389983281,235.70235389983281,235.70235389983281,235.70235389983281,235.70235389983281,235.70235389983281,235.70235389983281,58,71,35,43,71,60,235.70235389983281,237.4192940997891,,,,,,,,,,,001,f,23,2023-05-13_12h06.36.688,RL,2022.2.5,60.057462942665616,
40,51,64,63,0,37,37,37,,,,,,,,None,237.4192940997891,237.4192940997891,237.4192940997891,237.4192940997891,237.4192940997891,237.4192940997891,f,0.36601019999943674,237.81010839994997,237.81010839994997,237.81010839994997,237.81010839994997,237.81010839994997,237.81010839994997,238.1030899998732,239.56926389993168,239.58583879983053,239.58583879983053,239.58583879983053,239.58583879983053,239.58583879983053,239.58583879983053,239.58583879983053,239.58583879983053,239.58583879983053,239.58583879983053,239.58583879983053,239.58583879983053,239.58583879983053,241.3522865998093,241.3522865998093,241.3522865998093,241.3522865998093,241.3522865998093,241.3522865998093,241.3522865998093,64,63,40,51,64,60,241.3522865998093,243.26822019997053,,,,,,,,,,,001,f,23,2023-05-13_12h06.36.688,RL,2022.2.5,60.057462942665616,
41,45,59,72,0,38,38,38,,,,,,,,None,243.26822019997053,243.26822019997053,243.26822019997053,243.26822019997053,243.26822019997053,243.26822019997053,r,0.37415000004693866,243.67121459986083,243.67121459986083,243.67121459986083,243.67121459986083,243.67121459986083,243.67121459986083,243.95082399994135,245.55202629999258,245.58547689998522,245.58547689998522,245.58547689998522,245.58547689998522,245.58547689998522,245.58547689998522,245.58547689998522,245.58547689998522,245.58547689998522,245.58547689998522,245.58547689998522,245.58547689998522,245.58547689998522,247.49985359981656,247.49985359981656,247.49985359981656,247.49985359981656,247.49985359981656,247.49985359981656,247.49985359981656,59,72,41,45,72,60,247.49985359981656,249.15048670000397,,,,,,,,,,,001,f,23,2023-05-13_12h06.36.688,RL,2022.2.5,60.057462942665616,
39,49,53,64,0,39,39,39,,,,,,,,None,249.15048670000397,249.15048670000397,249.15048670000397,249.15048670000397,249.15048670000397,249.15048670000397,r,0.46264069993048906,249.64180479990318,249.64180479990318,249.64180479990318,249.64180479990318,249.64180479990318,249.64180479990318,249.93425619998015,251.81706499983557,251.83461629995145,251.83461629995145,251.83461629995145,251.83461629995145,251.83461629995145,251.83461629995145,251.83461629995145,251.83461629995145,251.83461629995145,251.83461629995145,251.83461629995145,251.83461629995145,251.83461629995145,254.01607869984582,254.01607869984582,254.01607869984582,254.01607869984582,254.01607869984582,254.01607869984582,254.01607869984582,53,64,39,49,64,60,254.01607869984582,255.56610779999755,,,,,,,,,,,001,f,23,2023-05-13_12h06.36.688,RL,2022.2.5,60.057462942665616,
47,52,57,64,0,40,40,40,,,,,,,,None,255.56610779999755,255.56610779999755,255.56610779999755,255.56610779999755,255.56610779999755,255.56610779999755,f,0.3024514999706298,255.9034773998428,255.9034773998428,255.9034773998428,255.9034773998428,255.9034773998428,255.9034773998428,256.1993283999618,257.3013616998214,257.3013616998214,257.3013616998214,257.3013616998214,257.3013616998214,257.3013616998214,257.3013616998214,257.3013616998214,257.3013616998214,257.3013616998214,257.3013616998214,257.3013616998214,257.3013616998214,257.3013616998214,258.6984778000042,258.6984778000042,258.6984778000042,258.6984778000042,258.6984778000042,258.6984778000042,258.6984778000042,57,64,47,52,57,60,258.6984778000042,260.23140239994973,,,,,,,,,,,001,f,23,2023-05-13_12h06.36.688,RL,2022.2.5,60.057462942665616,
49,51,50,64,0,41,41,41,,,,,,,,None,260.23140239994973,260.23140239994973,260.23140239994973,260.23140239994973,260.23140239994973,260.23140239994973,i,0.5930214999243617,260.8492938999552,260.8492938999552,260.8492938999552,260.8492938999552,260.8492938999552,260.8492938999552,261.13207699987106,262.08222929993644,262.10049819992855,262.10049819992855,262.10049819992855,262.10049819992855,262.10049819992855,262.10049819992855,262.10049819992855,262.10049819992855,262.10049819992855,262.10049819992855,262.10049819992855,262.10049819992855,262.10049819992855,263.3487488999963,263.3487488999963,263.3487488999963,263.3487488999963,263.3487488999963,263.3487488999963,263.3487488999963,50,64,49,51,49,60,263.3487488999963,265.3316896997858,,,,,,,,,,,001,f,23,2023-05-13_12h06.36.688,RL,2022.2.5,60.057462942665616,
44,53,57,68,0,42,42,42,,,,,,,,None,265.3316896997858,265.3316896997858,265.3316896997858,265.3316896997858,265.3316896997858,265.3316896997858,f,0.33364079985767603,265.7020454998128,265.7020454998128,265.7020454998128,265.7020454998128,265.7020454998128,265.7020454998128,265.98130759992637,267.1639817999676,267.2006424998399,267.2006424998399,267.2006424998399,267.2006424998399,267.2006424998399,267.2006424998399,267.2006424998399,267.2006424998399,267.2006424998399,267.2006424998399,267.2006424998399,267.2006424998399,267.2006424998399,268.69740489986725,268.69740489986725,268.69740489986725,268.69740489986725,268.69740489986725,268.69740489986725,268.69740489986725,57,68,44,53,57,60,268.69740489986725,270.24713179981336,,,,,,,,,,,001,f,23,2023-05-13_12h06.36.688,RL,2022.2.5,60.057462942665616,
43,51,50,61,0,43,43,43,,,,,,,,None,270.24713179981336,270.24713179981336,270.24713179981336,270.24713179981336,270.24713179981336,270.24713179981336,r,0.4331129000056535,270.71148479986005,270.71148479986005,270.71148479986005,270.71148479986005,270.71148479986005,270.71148479986005,270.99709719978273,272.0630069999024,272.0816532999743,272.0816532999743,272.0816532999743,272.0816532999743,272.0816532999743,272.0816532999743,272.0816532999743,272.0816532999743,272.0816532999743,272.0816532999743,272.0816532999743,272.0816532999743,272.0816532999743,273.44704659981653,273.44704659981653,273.44704659981653,273.44704659981653,273.44704659981653,273.44704659981653,273.44704659981653,50,61,43,51,61,60,273.44704659981653,275.0457983999513,,,,,,,,,,,001,f,23,2023-05-13_12h06.36.688,RL,2022.2.5,60.057462942665616,
59,50,52,65,0,44,44,44,,,,,,,,None,275.0457983999513,275.0457983999513,275.0457983999513,275.0457983999513,275.0457983999513,275.0457983999513,r,0.3522326999809593,275.44380779983476,275.44380779983476,275.44380779983476,275.44380779983476,275.44380779983476,275.44380779983476,275.73010329995304,276.77971629984677,276.7988667997997,276.7988667997997,276.7988667997997,276.7988667997997,276.7988667997997,276.7988667997997,276.7988667997997,276.7988667997997,276.7988667997997,276.7988667997997,276.7988667997997,276.7988667997997,276.7988667997997,278.14598039980046,278.14598039980046,278.14598039980046,278.14598039980046,278.14598039980046,278.14598039980046,278.14598039980046,52,65,59,50,65,60,278.14598039980046,280.11185649991967,,,,,,,,,,,001,f,23,2023-05-13_12h06.36.688,RL,2022.2.5,60.057462942665616,
51,50,66,59,0,45,45,45,,,,,,,,None,280.11185649991967,280.11185649991967,280.11185649991967,280.11185649991967,280.11185649991967,280.11185649991967,f,0.3233439999166876,280.46830329997465,280.46830329997465,280.46830329997465,280.46830329997465,280.46830329997465,280.46830329997465,280.7623797999695,281.7783305000048,281.7945471999701,281.7945471999701,281.7945471999701,281.7945471999701,281.7945471999701,281.7945471999701,281.7945471999701,281.7945471999701,281.7945471999701,281.7945471999701,281.7945471999701,281.7945471999701,281.7945471999701,283.112227599835,283.112227599835,283.112227599835,283.112227599835,283.112227599835,283.112227599835,283.112227599835,66,59,51,50,66,60,283.112227599835,284.8107035998255,,,,,,,,,,,001,f,23,2023-05-13_12h06.36.688,RL,2022.2.5,60.057462942665616,
58,51,61,48,0,46,46,46,,,,,,,,None,284.8107035998255,284.8107035998255,284.8107035998255,284.8107035998255,284.8107035998255,284.8107035998255,f,0.3633490998763591,285.1984680998139,285.1984680998139,285.1984680998139,285.1984680998139,285.1984680998139,285.1984680998139,285.4935464998707,286.77772489981726,286.79517709999345,286.79517709999345,286.79517709999345,286.79517709999345,286.79517709999345,286.79517709999345,286.79517709999345,286.79517709999345,286.79517709999345,286.79517709999345,286.79517709999345,286.79517709999345,286.79517709999345,288.37803889997303,288.37803889997303,288.37803889997303,288.37803889997303,288.37803889997303,288.37803889997303,288.37803889997303,61,48,58,51,61,60,288.37803889997303,290.3102806999814,,,,,,,,,,,001,f,23,2023-05-13_12h06.36.688,RL,2022.2.5,60.057462942665616,
54,56,65,47,0,47,47,47,,,,,,,,None,290.3102806999814,290.3102806999814,290.3102806999814,290.3102806999814,290.3102806999814,290.3102806999814,r,0.4319664998911321,290.77448589983396,290.77448589983396,290.77448589983396,290.77448589983396,290.77448589983396,290.77448589983396,291.04330469993874,292.5088424999267,292.5429733998608,292.5429733998608,292.5429733998608,292.5429733998608,292.5429733998608,292.5429733998608,292.5429733998608,292.5429733998608,292.5429733998608,292.5429733998608,292.5429733998608,292.5429733998608,292.5429733998608,294.30975109990686,294.30975109990686,294.30975109990686,294.30975109990686,294.30975109990686,294.30975109990686,294.30975109990686,65,47,54,56,47,60,294.30975109990686,296.15828289999627,,,,,,,,,,,001,f,23,2023-05-13_12h06.36.688,RL,2022.2.5,60.057462942665616,
58,52,60,51,0,48,48,48,,,,,,,,None,296.15828289999627,296.15828289999627,296.15828289999627,296.15828289999627,296.15828289999627,296.15828289999627,j,0.42462079995311797,296.6131660998799,296.6131660998799,296.6131660998799,296.6131660998799,296.6131660998799,296.6131660998799,296.9079158999957,297.9580052997917,297.9580052997917,297.9580052997917,297.9580052997917,297.9580052997917,297.9580052997917,297.9580052997917,297.9580052997917,297.9580052997917,297.9580052997917,297.9580052997917,297.9580052997917,297.9580052997917,297.9580052997917,299.307631699834,299.307631699834,299.307631699834,299.307631699834,299.307631699834,299.307631699834,299.307631699834,60,51,58,52,52,60,299.307631699834,301.25824829982594,,,,,,,,,,,001,f,23,2023-05-13_12h06.36.688,RL,2022.2.5,60.057462942665616,
47,54,63,46,0,49,49,49,,,,,,,,None,301.25824829982594,301.25824829982594,301.25824829982594,301.25824829982594,301.25824829982594,301.25824829982594,f,0.3272941999603063,301.62248739995994,301.62248739995994,301.62248739995994,301.62248739995994,301.62248739995994,301.62248739995994,301.89155679987743,303.2411452999804,303.2747458999511,303.2747458999511,303.2747458999511,303.2747458999511,303.2747458999511,303.2747458999511,303.2747458999511,303.2747458999511,303.2747458999511,303.2747458999511,303.2747458999511,303.2747458999511,303.2747458999511,304.9236794000026,304.9236794000026,304.9236794000026,304.9236794000026,304.9236794000026,304.9236794000026,304.9236794000026,63,46,47,54,63,60,304.9236794000026,306.4741093998309,,,,,,,,,,,001,f,23,2023-05-13_12h06.36.688,RL,2022.2.5,60.057462942665616,
51,56,59,51,0,50,50,50,,,,,,,,None,306.4741093998309,306.4741093998309,306.4741093998309,306.4741093998309,306.4741093998309,306.4741093998309,j,0.32793449983000755,306.8381612999365,306.8381612999365,306.8381612999365,306.8381612999365,306.8381612999365,306.8381612999365,307.12419879995286,309.0735454999376,309.09096599998884,309.09096599998884,309.09096599998884,309.09096599998884,309.09096599998884,309.09096599998884,309.09096599998884,309.09096599998884,309.09096599998884,309.09096599998884,309.09096599998884,309.09096599998884,309.09096599998884,311.3395417998545,311.3395417998545,311.3395417998545,311.3395417998545,311.3395417998545,311.3395417998545,311.3395417998545,59,51,51,56,56,60,311.3395417998545,313.2226463998668,,,,,,,,,,,001,f,23,2023-05-13_12h06.36.688,RL,2022.2.5,60.057462942665616,
51,52,65,57,0,51,51,51,,,,,,,,None,313.2226463998668,313.2226463998668,313.2226463998668,313.2226463998668,313.2226463998668,313.2226463998668,r,0.5627498000394553,313.81244679982774,313.81244679982774,313.81244679982774,313.81244679982774,313.81244679982774,313.81244679982774,314.10637269984,315.6729442998767,315.6915362998843,315.6915362998843,315.6915362998843,315.6915362998843,315.6915362998843,315.6915362998843,315.6915362998843,315.6915362998843,315.6915362998843,315.6915362998843,315.6915362998843,315.6915362998843,315.6915362998843,317.57173659978434,317.57173659978434,317.57173659978434,317.57173659978434,317.57173659978434,317.57173659978434,317.57173659978434,65,57,51,52,57,60,317.57173659978434,319.5549750998616,,,,,,,,,,,001,f,23,2023-05-13_12h06.36.688,RL,2022.2.5,60.057462942665616,
59,60,73,56,0,52,52,52,,,,,,,,None,319.5549750998616,319.5549750998616,319.5549750998616,319.5549750998616,319.5549750998616,319.5549750998616,f,0.4771308000199497,320.0609288997948,320.0609288997948,320.0609288997948,320.0609288997948,320.0609288997948,320.0609288997948,320.3555652999785,322.1208636998199,322.1208636998199,322.1208636998199,322.1208636998199,322.1208636998199,322.1208636998199,322.1208636998199,322.1208636998199,322.1208636998199,322.1208636998199,322.1208636998199,322.1208636998199,322.1208636998199,322.1208636998199,324.1879753000103,324.1879753000103,324.1879753000103,324.1879753000103,324.1879753000103,324.1879753000103,324.1879753000103,73,56,59,60,73,60,324.1879753000103,326.1040829999838,,,,,,,,,,,001,f,23,2023-05-13_12h06.36.688,RL,2022.2.5,60.057462942665616,
55,60,67,58,0,53,53,53,,,,,,,,None,326.1040829999838,326.1040829999838,326.1040829999838,326.1040829999838,326.1040829999838,326.1040829999838,f,0.4353757998906076,326.57446969999,326.57446969999,326.57446969999,326.57446969999,326.57446969999,326.57446969999,326.8530518999323,328.8541417999659,328.8900202999357,328.8900202999357,328.8900202999357,328.8900202999357,328.8900202999357,328.8900202999357,328.8900202999357,328.8900202999357,328.8900202999357,328.8900202999357,328.8900202999357,328.8900202999357,328.8900202999357,331.20327589986846,331.20327589986846,331.20327589986846,331.20327589986846,331.20327589986846,331.20327589986846,331.20327589986846,67,58,55,60,67,60,331.20327589986846,332.7363129998557,,,,,,,,,,,001,f,23,2023-05-13_12h06.36.688,RL,2022.2.5,60.057462942665616,
56,58,62,64,0,54,54,54,,,,,,,,None,332.7363129998557,332.7363129998557,332.7363129998557,332.7363129998557,332.7363129998557,332.7363129998557,f,0.40309489984065294,333.1743838998955,333.1743838998955,333.1743838998955,333.1743838998955,333.1743838998955,333.1743838998955,333.45294039999135,335.2513561998494,335.2682978999801,335.2682978999801,335.2682978999801,335.2682978999801,335.2682978999801,335.2682978999801,335.2682978999801,335.2682978999801,335.2682978999801,335.2682978999801,335.2682978999801,335.2682978999801,335.2682978999801,337.36939399992116,337.36939399992116,337.36939399992116,337.36939399992116,337.36939399992116,337.36939399992116,337.36939399992116,62,64,56,58,62,60,337.36939399992116,339.235078800004,,,,,,,,,,,001,f,23,2023-05-13_12h06.36.688,RL,2022.2.5,60.057462942665616,
62,58,68,58,0,55,55,55,,,,,,,,None,339.235078800004,339.235078800004,339.235078800004,339.235078800004,339.235078800004,339.235078800004,i,0.7523995998781174,340.0226001997944,340.0226001997944,340.0226001997944,340.0226001997944,340.0226001997944,340.0226001997944,340.31820419989526,341.7341935997829,341.7341935997829,341.7341935997829,341.7341935997829,341.7341935997829,341.7341935997829,341.7341935997829,341.7341935997829,341.7341935997829,341.7341935997829,341.7341935997829,341.7341935997829,341.7341935997829,341.7341935997829,343.4512739998754,343.4512739998754,343.4512739998754,343.4512739998754,343.4512739998754,343.4512739998754,343.4512739998754,68,58,62,58,62,60,343.4512739998754,345.1669895998202,,,,,,,,,,,001,f,23,2023-05-13_12h06.36.688,RL,2022.2.5,60.057462942665616,
58,42,58,59,0,56,56,56,,,,,,,,None,345.1669895998202,345.1669895998202,345.1669895998202,345.1669895998202,345.1669895998202,345.1669895998202,i,0.9168722000904381,346.11500959983096,346.11500959983096,346.11500959983096,346.11500959983096,346.11500959983096,346.11500959983096,346.40055559994653,347.6675008998718,347.6854295998346,347.6854295998346,347.6854295998346,347.6854295998346,347.6854295998346,347.6854295998346,347.6854295998346,347.6854295998346,347.6854295998346,347.6854295998346,347.6854295998346,347.6854295998346,347.6854295998346,349.2507587999571,349.2507587999571,349.2507587999571,349.2507587999571,349.2507587999571,349.2507587999571,349.2507587999571,58,59,58,42,58,60,349.2507587999571,350.76680869981647,,,,,,,,,,,001,f,23,2023-05-13_12h06.36.688,RL,2022.2.5,60.057462942665616,
59,54,52,54,0,57,57,57,,,,,,,,None,350.76680869981647,350.76680869981647,350.76680869981647,350.76680869981647,350.76680869981647,350.76680869981647,f,0.47004189994186163,351.2698654998094,351.2698654998094,351.2698654998094,351.2698654998094,351.2698654998094,351.2698654998094,351.548941699788,352.6328659998253,352.6924798998516,352.6924798998516,352.6924798998516,352.6924798998516,352.6924798998516,352.6924798998516,352.6924798998516,352.6924798998516,352.6924798998516,352.6924798998516,352.6924798998516,352.6924798998516,352.6924798998516,354.08228339999914,354.08228339999914,354.08228339999914,354.08228339999914,354.08228339999914,354.08228339999914,354.08228339999914,52,54,59,54,52,60,354.08228339999914,355.8820644998923,,,,,,,,,,,001,f,23,2023-05-13_12h06.36.688,RL,2022.2.5,60.057462942665616,
60,55,55,62,0,58,58,58,,,,,,,,None,355.8820644998923,355.8820644998923,355.8820644998923,355.8820644998923,355.8820644998923,355.8820644998923,j,0.3608147001359612,356.2710847000126,356.2710847000126,356.2710847000126,356.2710847000126,356.2710847000126,356.2710847000126,356.56546359998174,358.18059309991077,358.18059309991077,358.18059309991077,358.18059309991077,358.18059309991077,358.18059309991077,358.18059309991077,358.18059309991077,358.18059309991077,358.18059309991077,358.18059309991077,358.18059309991077,358.18059309991077,358.18059309991077,360.0969174997881,360.0969174997881,360.0969174997881,360.0969174997881,360.0969174997881,360.0969174997881,360.0969174997881,55,62,60,55,55,60,360.0969174997881,361.8972426999826,,,,,,,,,,,001,f,23,2023-05-13_12h06.36.688,RL,2022.2.5,60.057462942665616,
61,57,63,58,0,59,59,59,,,,,,,,None,361.8972426999826,361.8972426999826,361.8972426999826,361.8972426999826,361.8972426999826,361.8972426999826,r,0.5590855998452753,362.4843800999224,362.4843800999224,362.4843800999224,362.4843800999224,362.4843800999224,362.4843800999224,362.7800778998062,364.11414109985344,364.11414109985344,364.11414109985344,364.11414109985344,364.11414109985344,364.11414109985344,364.11414109985344,364.11414109985344,364.11414109985344,364.11414109985344,364.11414109985344,364.11414109985344,364.11414109985344,364.11414109985344,365.7474284998607,365.7474284998607,365.7474284998607,365.7474284998607,365.7474284998607,365.7474284998607,365.7474284998607,63,58,61,57,58,60,365.7474284998607,367.58064249996096,,,,,,,,,,,001,f,23,2023-05-13_12h06.36.688,RL,2022.2.5,60.057462942665616,
68,64,53,51,0,60,60,60,,,,,,,,None,367.58064249996096,367.58064249996096,367.58064249996096,367.58064249996096,367.58064249996096,367.58064249996096,f,0.4422965000849217,368.0518739998806,368.0518739998806,368.0518739998806,368.0518739998806,368.0518739998806,368.0518739998806,368.3467540999409,370.2807727998588,370.2807727998588,370.2807727998588,370.2807727998588,370.2807727998588,370.2807727998588,370.2807727998588,370.2807727998588,370.2807727998588,370.2807727998588,370.2807727998588,370.2807727998588,370.2807727998588,370.2807727998588,372.51135289995,372.51135289995,372.51135289995,372.51135289995,372.51135289995,372.51135289995,372.51135289995,53,51,68,64,53,60,372.51135289995,374.3611078998074,,,,,,,,,,,001,f,23,2023-05-13_12h06.36.688,RL,2022.2.5,60.057462942665616,
67,58,55,65,0,61,61,61,,,,,,,,None,374.3611078998074,374.3611078998074,374.3611078998074,374.3611078998074,374.3611078998074,374.3611078998074,r,0.7077726998832077,375.09549519978464,375.09549519978464,375.09549519978464,375.09549519978464,375.09549519978464,375.09549519978464,375.37764249998145,376.377311399905,376.3938633999787,376.3938633999787,376.3938633999787,376.3938633999787,376.3938633999787,376.3938633999787,376.3938633999787,376.3938633999787,376.3938633999787,376.3938633999787,376.3938633999787,376.3938633999787,376.3938633999787,377.69574130000547,377.69574130000547,377.69574130000547,377.69574130000547,377.69574130000547,377.69574130000547,377.69574130000547,55,65,67,58,65,60,377.69574130000547,379.4779015998356,,,,,,,,,,,001,f,23,2023-05-13_12h06.36.688,RL,2022.2.5,60.057462942665616,
64,60,61,60,0,62,62,62,,,,,,,,None,379.4779015998356,379.4779015998356,379.4779015998356,379.4779015998356,379.4779015998356,379.4779015998356,i,0.5092728999443352,380.0161990998313,380.0161990998313,380.0161990998313,380.0161990998313,380.0161990998313,380.0161990998313,380.31049759988673,382.161672399845,382.161672399845,382.161672399845,382.161672399845,382.161672399845,382.161672399845,382.161672399845,382.161672399845,382.161672399845,382.161672399845,382.161672399845,382.161672399845,382.161672399845,382.161672399845,384.31064089993015,384.31064089993015,384.31064089993015,384.31064089993015,384.31064089993015,384.31064089993015,384.31064089993015,61,60,64,60,64,60,384.31064089993015,385.8922228999436,,,,,,,,,,,001,f,23,2023-05-13_12h06.36.688,RL,2022.2.5,60.057462942665616,
65,62,50,60,0,63,63,63,,,,,,,,None,385.8922228999436,385.8922228999436,385.8922228999436,385.8922228999436,385.8922228999436,385.8922228999436,i,0.5596542998682708,386.4941213999409,386.4941213999409,386.4941213999409,386.4941213999409,386.4941213999409,386.4941213999409,386.77481399988756,387.7939292998053,387.81200749985874,387.81200749985874,387.81200749985874,387.81200749985874,387.81200749985874,387.81200749985874,387.81200749985874,387.81200749985874,387.81200749985874,387.81200749985874,387.81200749985874,387.81200749985874,387.81200749985874,389.14380919979885,389.14380919979885,389.14380919979885,389.14380919979885,389.14380919979885,389.14380919979885,389.14380919979885,50,60,65,62,65,60,389.14380919979885,390.7094152998179,,,,,,,,,,,001,f,23,2023-05-13_12h06.36.688,RL,2022.2.5,60.057462942665616,
59,58,62,56,0,64,64,64,,,,,,,,None,390.7094152998179,390.7094152998179,390.7094152998179,390.7094152998179,390.7094152998179,390.7094152998179,f,0.32788140000775456,391.07422269997187,391.07422269997187,391.07422269997187,391.07422269997187,391.07422269997187,391.07422269997187,391.3429589997977,393.29229769995436,393.32590599986725,393.32590599986725,393.32590599986725,393.32590599986725,393.32590599986725,393.32590599986725,393.32590599986725,393.32590599986725,393.32590599986725,393.32590599986725,393.32590599986725,393.32590599986725,393.32590599986725,395.5758048999123,395.5758048999123,395.5758048999123,395.5758048999123,395.5758048999123,395.5758048999123,395.5758048999123,62,56,59,58,62,60,395.5758048999123,397.24198629986495,,,,,,,,,,,001,f,23,2023-05-13_12h06.36.688,RL,2022.2.5,60.057462942665616,
64,64,55,57,0,65,65,65,,,,,,,,None,397.24198629986495,397.24198629986495,397.24198629986495,397.24198629986495,397.24198629986495,397.24198629986495,i,0.4392756999004632,397.7107720999047,397.7107720999047,397.7107720999047,397.7107720999047,397.7107720999047,397.7107720999047,397.99184239981696,399.75860770000145,399.7763157999143,399.7763157999143,399.7763157999143,399.7763157999143,399.7763157999143,399.7763157999143,399.7763157999143,399.7763157999143,399.7763157999143,399.7763157999143,399.7763157999143,399.7763157999143,399.7763157999143,401.8411187999882,401.8411187999882,401.8411187999882,401.8411187999882,401.8411187999882,401.8411187999882,401.8411187999882,55,57,64,64,64,60,401.8411187999882,403.57399689988233,,,,,,,,,,,001,f,23,2023-05-13_12h06.36.688,RL,2022.2.5,60.057462942665616,
67,61,47,52,0,66,66,66,,,,,,,,None,403.57399689988233,403.57399689988233,403.57399689988233,403.57399689988233,403.57399689988233,403.57399689988233,f,0.4984782999381423,404.1048988997936,404.1048988997936,404.1048988997936,404.1048988997936,404.1048988997936,404.1048988997936,404.37333129998296,405.5739485998638,405.6086983999703,405.6086983999703,405.6086983999703,405.6086983999703,405.6086983999703,405.6086983999703,405.6086983999703,405.6086983999703,405.6086983999703,405.6086983999703,405.6086983999703,405.6086983999703,405.6086983999703,407.1056668998208,407.1056668998208,407.1056668998208,407.1056668998208,407.1056668998208,407.1056668998208,407.1056668998208,47,52,67,61,47,60,407.1056668998208,408.8395388999488,,,,,,,,,,,001,f,23,2023-05-13_12h06.36.688,RL,2022.2.5,60.057462942665616,
60,56,52,56,0,67,67,67,,,,,,,,None,408.8395388999488,408.8395388999488,408.8395388999488,408.8395388999488,408.8395388999488,408.8395388999488,r,0.44790430017746985,409.3209667999763,409.3209667999763,409.3209667999763,409.3209667999763,409.3209667999763,409.3209667999763,409.60569759993814,411.2046532998793,411.22172699985094,411.22172699985094,411.22172699985094,411.22172699985094,411.22172699985094,411.22172699985094,411.22172699985094,411.22172699985094,411.22172699985094,411.22172699985094,411.22172699985094,411.22172699985094,411.22172699985094,413.12260739994235,413.12260739994235,413.12260739994235,413.12260739994235,413.12260739994235,413.12260739994235,413.12260739994235,52,56,60,56,56,60,413.12260739994235,414.82198089989834,,,,,,,,,,,001,f,23,2023-05-13_12h06.36.688,RL,2022.2.5,60.057462942665616,
67,64,61,52,0,68,68,68,,,,,,,,None,414.82198089989834,414.82198089989834,414.82198089989834,414.82198089989834,414.82198089989834,414.82198089989834,i,0.37455839989706874,415.2233172999695,415.2233172999695,415.2233172999695,415.2233172999695,415.2233172999695,415.2233172999695,415.504578899825,417.20528679993004,417.22383489995264,417.22383489995264,417.22383489995264,417.22383489995264,417.22383489995264,417.22383489995264,417.22383489995264,417.22383489995264,417.22383489995264,417.22383489995264,417.22383489995264,417.22383489995264,417.22383489995264,419.2215521999169,419.2215521999169,419.2215521999169,419.2215521999169,419.2215521999169,419.2215521999169,419.2215521999169,61,52,67,64,67,60,419.2215521999169,420.754360999912,,,,,,,,,,,001,f,23,2023-05-13_12h06.36.688,RL,2022.2.5,60.057462942665616,
62,70,64,51,0,69,69,69,,,,,,,,None,420.754360999912,420.754360999912,420.754360999912,420.754360999912,420.754360999912,420.754360999912,i,0.6202363001648337,421.4107158998959,421.4107158998959,421.4107158998959,421.4107158998959,421.4107158998959,421.4107158998959,421.70385259995237,422.8209501998499,422.8389233998023,422.8389233998023,422.8389233998023,422.8389233998023,422.8389233998023,422.8389233998023,422.8389233998023,422.8389233998023,422.8389233998023,422.8389233998023,422.8389233998023,422.8389233998023,422.8389233998023,424.27046489994973,424.27046489994973,424.27046489994973,424.27046489994973,424.27046489994973,424.27046489994973,424.27046489994973,64,51,62,70,62,60,424.27046489994973,426.25285589997657,,,,,,,,,,,001,f,23,2023-05-13_12h06.36.688,RL,2022.2.5,60.057462942665616,
67,63,56,46,0,70,70,70,,,,,,,,None,426.25285589997657,426.25285589997657,426.25285589997657,426.25285589997657,426.25285589997657,426.25285589997657,r,0.4084358001127839,426.70091039990075,426.70091039990075,426.70091039990075,426.70091039990075,426.70091039990075,426.70091039990075,426.96999379992485,427.9525311999023,427.98607509979047,427.98607509979047,427.98607509979047,427.98607509979047,427.98607509979047,427.98607509979047,427.98607509979047,427.98607509979047,427.98607509979047,427.98607509979047,427.98607509979047,427.98607509979047,427.98607509979047,429.2699513998814,429.2699513998814,429.2699513998814,429.2699513998814,429.2699513998814,429.2699513998814,429.2699513998814,56,46,67,63,46,60,429.2699513998814,430.818735799985,,,,,,,,,,,001,f,23,2023-05-13_12h06.36.688,RL,2022.2.5,60.057462942665616,
64,54,67,50,0,71,71,71,,,,,,,,None,430.818735799985,430.818735799985,430.818735799985,430.818735799985,430.818735799985,430.818735799985,i,0.30592430010437965,431.1585389999673,431.1585389999673,431.1585389999673,431.1585389999673,431.1585389999673,431.1585389999673,431.45318249985576,432.4373152998742,432.4373152998742,432.4373152998742,432.4373152998742,432.4373152998742,432.4373152998742,432.4373152998742,432.4373152998742,432.4373152998742,432.4373152998742,432.4373152998742,432.4373152998742,432.4373152998742,432.4373152998742,433.71858659991995,433.71858659991995,433.71858659991995,433.71858659991995,433.71858659991995,433.71858659991995,433.71858659991995,67,50,64,54,64,60,433.71858659991995,435.48388279997744,,,,,,,,,,,001,f,23,2023-05-13_12h06.36.688,RL,2022.2.5,60.057462942665616,
67,56,60,50,0,72,72,72,,,,,,,,None,435.48388279997744,435.48388279997744,435.48388279997744,435.48388279997744,435.48388279997744,435.48388279997744,i,0.3078596000559628,435.82432769984007,435.82432769984007,435.82432769984007,435.82432769984007,435.82432769984007,435.82432769984007,436.118786299834,437.8678474999033,437.8877075999044,437.8877075999044,437.8877075999044,437.8877075999044,437.8877075999044,437.8877075999044,437.8877075999044,437.8877075999044,437.8877075999044,437.8877075999044,437.8877075999044,437.8877075999044,437.8877075999044,439.93509779986925,439.93509779986925,439.93509779986925,439.93509779986925,439.93509779986925,439.93509779986925,439.93509779986925,60,50,67,56,67,60,439.93509779986925,441.89981169998646,,,,,,,,,,,001,f,23,2023-05-13_12h06.36.688,RL,2022.2.5,60.057462942665616,
65,57,53,48,0,73,73,73,,,,,,,,None,441.89981169998646,441.89981169998646,441.89981169998646,441.89981169998646,441.89981169998646,441.89981169998646,i,0.3015314999502152,442.2380121999886,442.2380121999886,442.2380121999886,442.2380121999886,442.2380121999886,442.2380121999886,442.5174714999739,444.0844466998242,444.10316949989647,444.10316949989647,444.10316949989647,444.10316949989647,444.10316949989647,444.10316949989647,444.10316949989647,444.10316949989647,444.10316949989647,444.10316949989647,444.10316949989647,444.10316949989647,444.10316949989647,445.9669846999459,445.9669846999459,445.9669846999459,445.9669846999459,445.9669846999459,445.9669846999459,445.9669846999459,53,48,65,57,65,60,445.9669846999459,447.799426099984,,,,,,,,,,,001,f,23,2023-05-13_12h06.36.688,RL,2022.2.5,60.057462942665616,
62,60,57,47,0,74,74,74,,,,,,,,None,447.799426099984,447.799426099984,447.799426099984,447.799426099984,447.799426099984,447.799426099984,i,0.38195339986123145,448.2049336999189,448.2049336999189,448.2049336999189,448.2049336999189,448.2049336999189,448.2049336999189,448.4994464998599,449.65131019987166,449.65131019987166,449.65131019987166,449.65131019987166,449.65131019987166,449.65131019987166,449.65131019987166,449.65131019987166,449.65131019987166,449.65131019987166,449.65131019987166,449.65131019987166,449.65131019987166,449.65131019987166,451.0994421998039,451.0994421998039,451.0994421998039,451.0994421998039,451.0994421998039,451.0994421998039,451.0994421998039,57,47,62,60,62,60,451.0994421998039,453.09908839990385,,,,,,,,,,,001,f,23,2023-05-13_12h06.36.688,RL,2022.2.5,60.057462942665616,
62,55,50,49,0,75,75,75,,,,,,,,q,484.6927541999612,484.6927541999612,484.6927541999612,484.6927541999612,484.6927541999612,484.6927541999612,f,0.8723782000597566,485.59766509989277,485.59766509989277,485.59766509989277,485.59766509989277,485.59766509989277,485.59766509989277,485.89349049981683,487.3258114999626,487.3258114999626,487.3258114999626,487.3258114999626,487.3258114999626,487.3258114999626,487.3258114999626,487.3258114999626,487.3258114999626,487.3258114999626,487.3258114999626,487.3258114999626,487.3258114999626,487.3258114999626,489.0596976999659,489.0596976999659,489.0596976999659,489.0596976999659,489.0596976999659,489.0596976999659,489.0596976999659,50,49,62,55,50,60,489.0596976999659,490.79217149992473,453.09908839990385,453.09908839990385,26.55147090018727,479.6784778998699,479.6784778998699,484.6927541999612,484.6927541999612,,,,001,f,23,2023-05-13_12h06.36.688,RL,2022.2.5,60.057462942665616,
62,48,57,42,0,76,76,76,,,,,,,,None,490.79217149992473,490.79217149992473,490.79217149992473,490.79217149992473,490.79217149992473,490.79217149992473,i,0.5482457000762224,491.3629950999748,491.3629950999748,491.3629950999748,491.3629950999748,491.3629950999748,491.3629950999748,491.6577406998258,493.0419114998076,493.05958059988916,493.05958059988916,493.05958059988916,493.05958059988916,493.05958059988916,493.05958059988916,493.05958059988916,493.05958059988916,493.05958059988916,493.05958059988916,493.05958059988916,493.05958059988916,493.05958059988916,494.7583586999681,494.7583586999681,494.7583586999681,494.7583586999681,494.7583586999681,494.7583586999681,494.7583586999681,57,42,62,48,62,60,494.7583586999681,496.34108139993623,,,,,,,,,,,001,f,23,2023-05-13_12h06.36.688,RL,2022.2.5,60.057462942665616,
62,36,51,51,0,77,77,77,,,,,,,,None,496.34108139993623,496.34108139993623,496.34108139993623,496.34108139993623,496.34108139993623,496.34108139993623,r,0.4190439998637885,496.79507929994725,496.79507929994725,496.79507929994725,496.79507929994725,496.79507929994725,496.79507929994725,497.0741281998344,498.54057589988224,498.5576677999925,498.5576677999925,498.5576677999925,498.5576677999925,498.5576677999925,498.5576677999925,498.5576677999925,498.5576677999925,498.5576677999925,498.5576677999925,498.5576677999925,498.5576677999925,498.5576677999925,500.32450389978476,500.32450389978476,500.32450389978476,500.32450389978476,500.32450389978476,500.32450389978476,500.32450389978476,51,51,62,36,51,60,500.32450389978476,502.3239128999412,,,,,,,,,,,001,f,23,2023-05-13_12h06.36.688,RL,2022.2.5,60.057462942665616,
56,37,47,51,0,78,78,78,,,,,,,,None,502.3239128999412,502.3239128999412,502.3239128999412,502.3239128999412,502.3239128999412,502.3239128999412,i,0.4858768000267446,502.85476039978676,502.85476039978676,502.85476039978676,502.85476039978676,502.85476039978676,502.85476039978676,503.1232615998015,504.75638879998587,504.7912597998511,504.7912597998511,504.7912597998511,504.7912597998511,504.7912597998511,504.7912597998511,504.7912597998511,504.7912597998511,504.7912597998511,504.7912597998511,504.7912597998511,504.7912597998511,504.7912597998511,506.72327729989775,506.72327729989775,506.72327729989775,506.72327729989775,506.72327729989775,506.72327729989775,506.72327729989775,47,51,56,37,56,60,506.72327729989775,508.27243089978583,,,,,,,,,,,001,f,23,2023-05-13_12h06.36.688,RL,2022.2.5,60.057462942665616,
64,33,54,47,0,79,79,79,,,,,,,,None,508.27243089978583,508.27243089978583,508.27243089978583,508.27243089978583,508.27243089978583,508.27243089978583,j,0.3612998998723924,508.6610106998123,508.6610106998123,508.6610106998123,508.6610106998123,508.6610106998123,508.6610106998123,508.95623839995824,509.7719007998239,509.7719007998239,509.7719007998239,509.7719007998239,509.7719007998239,509.7719007998239,509.7719007998239,509.7719007998239,509.7719007998239,509.7719007998239,509.7719007998239,509.7719007998239,509.7719007998239,509.7719007998239,510.8893502999563,510.8893502999563,510.8893502999563,510.8893502999563,510.8893502999563,510.8893502999563,510.8893502999563,54,47,64,33,33,60,510.8893502999563,512.7387348997872,,,,,,,,,,,001,f,23,2023-05-13_12h06.36.688,RL,2022.2.5,60.057462942665616,
61,36,57,51,0,80,80,80,,,,,,,,None,512.7387348997872,512.7387348997872,512.7387348997872,512.7387348997872,512.7387348997872,512.7387348997872,i,0.32401899993419647,513.0919902999885,513.0919902999885,513.0919902999885,513.0919902999885,513.0919902999885,513.0919902999885,513.3712551000062,514.6719711998012,514.7058969999198,514.7058969999198,514.7058969999198,514.7058969999198,514.7058969999198,514.7058969999198,514.7058969999198,514.7058969999198,514.7058969999198,514.7058969999198,514.7058969999198,514.7058969999198,514.7058969999198,516.3214644999243,516.3214644999243,516.3214644999243,516.3214644999243,516.3214644999243,516.3214644999243,516.3214644999243,57,51,61,36,61,60,516.3214644999243,518.1873974998016,,,,,,,,,,,001,f,23,2023-05-13_12h06.36.688,RL,2022.2.5,60.057462942665616,
57,28,62,44,0,81,81,81,,,,,,,,None,518.1873974998016,518.1873974998016,518.1873974998016,518.1873974998016,518.1873974998016,518.1873974998016,r,0.5853100998792797,518.8076920998283,518.8076920998283,518.8076920998283,518.8076920998283,518.8076920998283,518.8076920998283,519.0871170999017,520.1862499997951,520.2020480998326,520.2020480998326,520.2020480998326,520.2020480998326,520.2020480998326,520.2020480998326,520.2020480998326,520.2020480998326,520.2020480998326,520.2020480998326,520.2020480998326,520.2020480998326,520.2020480998326,521.6042166999541,521.6042166999541,521.6042166999541,521.6042166999541,521.6042166999541,521.6042166999541,521.6042166999541,62,44,57,28,44,60,521.6042166999541,523.2862469998654,,,,,,,,,,,001,f,23,2023-05-13_12h06.36.688,RL,2022.2.5,60.057462942665616,
56,33,46,39,0,82,82,82,,,,,,,,None,523.2862469998654,523.2862469998654,523.2862469998654,523.2862469998654,523.2862469998654,523.2862469998654,f,0.3159219999797642,523.633796799928,523.633796799928,523.633796799928,523.633796799928,523.633796799928,523.633796799928,523.9189742999151,525.5865093998145,525.6065014998894,525.6065014998894,525.6065014998894,525.6065014998894,525.6065014998894,525.6065014998894,525.6065014998894,525.6065014998894,525.6065014998894,525.6065014998894,525.6065014998894,525.6065014998894,525.6065014998894,527.5695408999454,527.5695408999454,527.5695408999454,527.5695408999454,527.5695408999454,527.5695408999454,527.5695408999454,46,39,56,33,46,60,527.5695408999454,529.1184870998841,,,,,,,,,,,001,f,23,2023-05-13_12h06.36.688,RL,2022.2.5,60.057462942665616,
55,23,48,54,0,83,83,83,,,,,,,,None,529.1184870998841,529.1184870998841,529.1184870998841,529.1184870998841,529.1184870998841,529.1184870998841,i,0.4017275001388043,529.5563155999407,529.5563155999407,529.5563155999407,529.5563155999407,529.5563155999407,529.5563155999407,529.8359046999831,531.2020452998113,531.2198539997917,531.2198539997917,531.2198539997917,531.2198539997917,531.2198539997917,531.2198539997917,531.2198539997917,531.2198539997917,531.2198539997917,531.2198539997917,531.2198539997917,531.2198539997917,531.2198539997917,532.8856344998349,532.8856344998349,532.8856344998349,532.8856344998349,532.8856344998349,532.8856344998349,532.8856344998349,48,54,55,23,55,60,532.8856344998349,534.7338854998816,,,,,,,,,,,001,f,23,2023-05-13_12h06.36.688,RL,2022.2.5,60.057462942665616,
58,25,45,65,0,84,84,84,,,,,,,,None,534.7338854998816,534.7338854998816,534.7338854998816,534.7338854998816,534.7338854998816,534.7338854998816,i,0.39740130002610385,535.1575550998095,535.1575550998095,535.1575550998095,535.1575550998095,535.1575550998095,535.1575550998095,535.4509140998125,537.1194142999593,537.1194142999593,537.1194142999593,537.1194142999593,537.1194142999593,537.1194142999593,537.1194142999593,537.1194142999593,537.1194142999593,537.1194142999593,537.1194142999593,537.1194142999593,537.1194142999593,537.1194142999593,539.0842153998092,539.0842153998092,539.0842153998092,539.0842153998092,539.0842153998092,539.0842153998092,539.0842153998092,45,65,58,25,58,60,539.0842153998092,540.6500045999419,,,,,,,,,,,001,f,23,2023-05-13_12h06.36.688,RL,2022.2.5,60.057462942665616,
44,32,49,51,0,85,85,85,,,,,,,,None,540.6500045999419,540.6500045999419,540.6500045999419,540.6500045999419,540.6500045999419,540.6500045999419,i,0.45842819986864924,541.1396900999825,541.1396900999825,541.1396900999825,541.1396900999825,541.1396900999825,541.1396900999825,541.4168820998166,542.9500597999431,542.9658772998955,542.9658772998955,542.9658772998955,542.9658772998955,542.9658772998955,542.9658772998955,542.9658772998955,542.9658772998955,542.9658772998955,542.9658772998955,542.9658772998955,542.9658772998955,542.9658772998955,544.7996659998316,544.7996659998316,544.7996659998316,544.7996659998316,544.7996659998316,544.7996659998316,544.7996659998316,49,51,44,32,44,60,544.7996659998316,546.6155371000059,,,,,,,,,,,001,f,23,2023-05-13_12h06.36.688,RL,2022.2.5,60.057462942665616,
54,31,58,51,0,86,86,86,,,,,,,,None,546.6155371000059,546.6155371000059,546.6155371000059,546.6155371000059,546.6155371000059,546.6155371000059,r,0.4399759001098573,547.0960777997971,547.0960777997971,547.0960777997971,547.0960777997971,547.0960777997971,547.0960777997971,547.3826496999245,548.666489199968,548.666489199968,548.666489199968,548.666489199968,548.666489199968,548.666489199968,548.666489199968,548.666489199968,548.666489199968,548.666489199968,548.666489199968,548.666489199968,548.666489199968,548.666489199968,550.2479640999809,550.2479640999809,550.2479640999809,550.2479640999809,550.2479640999809,550.2479640999809,550.2479640999809,58,51,54,31,51,60,550.2479640999809,552.1484201999847,,,,,,,,,,,001,f,23,2023-05-13_12h06.36.688,RL,2022.2.5,60.057462942665616,
55,31,49,51,0,87,87,87,,,,,,,,None,552.1484201999847,552.1484201999847,552.1484201999847,552.1484201999847,552.1484201999847,552.1484201999847,i,0.32670299988240004,552.5042327998672,552.5042327998672,552.5042327998672,552.5042327998672,552.5042327998672,552.5042327998672,552.7986552999355,553.9630898998585,553.9630898998585,553.9630898998585,553.9630898998585,553.9630898998585,553.9630898998585,553.9630898998585,553.9630898998585,553.9630898998585,553.9630898998585,553.9630898998585,553.9630898998585,553.9630898998585,553.9630898998585,555.4312037997879,555.4312037997879,555.4312037997879,555.4312037997879,555.4312037997879,555.4312037997879,555.4312037997879,49,51,55,31,55,60,555.4312037997879,556.9801965998486,,,,,,,,,,,001,f,23,2023-05-13_12h06.36.688,RL,2022.2.5,60.057462942665616,
56,22,46,44,0,88,88,88,,,,,,,,None,556.9801965998486,556.9801965998486,556.9801965998486,556.9801965998486,556.9801965998486,556.9801965998486,f,0.39970119995996356,557.4155888999812,557.4155888999812,557.4155888999812,557.4155888999812,557.4155888999812,557.4155888999812,557.6967624998651,559.0805065999739,559.0990745997988,559.0990745997988,559.0990745997988,559.0990745997988,559.0990745997988,559.0990745997988,559.0990745997988,559.0990745997988,559.0990745997988,559.0990745997988,559.0990745997988,559.0990745997988,559.0990745997988,560.7786571998149,560.7786571998149,560.7786571998149,560.7786571998149,560.7786571998149,560.7786571998149,560.7786571998149,46,44,56,22,46,60,560.7786571998149,562.3791286000051,,,,,,,,,,,001,f,23,2023-05-13_12h06.36.688,RL,2022.2.5,60.057462942665616,
62,26,50,50,0,89,89,89,,,,,,,,None,562.3791286000051,562.3791286000051,562.3791286000051,562.3791286000051,562.3791286000051,562.3791286000051,i,0.31689250003546476,562.7164572000038,562.7164572000038,562.7164572000038,562.7164572000038,562.7164572000038,562.7164572000038,562.9956826998387,564.2624865998514,564.2801027998794,564.2801027998794,564.2801027998794,564.2801027998794,564.2801027998794,564.2801027998794,564.2801027998794,564.2801027998794,564.2801027998794,564.2801027998794,564.2801027998794,564.2801027998794,564.2801027998794,565.8453230999876,565.8453230999876,565.8453230999876,565.8453230999876,565.8453230999876,565.8453230999876,565.8453230999876,50,50,62,26,62,60,565.8453230999876,567.5115985998418,,,,,,,,,,,001,f,23,2023-05-13_12h06.36.688,RL,2022.2.5,60.057462942665616,
57,27,53,59,0,90,90,90,,,,,,,,None,567.5115985998418,567.5115985998418,567.5115985998418,567.5115985998418,567.5115985998418,567.5115985998418,i,0.31282739993184805,567.8592124998104,567.8592124998104,567.8592124998104,567.8592124998104,567.8592124998104,567.8592124998104,568.1285715999547,569.1447403999045,569.1779891999904,569.1779891999904,569.1779891999904,569.1779891999904,569.1779891999904,569.1779891999904,569.1779891999904,569.1779891999904,569.1779891999904,569.1779891999904,569.1779891999904,569.1779891999904,569.1779891999904,570.4940413997974,570.4940413997974,570.4940413997974,570.4940413997974,570.4940413997974,570.4940413997974,570.4940413997974,53,59,57,27,57,60,570.4940413997974,572.4442092999816,,,,,,,,,,,001,f,23,2023-05-13_12h06.36.688,RL,2022.2.5,60.057462942665616,
58,35,53,55,0,91,91,91,,,,,,,,None,572.4442092999816,572.4442092999816,572.4442092999816,572.4442092999816,572.4442092999816,572.4442092999816,j,0.6824713000096381,573.1486665999983,573.1486665999983,573.1486665999983,573.1486665999983,573.1486665999983,573.1486665999983,573.4272874000017,575.3767707999796,575.3933808999136,575.3933808999136,575.3933808999136,575.3933808999136,575.3933808999136,575.3933808999136,575.3933808999136,575.3933808999136,575.3933808999136,575.3933808999136,575.3933808999136,575.3933808999136,575.3933808999136,577.6440722998232,577.6440722998232,577.6440722998232,577.6440722998232,577.6440722998232,577.6440722998232,577.6440722998232,53,55,58,35,35,60,577.6440722998232,579.1933645999525,,,,,,,,,,,001,f,23,2023-05-13_12h06.36.688,RL,2022.2.5,60.057462942665616,
46,23,46,48,0,92,92,92,,,,,,,,None,579.1933645999525,579.1933645999525,579.1933645999525,579.1933645999525,579.1933645999525,579.1933645999525,i,0.292419700184837,579.5131616999861,579.5131616999861,579.5131616999861,579.5131616999861,579.5131616999861,579.5131616999861,579.7926631998271,581.47598499991,581.4921751997899,581.4921751997899,581.4921751997899,581.4921751997899,581.4921751997899,581.4921751997899,581.4921751997899,581.4921751997899,581.4921751997899,581.4921751997899,581.4921751997899,581.4921751997899,581.4921751997899,583.4763397998177,583.4763397998177,583.4763397998177,583.4763397998177,583.4763397998177,583.4763397998177,583.4763397998177,46,48,46,23,46,60,583.4763397998177,585.1911757998168,,,,,,,,,,,001,f,23,2023-05-13_12h06.36.688,RL,2022.2.5,60.057462942665616,
45,27,49,53,0,93,93,93,,,,,,,,None,585.1911757998168,585.1911757998168,585.1911757998168,585.1911757998168,585.1911757998168,585.1911757998168,r,0.4201109998393804,585.6482671999838,585.6482671999838,585.6482671999838,585.6482671999838,585.6482671999838,585.6482671999838,585.9422129997984,587.7436445998028,587.7436445998028,587.7436445998028,587.7436445998028,587.7436445998028,587.7436445998028,587.7436445998028,587.7436445998028,587.7436445998028,587.7436445998028,587.7436445998028,587.7436445998028,587.7436445998028,587.7436445998028,589.8416576997843,589.8416576997843,589.8416576997843,589.8416576997843,589.8416576997843,589.8416576997843,589.8416576997843,49,53,45,27,53,60,589.8416576997843,591.5241842998657,,,,,,,,,,,001,f,23,2023-05-13_12h06.36.688,RL,2022.2.5,60.057462942665616,
51,32,58,55,0,94,94,94,,,,,,,,None,591.5241842998657,591.5241842998657,591.5241842998657,591.5241842998657,591.5241842998657,591.5241842998657,f,0.5468603998888284,592.0951186998282,592.0951186998282,592.0951186998282,592.0951186998282,592.0951186998282,592.0951186998282,592.3903109999374,594.3733205997851,594.3733205997851,594.3733205997851,594.3733205997851,594.3733205997851,594.3733205997851,594.3733205997851,594.3733205997851,594.3733205997851,594.3733205997851,594.3733205997851,594.3733205997851,594.3733205997851,594.3733205997851,596.6575389998034,596.6575389998034,596.6575389998034,596.6575389998034,596.6575389998034,596.6575389998034,596.6575389998034,58,55,51,32,58,60,596.6575389998034,598.6059697999153,,,,,,,,,,,001,f,23,2023-05-13_12h06.36.688,RL,2022.2.5,60.057462942665616,
44,25,62,52,0,95,95,95,,,,,,,,None,598.6059697999153,598.6059697999153,598.6059697999153,598.6059697999153,598.6059697999153,598.6059697999153,f,0.36473649996332824,598.9968592999503,598.9968592999503,598.9968592999503,598.9968592999503,598.9968592999503,598.9968592999503,599.2891926998273,600.2225286997855,600.2393363998272,600.2393363998272,600.2393363998272,600.2393363998272,600.2393363998272,600.2393363998272,600.2393363998272,600.2393363998272,600.2393363998272,600.2393363998272,600.2393363998272,600.2393363998272,600.2393363998272,601.4719321997836,601.4719321997836,601.4719321997836,601.4719321997836,601.4719321997836,601.4719321997836,601.4719321997836,62,52,44,25,62,60,601.4719321997836,603.2723651998676,,,,,,,,,,,001,f,23,2023-05-13_12h06.36.688,RL,2022.2.5,60.057462942665616,
40,34,54,58,0,96,96,96,,,,,,,,None,603.2723651998676,603.2723651998676,603.2723651998676,603.2723651998676,603.2723651998676,603.2723651998676,f,0.3607685000170022,603.6630898998119,603.6630898998119,603.6630898998119,603.6630898998119,603.6630898998119,603.6630898998119,603.954921499826,604.8910096997861,604.8910096997861,604.8910096997861,604.8910096997861,604.8910096997861,604.8910096997861,604.8910096997861,604.8910096997861,604.8910096997861,604.8910096997861,604.8910096997861,604.8910096997861,604.8910096997861,604.8910096997861,606.1224045997951,606.1224045997951,606.1224045997951,606.1224045997951,606.1224045997951,606.1224045997951,606.1224045997951,54,58,40,34,54,60,606.1224045997951,607.7546200999059,,,,,,,,,,,001,f,23,2023-05-13_12h06.36.688,RL,2022.2.5,60.057462942665616,
45,36,56,65,0,97,97,97,,,,,,,,None,607.7546200999059,607.7546200999059,607.7546200999059,607.7546200999059,607.7546200999059,607.7546200999059,i,0.4384425999596715,608.2363299999852,608.2363299999852,608.2363299999852,608.2363299999852,608.2363299999852,608.2363299999852,608.5210641999729,610.4867883999832,610.5035536999349,610.5035536999349,610.5035536999349,610.5035536999349,610.5035536999349,610.5035536999349,610.5035536999349,610.5035536999349,610.5035536999349,610.5035536999349,610.5035536999349,610.5035536999349,610.5035536999349,612.7714342998806,612.7714342998806,612.7714342998806,612.7714342998806,612.7714342998806,612.7714342998806,612.7714342998806,56,65,45,36,45,60,612.7714342998806,614.4538266998716,,,,,,,,,,,001,f,23,2023-05-13_12h06.36.688,RL,2022.2.5,60.057462942665616,
49,40,54,65,0,98,98,98,,,,,,,,None,614.4538266998716,614.4538266998716,614.4538266998716,614.4538266998716,614.4538266998716,614.4538266998716,f,0.37031090003438294,614.8676953997929,614.8676953997929,614.8676953997929,614.8676953997929,614.8676953997929,614.8676953997929,615.137232999783,616.5870577997994,616.6219372998457,616.6219372998457,616.6219372998457,616.6219372998457,616.6219372998457,616.6219372998457,616.6219372998457,616.6219372998457,616.6219372998457,616.6219372998457,616.6219372998457,616.6219372998457,616.6219372998457,618.3702588998713,618.3702588998713,618.3702588998713,618.3702588998713,618.3702588998713,618.3702588998713,618.3702588998713,54,65,49,40,54,60,618.3702588998713,620.3362227999605,,,,,,,,,,,001,f,23,2023-05-13_12h06.36.688,RL,2022.2.5,60.057462942665616,
55,32,49,72,0,99,99,99,,,,,,,,None,620.3362227999605,620.3362227999605,620.3362227999605,620.3362227999605,620.3362227999605,620.3362227999605,r,0.3952768000308424,620.7583449999802,620.7583449999802,620.7583449999802,620.7583449999802,620.7583449999802,620.7583449999802,621.0526209999807,622.869932099944,622.8874061999377,622.8874061999377,622.8874061999377,622.8874061999377,622.8874061999377,622.8874061999377,622.8874061999377,622.8874061999377,622.8874061999377,622.8874061999377,622.8874061999377,622.8874061999377,622.8874061999377,625.0027582999319,625.0027582999319,625.0027582999319,625.0027582999319,625.0027582999319,625.0027582999319,625.0027582999319,49,72,55,32,72,60,625.0027582999319,626.6512759998441,,,,,,,,,,,001,f,23,2023-05-13_12h06.36.688,RL,2022.2.5,60.057462942665616,
58,44,48,76,0,100,100,100,,,,,,,,None,626.6512759998441,626.6512759998441,626.6512759998441,626.6512759998441,626.6512759998441,626.6512759998441,r,0.40261129988357425,627.088924799813,627.088924799813,627.088924799813,627.088924799813,627.088924799813,627.088924799813,627.3842636998743,629.355114699807,629.355114699807,629.355114699807,629.355114699807,629.355114699807,629.355114699807,629.355114699807,629.355114699807,629.355114699807,629.355114699807,629.355114699807,629.355114699807,629.355114699807,629.355114699807,631.6176514998078,631.6176514998078,631.6176514998078,631.6176514998078,631.6176514998078,631.6176514998078,631.6176514998078,48,76,58,44,76,60,631.6176514998078,633.317841099808,,,,,,,,,,,001,f,23,2023-05-13_12h06.36.688,RL,2022.2.5,60.057462942665616,
60,57,43,66,0,101,101,101,,,,,,,,None,633.317841099808,633.317841099808,633.317841099808,633.317841099808,633.317841099808,633.317841099808,r,0.6135124999564141,633.9574540997855,633.9574540997855,633.9574540997855,633.9574540997855,633.9574540997855,633.9574540997855,634.250436199829,635.5167152998038,635.5167152998038,635.5167152998038,635.5167152998038,635.5167152998038,635.5167152998038,635.5167152998038,635.5167152998038,635.5167152998038,635.5167152998038,635.5167152998038,635.5167152998038,635.5167152998038,635.5167152998038,637.0836816998199,637.0836816998199,637.0836816998199,637.0836816998199,637.0836816998199,637.0836816998199,637.0836816998199,43,66,60,57,66,60,637.0836816998199,638.732505899854,,,,,,,,,,,001,f,23,2023-05-13_12h06.36.688,RL,2022.2.5,60.057462942665616,
61,52,44,61,0,102,102,102,,,,,,,,None,638.732505899854,638.732505899854,638.732505899854,638.732505899854,638.732505899854,638.732505899854,r,0.45480230008251965,639.2306862999685,639.2306862999685,639.2306862999685,639.2306862999685,639.2306862999685,639.2306862999685,639.5158717997838,641.0328522999771,641.0505936997943,641.0505936997943,641.0505936997943,641.0505936997943,641.0505936997943,641.0505936997943,641.0505936997943,641.0505936997943,641.0505936997943,641.0505936997943,641.0505936997943,641.0505936997943,641.0505936997943,642.8655075998977,642.8655075998977,642.8655075998977,642.8655075998977,642.8655075998977,642.8655075998977,642.8655075998977,44,61,61,52,61,60,642.8655075998977,644.4984139997978,,,,,,,,,,,001,f,23,2023-05-13_12h06.36.688,RL,2022.2.5,60.057462942665616,
61,57,61,68,0,103,103,103,,,,,,,,None,644.4984139997978,644.4984139997978,644.4984139997978,644.4984139997978,644.4984139997978,644.4984139997978,f,1.0801822000648826,645.6132324999198,645.6132324999198,645.6132324999198,645.6132324999198,645.6132324999198,645.6132324999198,645.8975276998244,647.7488427998032,647.7667851999868,647.7667851999868,647.7667851999868,647.7667851999868,647.7667851999868,647.7667851999868,647.7667851999868,647.7667851999868,647.7667851999868,647.7667851999868,647.7667851999868,647.7667851999868,647.7667851999868,649.9152234999929,649.9152234999929,649.9152234999929,649.9152234999929,649.9152234999929,649.9152234999929,649.9152234999929,61,68,61,57,61,60,649.9152234999929,651.5303155998699,,,,,,,,,,,001,f,23,2023-05-13_12h06.36.688,RL,2022.2.5,60.057462942665616,
55,60,55,62,0,104,104,104,,,,,,,,None,651.5303155998699,651.5303155998699,651.5303155998699,651.5303155998699,651.5303155998699,651.5303155998699,f,0.3325006999075413,651.8856273998972,651.8856273998972,651.8856273998972,651.8856273998972,651.8856273998972,651.8856273998972,652.1804986000061,653.6470193997957,653.6470193997957,653.6470193997957,653.6470193997957,653.6470193997957,653.6470193997957,653.6470193997957,653.6470193997957,653.6470193997957,653.6470193997957,653.6470193997957,653.6470193997957,653.6470193997957,653.6470193997957,655.4139396999963,655.4139396999963,655.4139396999963,655.4139396999963,655.4139396999963,655.4139396999963,655.4139396999963,55,62,55,60,55,60,655.4139396999963,657.296301699942,,,,,,,,,,,001,f,23,2023-05-13_12h06.36.688,RL,2022.2.5,60.057462942665616,
49,62,46,66,0,105,105,105,,,,,,,,None,657.296301699942,657.296301699942,657.296301699942,657.296301699942,657.296301699942,657.296301699942,i,0.3521292000077665,657.6833567998838,657.6833567998838,657.6833567998838,657.6833567998838,657.6833567998838,657.6833567998838,657.9636060998309,658.9961702998262,659.0124061999377,659.0124061999377,659.0124061999377,659.0124061999377,659.0124061999377,659.0124061999377,659.0124061999377,659.0124061999377,659.0124061999377,659.0124061999377,659.0124061999377,659.0124061999377,659.0124061999377,660.3448173999786,660.3448173999786,660.3448173999786,660.3448173999786,660.3448173999786,660.3448173999786,660.3448173999786,46,66,49,62,49,60,660.3448173999786,662.1461724999826,,,,,,,,,,,001,f,23,2023-05-13_12h06.36.688,RL,2022.2.5,60.057462942665616,
53,52,51,66,0,106,106,106,,,,,,,,None,662.1461724999826,662.1461724999826,662.1461724999826,662.1461724999826,662.1461724999826,662.1461724999826,r,0.4056243000086397,662.5833643998485,662.5833643998485,662.5833643998485,662.5833643998485,662.5833643998485,662.5833643998485,662.8780939998105,663.9803943999577,663.9803943999577,663.9803943999577,663.9803943999577,663.9803943999577,663.9803943999577,663.9803943999577,663.9803943999577,663.9803943999577,663.9803943999577,663.9803943999577,663.9803943999577,663.9803943999577,663.9803943999577,665.3780062999576,665.3780062999576,665.3780062999576,665.3780062999576,665.3780062999576,665.3780062999576,665.3780062999576,51,66,53,52,66,60,665.3780062999576,667.0614717998542,,,,,,,,,,,001,f,23,2023-05-13_12h06.36.688,RL,2022.2.5,60.057462942665616,
60,54,61,63,0,107,107,107,,,,,,,,None,667.0614717998542,667.0614717998542,667.0614717998542,667.0614717998542,667.0614717998542,667.0614717998542,r,0.33300379989668727,667.4150495999493,667.4150495999493,667.4150495999493,667.4150495999493,667.4150495999493,667.4150495999493,667.7112046999391,668.9128371998668,668.9128371998668,668.9128371998668,668.9128371998668,668.9128371998668,668.9128371998668,668.9128371998668,668.9128371998668,668.9128371998668,668.9128371998668,668.9128371998668,668.9128371998668,668.9128371998668,668.9128371998668,670.411339199869,670.411339199869,670.411339199869,670.411339199869,670.411339199869,670.411339199869,670.411339199869,61,63,60,54,63,60,670.411339199869,672.3437922999728,,,,,,,,,,,001,f,23,2023-05-13_12h06.36.688,RL,2022.2.5,60.057462942665616,
59,56,52,59,0,108,108,108,,,,,,,,None,672.3437922999728,672.3437922999728,672.3437922999728,672.3437922999728,672.3437922999728,672.3437922999728,r,0.3763782000169158,672.7479832000099,672.7479832000099,672.7479832000099,672.7479832000099,672.7479832000099,672.7479832000099,673.027462599799,674.8928902999032,674.9097948998678,674.9097948998678,674.9097948998678,674.9097948998678,674.9097948998678,674.9097948998678,674.9097948998678,674.9097948998678,674.9097948998678,674.9097948998678,674.9097948998678,674.9097948998678,674.9097948998678,677.0770703000017,677.0770703000017,677.0770703000017,677.0770703000017,677.0770703000017,677.0770703000017,677.0770703000017,52,59,59,56,59,60,677.0770703000017,678.6758951998781,,,,,,,,,,,001,f,23,2023-05-13_12h06.36.688,RL,2022.2.5,60.057462942665616,
61,66,57,54,0,109,109,109,,,,,,,,None,678.6758951998781,678.6758951998781,678.6758951998781,678.6758951998781,678.6758951998781,678.6758951998781,f,0.41708009992726147,679.1292959998827,679.1292959998827,679.1292959998827,679.1292959998827,679.1292959998827,679.1292959998827,679.4095081000123,681.1589881998952,681.1757906998973,681.1757906998973,681.1757906998973,681.1757906998973,681.1757906998973,681.1757906998973,681.1757906998973,681.1757906998973,681.1757906998973,681.1757906998973,681.1757906998973,681.1757906998973,681.1757906998973,683.225378499832,683.225378499832,683.225378499832,683.225378499832,683.225378499832,683.225378499832,683.225378499832,57,54,61,66,57,60,683.225378499832,684.8915808999445,,,,,,,,,,,001,f,23,2023-05-13_12h06.36.688,RL,2022.2.5,60.057462942665616,
59,57,60,52,0,110,110,110,,,,,,,,None,684.8915808999445,684.8915808999445,684.8915808999445,684.8915808999445,684.8915808999445,684.8915808999445,j,0.3714346999768168,685.3007441998925,685.3007441998925,685.3007441998925,685.3007441998925,685.3007441998925,685.3007441998925,685.5917269999627,687.524730999954,687.5414748999756,687.5414748999756,687.5414748999756,687.5414748999756,687.5414748999756,687.5414748999756,687.5414748999756,687.5414748999756,687.5414748999756,687.5414748999756,687.5414748999756,687.5414748999756,687.5414748999756,689.7744419998489,689.7744419998489,689.7744419998489,689.7744419998489,689.7744419998489,689.7744419998489,689.7744419998489,60,52,59,57,57,60,689.7744419998489,691.4906012997963,,,,,,,,,,,001,f,23,2023-05-13_12h06.36.688,RL,2022.2.5,60.057462942665616,
60,58,68,54,0,111,111,111,,,,,,,,None,691.4906012997963,691.4906012997963,691.4906012997963,691.4906012997963,691.4906012997963,691.4906012997963,r,0.5040814999956638,692.0283878999762,692.0283878999762,692.0283878999762,692.0283878999762,692.0283878999762,692.0283878999762,692.3242781998124,693.4576669000089,693.4748048998881,693.4748048998881,693.4748048998881,693.4748048998881,693.4748048998881,693.4748048998881,693.4748048998881,693.4748048998881,693.4748048998881,693.4748048998881,693.4748048998881,693.4748048998881,693.4748048998881,694.9059558999725,694.9059558999725,694.9059558999725,694.9059558999725,694.9059558999725,694.9059558999725,694.9059558999725,68,54,60,58,54,60,694.9059558999725,696.7397636999376,,,,,,,,,,,001,f,23,2023-05-13_12h06.36.688,RL,2022.2.5,60.057462942665616,
57,62,64,51,0,112,112,112,,,,,,,,None,696.7397636999376,696.7397636999376,696.7397636999376,696.7397636999376,696.7397636999376,696.7397636999376,f,0.38179440004751086,697.1536116998177,697.1536116998177,697.1536116998177,697.1536116998177,697.1536116998177,697.1536116998177,697.4390153998975,699.2390721999109,699.2552983998321,699.2552983998321,699.2552983998321,699.2552983998321,699.2552983998321,699.2552983998321,699.2552983998321,699.2552983998321,699.2552983998321,699.2552983998321,699.2552983998321,699.2552983998321,699.2552983998321,701.3551801999565,701.3551801999565,701.3551801999565,701.3551801999565,701.3551801999565,701.3551801999565,701.3551801999565,64,51,57,62,64,60,701.3551801999565,703.2890558999497,,,,,,,,,,,001,f,23,2023-05-13_12h06.36.688,RL,2022.2.5,60.057462942665616,
64,66,65,42,0,113,113,113,,,,,,,,None,703.2890558999497,703.2890558999497,703.2890558999497,703.2890558999497,703.2890558999497,703.2890558999497,f,0.38184809987433255,703.6919448999688,703.6919448999688,703.6919448999688,703.6919448999688,703.6919448999688,703.6919448999688,703.9722431998234,705.52132109995,705.5371902999468,705.5371902999468,705.5371902999468,705.5371902999468,705.5371902999468,705.5371902999468,705.5371902999468,705.5371902999468,705.5371902999468,705.5371902999468,705.5371902999468,705.5371902999468,705.5371902999468,707.3874803998042,707.3874803998042,707.3874803998042,707.3874803998042,707.3874803998042,707.3874803998042,707.3874803998042,65,42,64,66,65,60,707.3874803998042,709.0866296999156,,,,,,,,,,,001,f,23,2023-05-13_12h06.36.688,RL,2022.2.5,60.057462942665616,
57,57,64,44,0,114,114,114,,,,,,,,None,709.0866296999156,709.0866296999156,709.0866296999156,709.0866296999156,709.0866296999156,709.0866296999156,f,0.35643510008230805,709.4736426998861,709.4736426998861,709.4736426998861,709.4736426998861,709.4736426998861,709.4736426998861,709.7546539998148,710.9033122998662,710.9200933999382,710.9200933999382,710.9200933999382,710.9200933999382,710.9200933999382,710.9200933999382,710.9200933999382,710.9200933999382,710.9200933999382,710.9200933999382,710.9200933999382,710.9200933999382,710.9200933999382,712.3708338998258,712.3708338998258,712.3708338998258,712.3708338998258,712.3708338998258,712.3708338998258,712.3708338998258,64,44,57,57,64,60,712.3708338998258,714.1196788998786,,,,,,,,,,,001,f,23,2023-05-13_12h06.36.688,RL,2022.2.5,60.057462942665616,
60,61,65,42,0,115,115,115,,,,,,,,None,714.1196788998786,714.1196788998786,714.1196788998786,714.1196788998786,714.1196788998786,714.1196788998786,f,0.5635254001244903,714.7115390999243,714.7115390999243,714.7115390999243,714.7115390999243,714.7115390999243,714.7115390999243,715.0034367998596,715.9521434998605,715.9521434998605,715.9521434998605,715.9521434998605,715.9521434998605,715.9521434998605,715.9521434998605,715.9521434998605,715.9521434998605,715.9521434998605,715.9521434998605,715.9521434998605,715.9521434998605,715.9521434998605,717.1866241998505,717.1866241998505,717.1866241998505,717.1866241998505,717.1866241998505,717.1866241998505,717.1866241998505,65,42,60,61,65,60,717.1866241998505,718.8196262000129,,,,,,,,,,,001,f,23,2023-05-13_12h06.36.688,RL,2022.2.5,60.057462942665616,
65,70,67,52,0,116,116,116,,,,,,,,None,718.8196262000129,718.8196262000129,718.8196262000129,718.8196262000129,718.8196262000129,718.8196262000129,f,0.43711899989284575,719.2896797999274,719.2896797999274,719.2896797999274,719.2896797999274,719.2896797999274,719.2896797999274,719.5697535998188,721.3526212999132,721.3701734999195,721.3701734999195,721.3701734999195,721.3701734999195,721.3701734999195,721.3701734999195,721.3701734999195,721.3701734999195,721.3701734999195,721.3701734999195,721.3701734999195,721.3701734999195,721.3701734999195,723.4522433998063,723.4522433998063,723.4522433998063,723.4522433998063,723.4522433998063,723.4522433998063,723.4522433998063,67,52,65,70,67,60,723.4522433998063,724.9848252998199,,,,,,,,,,,001,f,23,2023-05-13_12h06.36.688,RL,2022.2.5,60.057462942665616,
59,61,70,42,0,117,117,117,,,,,,,,None,724.9848252998199,724.9848252998199,724.9848252998199,724.9848252998199,724.9848252998199,724.9848252998199,f,0.4383327001705766,725.4571532998234,725.4571532998234,725.4571532998234,725.4571532998234,725.4571532998234,725.4571532998234,725.7514627999626,727.6183333999943,727.6364750999492,727.6364750999492,727.6364750999492,727.6364750999492,727.6364750999492,727.6364750999492,727.6364750999492,727.6364750999492,727.6364750999492,727.6364750999492,727.6364750999492,727.6364750999492,727.6364750999492,729.8175303000025,729.8175303000025,729.8175303000025,729.8175303000025,729.8175303000025,729.8175303000025,729.8175303000025,70,42,59,61,70,60,729.8175303000025,731.4674327999819,,,,,,,,,,,001,f,23,2023-05-13_12h06.36.688,RL,2022.2.5,60.057462942665616,
55,57,65,44,0,118,118,118,,,,,,,,None,731.4674327999819,731.4674327999819,731.4674327999819,731.4674327999819,731.4674327999819,731.4674327999819,f,0.4080997998826206,731.9146777999122,731.9146777999122,731.9146777999122,731.9146777999122,731.9146777999122,731.9146777999122,732.2007286997978,733.3517795999069,733.3517795999069,733.3517795999069,733.3517795999069,733.3517795999069,733.3517795999069,733.3517795999069,733.3517795999069,733.3517795999069,733.3517795999069,733.3517795999069,733.3517795999069,733.3517795999069,733.3517795999069,734.7997397999279,734.7997397999279,734.7997397999279,734.7997397999279,734.7997397999279,734.7997397999279,734.7997397999279,65,44,55,57,65,60,734.7997397999279,736.3157287999056,,,,,,,,,,,001,f,23,2023-05-13_12h06.36.688,RL,2022.2.5,60.057462942665616,
62,60,60,42,0,119,119,119,,,,,,,,None,736.3157287999056,736.3157287999056,736.3157287999056,736.3157287999056,736.3157287999056,736.3157287999056,f,0.47513419995084405,736.8184654999059,736.8184654999059,736.8184654999059,736.8184654999059,736.8184654999059,736.8184654999059,737.0999806998298,738.2998887998983,738.3181098999921,738.3181098999921,738.3181098999921,738.3181098999921,738.3181098999921,738.3181098999921,738.3181098999921,738.3181098999921,738.3181098999921,738.3181098999921,738.3181098999921,738.3181098999921,738.3181098999921,739.8145162998699,739.8145162998699,739.8145162998699,739.8145162998699,739.8145162998699,739.8145162998699,739.8145162998699,60,42,62,60,60,60,739.8145162998699,741.5321824999992,,,,,,,,,,,001,f,23,2023-05-13_12h06.36.688,RL,2022.2.5,60.057462942665616,
66,72,69,58,0,120,120,120,,,,,,,,None,741.5321824999992,741.5321824999992,741.5321824999992,741.5321824999992,741.5321824999992,741.5321824999992,r,0.662026499863714,742.2218022998422,742.2218022998422,742.2218022998422,742.2218022998422,742.2218022998422,742.2218022998422,742.5149716997985,743.3809322998859,743.3971541000064,743.3971541000064,743.3971541000064,743.3971541000064,743.3971541000064,743.3971541000064,743.3971541000064,743.3971541000064,743.3971541000064,743.3971541000064,743.3971541000064,743.3971541000064,743.3971541000064,744.5654668998905,744.5654668998905,744.5654668998905,744.5654668998905,744.5654668998905,744.5654668998905,744.5654668998905,69,58,66,72,58,60,744.5654668998905,746.2310422998853,,,,,,,,,,,001,f,23,2023-05-13_12h06.36.688,RL,2022.2.5,60.057462942665616,
72,70,58,63,0,121,121,121,,,,,,,,None,746.2310422998853,746.2310422998853,746.2310422998853,746.2310422998853,746.2310422998853,746.2310422998853,i,0.48742549982853234,746.7610919999424,746.7610919999424,746.7610919999424,746.7610919999424,746.7610919999424,746.7610919999424,747.0467575998046,748.8302390999161,748.8464108000044,748.8464108000044,748.8464108000044,748.8464108000044,748.8464108000044,748.8464108000044,748.8464108000044,748.8464108000044,748.8464108000044,748.8464108000044,748.8464108000044,748.8464108000044,748.8464108000044,750.9297735998407,750.9297735998407,750.9297735998407,750.9297735998407,750.9297735998407,750.9297735998407,750.9297735998407,58,63,72,70,72,60,750.9297735998407,752.6796273000073,,,,,,,,,,,001,f,23,2023-05-13_12h06.36.688,RL,2022.2.5,60.057462942665616,
