arm1,arm2,arm3,arm4,trials.thisRepN,trials.thisTrialN,trials.thisN,trials.thisIndex,instru_img1.started,instru_resp.started,instru_resp.keys,instru_resp.rt,image_2.started,text_2.started,image_2.stopped,text_2.stopped,fixbefore_2.started,fixbefore_2.stopped,rest_response.keys,red.started,green.started,yellow.started,blue.started,choose_bandit.started,Fixation.started,choose_bandit.keys,choose_bandit.rt,black.started,red_2.started,green_2.started,yellow_2.started,blue_2.started,fixation_2.started,docs.started,docs.stopped,black.stopped,red_2.stopped,green_2.stopped,yellow_2.stopped,blue_2.stopped,fixation_2.stopped,black_com.started,reward_sub.started,reward__sub.started,red_compare.started,green_com.started,yellow_com.started,blue_com.started,black_com.stopped,reward_sub.stopped,reward__sub.stopped,red_compare.stopped,green_com.stopped,yellow_com.stopped,blue_com.stopped,rewardred,rewardyellow,rewardblue,rewardgreen,subchoose,expectation,intertrialfix.started,intertrialfix.stopped,rest_image.started,rest_response.started,rest_response.rt,image_expect_after.started,text_exp_after.started,image_expect_after.stopped,text_exp_after.stopped,image.started,key_resp.started,key_resp.keys,participant,Gender,Age,date,expName,psychopyVersion,frameRate,
,,,,,,,,27.192303000018,27.192303000018,space,2.112712500151247,,,,,,,,,,,,,,,,,,,,,,,,,,,,,,,,,,,,,,,,,,,,,,,,,,,,,,,,,,,,,,002,f,19,2023-05-13_12h47.12.006,RL,2022.2.5,60.17089740924251,
45,42,50,53,0,0,0,0,,,,,29.326624599983916,29.326624599983916,34.326058899983764,34.326058899983764,34.326058899983764,35.328577699838206,None,35.328577699838206,35.328577699838206,35.328577699838206,35.328577699838206,35.328577699838206,35.328577699838206,r,0.4570311000570655,35.811133599840105,35.811133599840105,35.811133599840105,35.811133599840105,35.811133599840105,35.811133599840105,36.09445500001311,37.51014199992642,37.52804759982973,37.52804759982973,37.52804759982973,37.52804759982973,37.52804759982973,37.52804759982973,37.52804759982973,37.52804759982973,37.52804759982973,37.52804759982973,37.52804759982973,37.52804759982973,37.52804759982973,39.289650100050494,39.289650100050494,39.289650100050494,39.289650100050494,39.289650100050494,39.289650100050494,39.289650100050494,45,53,42,50,53,70,39.289650100050494,40.9264044999145,,,,,,,,,,,002,f,19,2023-05-13_12h47.12.006,RL,2022.2.5,60.17089740924251,
32,43,50,58,0,1,1,1,,,,,,,,,,,None,40.9264044999145,40.9264044999145,40.9264044999145,40.9264044999145,40.9264044999145,40.9264044999145,r,0.3942227999214083,41.343609099974856,41.343609099974856,41.343609099974856,41.343609099974856,41.343609099974856,41.343609099974856,41.626462099840865,43.24285999988206,43.259183699963614,43.259183699963614,43.259183699963614,43.259183699963614,43.259183699963614,43.259183699963614,43.259183699963614,43.259183699963614,43.259183699963614,43.259183699963614,43.259183699963614,43.259183699963614,43.259183699963614,45.17408180003986,45.17408180003986,45.17408180003986,45.17408180003986,45.17408180003986,45.17408180003986,45.17408180003986,32,58,43,50,58,70,45.17408180003986,46.95838760002516,,,,,,,,,,,002,f,19,2023-05-13_12h47.12.006,RL,2022.2.5,60.17089740924251,
43,50,57,55,0,2,2,2,,,,,,,,,,,None,46.95838760002516,46.95838760002516,46.95838760002516,46.95838760002516,46.95838760002516,46.95838760002516,r,0.288535000057891,47.275766500039026,47.275766500039026,47.275766500039026,47.275766500039026,47.275766500039026,47.275766500039026,47.55883660004474,49.54193349997513,49.55858960002661,49.55858960002661,49.55858960002661,49.55858960002661,49.55858960002661,49.55858960002661,49.55858960002661,49.55858960002661,49.55858960002661,49.55858960002661,49.55858960002661,49.55858960002661,49.55858960002661,51.83975259982981,51.83975259982981,51.83975259982981,51.83975259982981,51.83975259982981,51.83975259982981,51.83975259982981,43,55,50,57,55,70,51.83975259982981,53.707258000038564,,,,,,,,,,,002,f,19,2023-05-13_12h47.12.006,RL,2022.2.5,60.17089740924251,
42,44,52,56,0,3,3,3,,,,,,,,,,,None,53.707258000038564,53.707258000038564,53.707258000038564,53.707258000038564,53.707258000038564,53.707258000038564,r,0.5368765001185238,54.27455669990741,54.27455669990741,54.27455669990741,54.27455669990741,54.27455669990741,54.27455669990741,54.557709199842066,56.37379690003581,56.390362199861556,56.390362199861556,56.390362199861556,56.390362199861556,56.390362199861556,56.390362199861556,56.390362199861556,56.390362199861556,56.390362199861556,56.390362199861556,56.390362199861556,56.390362199861556,56.390362199861556,58.50508080003783,58.50508080003783,58.50508080003783,58.50508080003783,58.50508080003783,58.50508080003783,58.50508080003783,42,56,44,52,56,70,58.50508080003783,60.33956669992767,,,,,,,,,,,002,f,19,2023-05-13_12h47.12.006,RL,2022.2.5,60.17089740924251,
49,38,49,67,0,4,4,4,,,,,,,,,,,None,60.33956669992767,60.33956669992767,60.33956669992767,60.33956669992767,60.33956669992767,60.33956669992767,r,0.7363466999959201,61.10839019995183,61.10839019995183,61.10839019995183,61.10839019995183,61.10839019995183,61.10839019995183,61.3898813999258,62.37311379984021,62.4059715999756,62.4059715999756,62.4059715999756,62.4059715999756,62.4059715999756,62.4059715999756,62.4059715999756,62.4059715999756,62.4059715999756,62.4059715999756,62.4059715999756,62.4059715999756,62.4059715999756,63.687850599875674,63.687850599875674,63.687850599875674,63.687850599875674,63.687850599875674,63.687850599875674,63.687850599875674,49,67,38,49,67,70,63.687850599875674,65.48852250003256,,,,,,,,,,,002,f,19,2023-05-13_12h47.12.006,RL,2022.2.5,60.17089740924251,
44,40,59,51,0,5,5,5,,,,,,,,,,,None,65.48852250003256,65.48852250003256,65.48852250003256,65.48852250003256,65.48852250003256,65.48852250003256,f,0.5325911999680102,66.04022039985284,66.04022039985284,66.04022039985284,66.04022039985284,66.04022039985284,66.04022039985284,66.3228545000311,67.38875869987532,67.4216777998954,67.4216777998954,67.4216777998954,67.4216777998954,67.4216777998954,67.4216777998954,67.4216777998954,67.4216777998954,67.4216777998954,67.4216777998954,67.4216777998954,67.4216777998954,67.4216777998954,68.78691080003045,68.78691080003045,68.78691080003045,68.78691080003045,68.78691080003045,68.78691080003045,68.78691080003045,44,51,40,59,44,70,68.78691080003045,70.43784809997305,,,,,,,,,,,002,f,19,2023-05-13_12h47.12.006,RL,2022.2.5,60.17089740924251,
53,40,54,56,0,6,6,6,,,,,,,,,,,None,70.43784809997305,70.43784809997305,70.43784809997305,70.43784809997305,70.43784809997305,70.43784809997305,f,0.4236246000509709,70.88829829986207,70.88829829986207,70.88829829986207,70.88829829986207,70.88829829986207,70.88829829986207,71.17149730003439,72.13793569989502,72.15427029994316,72.15427029994316,72.15427029994316,72.15427029994316,72.15427029994316,72.15427029994316,72.15427029994316,72.15427029994316,72.15427029994316,72.15427029994316,72.15427029994316,72.15427029994316,72.15427029994316,73.419251000043,73.419251000043,73.419251000043,73.419251000043,73.419251000043,73.419251000043,73.419251000043,53,56,40,54,53,70,73.419251000043,75.15367259993218,,,,,,,,,,,002,f,19,2023-05-13_12h47.12.006,RL,2022.2.5,60.17089740924251,
58,40,47,59,0,7,7,7,,,,,,,,,,,None,75.15367259993218,75.15367259993218,75.15367259993218,75.15367259993218,75.15367259993218,75.15367259993218,f,0.2883317999076098,75.47091619996354,75.47091619996354,75.47091619996354,75.47091619996354,75.47091619996354,75.47091619996354,75.77031919988804,76.65349199995399,76.65349199995399,76.65349199995399,76.65349199995399,76.65349199995399,76.65349199995399,76.65349199995399,76.65349199995399,76.65349199995399,76.65349199995399,76.65349199995399,76.65349199995399,76.65349199995399,76.65349199995399,77.83590810000896,77.83590810000896,77.83590810000896,77.83590810000896,77.83590810000896,77.83590810000896,77.83590810000896,58,59,40,47,58,70,77.83590810000896,79.58642589999363,,,,,,,,,,,002,f,19,2023-05-13_12h47.12.006,RL,2022.2.5,60.17089740924251,
58,37,56,51,0,8,8,8,,,,,,,,,,,None,79.58642589999363,79.58642589999363,79.58642589999363,79.58642589999363,79.58642589999363,79.58642589999363,f,0.307526099961251,79.9200603000354,79.9200603000354,79.9200603000354,79.9200603000354,79.9200603000354,79.9200603000354,80.2029029999394,81.6861809999682,81.7029870999977,81.7029870999977,81.7029870999977,81.7029870999977,81.7029870999977,81.7029870999977,81.7029870999977,81.7029870999977,81.7029870999977,81.7029870999977,81.7029870999977,81.7029870999977,81.7029870999977,83.48421929986216,83.48421929986216,83.48421929986216,83.48421929986216,83.48421929986216,83.48421929986216,83.48421929986216,58,51,37,56,58,70,83.48421929986216,85.26875009993091,,,,,,,,,,,002,f,19,2023-05-13_12h47.12.006,RL,2022.2.5,60.17089740924251,
52,42,56,61,0,9,9,9,,,,,,,,,,,None,85.26875009993091,85.26875009993091,85.26875009993091,85.26875009993091,85.26875009993091,85.26875009993091,f,0.25830490002408624,85.55231579998508,85.55231579998508,85.55231579998508,85.55231579998508,85.55231579998508,85.55231579998508,85.83585549984127,87.80170909990557,87.81820299988613,87.81820299988613,87.81820299988613,87.81820299988613,87.81820299988613,87.81820299988613,87.81820299988613,87.81820299988613,87.81820299988613,87.81820299988613,87.81820299988613,87.81820299988613,87.81820299988613,90.0830140998587,90.0830140998587,90.0830140998587,90.0830140998587,90.0830140998587,90.0830140998587,90.0830140998587,52,61,42,56,52,70,90.0830140998587,91.86738299997523,,,,,,,,,,,002,f,19,2023-05-13_12h47.12.006,RL,2022.2.5,60.17089740924251,
56,42,59,50,0,10,10,10,,,,,,,,,,,None,91.86738299997523,91.86738299997523,91.86738299997523,91.86738299997523,91.86738299997523,91.86738299997523,i,0.31682990002445877,92.20154959987849,92.20154959987849,92.20154959987849,92.20154959987849,92.20154959987849,92.20154959987849,92.5012093000114,93.90103179984726,93.90103179984726,93.90103179984726,93.90103179984726,93.90103179984726,93.90103179984726,93.90103179984726,93.90103179984726,93.90103179984726,93.90103179984726,93.90103179984726,93.90103179984726,93.90103179984726,93.90103179984726,95.5984485000372,95.5984485000372,95.5984485000372,95.5984485000372,95.5984485000372,95.5984485000372,95.5984485000372,56,50,42,59,42,70,95.5984485000372,97.216918699909,,,,,,,,,,,002,f,19,2023-05-13_12h47.12.006,RL,2022.2.5,60.17089740924251,
52,42,58,54,0,11,11,11,,,,,,,,,,,None,97.216918699909,97.216918699909,97.216918699909,97.216918699909,97.216918699909,97.216918699909,i,0.27670729998499155,97.51756059983745,97.51756059983745,97.51756059983745,97.51756059983745,97.51756059983745,97.51756059983745,97.80063249985687,99.54992799996398,99.5663339998573,99.5663339998573,99.5663339998573,99.5663339998573,99.5663339998573,99.5663339998573,99.5663339998573,99.5663339998573,99.5663339998573,99.5663339998573,99.5663339998573,99.5663339998573,99.5663339998573,101.61439699982293,101.61439699982293,101.61439699982293,101.61439699982293,101.61439699982293,101.61439699982293,101.61439699982293,52,54,42,58,42,70,101.61439699982293,103.29917369992472,,,,,,,,,,,002,f,19,2023-05-13_12h47.12.006,RL,2022.2.5,60.17089740924251,
59,40,70,50,0,12,12,12,,,,,,,,,,,None,103.29917369992472,103.29917369992472,103.29917369992472,103.29917369992472,103.29917369992472,103.29917369992472,i,0.42174519994296134,103.74917660001665,103.74917660001665,103.74917660001665,103.74917660001665,103.74917660001665,103.74917660001665,104.04902649996802,105.08193519990891,105.08193519990891,105.08193519990891,105.08193519990891,105.08193519990891,105.08193519990891,105.08193519990891,105.08193519990891,105.08193519990891,105.08193519990891,105.08193519990891,105.08193519990891,105.08193519990891,105.08193519990891,106.41355099994689,106.41355099994689,106.41355099994689,106.41355099994689,106.41355099994689,106.41355099994689,106.41355099994689,59,50,40,70,40,70,106.41355099994689,108.41489619994536,,,,,,,,,,,002,f,19,2023-05-13_12h47.12.006,RL,2022.2.5,60.17089740924251,
54,44,75,44,0,13,13,13,,,,,,,,,,,None,108.41489619994536,108.41489619994536,108.41489619994536,108.41489619994536,108.41489619994536,108.41489619994536,i,0.3117511000018567,108.749599999981,108.749599999981,108.749599999981,108.749599999981,108.749599999981,108.749599999981,109.04800249985419,111.01487939991057,111.01487939991057,111.01487939991057,111.01487939991057,111.01487939991057,111.01487939991057,111.01487939991057,111.01487939991057,111.01487939991057,111.01487939991057,111.01487939991057,111.01487939991057,111.01487939991057,111.01487939991057,113.27889429987408,113.27889429987408,113.27889429987408,113.27889429987408,113.27889429987408,113.27889429987408,113.27889429987408,54,44,44,75,44,70,113.27889429987408,114.89688239991665,,,,,,,,,,,002,f,19,2023-05-13_12h47.12.006,RL,2022.2.5,60.17089740924251,
53,46,78,44,0,14,14,14,,,,,,,,,,,None,114.89688239991665,114.89688239991665,114.89688239991665,114.89688239991665,114.89688239991665,114.89688239991665,i,0.26938610011711717,115.19747879984789,115.19747879984789,115.19747879984789,115.19747879984789,115.19747879984789,115.19747879984789,115.48032239987515,116.51361499982886,116.53001939994283,116.53001939994283,116.53001939994283,116.53001939994283,116.53001939994283,116.53001939994283,116.53001939994283,116.53001939994283,116.53001939994283,116.53001939994283,116.53001939994283,116.53001939994283,116.53001939994283,117.86156370001845,117.86156370001845,117.86156370001845,117.86156370001845,117.86156370001845,117.86156370001845,117.86156370001845,53,44,46,78,46,70,117.86156370001845,119.47919510002248,,,,,,,,,,,002,f,19,2023-05-13_12h47.12.006,RL,2022.2.5,60.17089740924251,
50,41,78,45,0,15,15,15,,,,,,,,,,,None,119.47919510002248,119.47919510002248,119.47919510002248,119.47919510002248,119.47919510002248,119.47919510002248,j,0.28668460017070174,119.79766569985077,119.79766569985077,119.79766569985077,119.79766569985077,119.79766569985077,119.79766569985077,120.07958999997936,121.2959026999306,121.31273030000739,121.31273030000739,121.31273030000739,121.31273030000739,121.31273030000739,121.31273030000739,121.31273030000739,121.31273030000739,121.31273030000739,121.31273030000739,121.31273030000739,121.31273030000739,121.31273030000739,122.82742700004019,122.82742700004019,122.82742700004019,122.82742700004019,122.82742700004019,122.82742700004019,122.82742700004019,50,45,41,78,78,70,122.82742700004019,124.81151919998229,,,,,,,,,,,002,f,19,2023-05-13_12h47.12.006,RL,2022.2.5,60.17089740924251,
49,47,77,45,0,16,16,16,,,,,,,,,,,None,124.81151919998229,124.81151919998229,124.81151919998229,124.81151919998229,124.81151919998229,124.81151919998229,j,0.4329339999239892,125.26228459994309,125.26228459994309,125.26228459994309,125.26228459994309,125.26228459994309,125.26228459994309,125.54540729988366,126.82871679984964,126.84482909995131,126.84482909995131,126.84482909995131,126.84482909995131,126.84482909995131,126.84482909995131,126.84482909995131,126.84482909995131,126.84482909995131,126.84482909995131,126.84482909995131,126.84482909995131,126.84482909995131,128.4266653000377,128.4266653000377,128.4266653000377,128.4266653000377,128.4266653000377,128.4266653000377,128.4266653000377,49,45,47,77,77,70,128.4266653000377,130.11066789994948,,,,,,,,,,,002,f,19,2023-05-13_12h47.12.006,RL,2022.2.5,60.17089740924251,
45,52,68,47,0,17,17,17,,,,,,,,,,,None,130.11066789994948,130.11066789994948,130.11066789994948,130.11066789994948,130.11066789994948,130.11066789994948,j,0.2936994999181479,130.4279163000174,130.4279163000174,130.4279163000174,130.4279163000174,130.4279163000174,130.4279163000174,130.7111907999497,132.19442289997824,132.21067629987374,132.21067629987374,132.21067629987374,132.21067629987374,132.21067629987374,132.21067629987374,132.21067629987374,132.21067629987374,132.21067629987374,132.21067629987374,132.21067629987374,132.21067629987374,132.21067629987374,133.99222359992564,133.99222359992564,133.99222359992564,133.99222359992564,133.99222359992564,133.99222359992564,133.99222359992564,45,47,52,68,68,70,133.99222359992564,135.70986489998177,,,,,,,,,,,002,f,19,2023-05-13_12h47.12.006,RL,2022.2.5,60.17089740924251,
43,43,67,56,0,18,18,18,,,,,,,,,,,None,135.70986489998177,135.70986489998177,135.70986489998177,135.70986489998177,135.70986489998177,135.70986489998177,j,0.4118709000758827,136.1434973999858,136.1434973999858,136.1434973999858,136.1434973999858,136.1434973999858,136.1434973999858,136.4268867999781,137.29362179990858,137.3096826998517,137.3096826998517,137.3096826998517,137.3096826998517,137.3096826998517,137.3096826998517,137.3096826998517,137.3096826998517,137.3096826998517,137.3096826998517,137.3096826998517,137.3096826998517,137.3096826998517,138.4746936999727,138.4746936999727,138.4746936999727,138.4746936999727,138.4746936999727,138.4746936999727,138.4746936999727,43,56,43,67,67,70,138.4746936999727,140.27584549994208,,,,,,,,,,,002,f,19,2023-05-13_12h47.12.006,RL,2022.2.5,60.17089740924251,
40,48,68,50,0,19,19,19,,,,,,,,,,,None,140.27584549994208,140.27584549994208,140.27584549994208,140.27584549994208,140.27584549994208,140.27584549994208,j,0.2454157001338899,140.54264899995178,140.54264899995178,140.54264899995178,140.54264899995178,140.54264899995178,140.54264899995178,140.8260600999929,142.77560930000618,142.7920737999957,142.7920737999957,142.7920737999957,142.7920737999957,142.7920737999957,142.7920737999957,142.7920737999957,142.7920737999957,142.7920737999957,142.7920737999957,142.7920737999957,142.7920737999957,142.7920737999957,145.04017309984192,145.04017309984192,145.04017309984192,145.04017309984192,145.04017309984192,145.04017309984192,145.04017309984192,40,50,48,68,68,70,145.04017309984192,146.82483589998446,,,,,,,,,,,002,f,19,2023-05-13_12h47.12.006,RL,2022.2.5,60.17089740924251,
45,42,46,47,0,20,20,20,,,,,,,,,,,None,146.82483589998446,146.82483589998446,146.82483589998446,146.82483589998446,146.82483589998446,146.82483589998446,j,0.1838841000571847,147.04175519989803,147.04175519989803,147.04175519989803,147.04175519989803,147.04175519989803,147.04175519989803,147.32503049983643,148.3579832999967,148.37481880001724,148.37481880001724,148.37481880001724,148.37481880001724,148.37481880001724,148.37481880001724,148.37481880001724,148.37481880001724,148.37481880001724,148.37481880001724,148.37481880001724,148.37481880001724,148.37481880001724,149.7058557998389,149.7058557998389,149.7058557998389,149.7058557998389,149.7058557998389,149.7058557998389,149.7058557998389,45,47,42,46,46,70,149.7058557998389,151.52340059983544,,,,,,,,,,,002,f,19,2023-05-13_12h47.12.006,RL,2022.2.5,60.17089740924251,
34,44,54,42,0,21,21,21,,,,,,,,,,,None,151.52340059983544,151.52340059983544,151.52340059983544,151.52340059983544,151.52340059983544,151.52340059983544,j,0.2416077998932451,151.7907781000249,151.7907781000249,151.7907781000249,151.7907781000249,151.7907781000249,151.7907781000249,152.07391569996253,153.87355039990507,153.89006250002421,153.89006250002421,153.89006250002421,153.89006250002421,153.89006250002421,153.89006250002421,153.89006250002421,153.89006250002421,153.89006250002421,153.89006250002421,153.89006250002421,153.89006250002421,153.89006250002421,155.98820649995469,155.98820649995469,155.98820649995469,155.98820649995469,155.98820649995469,155.98820649995469,155.98820649995469,34,42,44,54,54,70,155.98820649995469,157.95588799985126,,,,,,,,,,,002,f,19,2023-05-13_12h47.12.006,RL,2022.2.5,60.17089740924251,
46,45,56,44,0,22,22,22,,,,,,,,,,,None,157.95588799985126,157.95588799985126,157.95588799985126,157.95588799985126,157.95588799985126,157.95588799985126,j,0.31198869994841516,158.28977119992487,158.28977119992487,158.28977119992487,158.28977119992487,158.28977119992487,158.28977119992487,158.573207099922,159.42292269994505,159.43908170005307,159.43908170005307,159.43908170005307,159.43908170005307,159.43908170005307,159.43908170005307,159.43908170005307,159.43908170005307,159.43908170005307,159.43908170005307,159.43908170005307,159.43908170005307,159.43908170005307,160.58794769993983,160.58794769993983,160.58794769993983,160.58794769993983,160.58794769993983,160.58794769993983,160.58794769993983,46,44,45,56,56,70,160.58794769993983,162.33821729989722,,,,,,,,,,,002,f,19,2023-05-13_12h47.12.006,RL,2022.2.5,60.17089740924251,
39,43,55,48,0,23,23,23,,,,,,,,,,,None,162.33821729989722,162.33821729989722,162.33821729989722,162.33821729989722,162.33821729989722,162.33821729989722,r,0.25106079992838204,162.62259319983423,162.62259319983423,162.62259319983423,162.62259319983423,162.62259319983423,162.62259319983423,162.90544989984483,163.87228609994054,163.8886950998567,163.8886950998567,163.8886950998567,163.8886950998567,163.8886950998567,163.8886950998567,163.8886950998567,163.8886950998567,163.8886950998567,163.8886950998567,163.8886950998567,163.8886950998567,163.8886950998567,165.15375229995698,165.15375229995698,165.15375229995698,165.15375229995698,165.15375229995698,165.15375229995698,165.15375229995698,39,48,43,55,48,70,165.15375229995698,166.70467390003614,,,,,,,,,,,002,f,19,2023-05-13_12h47.12.006,RL,2022.2.5,60.17089740924251,
46,53,52,41,0,24,24,24,,,,,,,,,,,None,166.70467390003614,166.70467390003614,166.70467390003614,166.70467390003614,166.70467390003614,166.70467390003614,r,0.23751879995688796,166.97305839997716,166.97305839997716,166.97305839997716,166.97305839997716,166.97305839997716,166.97305839997716,167.25468819984235,168.87115959986113,168.88751419982873,168.88751419982873,168.88751419982873,168.88751419982873,168.88751419982873,168.88751419982873,168.88751419982873,168.88751419982873,168.88751419982873,168.88751419982873,168.88751419982873,168.88751419982873,168.88751419982873,170.8021513998974,170.8021513998974,170.8021513998974,170.8021513998974,170.8021513998974,170.8021513998974,170.8021513998974,46,41,53,52,41,70,170.8021513998974,172.45324559998699,,,,,,,,,,,002,f,19,2023-05-13_12h47.12.006,RL,2022.2.5,60.17089740924251,
38,55,57,56,0,25,25,25,,,,,,,,,,,None,172.45324559998699,172.45324559998699,172.45324559998699,172.45324559998699,172.45324559998699,172.45324559998699,f,0.6610922000836581,173.1371380998753,173.1371380998753,173.1371380998753,173.1371380998753,173.1371380998753,173.1371380998753,173.4368582998868,174.9536782000214,174.9536782000214,174.9536782000214,174.9536782000214,174.9536782000214,174.9536782000214,174.9536782000214,174.9536782000214,174.9536782000214,174.9536782000214,174.9536782000214,174.9536782000214,174.9536782000214,174.9536782000214,176.76799109997228,176.76799109997228,176.76799109997228,176.76799109997228,176.76799109997228,176.76799109997228,176.76799109997228,38,56,55,57,38,70,176.76799109997228,178.6523126999382,,,,,,,,,,,002,f,19,2023-05-13_12h47.12.006,RL,2022.2.5,60.17089740924251,
35,58,55,55,0,26,26,26,,,,,,,,,,,None,178.6523126999382,178.6523126999382,178.6523126999382,178.6523126999382,178.6523126999382,178.6523126999382,f,0.2655358000192791,178.9364675998222,178.9364675998222,178.9364675998222,178.9364675998222,178.9364675998222,178.9364675998222,179.21937359985895,180.43559699994512,180.45219439989887,180.45219439989887,180.45219439989887,180.45219439989887,180.45219439989887,180.45219439989887,180.45219439989887,180.45219439989887,180.45219439989887,180.45219439989887,180.45219439989887,180.45219439989887,180.45219439989887,181.9674042998813,181.9674042998813,181.9674042998813,181.9674042998813,181.9674042998813,181.9674042998813,181.9674042998813,35,55,58,55,35,70,181.9674042998813,183.5681767000351,,,,,,,,,,,002,f,19,2023-05-13_12h47.12.006,RL,2022.2.5,60.17089740924251,
29,64,59,53,0,27,27,27,,,,,,,,,,,None,183.5681767000351,183.5681767000351,183.5681767000351,183.5681767000351,183.5681767000351,183.5681767000351,i,0.22309409989975393,183.8187492999714,183.8187492999714,183.8187492999714,183.8187492999714,183.8187492999714,183.8187492999714,184.10180509998463,185.83452189993113,185.85131529998034,185.85131529998034,185.85131529998034,185.85131529998034,185.85131529998034,185.85131529998034,185.85131529998034,185.85131529998034,185.85131529998034,185.85131529998034,185.85131529998034,185.85131529998034,185.85131529998034,187.88260459993035,187.88260459993035,187.88260459993035,187.88260459993035,187.88260459993035,187.88260459993035,187.88260459993035,29,53,64,59,64,70,187.88260459993035,189.58379149995744,,,,,,,,,,,002,f,19,2023-05-13_12h47.12.006,RL,2022.2.5,60.17089740924251,
38,51,60,68,0,28,28,28,,,,,,,,,,,None,189.58379149995744,189.58379149995744,189.58379149995744,189.58379149995744,189.58379149995744,189.58379149995744,i,0.2821277000475675,189.88409019983374,189.88409019983374,189.88409019983374,189.88409019983374,189.88409019983374,189.88409019983374,190.1674222999718,192.10062989988364,192.11706089996733,192.11706089996733,192.11706089996733,192.11706089996733,192.11706089996733,192.11706089996733,192.11706089996733,192.11706089996733,192.11706089996733,192.11706089996733,192.11706089996733,192.11706089996733,192.11706089996733,194.34828969999216,194.34828969999216,194.34828969999216,194.34828969999216,194.34828969999216,194.34828969999216,194.34828969999216,38,68,51,60,51,70,194.34828969999216,196.31595359998755,,,,,,,,,,,002,f,19,2023-05-13_12h47.12.006,RL,2022.2.5,60.17089740924251,
29,47,58,59,0,29,29,29,,,,,,,,,,,None,196.31595359998755,196.31595359998755,196.31595359998755,196.31595359998755,196.31595359998755,196.31595359998755,j,0.2549489000812173,196.59970359993167,196.59970359993167,196.59970359993167,196.59970359993167,196.59970359993167,196.59970359993167,196.8833278999664,198.23243979993276,198.24912239983678,198.24912239983678,198.24912239983678,198.24912239983678,198.24912239983678,198.24912239983678,198.24912239983678,198.24912239983678,198.24912239983678,198.24912239983678,198.24912239983678,198.24912239983678,198.24912239983678,199.89728709985502,199.89728709985502,199.89728709985502,199.89728709985502,199.89728709985502,199.89728709985502,199.89728709985502,29,59,47,58,58,70,199.89728709985502,201.44852870004252,,,,,,,,,,,002,f,19,2023-05-13_12h47.12.006,RL,2022.2.5,60.17089740924251,
28,58,69,55,0,30,30,30,,,,,,,,,,,None,201.44852870004252,201.44852870004252,201.44852870004252,201.44852870004252,201.44852870004252,201.44852870004252,i,0.2994868999812752,201.76544220000505,201.76544220000505,201.76544220000505,201.76544220000505,201.76544220000505,201.76544220000505,202.04845879995264,203.6315317999106,203.648613399826,203.648613399826,203.648613399826,203.648613399826,203.648613399826,203.648613399826,203.648613399826,203.648613399826,203.648613399826,203.648613399826,203.648613399826,203.648613399826,203.648613399826,205.52977170003578,205.52977170003578,205.52977170003578,205.52977170003578,205.52977170003578,205.52977170003578,205.52977170003578,28,55,58,69,58,70,205.52977170003578,207.53055240004323,,,,,,,,,,,002,f,19,2023-05-13_12h47.12.006,RL,2022.2.5,60.17089740924251,
40,56,58,53,0,31,31,31,,,,,,,,,,,None,207.53055240004323,207.53055240004323,207.53055240004323,207.53055240004323,207.53055240004323,207.53055240004323,r,0.7467482001520693,208.29770949995145,208.29770949995145,208.29770949995145,208.29770949995145,208.29770949995145,208.29770949995145,208.58101279987022,209.94749229983427,209.96389260003343,209.96389260003343,209.96389260003343,209.96389260003343,209.96389260003343,209.96389260003343,209.96389260003343,209.96389260003343,209.96389260003343,209.96389260003343,209.96389260003343,209.96389260003343,209.96389260003343,211.6284965998493,211.6284965998493,211.6284965998493,211.6284965998493,211.6284965998493,211.6284965998493,211.6284965998493,40,53,56,58,53,70,211.6284965998493,213.16305049997754,,,,,,,,,,,002,f,19,2023-05-13_12h47.12.006,RL,2022.2.5,60.17089740924251,
38,55,68,55,0,32,32,32,,,,,,,,,,,None,213.16305049997754,213.16305049997754,213.16305049997754,213.16305049997754,213.16305049997754,213.16305049997754,r,0.24581769993528724,213.4302035998553,213.4302035998553,213.4302035998553,213.4302035998553,213.4302035998553,213.4302035998553,213.713253099937,214.56310919998214,214.57971940003335,214.57971940003335,214.57971940003335,214.57971940003335,214.57971940003335,214.57971940003335,214.57971940003335,214.57971940003335,214.57971940003335,214.57971940003335,214.57971940003335,214.57971940003335,214.57971940003335,215.7279453999363,215.7279453999363,215.7279453999363,215.7279453999363,215.7279453999363,215.7279453999363,215.7279453999363,38,55,55,68,55,70,215.7279453999363,217.2955199999269,,,,,,,,,,,002,f,19,2023-05-13_12h47.12.006,RL,2022.2.5,60.17089740924251,
29,57,61,60,0,33,33,33,,,,,,,,,,,None,217.2955199999269,217.2955199999269,217.2955199999269,217.2955199999269,217.2955199999269,217.2955199999269,j,0.9248426998965442,218.245935899904,218.245935899904,218.245935899904,218.245935899904,218.245935899904,218.245935899904,218.52896689996123,220.11215519998223,220.12894569989294,220.12894569989294,220.12894569989294,220.12894569989294,220.12894569989294,220.12894569989294,220.12894569989294,220.12894569989294,220.12894569989294,220.12894569989294,220.12894569989294,220.12894569989294,220.12894569989294,222.0101824000012,222.0101824000012,222.0101824000012,222.0101824000012,222.0101824000012,222.0101824000012,222.0101824000012,29,60,57,61,61,70,222.0101824000012,223.72780879982747,,,,,,,,,,,002,f,19,2023-05-13_12h47.12.006,RL,2022.2.5,60.17089740924251,
40,57,72,68,0,34,34,34,,,,,,,,,,,None,223.72780879982747,223.72780879982747,223.72780879982747,223.72780879982747,223.72780879982747,223.72780879982747,j,0.34582009981386364,224.09587610000744,224.09587610000744,224.09587610000744,224.09587610000744,224.09587610000744,224.09587610000744,224.37802489986643,225.41176759987138,225.42804539995268,225.42804539995268,225.42804539995268,225.42804539995268,225.42804539995268,225.42804539995268,225.42804539995268,225.42804539995268,225.42804539995268,225.42804539995268,225.42804539995268,225.42804539995268,225.42804539995268,226.75958730001003,226.75958730001003,226.75958730001003,226.75958730001003,226.75958730001003,226.75958730001003,226.75958730001003,40,68,57,72,72,70,226.75958730001003,228.59353660000488,,,,,,,,,,,002,f,19,2023-05-13_12h47.12.006,RL,2022.2.5,60.17089740924251,
36,53,67,66,0,35,35,35,,,,,,,,,,,None,228.59353660000488,228.59353660000488,228.59353660000488,228.59353660000488,228.59353660000488,228.59353660000488,j,0.24331519985571504,228.8610706999898,228.8610706999898,228.8610706999898,228.8610706999898,228.8610706999898,228.8610706999898,229.14399579982273,230.5437342999503,230.56037189997733,230.56037189997733,230.56037189997733,230.56037189997733,230.56037189997733,230.56037189997733,230.56037189997733,230.56037189997733,230.56037189997733,230.56037189997733,230.56037189997733,230.56037189997733,230.56037189997733,232.2584613999352,232.2584613999352,232.2584613999352,232.2584613999352,232.2584613999352,232.2584613999352,232.2584613999352,36,66,53,67,67,70,232.2584613999352,234.04261439992115,,,,,,,,,,,002,f,19,2023-05-13_12h47.12.006,RL,2022.2.5,60.17089740924251,
35,43,58,71,0,36,36,36,,,,,,,,,,,None,234.04261439992115,234.04261439992115,234.04261439992115,234.04261439992115,234.04261439992115,234.04261439992115,j,0.27836459991522133,234.34324839990586,234.34324839990586,234.34324839990586,234.34324839990586,234.34324839990586,234.34324839990586,234.6261458999943,235.5099849998951,235.52603129995987,235.52603129995987,235.52603129995987,235.52603129995987,235.52603129995987,235.52603129995987,235.52603129995987,235.52603129995987,235.52603129995987,235.52603129995987,235.52603129995987,235.52603129995987,235.52603129995987,236.70752189983614,236.70752189983614,236.70752189983614,236.70752189983614,236.70752189983614,236.70752189983614,236.70752189983614,35,71,43,58,58,70,236.70752189983614,238.45882399985567,,,,,,,,,,,002,f,19,2023-05-13_12h47.12.006,RL,2022.2.5,60.17089740924251,
40,51,64,63,0,37,37,37,,,,,,,,,,,None,238.45882399985567,238.45882399985567,238.45882399985567,238.45882399985567,238.45882399985567,238.45882399985567,j,0.23838230012916028,238.72587469988503,238.72587469988503,238.72587469988503,238.72587469988503,238.72587469988503,238.72587469988503,239.0090725000482,240.82550689997151,240.84210589993745,240.84210589993745,240.84210589993745,240.84210589993745,240.84210589993745,240.84210589993745,240.84210589993745,240.84210589993745,240.84210589993745,240.84210589993745,240.84210589993745,240.84210589993745,240.84210589993745,242.95631040004082,242.95631040004082,242.95631040004082,242.95631040004082,242.95631040004082,242.95631040004082,242.95631040004082,40,63,51,64,64,70,242.95631040004082,244.77448439993896,,,,,,,,,,,002,f,19,2023-05-13_12h47.12.006,RL,2022.2.5,60.17089740924251,
41,45,59,72,0,38,38,38,,,,,,,,,,,None,244.77448439993896,244.77448439993896,244.77448439993896,244.77448439993896,244.77448439993896,244.77448439993896,j,0.31039550015702844,245.10813839989714,245.10813839989714,245.10813839989714,245.10813839989714,245.10813839989714,245.10813839989714,245.39147159992717,247.17426899983548,247.19114169990644,247.19114169990644,247.19114169990644,247.19114169990644,247.19114169990644,247.19114169990644,247.19114169990644,247.19114169990644,247.19114169990644,247.19114169990644,247.19114169990644,247.19114169990644,247.19114169990644,249.27191079990007,249.27191079990007,249.27191079990007,249.27191079990007,249.27191079990007,249.27191079990007,249.27191079990007,41,72,45,59,59,70,249.27191079990007,251.12294729985297,,,,,,,,,,,002,f,19,2023-05-13_12h47.12.006,RL,2022.2.5,60.17089740924251,
39,49,53,64,0,39,39,39,,,,,,,,,,,None,251.12294729985297,251.12294729985297,251.12294729985297,251.12294729985297,251.12294729985297,251.12294729985297,f,0.455791600048542,251.60692989989184,251.60692989989184,251.60692989989184,251.60692989989184,251.60692989989184,251.60692989989184,251.89007820002735,253.22292179986835,253.25659239990637,253.25659239990637,253.25659239990637,253.25659239990637,253.25659239990637,253.25659239990637,253.25659239990637,253.25659239990637,253.25659239990637,253.25659239990637,253.25659239990637,253.25659239990637,253.25659239990637,254.90435389988124,254.90435389988124,254.90435389988124,254.90435389988124,254.90435389988124,254.90435389988124,254.90435389988124,39,64,49,53,39,70,254.90435389988124,256.6724630999379,,,,,,,,,,,002,f,19,2023-05-13_12h47.12.006,RL,2022.2.5,60.17089740924251,
47,52,57,64,0,40,40,40,,,,,,,,,,,None,256.6724630999379,256.6724630999379,256.6724630999379,256.6724630999379,256.6724630999379,256.6724630999379,f,0.24494099989533424,256.93924420000985,256.93924420000985,256.93924420000985,256.93924420000985,256.93924420000985,256.93924420000985,257.22230089991353,258.05546969990246,258.0720653999597,258.0720653999597,258.0720653999597,258.0720653999597,258.0720653999597,258.0720653999597,258.0720653999597,258.0720653999597,258.0720653999597,258.0720653999597,258.0720653999597,258.0720653999597,258.0720653999597,259.20356910000555,259.20356910000555,259.20356910000555,259.20356910000555,259.20356910000555,259.20356910000555,259.20356910000555,47,64,52,57,47,70,259.20356910000555,260.78814550000243,,,,,,,,,,,002,f,19,2023-05-13_12h47.12.006,RL,2022.2.5,60.17089740924251,
49,51,50,64,0,41,41,41,,,,,,,,,,,None,260.78814550000243,260.78814550000243,260.78814550000243,260.78814550000243,260.78814550000243,260.78814550000243,i,0.23560269991867244,261.0552464998327,261.0552464998327,261.0552464998327,261.0552464998327,261.0552464998327,261.0552464998327,261.33806589990854,263.02127130003646,263.0384096999187,263.0384096999187,263.0384096999187,263.0384096999187,263.0384096999187,263.0384096999187,263.0384096999187,263.0384096999187,263.0384096999187,263.0384096999187,263.0384096999187,263.0384096999187,263.0384096999187,265.0193074999843,265.0193074999843,265.0193074999843,265.0193074999843,265.0193074999843,265.0193074999843,265.0193074999843,49,64,51,50,51,70,265.0193074999843,266.58735129982233,,,,,,,,,,,002,f,19,2023-05-13_12h47.12.006,RL,2022.2.5,60.17089740924251,
44,53,57,68,0,42,42,42,,,,,,,,,,,None,266.58735129982233,266.58735129982233,266.58735129982233,266.58735129982233,266.58735129982233,266.58735129982233,r,0.9889460999984294,267.60555969993584,267.60555969993584,267.60555969993584,267.60555969993584,267.60555969993584,267.60555969993584,267.9038931999821,268.8701985999942,268.8701985999942,268.8701985999942,268.8701985999942,268.8701985999942,268.8701985999942,268.8701985999942,268.8701985999942,268.8701985999942,268.8701985999942,268.8701985999942,268.8701985999942,268.8701985999942,268.8701985999942,270.1351119999308,270.1351119999308,270.1351119999308,270.1351119999308,270.1351119999308,270.1351119999308,270.1351119999308,44,68,53,57,68,70,270.1351119999308,272.10282909986563,,,,,,,,,,,002,f,19,2023-05-13_12h47.12.006,RL,2022.2.5,60.17089740924251,
43,51,50,61,0,43,43,43,,,,,,,,,,,None,272.10282909986563,272.10282909986563,272.10282909986563,272.10282909986563,272.10282909986563,272.10282909986563,r,0.27839790005236864,272.40412490000017,272.40412490000017,272.40412490000017,272.40412490000017,272.40412490000017,272.40412490000017,272.6862496000249,274.28621069993824,274.3028965999838,274.3028965999838,274.3028965999838,274.3028965999838,274.3028965999838,274.3028965999838,274.3028965999838,274.3028965999838,274.3028965999838,274.3028965999838,274.3028965999838,274.3028965999838,274.3028965999838,276.2009166998323,276.2009166998323,276.2009166998323,276.2009166998323,276.2009166998323,276.2009166998323,276.2009166998323,43,61,51,50,61,70,276.2009166998323,278.11851609987207,,,,,,,,,,,002,f,19,2023-05-13_12h47.12.006,RL,2022.2.5,60.17089740924251,
59,50,52,65,0,44,44,44,,,,,,,,,,,None,278.11851609987207,278.11851609987207,278.11851609987207,278.11851609987207,278.11851609987207,278.11851609987207,r,0.31085500004701316,278.45234249997884,278.45234249997884,278.45234249997884,278.45234249997884,278.45234249997884,278.45234249997884,278.7354084998369,279.7189700999297,279.7352358000353,279.7352358000353,279.7352358000353,279.7352358000353,279.7352358000353,279.7352358000353,279.7352358000353,279.7352358000353,279.7352358000353,279.7352358000353,279.7352358000353,279.7352358000353,279.7352358000353,281.0331579998601,281.0331579998601,281.0331579998601,281.0331579998601,281.0331579998601,281.0331579998601,281.0331579998601,59,65,50,52,65,70,281.0331579998601,282.6840551998466,,,,,,,,,,,002,f,19,2023-05-13_12h47.12.006,RL,2022.2.5,60.17089740924251,
51,50,66,59,0,45,45,45,,,,,,,,,,,None,282.6840551998466,282.6840551998466,282.6840551998466,282.6840551998466,282.6840551998466,282.6840551998466,j,0.5075226998887956,283.21941989986226,283.21941989986226,283.21941989986226,283.21941989986226,283.21941989986226,283.21941989986226,283.50117790000513,284.817481999984,284.8343768999912,284.8343768999912,284.8343768999912,284.8343768999912,284.8343768999912,284.8343768999912,284.8343768999912,284.8343768999912,284.8343768999912,284.8343768999912,284.8343768999912,284.8343768999912,284.8343768999912,286.4490067998413,286.4490067998413,286.4490067998413,286.4490067998413,286.4490067998413,286.4490067998413,286.4490067998413,51,59,50,66,66,70,286.4490067998413,288.0833354999777,,,,,,,,,,,002,f,19,2023-05-13_12h47.12.006,RL,2022.2.5,60.17089740924251,
58,51,61,48,0,46,46,46,,,,,,,,,,,None,288.0833354999777,288.0833354999777,288.0833354999777,288.0833354999777,288.0833354999777,288.0833354999777,r,0.2345660999417305,288.3507284000516,288.3507284000516,288.3507284000516,288.3507284000516,288.3507284000516,288.3507284000516,288.6334738000296,289.85033519985154,289.8665934999008,289.8665934999008,289.8665934999008,289.8665934999008,289.8665934999008,289.8665934999008,289.8665934999008,289.8665934999008,289.8665934999008,289.8665934999008,289.8665934999008,289.8665934999008,289.8665934999008,291.38163079996593,291.38163079996593,291.38163079996593,291.38163079996593,291.38163079996593,291.38163079996593,291.38163079996593,58,48,51,61,48,70,291.38163079996593,292.9657868000213,,,,,,,,,,,002,f,19,2023-05-13_12h47.12.006,RL,2022.2.5,60.17089740924251,
54,56,65,47,0,47,47,47,,,,,,,,,,,None,292.9657868000213,292.9657868000213,292.9657868000213,292.9657868000213,292.9657868000213,292.9657868000213,r,0.33622180018574,293.3329654999543,293.3329654999543,293.3329654999543,293.3329654999543,293.3329654999543,293.3329654999543,293.61677289986983,295.0993665999267,295.1156305000186,295.1156305000186,295.1156305000186,295.1156305000186,295.1156305000186,295.1156305000186,295.1156305000186,295.1156305000186,295.1156305000186,295.1156305000186,295.1156305000186,295.1156305000186,295.1156305000186,296.89679469983093,296.89679469983093,296.89679469983093,296.89679469983093,296.89679469983093,296.89679469983093,296.89679469983093,54,47,56,65,47,70,296.89679469983093,298.61474679992534,,,,,,,,,,,002,f,19,2023-05-13_12h47.12.006,RL,2022.2.5,60.17089740924251,
58,52,60,51,0,48,48,48,,,,,,,,,,,None,298.61474679992534,298.61474679992534,298.61474679992534,298.61474679992534,298.61474679992534,298.61474679992534,j,0.24305809987708926,298.8829648999963,298.8829648999963,298.8829648999963,298.8829648999963,298.8829648999963,298.8829648999963,299.1651550999377,300.7148449998349,300.7315372999292,300.7315372999292,300.7315372999292,300.7315372999292,300.7315372999292,300.7315372999292,300.7315372999292,300.7315372999292,300.7315372999292,300.7315372999292,300.7315372999292,300.7315372999292,300.7315372999292,302.5792471000459,302.5792471000459,302.5792471000459,302.5792471000459,302.5792471000459,302.5792471000459,302.5792471000459,58,51,52,60,60,70,302.5792471000459,304.2137176999822,,,,,,,,,,,002,f,19,2023-05-13_12h47.12.006,RL,2022.2.5,60.17089740924251,
47,54,63,46,0,49,49,49,,,,,,,,,,,None,304.2137176999822,304.2137176999822,304.2137176999822,304.2137176999822,304.2137176999822,304.2137176999822,i,0.22615769994445145,304.4644983999897,304.4644983999897,304.4644983999897,304.4644983999897,304.4644983999897,304.4644983999897,304.7472781999968,306.14712069998495,306.1636659000069,306.1636659000069,306.1636659000069,306.1636659000069,306.1636659000069,306.1636659000069,306.1636659000069,306.1636659000069,306.1636659000069,306.1636659000069,306.1636659000069,306.1636659000069,306.1636659000069,307.8616828999948,307.8616828999948,307.8616828999948,307.8616828999948,307.8616828999948,307.8616828999948,307.8616828999948,47,46,54,63,54,70,307.8616828999948,309.76298919995315,,,,,,,,,,,002,f,19,2023-05-13_12h47.12.006,RL,2022.2.5,60.17089740924251,
51,56,59,51,0,50,50,50,,,,,,,,,,,None,309.76298919995315,309.76298919995315,309.76298919995315,309.76298919995315,309.76298919995315,309.76298919995315,f,0.20606309990398586,309.996678999858,309.996678999858,309.996678999858,309.996678999858,309.996678999858,309.996678999858,310.29648799984716,311.82946659997106,311.82946659997106,311.82946659997106,311.82946659997106,311.82946659997106,311.82946659997106,311.82946659997106,311.82946659997106,311.82946659997106,311.82946659997106,311.82946659997106,311.82946659997106,311.82946659997106,311.82946659997106,313.6608940998558,313.6608940998558,313.6608940998558,313.6608940998558,313.6608940998558,313.6608940998558,313.6608940998558,51,51,56,59,51,70,313.6608940998558,315.3785663000308,,,,,,,,,,,002,f,19,2023-05-13_12h47.12.006,RL,2022.2.5,60.17089740924251,
51,52,65,57,0,51,51,51,,,,,,,,,,,None,315.3785663000308,315.3785663000308,315.3785663000308,315.3785663000308,315.3785663000308,315.3785663000308,j,0.18326799990609288,315.57918670005165,315.57918670005165,315.57918670005165,315.57918670005165,315.57918670005165,315.57918670005165,315.87882229988463,316.97867219988257,316.97867219988257,316.97867219988257,316.97867219988257,316.97867219988257,316.97867219988257,316.97867219988257,316.97867219988257,316.97867219988257,316.97867219988257,316.97867219988257,316.97867219988257,316.97867219988257,316.97867219988257,318.3768414000515,318.3768414000515,318.3768414000515,318.3768414000515,318.3768414000515,318.3768414000515,318.3768414000515,51,57,52,65,65,70,318.3768414000515,320.2113677999005,,,,,,,,,,,002,f,19,2023-05-13_12h47.12.006,RL,2022.2.5,60.17089740924251,
59,60,73,56,0,52,52,52,,,,,,,,,,,None,320.2113677999005,320.2113677999005,320.2113677999005,320.2113677999005,320.2113677999005,320.2113677999005,r,0.2693341001868248,320.51178139983676,320.51178139983676,320.51178139983676,320.51178139983676,320.51178139983676,320.51178139983676,320.7947888998315,322.094218299957,322.1109044000041,322.1109044000041,322.1109044000041,322.1109044000041,322.1109044000041,322.1109044000041,322.1109044000041,322.1109044000041,322.1109044000041,322.1109044000041,322.1109044000041,322.1109044000041,322.1109044000041,323.6927543999627,323.6927543999627,323.6927543999627,323.6927543999627,323.6927543999627,323.6927543999627,323.6927543999627,59,56,60,73,56,70,323.6927543999627,325.443518999964,,,,,,,,,,,002,f,19,2023-05-13_12h47.12.006,RL,2022.2.5,60.17089740924251,
55,60,67,58,0,53,53,53,,,,,,,,,,,None,325.443518999964,325.443518999964,325.443518999964,325.443518999964,325.443518999964,325.443518999964,j,0.23719060001894832,325.71086160000414,325.71086160000414,325.71086160000414,325.71086160000414,325.71086160000414,325.71086160000414,325.9938334999606,327.5602690000087,327.5767095000483,327.5767095000483,327.5767095000483,327.5767095000483,327.5767095000483,327.5767095000483,327.5767095000483,327.5767095000483,327.5767095000483,327.5767095000483,327.5767095000483,327.5767095000483,327.5767095000483,329.4415710999165,329.4415710999165,329.4415710999165,329.4415710999165,329.4415710999165,329.4415710999165,329.4415710999165,55,58,60,67,67,70,329.4415710999165,331.32583720004186,,,,,,,,,,,002,f,19,2023-05-13_12h47.12.006,RL,2022.2.5,60.17089740924251,
56,58,62,64,0,54,54,54,,,,,,,,,,,None,331.32583720004186,331.32583720004186,331.32583720004186,331.32583720004186,331.32583720004186,331.32583720004186,j,0.2734825999941677,331.62629449996166,331.62629449996166,331.62629449996166,331.62629449996166,331.62629449996166,331.62629449996166,331.9094596998766,333.0926049000118,333.10966459987685,333.10966459987685,333.10966459987685,333.10966459987685,333.10966459987685,333.10966459987685,333.10966459987685,333.10966459987685,333.10966459987685,333.10966459987685,333.10966459987685,333.10966459987685,333.10966459987685,334.5905944998376,334.5905944998376,334.5905944998376,334.5905944998376,334.5905944998376,334.5905944998376,334.5905944998376,56,64,58,62,62,70,334.5905944998376,336.42488819989376,,,,,,,,,,,002,f,19,2023-05-13_12h47.12.006,RL,2022.2.5,60.17089740924251,
62,58,68,58,0,55,55,55,,,,,,,,,,,None,336.42488819989376,336.42488819989376,336.42488819989376,336.42488819989376,336.42488819989376,336.42488819989376,j,0.17028399999253452,336.625780900009,336.625780900009,336.625780900009,336.625780900009,336.625780900009,336.625780900009,336.908382399939,338.0419260999188,338.05843369988725,338.05843369988725,338.05843369988725,338.05843369988725,338.05843369988725,338.05843369988725,338.05843369988725,338.05843369988725,338.05843369988725,338.05843369988725,338.05843369988725,338.05843369988725,338.05843369988725,339.48999549984,339.48999549984,339.48999549984,339.48999549984,339.48999549984,339.48999549984,339.48999549984,62,58,58,68,68,70,339.48999549984,341.4572590999305,,,,,,,,,,,002,f,19,2023-05-13_12h47.12.006,RL,2022.2.5,60.17089740924251,
58,42,58,59,0,56,56,56,,,,,,,,,,,None,341.4572590999305,341.4572590999305,341.4572590999305,341.4572590999305,341.4572590999305,341.4572590999305,i,0.21244370006024837,341.69356829999015,341.69356829999015,341.69356829999015,341.69356829999015,341.69356829999015,341.69356829999015,341.99104529991746,342.82425930001773,342.84093949990347,342.84093949990347,342.84093949990347,342.84093949990347,342.84093949990347,342.84093949990347,342.84093949990347,342.84093949990347,342.84093949990347,342.84093949990347,342.84093949990347,342.84093949990347,342.84093949990347,343.9724081000313,343.9724081000313,343.9724081000313,343.9724081000313,343.9724081000313,343.9724081000313,343.9724081000313,58,59,42,58,42,70,343.9724081000313,345.72322219982743,,,,,,,,,,,002,f,19,2023-05-13_12h47.12.006,RL,2022.2.5,60.17089740924251,
59,54,52,54,0,57,57,57,,,,,,,,,,,None,345.72322219982743,345.72322219982743,345.72322219982743,345.72322219982743,345.72322219982743,345.72322219982743,i,0.23869020002894104,345.9905598999467,345.9905598999467,345.9905598999467,345.9905598999467,345.9905598999467,345.9905598999467,346.2736785998568,347.70663079991937,347.75444659986533,347.75444659986533,347.75444659986533,347.75444659986533,347.75444659986533,347.75444659986533,347.75444659986533,347.75444659986533,347.75444659986533,347.75444659986533,347.75444659986533,347.75444659986533,347.75444659986533,349.48815999994986,349.48815999994986,349.48815999994986,349.48815999994986,349.48815999994986,349.48815999994986,349.48815999994986,59,54,54,52,54,70,349.48815999994986,351.47221129992977,,,,,,,,,,,002,f,19,2023-05-13_12h47.12.006,RL,2022.2.5,60.17089740924251,
60,55,55,62,0,58,58,58,,,,,,,,,,,None,351.47221129992977,351.47221129992977,351.47221129992977,351.47221129992977,351.47221129992977,351.47221129992977,i,0.30615610000677407,351.8079641999211,351.8079641999211,351.8079641999211,351.8079641999211,351.8079641999211,351.8079641999211,352.0892789999489,353.2893144998234,353.3057559998706,353.3057559998706,353.3057559998706,353.3057559998706,353.3057559998706,353.3057559998706,353.3057559998706,353.3057559998706,353.3057559998706,353.3057559998706,353.3057559998706,353.3057559998706,353.3057559998706,354.80363929993473,354.80363929993473,354.80363929993473,354.80363929993473,354.80363929993473,354.80363929993473,354.80363929993473,60,62,55,55,55,70,354.80363929993473,356.53816019999795,,,,,,,,,,,002,f,19,2023-05-13_12h47.12.006,RL,2022.2.5,60.17089740924251,
61,57,63,58,0,59,59,59,,,,,,,,,,,None,356.53816019999795,356.53816019999795,356.53816019999795,356.53816019999795,356.53816019999795,356.53816019999795,f,0.0918034000787884,356.6581561998464,356.6581561998464,356.6581561998464,356.6581561998464,356.6581561998464,356.6581561998464,356.9386543999426,358.62141110002995,358.6547719000373,358.6547719000373,358.6547719000373,358.6547719000373,358.6547719000373,358.6547719000373,358.6547719000373,358.6547719000373,358.6547719000373,358.6547719000373,358.6547719000373,358.6547719000373,358.6547719000373,360.63601129991,360.63601129991,360.63601129991,360.63601129991,360.63601129991,360.63601129991,360.63601129991,61,58,57,63,61,70,360.63601129991,362.1704604998231,,,,,,,,,,,002,f,19,2023-05-13_12h47.12.006,RL,2022.2.5,60.17089740924251,
68,64,53,51,0,60,60,60,,,,,,,,,,,None,362.1704604998231,362.1704604998231,362.1704604998231,362.1704604998231,362.1704604998231,362.1704604998231,f,0.007828699890524149,362.204684099881,362.204684099881,362.204684099881,362.204684099881,362.204684099881,362.204684099881,362.48750930000097,363.3040793999098,363.3206119998358,363.3206119998358,363.3206119998358,363.3206119998358,363.3206119998358,363.3206119998358,363.3206119998358,363.3206119998358,363.3206119998358,363.3206119998358,363.3206119998358,363.3206119998358,363.3206119998358,364.43559379992075,364.43559379992075,364.43559379992075,364.43559379992075,364.43559379992075,364.43559379992075,364.43559379992075,68,51,64,53,68,70,364.43559379992075,366.06995479995385,,,,,,,,,,,002,f,19,2023-05-13_12h47.12.006,RL,2022.2.5,60.17089740924251,
67,58,55,65,0,61,61,61,,,,,,,,,,,None,366.06995479995385,366.06995479995385,366.06995479995385,366.06995479995385,366.06995479995385,366.06995479995385,f,0.20748219988308847,366.30532949999906,366.30532949999906,366.30532949999906,366.30532949999906,366.30532949999906,366.30532949999906,366.5870072999969,367.51987669989467,367.5365291000344,367.5365291000344,367.5365291000344,367.5365291000344,367.5365291000344,367.5365291000344,367.5365291000344,367.5365291000344,367.5365291000344,367.5365291000344,367.5365291000344,367.5365291000344,367.5365291000344,368.7681591999717,368.7681591999717,368.7681591999717,368.7681591999717,368.7681591999717,368.7681591999717,368.7681591999717,67,65,58,55,67,70,368.7681591999717,370.3190710998606,,,,,,,,,,,002,f,19,2023-05-13_12h47.12.006,RL,2022.2.5,60.17089740924251,
64,60,61,60,0,62,62,62,,,,,,,,,,,None,370.3190710998606,370.3190710998606,370.3190710998606,370.3190710998606,370.3190710998606,370.3190710998606,f,0.37532419990748167,370.7197255999781,370.7197255999781,370.7197255999781,370.7197255999781,370.7197255999781,370.7197255999781,371.0028124998789,372.2691138999071,372.28582109999843,372.28582109999843,372.28582109999843,372.28582109999843,372.28582109999843,372.28582109999843,372.28582109999843,372.28582109999843,372.28582109999843,372.28582109999843,372.28582109999843,372.28582109999843,372.28582109999843,373.85046430001967,373.85046430001967,373.85046430001967,373.85046430001967,373.85046430001967,373.85046430001967,373.85046430001967,64,60,60,61,64,70,373.85046430001967,375.618708799826,,,,,,,,,,,002,f,19,2023-05-13_12h47.12.006,RL,2022.2.5,60.17089740924251,
65,62,50,60,0,63,63,63,,,,,,,,,,,None,375.618708799826,375.618708799826,375.618708799826,375.618708799826,375.618708799826,375.618708799826,j,0.2119813000317663,375.8530659000389,375.8530659000389,375.8530659000389,375.8530659000389,375.8530659000389,375.8530659000389,376.1358164998237,377.30172179988585,377.33495359984227,377.33495359984227,377.33495359984227,377.33495359984227,377.33495359984227,377.33495359984227,377.33495359984227,377.33495359984227,377.33495359984227,377.33495359984227,377.33495359984227,377.33495359984227,377.33495359984227,378.7996604000218,378.7996604000218,378.7996604000218,378.7996604000218,378.7996604000218,378.7996604000218,378.7996604000218,65,60,62,50,50,70,378.7996604000218,380.78442929987796,,,,,,,,,,,002,f,19,2023-05-13_12h47.12.006,RL,2022.2.5,60.17089740924251,
59,58,62,56,0,64,64,64,,,,,,,,,,,None,380.78442929987796,380.78442929987796,380.78442929987796,380.78442929987796,380.78442929987796,380.78442929987796,r,0.2852762001566589,381.10114039992914,381.10114039992914,381.10114039992914,381.10114039992914,381.10114039992914,381.10114039992914,381.38426509988494,382.50058019999415,382.51722249994054,382.51722249994054,382.51722249994054,382.51722249994054,382.51722249994054,382.51722249994054,382.51722249994054,382.51722249994054,382.51722249994054,382.51722249994054,382.51722249994054,382.51722249994054,382.51722249994054,383.93230429990217,383.93230429990217,383.93230429990217,383.93230429990217,383.93230429990217,383.93230429990217,383.93230429990217,59,56,58,62,56,70,383.93230429990217,385.51622490002774,,,,,,,,,,,002,f,19,2023-05-13_12h47.12.006,RL,2022.2.5,60.17089740924251,
64,64,55,57,0,65,65,65,,,,,,,,,,,None,385.51622490002774,385.51622490002774,385.51622490002774,385.51622490002774,385.51622490002774,385.51622490002774,f,0.23769380012527108,385.7842375000473,385.7842375000473,385.7842375000473,385.7842375000473,385.7842375000473,385.7842375000473,386.06687229988165,387.6329640999902,387.6495548998937,387.6495548998937,387.6495548998937,387.6495548998937,387.6495548998937,387.6495548998937,387.6495548998937,387.6495548998937,387.6495548998937,387.6495548998937,387.6495548998937,387.6495548998937,387.6495548998937,389.51434049988165,389.51434049988165,389.51434049988165,389.51434049988165,389.51434049988165,389.51434049988165,389.51434049988165,64,57,64,55,64,70,389.51434049988165,391.4485483998433,,,,,,,,,,,002,f,19,2023-05-13_12h47.12.006,RL,2022.2.5,60.17089740924251,
67,61,47,52,0,66,66,66,,,,,,,,,,,None,391.4485483998433,391.4485483998433,391.4485483998433,391.4485483998433,391.4485483998433,391.4485483998433,j,0.26359159988351166,391.7328103999607,391.7328103999607,391.7328103999607,391.7328103999607,391.7328103999607,391.7328103999607,392.0155696000438,393.2321850999724,393.2486470998265,393.2486470998265,393.2486470998265,393.2486470998265,393.2486470998265,393.2486470998265,393.2486470998265,393.2486470998265,393.2486470998265,393.2486470998265,393.2486470998265,393.2486470998265,393.2486470998265,394.7634125999175,394.7634125999175,394.7634125999175,394.7634125999175,394.7634125999175,394.7634125999175,394.7634125999175,67,52,61,47,47,70,394.7634125999175,396.54760109982453,,,,,,,,,,,002,f,19,2023-05-13_12h47.12.006,RL,2022.2.5,60.17089740924251,
60,56,52,56,0,67,67,67,,,,,,,,,,,None,396.54760109982453,396.54760109982453,396.54760109982453,396.54760109982453,396.54760109982453,396.54760109982453,j,0.42113459995016456,396.9998176000081,396.9998176000081,396.9998176000081,396.9998176000081,396.9998176000081,396.9998176000081,397.2820202000439,398.714313399978,398.7316321998369,398.7316321998369,398.7316321998369,398.7316321998369,398.7316321998369,398.7316321998369,398.7316321998369,398.7316321998369,398.7316321998369,398.7316321998369,398.7316321998369,398.7316321998369,398.7316321998369,400.4625088998582,400.4625088998582,400.4625088998582,400.4625088998582,400.4625088998582,400.4625088998582,400.4625088998582,60,56,56,52,52,70,400.4625088998582,402.3802799999248,,,,,,,,,,,002,f,19,2023-05-13_12h47.12.006,RL,2022.2.5,60.17089740924251,
67,64,61,52,0,68,68,68,,,,,,,,,,,None,402.3802799999248,402.3802799999248,402.3802799999248,402.3802799999248,402.3802799999248,402.3802799999248,i,0.34238489996641874,402.7477600998245,402.7477600998245,402.7477600998245,402.7477600998245,402.7477600998245,402.7477600998245,403.03067719982937,404.0133346999064,404.03029199992307,404.03029199992307,404.03029199992307,404.03029199992307,404.03029199992307,404.03029199992307,404.03029199992307,404.03029199992307,404.03029199992307,404.03029199992307,404.03029199992307,404.03029199992307,404.03029199992307,405.3114952999167,405.3114952999167,405.3114952999167,405.3114952999167,405.3114952999167,405.3114952999167,405.3114952999167,67,52,64,61,64,70,405.3114952999167,407.0625561999623,,,,,,,,,,,002,f,19,2023-05-13_12h47.12.006,RL,2022.2.5,60.17089740924251,
62,70,64,51,0,69,69,69,,,,,,,,,,,None,407.0625561999623,407.0625561999623,407.0625561999623,407.0625561999623,407.0625561999623,407.0625561999623,i,0.32577600004151464,407.4134171998594,407.4134171998594,407.4134171998594,407.4134171998594,407.4134171998594,407.4134171998594,407.69625799986534,408.9126621000469,408.92958829994313,408.92958829994313,408.92958829994313,408.92958829994313,408.92958829994313,408.92958829994313,408.92958829994313,408.92958829994313,408.92958829994313,408.92958829994313,408.92958829994313,408.92958829994313,408.92958829994313,410.4441996999085,410.4441996999085,410.4441996999085,410.4441996999085,410.4441996999085,410.4441996999085,410.4441996999085,62,51,70,64,70,70,410.4441996999085,412.16177909984253,,,,,,,,,,,002,f,19,2023-05-13_12h47.12.006,RL,2022.2.5,60.17089740924251,
67,63,56,46,0,70,70,70,,,,,,,,,,,None,412.16177909984253,412.16177909984253,412.16177909984253,412.16177909984253,412.16177909984253,412.16177909984253,i,0.24226170009933412,412.42895459989086,412.42895459989086,412.42895459989086,412.42895459989086,412.42895459989086,412.42895459989086,412.71174119994976,414.3791624000296,414.39494419982657,414.39494419982657,414.39494419982657,414.39494419982657,414.39494419982657,414.39494419982657,414.39494419982657,414.39494419982657,414.39494419982657,414.39494419982657,414.39494419982657,414.39494419982657,414.39494419982657,416.36004179995507,416.36004179995507,416.36004179995507,416.36004179995507,416.36004179995507,416.36004179995507,416.36004179995507,67,46,63,56,63,70,416.36004179995507,417.99410349992104,,,,,,,,,,,002,f,19,2023-05-13_12h47.12.006,RL,2022.2.5,60.17089740924251,
64,54,67,50,0,71,71,71,,,,,,,,,,,None,417.99410349992104,417.99410349992104,417.99410349992104,417.99410349992104,417.99410349992104,417.99410349992104,i,0.3124971999786794,418.3291427998338,418.3291427998338,418.3291427998338,418.3291427998338,418.3291427998338,418.3291427998338,418.62793949991465,420.0608047998976,420.07733080000617,420.07733080000617,420.07733080000617,420.07733080000617,420.07733080000617,420.07733080000617,420.07733080000617,420.07733080000617,420.07733080000617,420.07733080000617,420.07733080000617,420.07733080000617,420.07733080000617,421.8089010999538,421.8089010999538,421.8089010999538,421.8089010999538,421.8089010999538,421.8089010999538,421.8089010999538,64,50,54,67,54,70,421.8089010999538,423.49298839992844,,,,,,,,,,,002,f,19,2023-05-13_12h47.12.006,RL,2022.2.5,60.17089740924251,
67,56,60,50,0,72,72,72,,,,,,,,,,,None,423.49298839992844,423.49298839992844,423.49298839992844,423.49298839992844,423.49298839992844,423.49298839992844,f,0.31884839991107583,423.8436665998306,423.8436665998306,423.8436665998306,423.8436665998306,423.8436665998306,423.8436665998306,424.143577599898,425.7429839000106,425.7429839000106,425.7429839000106,425.7429839000106,425.7429839000106,425.7429839000106,425.7429839000106,425.7429839000106,425.7429839000106,425.7429839000106,425.7429839000106,425.7429839000106,425.7429839000106,425.7429839000106,427.64100750000216,427.64100750000216,427.64100750000216,427.64100750000216,427.64100750000216,427.64100750000216,427.64100750000216,67,50,56,60,67,70,427.64100750000216,429.3419530999381,,,,,,,,,,,002,f,19,2023-05-13_12h47.12.006,RL,2022.2.5,60.17089740924251,
65,57,53,48,0,73,73,73,,,,,,,,,,,None,429.3419530999381,429.3419530999381,429.3419530999381,429.3419530999381,429.3419530999381,429.3419530999381,f,0.24019440007396042,429.60953859984875,429.60953859984875,429.60953859984875,429.60953859984875,429.60953859984875,429.60953859984875,429.89307879982516,431.67547739995643,431.69214089983143,431.69214089983143,431.69214089983143,431.69214089983143,431.69214089983143,431.69214089983143,431.69214089983143,431.69214089983143,431.69214089983143,431.69214089983143,431.69214089983143,431.69214089983143,431.69214089983143,433.77339979982935,433.77339979982935,433.77339979982935,433.77339979982935,433.77339979982935,433.77339979982935,433.77339979982935,65,48,57,53,65,70,433.77339979982935,435.65795199992135,,,,,,,,,,,002,f,19,2023-05-13_12h47.12.006,RL,2022.2.5,60.17089740924251,
62,60,57,47,0,74,74,74,,,,,,,,,,,None,435.65795199992135,435.65795199992135,435.65795199992135,435.65795199992135,435.65795199992135,435.65795199992135,f,0.2738401999231428,435.9585503998678,435.9585503998678,435.9585503998678,435.9585503998678,435.9585503998678,435.9585503998678,436.24132220004685,437.3578382998239,437.37448500003666,437.37448500003666,437.37448500003666,437.37448500003666,437.37448500003666,437.37448500003666,437.37448500003666,437.37448500003666,437.37448500003666,437.37448500003666,437.37448500003666,437.37448500003666,437.37448500003666,438.7890114998445,438.7890114998445,438.7890114998445,438.7890114998445,438.7890114998445,438.7890114998445,438.7890114998445,62,47,60,57,62,70,438.7890114998445,440.6726889000274,,,,,,,,,,,002,f,19,2023-05-13_12h47.12.006,RL,2022.2.5,60.17089740924251,
62,55,50,49,0,75,75,75,,,,,,,,,,,q,458.4535973998718,458.4535973998718,458.4535973998718,458.4535973998718,458.4535973998718,458.4535973998718,i,0.6966929000336677,459.1711546999868,459.1711546999868,459.1711546999868,459.1711546999868,459.1711546999868,459.1711546999868,459.45445209997706,461.40331640001386,461.42003999999724,461.42003999999724,461.42003999999724,461.42003999999724,461.42003999999724,461.42003999999724,461.42003999999724,461.42003999999724,461.42003999999724,461.42003999999724,461.42003999999724,461.42003999999724,461.42003999999724,463.6684775999747,463.6684775999747,463.6684775999747,463.6684775999747,463.6684775999747,463.6684775999747,463.6684775999747,62,49,55,50,55,70,463.6684775999747,465.535740399966,440.6726889000274,440.6726889000274,12.733974899863824,453.43875700002536,453.43875700002536,458.4535973998718,458.4535973998718,,,,002,f,19,2023-05-13_12h47.12.006,RL,2022.2.5,60.17089740924251,
62,48,57,42,0,76,76,76,,,,,,,,,,,None,465.535740399966,465.535740399966,465.535740399966,465.535740399966,465.535740399966,465.535740399966,i,0.2593125000130385,465.81969089992344,465.81969089992344,465.81969089992344,465.81969089992344,465.81969089992344,465.81969089992344,466.10270199994557,467.9858574999962,468.0023334999569,468.0023334999569,468.0023334999569,468.0023334999569,468.0023334999569,468.0023334999569,468.0023334999569,468.0023334999569,468.0023334999569,468.0023334999569,468.0023334999569,468.0023334999569,468.0023334999569,470.1839707000181,470.1839707000181,470.1839707000181,470.1839707000181,470.1839707000181,470.1839707000181,470.1839707000181,62,42,48,57,48,70,470.1839707000181,472.0018793998752,,,,,,,,,,,002,f,19,2023-05-13_12h47.12.006,RL,2022.2.5,60.17089740924251,
62,36,51,51,0,77,77,77,,,,,,,,,,,None,472.0018793998752,472.0018793998752,472.0018793998752,472.0018793998752,472.0018793998752,472.0018793998752,f,0.2266151998192072,472.2517770999111,472.2517770999111,472.2517770999111,472.2517770999111,472.2517770999111,472.2517770999111,472.5352560998872,473.8853048000019,473.90123159997165,473.90123159997165,473.90123159997165,473.90123159997165,473.90123159997165,473.90123159997165,473.90123159997165,473.90123159997165,473.90123159997165,473.90123159997165,473.90123159997165,473.90123159997165,473.90123159997165,475.53278540004976,475.53278540004976,475.53278540004976,475.53278540004976,475.53278540004976,475.53278540004976,475.53278540004976,62,51,36,51,62,70,475.53278540004976,477.20051869982854,,,,,,,,,,,002,f,19,2023-05-13_12h47.12.006,RL,2022.2.5,60.17089740924251,
56,37,47,51,0,78,78,78,,,,,,,,,,,None,477.20051869982854,477.20051869982854,477.20051869982854,477.20051869982854,477.20051869982854,477.20051869982854,f,0.24706460000015795,477.4681325999554,477.4681325999554,477.4681325999554,477.4681325999554,477.4681325999554,477.4681325999554,477.7509753999766,479.28398839989677,479.30053499992937,479.30053499992937,479.30053499992937,479.30053499992937,479.30053499992937,479.30053499992937,479.30053499992937,479.30053499992937,479.30053499992937,479.30053499992937,479.30053499992937,479.30053499992937,479.30053499992937,481.13163329986855,481.13163329986855,481.13163329986855,481.13163329986855,481.13163329986855,481.13163329986855,481.13163329986855,56,51,37,47,56,70,481.13163329986855,482.76601809985004,,,,,,,,,,,002,f,19,2023-05-13_12h47.12.006,RL,2022.2.5,60.17089740924251,
64,33,54,47,0,79,79,79,,,,,,,,,,,None,482.76601809985004,482.76601809985004,482.76601809985004,482.76601809985004,482.76601809985004,482.76601809985004,r,0.3342602998018265,483.13485449994914,483.13485449994914,483.13485449994914,483.13485449994914,483.13485449994914,483.13485449994914,483.4166308999993,484.54969220003113,484.5662889999803,484.5662889999803,484.5662889999803,484.5662889999803,484.5662889999803,484.5662889999803,484.5662889999803,484.5662889999803,484.5662889999803,484.5662889999803,484.5662889999803,484.5662889999803,484.5662889999803,485.9973637999501,485.9973637999501,485.9973637999501,485.9973637999501,485.9973637999501,485.9973637999501,485.9973637999501,64,47,33,54,47,70,485.9973637999501,487.79852369986475,,,,,,,,,,,002,f,19,2023-05-13_12h47.12.006,RL,2022.2.5,60.17089740924251,
61,36,57,51,0,80,80,80,,,,,,,,,,,None,487.79852369986475,487.79852369986475,487.79852369986475,487.79852369986475,487.79852369986475,487.79852369986475,j,0.2473844001069665,488.0658201999031,488.0658201999031,488.0658201999031,488.0658201999031,488.0658201999031,488.0658201999031,488.3487746999599,489.5489159999415,489.56540119997226,489.56540119997226,489.56540119997226,489.56540119997226,489.56540119997226,489.56540119997226,489.56540119997226,489.56540119997226,489.56540119997226,489.56540119997226,489.56540119997226,489.56540119997226,489.56540119997226,491.06348579982296,491.06348579982296,491.06348579982296,491.06348579982296,491.06348579982296,491.06348579982296,491.06348579982296,61,51,36,57,57,70,491.06348579982296,492.76484039984643,,,,,,,,,,,002,f,19,2023-05-13_12h47.12.006,RL,2022.2.5,60.17089740924251,
57,28,62,44,0,81,81,81,,,,,,,,,,,None,492.76484039984643,492.76484039984643,492.76484039984643,492.76484039984643,492.76484039984643,492.76484039984643,i,0.2629942998755723,493.0486639998853,493.0486639998853,493.0486639998853,493.0486639998853,493.0486639998853,493.0486639998853,493.3314086999744,494.6977782000322,494.7144667999819,494.7144667999819,494.7144667999819,494.7144667999819,494.7144667999819,494.7144667999819,494.7144667999819,494.7144667999819,494.7144667999819,494.7144667999819,494.7144667999819,494.7144667999819,494.7144667999819,496.3791115998756,496.3791115998756,496.3791115998756,496.3791115998756,496.3791115998756,496.3791115998756,496.3791115998756,57,44,28,62,28,70,496.3791115998756,497.9634956000373,,,,,,,,,,,002,f,19,2023-05-13_12h47.12.006,RL,2022.2.5,60.17089740924251,
56,33,46,39,0,82,82,82,,,,,,,,,,,None,497.9634956000373,497.9634956000373,497.9634956000373,497.9634956000373,497.9634956000373,497.9634956000373,i,0.20380720007233322,498.1973361999262,498.1973361999262,498.1973361999262,498.1973361999262,498.1973361999262,498.1973361999262,498.480706699891,500.3466376999859,500.36343399994075,500.36343399994075,500.36343399994075,500.36343399994075,500.36343399994075,500.36343399994075,500.36343399994075,500.36343399994075,500.36343399994075,500.36343399994075,500.36343399994075,500.36343399994075,500.36343399994075,502.52808670001104,502.52808670001104,502.52808670001104,502.52808670001104,502.52808670001104,502.52808670001104,502.52808670001104,56,39,33,46,33,70,502.52808670001104,504.0956862999592,,,,,,,,,,,002,f,19,2023-05-13_12h47.12.006,RL,2022.2.5,60.17089740924251,
55,23,48,54,0,83,83,83,,,,,,,,,,,None,504.0956862999592,504.0956862999592,504.0956862999592,504.0956862999592,504.0956862999592,504.0956862999592,f,0.23499400005675852,504.36437189998105,504.36437189998105,504.36437189998105,504.36437189998105,504.36437189998105,504.36437189998105,504.64638409996405,506.4625977999531,506.479231499834,506.479231499834,506.479231499834,506.479231499834,506.479231499834,506.479231499834,506.479231499834,506.479231499834,506.479231499834,506.479231499834,506.479231499834,506.479231499834,506.479231499834,508.59381629992276,508.59381629992276,508.59381629992276,508.59381629992276,508.59381629992276,508.59381629992276,508.59381629992276,55,54,23,48,55,70,508.59381629992276,510.5115020999219,,,,,,,,,,,002,f,19,2023-05-13_12h47.12.006,RL,2022.2.5,60.17089740924251,
58,25,45,65,0,84,84,84,,,,,,,,,,,None,510.5115020999219,510.5115020999219,510.5115020999219,510.5115020999219,510.5115020999219,510.5115020999219,f,0.27875749999657273,510.81314149987884,510.81314149987884,510.81314149987884,510.81314149987884,510.81314149987884,510.81314149987884,511.1116649999749,512.3779200999998,512.3779200999998,512.3779200999998,512.3779200999998,512.3779200999998,512.3779200999998,512.3779200999998,512.3779200999998,512.3779200999998,512.3779200999998,512.3779200999998,512.3779200999998,512.3779200999998,512.3779200999998,513.9427060999442,513.9427060999442,513.9427060999442,513.9427060999442,513.9427060999442,513.9427060999442,513.9427060999442,58,65,25,45,58,70,513.9427060999442,515.6436999000143,,,,,,,,,,,002,f,19,2023-05-13_12h47.12.006,RL,2022.2.5,60.17089740924251,
44,32,49,51,0,85,85,85,,,,,,,,,,,None,515.6436999000143,515.6436999000143,515.6436999000143,515.6436999000143,515.6436999000143,515.6436999000143,f,0.37171839992515743,516.0445630999748,516.0445630999748,516.0445630999748,516.0445630999748,516.0445630999748,516.0445630999748,516.3276205998845,517.5942818999756,517.6107999999076,517.6107999999076,517.6107999999076,517.6107999999076,517.6107999999076,517.6107999999076,517.6107999999076,517.6107999999076,517.6107999999076,517.6107999999076,517.6107999999076,517.6107999999076,517.6107999999076,519.1753525000531,519.1753525000531,519.1753525000531,519.1753525000531,519.1753525000531,519.1753525000531,519.1753525000531,44,51,32,49,44,70,519.1753525000531,520.7428586999886,,,,,,,,,,,002,f,19,2023-05-13_12h47.12.006,RL,2022.2.5,60.17089740924251,
54,31,58,51,0,86,86,86,,,,,,,,,,,None,520.7428586999886,520.7428586999886,520.7428586999886,520.7428586999886,520.7428586999886,520.7428586999886,i,0.4611211000010371,521.2270545999054,521.2270545999054,521.2270545999054,521.2270545999054,521.2270545999054,521.2270545999054,521.5096702999435,522.9760525999591,523.0097022999544,523.0097022999544,523.0097022999544,523.0097022999544,523.0097022999544,523.0097022999544,523.0097022999544,523.0097022999544,523.0097022999544,523.0097022999544,523.0097022999544,523.0097022999544,523.0097022999544,524.7743857998867,524.7743857998867,524.7743857998867,524.7743857998867,524.7743857998867,524.7743857998867,524.7743857998867,54,51,31,58,31,70,524.7743857998867,526.7253612000495,,,,,,,,,,,002,f,19,2023-05-13_12h47.12.006,RL,2022.2.5,60.17089740924251,
55,31,49,51,0,87,87,87,,,,,,,,,,,None,526.7253612000495,526.7253612000495,526.7253612000495,526.7253612000495,526.7253612000495,526.7253612000495,r,0.21206379984505475,526.9591890999582,526.9591890999582,526.9591890999582,526.9591890999582,526.9591890999582,526.9591890999582,527.2422958998941,528.792391799856,528.8088781998958,528.8088781998958,528.8088781998958,528.8088781998958,528.8088781998958,528.8088781998958,528.8088781998958,528.8088781998958,528.8088781998958,528.8088781998958,528.8088781998958,528.8088781998958,528.8088781998958,530.6572240998503,530.6572240998503,530.6572240998503,530.6572240998503,530.6572240998503,530.6572240998503,530.6572240998503,55,51,31,49,51,70,530.6572240998503,532.374717899831,,,,,,,,,,,002,f,19,2023-05-13_12h47.12.006,RL,2022.2.5,60.17089740924251,
56,22,46,44,0,88,88,88,,,,,,,,,,,None,532.374717899831,532.374717899831,532.374717899831,532.374717899831,532.374717899831,532.374717899831,i,0.2807507999241352,532.6747320999857,532.6747320999857,532.6747320999857,532.6747320999857,532.6747320999857,532.6747320999857,532.9580321998801,534.141054000007,534.1579707998317,534.1579707998317,534.1579707998317,534.1579707998317,534.1579707998317,534.1579707998317,534.1579707998317,534.1579707998317,534.1579707998317,534.1579707998317,534.1579707998317,534.1579707998317,534.1579707998317,535.6388029998634,535.6388029998634,535.6388029998634,535.6388029998634,535.6388029998634,535.6388029998634,535.6388029998634,56,44,22,46,22,70,535.6388029998634,537.6071301999036,,,,,,,,,,,002,f,19,2023-05-13_12h47.12.006,RL,2022.2.5,60.17089740924251,
62,26,50,50,0,89,89,89,,,,,,,,,,,None,537.6071301999036,537.6071301999036,537.6071301999036,537.6071301999036,537.6071301999036,537.6071301999036,j,0.23711629980243742,537.8738912998233,537.8738912998233,537.8738912998233,537.8738912998233,537.8738912998233,537.8738912998233,538.157431300031,539.5397055000067,539.5567457999568,539.5567457999568,539.5567457999568,539.5567457999568,539.5567457999568,539.5567457999568,539.5567457999568,539.5567457999568,539.5567457999568,539.5567457999568,539.5567457999568,539.5567457999568,539.5567457999568,541.2381951999851,541.2381951999851,541.2381951999851,541.2381951999851,541.2381951999851,541.2381951999851,541.2381951999851,62,50,26,50,50,70,541.2381951999851,542.9390847999603,,,,,,,,,,,002,f,19,2023-05-13_12h47.12.006,RL,2022.2.5,60.17089740924251,
57,27,53,59,0,90,90,90,,,,,,,,,,,None,542.9390847999603,542.9390847999603,542.9390847999603,542.9390847999603,542.9390847999603,542.9390847999603,i,0.2689300000201911,543.2402123999782,543.2402123999782,543.2402123999782,543.2402123999782,543.2402123999782,543.2402123999782,543.5227391000371,544.5730459999759,544.5895864998456,544.5895864998456,544.5895864998456,544.5895864998456,544.5895864998456,544.5895864998456,544.5895864998456,544.5895864998456,544.5895864998456,544.5895864998456,544.5895864998456,544.5895864998456,544.5895864998456,545.9375616000034,545.9375616000034,545.9375616000034,545.9375616000034,545.9375616000034,545.9375616000034,545.9375616000034,57,59,27,53,27,70,545.9375616000034,547.7550705999602,,,,,,,,,,,002,f,19,2023-05-13_12h47.12.006,RL,2022.2.5,60.17089740924251,
58,35,53,55,0,91,91,91,,,,,,,,,,,None,547.7550705999602,547.7550705999602,547.7550705999602,547.7550705999602,547.7550705999602,547.7550705999602,f,0.2067016998771578,547.9887653999031,547.9887653999031,547.9887653999031,547.9887653999031,547.9887653999031,547.9887653999031,548.2886558999307,549.5881213999819,549.5881213999819,549.5881213999819,549.5881213999819,549.5881213999819,549.5881213999819,549.5881213999819,549.5881213999819,549.5881213999819,549.5881213999819,549.5881213999819,549.5881213999819,549.5881213999819,549.5881213999819,551.1863016998395,551.1863016998395,551.1863016998395,551.1863016998395,551.1863016998395,551.1863016998395,551.1863016998395,58,55,35,53,58,70,551.1863016998395,552.8041919998359,,,,,,,,,,,002,f,19,2023-05-13_12h47.12.006,RL,2022.2.5,60.17089740924251,
46,23,46,48,0,92,92,92,,,,,,,,,,,None,552.8041919998359,552.8041919998359,552.8041919998359,552.8041919998359,552.8041919998359,552.8041919998359,r,0.19049609987996519,553.0234475999605,553.0234475999605,553.0234475999605,553.0234475999605,553.0234475999605,553.0234475999605,553.3044276,555.104055600008,555.1205358000007,555.1205358000007,555.1205358000007,555.1205358000007,555.1205358000007,555.1205358000007,555.1205358000007,555.1205358000007,555.1205358000007,555.1205358000007,555.1205358000007,555.1205358000007,555.1205358000007,557.219026699895,557.219026699895,557.219026699895,557.219026699895,557.219026699895,557.219026699895,557.219026699895,46,48,23,46,48,70,557.219026699895,559.0865682999138,,,,,,,,,,,002,f,19,2023-05-13_12h47.12.006,RL,2022.2.5,60.17089740924251,
45,27,49,53,0,93,93,93,,,,,,,,,,,None,559.0865682999138,559.0865682999138,559.0865682999138,559.0865682999138,559.0865682999138,559.0865682999138,i,0.2576295000035316,559.3732381998561,559.3732381998561,559.3732381998561,559.3732381998561,559.3732381998561,559.3732381998561,559.6701277999673,561.1864707998466,561.1864707998466,561.1864707998466,561.1864707998466,561.1864707998466,561.1864707998466,561.1864707998466,561.1864707998466,561.1864707998466,561.1864707998466,561.1864707998466,561.1864707998466,561.1864707998466,561.1864707998466,563.0010567000136,563.0010567000136,563.0010567000136,563.0010567000136,563.0010567000136,563.0010567000136,563.0010567000136,45,53,27,49,27,70,563.0010567000136,564.9184884999413,,,,,,,,,,,002,f,19,2023-05-13_12h47.12.006,RL,2022.2.5,60.17089740924251,
51,32,58,55,0,94,94,94,,,,,,,,,,,None,564.9184884999413,564.9184884999413,564.9184884999413,564.9184884999413,564.9184884999413,564.9184884999413,j,0.24627380003221333,565.1863690998871,565.1863690998871,565.1863690998871,565.1863690998871,565.1863690998871,565.1863690998871,565.4856463999022,567.1851255998481,567.1851255998481,567.1851255998481,567.1851255998481,567.1851255998481,567.1851255998481,567.1851255998481,567.1851255998481,567.1851255998481,567.1851255998481,567.1851255998481,567.1851255998481,567.1851255998481,567.1851255998481,569.1830962998793,569.1830962998793,569.1830962998793,569.1830962998793,569.1830962998793,569.1830962998793,569.1830962998793,51,55,32,58,58,70,569.1830962998793,570.9341092999093,,,,,,,,,,,002,f,19,2023-05-13_12h47.12.006,RL,2022.2.5,60.17089740924251,
44,25,62,52,0,95,95,95,,,,,,,,,,,None,570.9341092999093,570.9341092999093,570.9341092999093,570.9341092999093,570.9341092999093,570.9341092999093,j,0.25604350003413856,571.2183147999458,571.2183147999458,571.2183147999458,571.2183147999458,571.2183147999458,571.2183147999458,571.518134099897,572.3341939998791,572.3341939998791,572.3341939998791,572.3341939998791,572.3341939998791,572.3341939998791,572.3341939998791,572.3341939998791,572.3341939998791,572.3341939998791,572.3341939998791,572.3341939998791,572.3341939998791,572.3341939998791,573.4495325998869,573.4495325998869,573.4495325998869,573.4495325998869,573.4495325998869,573.4495325998869,573.4495325998869,44,52,25,62,62,70,573.4495325998869,575.1005159998313,,,,,,,,,,,002,f,19,2023-05-13_12h47.12.006,RL,2022.2.5,60.17089740924251,
40,34,54,58,0,96,96,96,,,,,,,,,,,None,575.1005159998313,575.1005159998313,575.1005159998313,575.1005159998313,575.1005159998313,575.1005159998313,i,0.2161543001420796,575.337574099889,575.337574099889,575.337574099889,575.337574099889,575.337574099889,575.337574099889,575.6173182998318,576.4334972999059,576.4504892998375,576.4504892998375,576.4504892998375,576.4504892998375,576.4504892998375,576.4504892998375,576.4504892998375,576.4504892998375,576.4504892998375,576.4504892998375,576.4504892998375,576.4504892998375,576.4504892998375,577.5655461000279,577.5655461000279,577.5655461000279,577.5655461000279,577.5655461000279,577.5655461000279,577.5655461000279,40,58,34,54,34,70,577.5655461000279,579.5498511998449,,,,,,,,,,,002,f,19,2023-05-13_12h47.12.006,RL,2022.2.5,60.17089740924251,
45,36,56,65,0,97,97,97,,,,,,,,,,,None,579.5498511998449,579.5498511998449,579.5498511998449,579.5498511998449,579.5498511998449,579.5498511998449,j,0.2231415999121964,579.8012788998894,579.8012788998894,579.8012788998894,579.8012788998894,579.8012788998894,579.8012788998894,580.0828553999308,581.1328145000152,581.1497139998246,581.1497139998246,581.1497139998246,581.1497139998246,581.1497139998246,581.1497139998246,581.1497139998246,581.1497139998246,581.1497139998246,581.1497139998246,581.1497139998246,581.1497139998246,581.1497139998246,582.4978960999288,582.4978960999288,582.4978960999288,582.4978960999288,582.4978960999288,582.4978960999288,582.4978960999288,45,65,36,56,56,70,582.4978960999288,584.3990644000005,,,,,,,,,,,002,f,19,2023-05-13_12h47.12.006,RL,2022.2.5,60.17089740924251,
49,40,54,65,0,98,98,98,,,,,,,,,,,None,584.3990644000005,584.3990644000005,584.3990644000005,584.3990644000005,584.3990644000005,584.3990644000005,j,0.4701347998343408,584.899932899978,584.899932899978,584.899932899978,584.899932899978,584.899932899978,584.899932899978,585.1990312999114,586.5150496999267,586.5150496999267,586.5150496999267,586.5150496999267,586.5150496999267,586.5150496999267,586.5150496999267,586.5150496999267,586.5150496999267,586.5150496999267,586.5150496999267,586.5150496999267,586.5150496999267,586.5150496999267,588.1297183998395,588.1297183998395,588.1297183998395,588.1297183998395,588.1297183998395,588.1297183998395,588.1297183998395,49,65,40,54,54,70,588.1297183998395,589.9474273999222,,,,,,,,,,,002,f,19,2023-05-13_12h47.12.006,RL,2022.2.5,60.17089740924251,
55,32,49,72,0,99,99,99,,,,,,,,,,,None,589.9474273999222,589.9474273999222,589.9474273999222,589.9474273999222,589.9474273999222,589.9474273999222,i,0.22951860004104674,590.1991899998393,590.1991899998393,590.1991899998393,590.1991899998393,590.1991899998393,590.1991899998393,590.4817267998587,591.8309356998652,591.8476028998848,591.8476028998848,591.8476028998848,591.8476028998848,591.8476028998848,591.8476028998848,591.8476028998848,591.8476028998848,591.8476028998848,591.8476028998848,591.8476028998848,591.8476028998848,591.8476028998848,593.4956028000452,593.4956028000452,593.4956028000452,593.4956028000452,593.4956028000452,593.4956028000452,593.4956028000452,55,72,32,49,32,70,593.4956028000452,595.1635779999197,,,,,,,,,,,002,f,19,2023-05-13_12h47.12.006,RL,2022.2.5,60.17089740924251,
58,44,48,76,0,100,100,100,,,,,,,,,,,None,595.1635779999197,595.1635779999197,595.1635779999197,595.1635779999197,595.1635779999197,595.1635779999197,f,0.3106276001781225,595.4976436998695,595.4976436998695,595.4976436998695,595.4976436998695,595.4976436998695,595.4976436998695,595.7806748999283,596.9300200999714,596.9466615999117,596.9466615999117,596.9466615999117,596.9466615999117,596.9466615999117,596.9466615999117,596.9466615999117,596.9466615999117,596.9466615999117,596.9466615999117,596.9466615999117,596.9466615999117,596.9466615999117,598.394745499827,598.394745499827,598.394745499827,598.394745499827,598.394745499827,598.394745499827,598.394745499827,58,76,44,48,58,70,598.394745499827,599.9792612998281,,,,,,,,,,,002,f,19,2023-05-13_12h47.12.006,RL,2022.2.5,60.17089740924251,
60,57,43,66,0,101,101,101,,,,,,,,,,,None,599.9792612998281,599.9792612998281,599.9792612998281,599.9792612998281,599.9792612998281,599.9792612998281,f,0.3222896000370383,600.3295893999748,600.3295893999748,600.3295893999748,600.3295893999748,600.3295893999748,600.3295893999748,600.629175900016,601.5793496998958,601.5793496998958,601.5793496998958,601.5793496998958,601.5793496998958,601.5793496998958,601.5793496998958,601.5793496998958,601.5793496998958,601.5793496998958,601.5793496998958,601.5793496998958,601.5793496998958,601.5793496998958,602.8274270999245,602.8274270999245,602.8274270999245,602.8274270999245,602.8274270999245,602.8274270999245,602.8274270999245,60,66,57,43,60,70,602.8274270999245,604.3455874999054,,,,,,,,,,,002,f,19,2023-05-13_12h47.12.006,RL,2022.2.5,60.17089740924251,
61,52,44,61,0,102,102,102,,,,,,,,,,,None,604.3455874999054,604.3455874999054,604.3455874999054,604.3455874999054,604.3455874999054,604.3455874999054,r,0.3659826999064535,604.7310484000482,604.7310484000482,604.7310484000482,604.7310484000482,604.7310484000482,604.7310484000482,605.028611100046,606.0452308999375,606.0452308999375,606.0452308999375,606.0452308999375,606.0452308999375,606.0452308999375,606.0452308999375,606.0452308999375,606.0452308999375,606.0452308999375,606.0452308999375,606.0452308999375,606.0452308999375,606.0452308999375,607.3597911000252,607.3597911000252,607.3597911000252,607.3597911000252,607.3597911000252,607.3597911000252,607.3597911000252,61,61,52,44,61,70,607.3597911000252,608.977787700016,,,,,,,,,,,002,f,19,2023-05-13_12h47.12.006,RL,2022.2.5,60.17089740924251,
61,57,61,68,0,103,103,103,,,,,,,,,,,None,608.977787700016,608.977787700016,608.977787700016,608.977787700016,608.977787700016,608.977787700016,r,0.22979220002889633,609.2297026999295,609.2297026999295,609.2297026999295,609.2297026999295,609.2297026999295,609.2297026999295,609.528295399854,610.7609565998428,610.7609565998428,610.7609565998428,610.7609565998428,610.7609565998428,610.7609565998428,610.7609565998428,610.7609565998428,610.7609565998428,610.7609565998428,610.7609565998428,610.7609565998428,610.7609565998428,610.7609565998428,612.2926853999961,612.2926853999961,612.2926853999961,612.2926853999961,612.2926853999961,612.2926853999961,612.2926853999961,61,68,57,61,68,70,612.2926853999961,614.1436768998392,,,,,,,,,,,002,f,19,2023-05-13_12h47.12.006,RL,2022.2.5,60.17089740924251,
55,60,55,62,0,104,104,104,,,,,,,,,,,None,614.1436768998392,614.1436768998392,614.1436768998392,614.1436768998392,614.1436768998392,614.1436768998392,r,0.24095209990628064,614.4109052999411,614.4109052999411,614.4109052999411,614.4109052999411,614.4109052999411,614.4109052999411,614.7107694000006,616.5600339998491,616.5600339998491,616.5600339998491,616.5600339998491,616.5600339998491,616.5600339998491,616.5600339998491,616.5600339998491,616.5600339998491,616.5600339998491,616.5600339998491,616.5600339998491,616.5600339998491,616.5600339998491,618.7081605999265,618.7081605999265,618.7081605999265,618.7081605999265,618.7081605999265,618.7081605999265,618.7081605999265,55,62,60,55,62,70,618.7081605999265,620.2923854000401,,,,,,,,,,,002,f,19,2023-05-13_12h47.12.006,RL,2022.2.5,60.17089740924251,
49,62,46,66,0,105,105,105,,,,,,,,,,,None,620.2923854000401,620.2923854000401,620.2923854000401,620.2923854000401,620.2923854000401,620.2923854000401,f,0.3132889000698924,620.629668999929,620.629668999929,620.629668999929,620.629668999929,620.629668999929,620.629668999929,620.9258602999616,622.7589465000201,622.7589465000201,622.7589465000201,622.7589465000201,622.7589465000201,622.7589465000201,622.7589465000201,622.7589465000201,622.7589465000201,622.7589465000201,622.7589465000201,622.7589465000201,622.7589465000201,622.7589465000201,624.8901877999306,624.8901877999306,624.8901877999306,624.8901877999306,624.8901877999306,624.8901877999306,624.8901877999306,49,66,62,46,49,70,624.8901877999306,626.5085113998502,,,,,,,,,,,002,f,19,2023-05-13_12h47.12.006,RL,2022.2.5,60.17089740924251,
53,52,51,66,0,106,106,106,,,,,,,,,,,None,626.5085113998502,626.5085113998502,626.5085113998502,626.5085113998502,626.5085113998502,626.5085113998502,i,0.32288660015910864,626.8588229999878,626.8588229999878,626.8588229999878,626.8588229999878,626.8588229999878,626.8588229999878,627.1415635999292,629.1412191998679,629.1583716999739,629.1583716999739,629.1583716999739,629.1583716999739,629.1583716999739,629.1583716999739,629.1583716999739,629.1583716999739,629.1583716999739,629.1583716999739,629.1583716999739,629.1583716999739,629.1583716999739,631.4557178998366,631.4557178998366,631.4557178998366,631.4557178998366,631.4557178998366,631.4557178998366,631.4557178998366,53,66,52,51,52,70,631.4557178998366,633.3402016998734,,,,,,,,,,,002,f,19,2023-05-13_12h47.12.006,RL,2022.2.5,60.17089740924251,
60,54,61,63,0,107,107,107,,,,,,,,,,,None,633.3402016998734,633.3402016998734,633.3402016998734,633.3402016998734,633.3402016998734,633.3402016998734,i,0.4648993001319468,633.8238041000441,633.8238041000441,633.8238041000441,633.8238041000441,633.8238041000441,633.8238041000441,634.1070526000112,635.8235969999805,635.8401231998578,635.8401231998578,635.8401231998578,635.8401231998578,635.8401231998578,635.8401231998578,635.8401231998578,635.8401231998578,635.8401231998578,635.8401231998578,635.8401231998578,635.8401231998578,635.8401231998578,637.8546280998271,637.8546280998271,637.8546280998271,637.8546280998271,637.8546280998271,637.8546280998271,637.8546280998271,60,63,54,61,54,70,637.8546280998271,639.7890053999145,,,,,,,,,,,002,f,19,2023-05-13_12h47.12.006,RL,2022.2.5,60.17089740924251,
59,56,52,59,0,108,108,108,,,,,,,,,,,None,639.7890053999145,639.7890053999145,639.7890053999145,639.7890053999145,639.7890053999145,639.7890053999145,r,0.21287779998965561,640.0242343000136,640.0242343000136,640.0242343000136,640.0242343000136,640.0242343000136,640.0242343000136,640.3060756998602,641.5057244999334,641.53928919998,641.53928919998,641.53928919998,641.53928919998,641.53928919998,641.53928919998,641.53928919998,641.53928919998,641.53928919998,641.53928919998,641.53928919998,641.53928919998,641.53928919998,643.0375796000008,643.0375796000008,643.0375796000008,643.0375796000008,643.0375796000008,643.0375796000008,643.0375796000008,59,59,56,52,59,70,643.0375796000008,645.004649200011,,,,,,,,,,,002,f,19,2023-05-13_12h47.12.006,RL,2022.2.5,60.17089740924251,
61,66,57,54,0,109,109,109,,,,,,,,,,,None,645.004649200011,645.004649200011,645.004649200011,645.004649200011,645.004649200011,645.004649200011,j,0.22959370003081858,645.2566048000008,645.2566048000008,645.2566048000008,645.2566048000008,645.2566048000008,645.2566048000008,645.5549915998708,646.4884285000153,646.4884285000153,646.4884285000153,646.4884285000153,646.4884285000153,646.4884285000153,646.4884285000153,646.4884285000153,646.4884285000153,646.4884285000153,646.4884285000153,646.4884285000153,646.4884285000153,646.4884285000153,647.7192945999559,647.7192945999559,647.7192945999559,647.7192945999559,647.7192945999559,647.7192945999559,647.7192945999559,61,54,66,57,57,70,647.7192945999559,649.670902099926,,,,,,,,,,,002,f,19,2023-05-13_12h47.12.006,RL,2022.2.5,60.17089740924251,
59,57,60,52,0,110,110,110,,,,,,,,,,,None,649.670902099926,649.670902099926,649.670902099926,649.670902099926,649.670902099926,649.670902099926,f,0.2526903999969363,649.9546515999828,649.9546515999828,649.9546515999828,649.9546515999828,649.9546515999828,649.9546515999828,650.2543839998543,651.8704963000491,651.8704963000491,651.8704963000491,651.8704963000491,651.8704963000491,651.8704963000491,651.8704963000491,651.8704963000491,651.8704963000491,651.8704963000491,651.8704963000491,651.8704963000491,651.8704963000491,651.8704963000491,653.7856942999642,653.7856942999642,653.7856942999642,653.7856942999642,653.7856942999642,653.7856942999642,653.7856942999642,59,52,57,60,59,70,653.7856942999642,655.4861814000178,,,,,,,,,,,002,f,19,2023-05-13_12h47.12.006,RL,2022.2.5,60.17089740924251,
60,58,68,54,0,111,111,111,,,,,,,,,,,None,655.4861814000178,655.4861814000178,655.4861814000178,655.4861814000178,655.4861814000178,655.4861814000178,i,0.4254549997858703,655.9386615999974,655.9386615999974,655.9386615999974,655.9386615999974,655.9386615999974,655.9386615999974,656.2201618000399,657.8034442998469,657.8193591998424,657.8193591998424,657.8193591998424,657.8193591998424,657.8193591998424,657.8193591998424,657.8193591998424,657.8193591998424,657.8193591998424,657.8193591998424,657.8193591998424,657.8193591998424,657.8193591998424,659.7009133000392,659.7009133000392,659.7009133000392,659.7009133000392,659.7009133000392,659.7009133000392,659.7009133000392,60,54,58,68,58,70,659.7009133000392,661.468514499953,,,,,,,,,,,002,f,19,2023-05-13_12h47.12.006,RL,2022.2.5,60.17089740924251,
57,62,64,51,0,112,112,112,,,,,,,,,,,None,661.468514499953,661.468514499953,661.468514499953,661.468514499953,661.468514499953,661.468514499953,i,0.22228360013104975,661.7202027000021,661.7202027000021,661.7202027000021,661.7202027000021,661.7202027000021,661.7202027000021,662.0025257999077,663.452411999926,663.4688941000495,663.4688941000495,663.4688941000495,663.4688941000495,663.4688941000495,663.4688941000495,663.4688941000495,663.4688941000495,663.4688941000495,663.4688941000495,663.4688941000495,663.4688941000495,663.4688941000495,665.2164308999199,665.2164308999199,665.2164308999199,665.2164308999199,665.2164308999199,665.2164308999199,665.2164308999199,57,51,62,64,62,70,665.2164308999199,667.0343610998243,,,,,,,,,,,002,f,19,2023-05-13_12h47.12.006,RL,2022.2.5,60.17089740924251,
64,66,65,42,0,113,113,113,,,,,,,,,,,None,667.0343610998243,667.0343610998243,667.0343610998243,667.0343610998243,667.0343610998243,667.0343610998243,i,0.24613890005275607,667.3039106999058,667.3039106999058,667.3039106999058,667.3039106999058,667.3039106999058,667.3039106999058,667.6016970998608,669.201138400007,669.201138400007,669.201138400007,669.201138400007,669.201138400007,669.201138400007,669.201138400007,669.201138400007,669.201138400007,669.201138400007,669.201138400007,669.201138400007,669.201138400007,669.201138400007,671.098670499865,671.098670499865,671.098670499865,671.098670499865,671.098670499865,671.098670499865,671.098670499865,64,42,66,65,66,70,671.098670499865,672.6333270999603,,,,,,,,,,,002,f,19,2023-05-13_12h47.12.006,RL,2022.2.5,60.17089740924251,
57,57,64,44,0,114,114,114,,,,,,,,,,,None,672.6333270999603,672.6333270999603,672.6333270999603,672.6333270999603,672.6333270999603,672.6333270999603,i,0.33055019984021783,672.9838477999438,672.9838477999438,672.9838477999438,672.9838477999438,672.9838477999438,672.9838477999438,673.2836612998508,674.5832678000443,674.5832678000443,674.5832678000443,674.5832678000443,674.5832678000443,674.5832678000443,674.5832678000443,674.5832678000443,674.5832678000443,674.5832678000443,674.5832678000443,674.5832678000443,674.5832678000443,674.5832678000443,676.1817459999584,676.1817459999584,676.1817459999584,676.1817459999584,676.1817459999584,676.1817459999584,676.1817459999584,57,44,57,64,57,70,676.1817459999584,677.7657757999841,,,,,,,,,,,002,f,19,2023-05-13_12h47.12.006,RL,2022.2.5,60.17089740924251,
60,61,65,42,0,115,115,115,,,,,,,,,,,None,677.7657757999841,677.7657757999841,677.7657757999841,677.7657757999841,677.7657757999841,677.7657757999841,i,0.39367139991372824,678.1840068998281,678.1840068998281,678.1840068998281,678.1840068998281,678.1840068998281,678.1840068998281,678.4664125000127,680.0658559999429,680.0826484998688,680.0826484998688,680.0826484998688,680.0826484998688,680.0826484998688,680.0826484998688,680.0826484998688,680.0826484998688,680.0826484998688,680.0826484998688,680.0826484998688,680.0826484998688,680.0826484998688,681.9804229999427,681.9804229999427,681.9804229999427,681.9804229999427,681.9804229999427,681.9804229999427,681.9804229999427,60,42,61,65,61,70,681.9804229999427,683.964912599884,,,,,,,,,,,002,f,19,2023-05-13_12h47.12.006,RL,2022.2.5,60.17089740924251,
65,70,67,52,0,116,116,116,,,,,,,,,,,None,683.964912599884,683.964912599884,683.964912599884,683.964912599884,683.964912599884,683.964912599884,i,0.22652300004847348,684.2151084998623,684.2151084998623,684.2151084998623,684.2151084998623,684.2151084998623,684.2151084998623,684.4985881999601,685.531474399846,685.5481549999677,685.5481549999677,685.5481549999677,685.5481549999677,685.5481549999677,685.5481549999677,685.5481549999677,685.5481549999677,685.5481549999677,685.5481549999677,685.5481549999677,685.5481549999677,685.5481549999677,686.8797895000316,686.8797895000316,686.8797895000316,686.8797895000316,686.8797895000316,686.8797895000316,686.8797895000316,65,52,70,67,70,70,686.8797895000316,688.4306161999702,,,,,,,,,,,002,f,19,2023-05-13_12h47.12.006,RL,2022.2.5,60.17089740924251,
59,61,70,42,0,117,117,117,,,,,,,,,,,None,688.4306161999702,688.4306161999702,688.4306161999702,688.4306161999702,688.4306161999702,688.4306161999702,i,0.20680929999798536,688.6646275999956,688.6646275999956,688.6646275999956,688.6646275999956,688.6646275999956,688.6646275999956,688.9475477000233,689.8144209999591,689.8308707999531,689.8308707999531,689.8308707999531,689.8308707999531,689.8308707999531,689.8308707999531,689.8308707999531,689.8308707999531,689.8308707999531,689.8308707999531,689.8308707999531,689.8308707999531,689.8308707999531,690.9953612999525,690.9953612999525,690.9953612999525,690.9953612999525,690.9953612999525,690.9953612999525,690.9953612999525,59,42,61,70,61,70,690.9953612999525,692.6795441999566,,,,,,,,,,,002,f,19,2023-05-13_12h47.12.006,RL,2022.2.5,60.17089740924251,
55,57,65,44,0,118,118,118,,,,,,,,,,,None,692.6795441999566,692.6795441999566,692.6795441999566,692.6795441999566,692.6795441999566,692.6795441999566,i,0.28334919991903007,692.9982548998669,692.9982548998669,692.9982548998669,692.9982548998669,692.9982548998669,692.9982548998669,693.2969839998987,694.1466323998757,694.1466323998757,694.1466323998757,694.1466323998757,694.1466323998757,694.1466323998757,694.1466323998757,694.1466323998757,694.1466323998757,694.1466323998757,694.1466323998757,694.1466323998757,694.1466323998757,694.1466323998757,695.2951438999735,695.2951438999735,695.2951438999735,695.2951438999735,695.2951438999735,695.2951438999735,695.2951438999735,55,44,57,65,57,70,695.2951438999735,697.2628361999523,,,,,,,,,,,002,f,19,2023-05-13_12h47.12.006,RL,2022.2.5,60.17089740924251,
62,60,60,42,0,119,119,119,,,,,,,,,,,None,697.2628361999523,697.2628361999523,697.2628361999523,697.2628361999523,697.2628361999523,697.2628361999523,i,0.23817719984799623,697.53078429983,697.53078429983,697.53078429983,697.53078429983,697.53078429983,697.53078429983,697.8292809999548,698.9125159999821,698.9125159999821,698.9125159999821,698.9125159999821,698.9125159999821,698.9125159999821,698.9125159999821,698.9125159999821,698.9125159999821,698.9125159999821,698.9125159999821,698.9125159999821,698.9125159999821,698.9125159999821,700.2943255999126,700.2943255999126,700.2943255999126,700.2943255999126,700.2943255999126,700.2943255999126,700.2943255999126,62,42,60,60,60,70,700.2943255999126,701.828790999949,,,,,,,,,,,002,f,19,2023-05-13_12h47.12.006,RL,2022.2.5,60.17089740924251,
66,72,69,58,0,120,120,120,,,,,,,,,,,None,701.828790999949,701.828790999949,701.828790999949,701.828790999949,701.828790999949,701.828790999949,j,0.10433300002478063,701.962222199887,701.962222199887,701.962222199887,701.962222199887,701.962222199887,701.962222199887,702.2455821998883,703.0784362999257,703.0951996999793,703.0951996999793,703.0951996999793,703.0951996999793,703.0951996999793,703.0951996999793,703.0951996999793,703.0951996999793,703.0951996999793,703.0951996999793,703.0951996999793,703.0951996999793,703.0951996999793,704.2268834998831,704.2268834998831,704.2268834998831,704.2268834998831,704.2268834998831,704.2268834998831,704.2268834998831,66,58,72,69,69,70,704.2268834998831,706.2276224999223,,,,,,,,,,,002,f,19,2023-05-13_12h47.12.006,RL,2022.2.5,60.17089740924251,
