arm1,arm2,arm3,arm4,trials.thisRepN,trials.thisTrialN,trials.thisN,trials.thisIndex,instru_img1.started,instru_resp.started,instru_resp.keys,instru_resp.rt,image_2.started,text_2.started,image_2.stopped,text_2.stopped,fixbefore_2.started,fixbefore_2.stopped,rest_response.keys,red.started,green.started,yellow.started,blue.started,choose_bandit.started,Fixation.started,choose_bandit.keys,choose_bandit.rt,black.started,red_2.started,green_2.started,yellow_2.started,blue_2.started,fixation_2.started,docs.started,black.stopped,red_2.stopped,green_2.stopped,yellow_2.stopped,blue_2.stopped,fixation_2.stopped,docs.stopped,black_com.started,reward_sub.started,reward__sub.started,red_compare.started,green_com.started,yellow_com.started,blue_com.started,black_com.stopped,reward_sub.stopped,reward__sub.stopped,red_compare.stopped,green_com.stopped,yellow_com.stopped,blue_com.stopped,rewardred,rewardyellow,rewardblue,rewardgreen,subchoose,expectation,intertrialfix.started,intertrialfix.stopped,red.stopped,green.stopped,yellow.stopped,blue.stopped,choose_bandit.stopped,Fixation.stopped,bigx.started,bigx.stopped,rest_image.started,rest_response.started,rest_response.rt,image_expect_after.started,text_exp_after.started,image_expect_after.stopped,text_exp_after.stopped,image.started,key_resp.started,key_resp.keys,participant,Gender,Age,date,expName,psychopyVersion,frameRate,
,,,,,,,,16.868895799852908,16.868895799852908,space,6.846726399846375,,,,,,,,,,,,,,,,,,,,,,,,,,,,,,,,,,,,,,,,,,,,,,,,,,,,,,,,,,,,,,,,,,,,,,003,f,20,2023-05-13_13h38.18.930,RL,2022.2.5,60.36558604904619,
38,37,59,75,0,0,0,0,,,,,23.737384499982,23.737384499982,28.736233599949628,28.736233599949628,28.736233599949628,29.739592199912295,None,29.739592199912295,29.739592199912295,29.739592199912295,29.739592199912295,29.739592199912295,29.739592199912295,i,0.4400864001363516,30.20898999995552,30.20898999995552,30.20898999995552,30.20898999995552,30.20898999995552,30.20898999995552,30.504663599887863,31.85490999999456,31.85490999999456,31.85490999999456,31.85490999999456,31.85490999999456,31.85490999999456,31.85490999999456,31.85490999999456,31.85490999999456,31.85490999999456,31.85490999999456,31.85490999999456,31.85490999999456,31.85490999999456,33.54909690003842,33.54909690003842,33.54909690003842,33.54909690003842,33.54909690003842,33.54909690003842,33.54909690003842,75,59,38,37,38,60,33.54909690003842,35.453391399933025,,,,,,,,,,,,,,,,,,,003,f,20,2023-05-13_13h38.18.930,RL,2022.2.5,60.36558604904619,
43,44,51,78,0,1,1,1,,,,,,,,,,,None,35.453391399933025,35.453391399933025,35.453391399933025,35.453391399933025,35.453391399933025,35.453391399933025,j,0.4793165000155568,35.9537704999093,35.9537704999093,35.9537704999093,35.9537704999093,35.9537704999093,35.9537704999093,36.23670929996297,38.08607059996575,38.08607059996575,38.08607059996575,38.08607059996575,38.08607059996575,38.08607059996575,38.06996289989911,38.08607059996575,38.08607059996575,38.08607059996575,38.08607059996575,38.08607059996575,38.08607059996575,38.08607059996575,40.21780049987137,40.21780049987137,40.21780049987137,40.21780049987137,40.21780049987137,40.21780049987137,40.21780049987137,78,51,43,44,44,60,40.21780049987137,42.06876579998061,,,,,,,,,,,,,,,,,,,003,f,20,2023-05-13_13h38.18.930,RL,2022.2.5,60.36558604904619,
40,47,43,78,0,2,2,2,,,,,,,,,,,None,42.06876579998061,42.06876579998061,42.06876579998061,42.06876579998061,42.06876579998061,42.06876579998061,r,0.4483044999651611,42.535883399890736,42.535883399890736,42.535883399890736,42.535883399890736,42.535883399890736,42.535883399890736,42.81919199996628,43.68520569987595,43.68520569987595,43.68520569987595,43.68520569987595,43.68520569987595,43.68520569987595,43.66886269999668,43.68520569987595,43.68520569987595,43.68520569987595,43.68520569987595,43.68520569987595,43.68520569987595,43.68520569987595,44.833628699881956,44.833628699881956,44.833628699881956,44.833628699881956,44.833628699881956,44.833628699881956,44.833628699881956,78,43,40,47,43,60,44.833628699881956,46.684675599914044,,,,,,,,,,,,,,,,,,,003,f,20,2023-05-13_13h38.18.930,RL,2022.2.5,60.36558604904619,
46,51,52,83,0,3,3,3,,,,,,,,,,,None,46.684675599914044,46.684675599914044,46.684675599914044,46.684675599914044,46.684675599914044,46.684675599914044,f,0.47595029999502003,47.18508809991181,47.18508809991181,47.18508809991181,47.18508809991181,47.18508809991181,47.18508809991181,47.46865829988383,48.63443169998936,48.63443169998936,48.63443169998936,48.63443169998936,48.63443169998936,48.63443169998936,48.618116499856114,48.63443169998936,48.63443169998936,48.63443169998936,48.63443169998936,48.63443169998936,48.63443169998936,48.63443169998936,50.0825235999655,50.0825235999655,50.0825235999655,50.0825235999655,50.0825235999655,50.0825235999655,50.0825235999655,83,52,46,51,83,60,50.0825235999655,51.85026440001093,,,,,,,,,,,,,,,,,,,003,f,20,2023-05-13_13h38.18.930,RL,2022.2.5,60.36558604904619,
35,46,52,77,0,4,4,4,,,,,,,,,,,None,51.85026440001093,51.85026440001093,51.85026440001093,51.85026440001093,51.85026440001093,51.85026440001093,f,0.5676947000902146,52.45091789984144,52.45091789984144,52.45091789984144,52.45091789984144,52.45091789984144,52.45091789984144,52.73431169986725,54.11665909993462,54.11665909993462,54.11665909993462,54.11665909993462,54.11665909993462,54.11665909993462,54.10035389987752,54.11665909993462,54.11665909993462,54.11665909993462,54.11665909993462,54.11665909993462,54.11665909993462,54.11665909993462,55.78190519986674,55.78190519986674,55.78190519986674,55.78190519986674,55.78190519986674,55.78190519986674,55.78190519986674,77,52,35,46,77,60,55.78190519986674,57.59955929988064,,,,,,,,,,,,,,,,,,,003,f,20,2023-05-13_13h38.18.930,RL,2022.2.5,60.36558604904619,
39,49,46,72,0,5,5,5,,,,,,,,,,,None,57.59955929988064,57.59955929988064,57.59955929988064,57.59955929988064,57.59955929988064,57.59955929988064,f,0.49242949998006225,58.116285499883816,58.116285499883816,58.116285499883816,58.116285499883816,58.116285499883816,58.116285499883816,58.399622899945825,60.13269490003586,60.13269490003586,60.13269490003586,60.13269490003586,60.13269490003586,60.13269490003586,60.1161491998937,60.13269490003586,60.13269490003586,60.13269490003586,60.13269490003586,60.13269490003586,60.13269490003586,60.13269490003586,62.14720799983479,62.14720799983479,62.14720799983479,62.14720799983479,62.14720799983479,62.14720799983479,62.14720799983479,72,46,39,49,72,60,62.14720799983479,63.7985232998617,,,,,,,,,,,,,,,,,,,003,f,20,2023-05-13_13h38.18.930,RL,2022.2.5,60.36558604904619,
31,48,49,76,0,6,6,6,,,,,,,,,,,None,63.7985232998617,63.7985232998617,63.7985232998617,63.7985232998617,63.7985232998617,63.7985232998617,f,0.4657580000348389,64.28465329995379,64.28465329995379,64.28465329995379,64.28465329995379,64.28465329995379,64.28465329995379,64.58245149999857,66.49783509992994,66.49783509992994,66.49783509992994,66.49783509992994,66.49783509992994,66.49783509992994,66.49783509992994,66.49783509992994,66.49783509992994,66.49783509992994,66.49783509992994,66.49783509992994,66.49783509992994,66.49783509992994,68.71293509984389,68.71293509984389,68.71293509984389,68.71293509984389,68.71293509984389,68.71293509984389,68.71293509984389,76,49,31,48,76,60,68.71293509984389,70.61369149992242,,,,,,,,,,,,,,,,,,,003,f,20,2023-05-13_13h38.18.930,RL,2022.2.5,60.36558604904619,
47,49,36,73,0,7,7,7,,,,,,,,,,,None,70.61369149992242,70.61369149992242,70.61369149992242,70.61369149992242,70.61369149992242,70.61369149992242,f,0.5295505998656154,71.16427139984444,71.16427139984444,71.16427139984444,71.16427139984444,71.16427139984444,71.16427139984444,71.44752079993486,72.99704060005024,72.99704060005024,72.99704060005024,72.99704060005024,72.99704060005024,72.99704060005024,72.98050119983964,72.99704060005024,72.99704060005024,72.99704060005024,72.99704060005024,72.99704060005024,72.99704060005024,72.99704060005024,74.82866770005785,74.82866770005785,74.82866770005785,74.82866770005785,74.82866770005785,74.82866770005785,74.82866770005785,73,36,47,49,73,60,74.82866770005785,76.66257319995202,,,,,,,,,,,,,,,,,,,003,f,20,2023-05-13_13h38.18.930,RL,2022.2.5,60.36558604904619,
47,59,45,72,0,8,8,8,,,,,,,,,,,None,76.66257319995202,76.66257319995202,76.66257319995202,76.66257319995202,76.66257319995202,76.66257319995202,f,0.5362185998819768,77.23092389991507,77.23092389991507,77.23092389991507,77.23092389991507,77.23092389991507,77.23092389991507,77.52982679987326,78.66274099983275,78.66274099983275,78.66274099983275,78.66274099983275,78.66274099983275,78.66274099983275,78.66274099983275,78.66274099983275,78.66274099983275,78.66274099983275,78.66274099983275,78.66274099983275,78.66274099983275,78.66274099983275,80.09460949990898,80.09460949990898,80.09460949990898,80.09460949990898,80.09460949990898,80.09460949990898,80.09460949990898,72,45,47,59,72,60,80.09460949990898,81.74539469997399,,,,,,,,,,,,,,,,,,,003,f,20,2023-05-13_13h38.18.930,RL,2022.2.5,60.36558604904619,
53,57,50,73,0,9,9,9,,,,,,,,,,,None,81.74539469997399,81.74539469997399,81.74539469997399,81.74539469997399,81.74539469997399,81.74539469997399,f,0.4874243000522256,82.26406669989228,82.26406669989228,82.26406669989228,82.26406669989228,82.26406669989228,82.26406669989228,82.56235349993221,84.4117988999933,84.4117988999933,84.4117988999933,84.4117988999933,84.4117988999933,84.4117988999933,84.39518829993904,84.4117988999933,84.4117988999933,84.4117988999933,84.4117988999933,84.4117988999933,84.4117988999933,84.4117988999933,86.54307079990394,86.54307079990394,86.54307079990394,86.54307079990394,86.54307079990394,86.54307079990394,86.54307079990394,73,50,53,57,73,60,86.54307079990394,88.07716219988652,,,,,,,,,,,,,,,,,,,003,f,20,2023-05-13_13h38.18.930,RL,2022.2.5,60.36558604904619,
55,54,59,68,0,10,10,10,,,,,,,,,,,None,88.07716219988652,88.07716219988652,88.07716219988652,88.07716219988652,88.07716219988652,88.07716219988652,f,0.508703000145033,88.6123021999374,88.6123021999374,88.6123021999374,88.6123021999374,88.6123021999374,88.6123021999374,88.91139120003209,90.42720069992356,90.42720069992356,90.42720069992356,90.42720069992356,90.42720069992356,90.42720069992356,90.42720069992356,90.42720069992356,90.42720069992356,90.42720069992356,90.42720069992356,90.42720069992356,90.42720069992356,90.42720069992356,92.2418887000531,92.2418887000531,92.2418887000531,92.2418887000531,92.2418887000531,92.2418887000531,92.2418887000531,68,59,55,54,68,60,92.2418887000531,93.92632870003581,,,,,,,,,,,,,,,,,,,003,f,20,2023-05-13_13h38.18.930,RL,2022.2.5,60.36558604904619,
51,54,54,74,0,11,11,11,,,,,,,,,,,None,93.92632870003581,93.92632870003581,93.92632870003581,93.92632870003581,93.92632870003581,93.92632870003581,f,0.5264898000750691,94.47681549983099,94.47681549983099,94.47681549983099,94.47681549983099,94.47681549983099,94.47681549983099,94.75988549995236,95.8429685998708,95.8429685998708,95.8429685998708,95.8429685998708,95.8429685998708,95.8429685998708,95.82672409992665,95.8429685998708,95.8429685998708,95.8429685998708,95.8429685998708,95.8429685998708,95.8429685998708,95.8429685998708,97.20793149992824,97.20793149992824,97.20793149992824,97.20793149992824,97.20793149992824,97.20793149992824,97.20793149992824,74,54,51,54,74,60,97.20793149992824,98.85916749993339,,,,,,,,,,,,,,,,,,,003,f,20,2023-05-13_13h38.18.930,RL,2022.2.5,60.36558604904619,
61,53,55,63,0,12,12,12,,,,,,,,,,,None,98.85916749993339,98.85916749993339,98.85916749993339,98.85916749993339,98.85916749993339,98.85916749993339,f,0.434261100133881,99.32765190000646,99.32765190000646,99.32765190000646,99.32765190000646,99.32765190000646,99.32765190000646,99.62579139997251,100.84213989996351,100.84213989996351,100.84213989996351,100.84213989996351,100.84213989996351,100.84213989996351,100.84213989996351,100.84213989996351,100.84213989996351,100.84213989996351,100.84213989996351,100.84213989996351,100.84213989996351,100.84213989996351,102.35690140002407,102.35690140002407,102.35690140002407,102.35690140002407,102.35690140002407,102.35690140002407,102.35690140002407,63,55,61,53,63,60,102.35690140002407,104.34145949990489,,,,,,,,,,,,,,,,,,,003,f,20,2023-05-13_13h38.18.930,RL,2022.2.5,60.36558604904619,
60,45,48,56,0,13,13,13,,,,,,,,,,,None,104.34145949990489,104.34145949990489,104.34145949990489,104.34145949990489,104.34145949990489,104.34145949990489,f,0.4012198999989778,104.77563579985872,104.77563579985872,104.77563579985872,104.77563579985872,104.77563579985872,104.77563579985872,105.05890669999644,106.74090839992277,106.74090839992277,106.74090839992277,106.74090839992277,106.74090839992277,106.74090839992277,106.72458539996296,106.74090839992277,106.74090839992277,106.74090839992277,106.74090839992277,106.74090839992277,106.74090839992277,106.74090839992277,108.7056499000173,108.7056499000173,108.7056499000173,108.7056499000173,108.7056499000173,108.7056499000173,108.7056499000173,56,48,60,45,56,60,108.7056499000173,110.69021979998797,,,,,,,,,,,,,,,,,,,003,f,20,2023-05-13_13h38.18.930,RL,2022.2.5,60.36558604904619,
63,50,52,65,0,14,14,14,,,,,,,,,,,None,110.69021979998797,110.69021979998797,110.69021979998797,110.69021979998797,110.69021979998797,110.69021979998797,f,0.5109474000055343,111.22403090004809,111.22403090004809,111.22403090004809,111.22403090004809,111.22403090004809,111.22403090004809,111.50772049999796,113.37314669997431,113.37314669997431,113.37314669997431,113.37314669997431,113.37314669997431,113.37314669997431,113.35665179998614,113.37314669997431,113.37314669997431,113.37314669997431,113.37314669997431,113.37314669997431,113.37314669997431,113.37314669997431,115.52135060005821,115.52135060005821,115.52135060005821,115.52135060005821,115.52135060005821,115.52135060005821,115.52135060005821,65,52,63,50,65,60,115.52135060005821,117.40609359997325,,,,,,,,,,,,,,,,,,,003,f,20,2023-05-13_13h38.18.930,RL,2022.2.5,60.36558604904619,
58,48,51,69,0,15,15,15,,,,,,,,,,,None,117.40609359997325,117.40609359997325,117.40609359997325,117.40609359997325,117.40609359997325,117.40609359997325,f,0.5682511997874826,118.00938619999215,118.00938619999215,118.00938619999215,118.00938619999215,118.00938619999215,118.00938619999215,118.30607039993629,119.32323309988715,119.32323309988715,119.32323309988715,119.32323309988715,119.32323309988715,119.32323309988715,119.32323309988715,119.32323309988715,119.32323309988715,119.32323309988715,119.32323309988715,119.32323309988715,119.32323309988715,119.32323309988715,120.63710459996946,120.63710459996946,120.63710459996946,120.63710459996946,120.63710459996946,120.63710459996946,120.63710459996946,69,51,58,48,69,60,120.63710459996946,122.3219002999831,,,,,,,,,,,,,,,,,,,003,f,20,2023-05-13_13h38.18.930,RL,2022.2.5,60.36558604904619,
56,57,46,62,0,16,16,16,,,,,,,,,,,None,122.3219002999831,122.3219002999831,122.3219002999831,122.3219002999831,122.3219002999831,122.3219002999831,f,0.32261530007235706,122.67499259999022,122.67499259999022,122.67499259999022,122.67499259999022,122.67499259999022,122.67499259999022,122.95542679983191,124.32135859993286,124.32135859993286,124.32135859993286,124.32135859993286,124.32135859993286,124.32135859993286,124.30508369999006,124.32135859993286,124.32135859993286,124.32135859993286,124.32135859993286,124.32135859993286,124.32135859993286,124.32135859993286,125.96975139994174,125.96975139994174,125.96975139994174,125.96975139994174,125.96975139994174,125.96975139994174,125.96975139994174,62,46,56,57,62,60,125.96975139994174,127.50372479995713,,,,,,,,,,,,,,,,,,,003,f,20,2023-05-13_13h38.18.930,RL,2022.2.5,60.36558604904619,
57,48,51,77,0,17,17,17,,,,,,,,,,,None,127.50372479995713,127.50372479995713,127.50372479995713,127.50372479995713,127.50372479995713,127.50372479995713,f,0.36569859995506704,127.88969790004194,127.88969790004194,127.88969790004194,127.88969790004194,127.88969790004194,127.88969790004194,128.1710322999861,130.15428310004063,130.15428310004063,130.15428310004063,130.15428310004063,130.15428310004063,130.15428310004063,130.1374746998772,130.15428310004063,130.15428310004063,130.15428310004063,130.15428310004063,130.15428310004063,130.15428310004063,130.15428310004063,132.4188736998476,132.4188736998476,132.4188736998476,132.4188736998476,132.4188736998476,132.4188736998476,132.4188736998476,77,51,57,48,77,60,132.4188736998476,134.0860335000325,,,,,,,,,,,,,,,,,,,003,f,20,2023-05-13_13h38.18.930,RL,2022.2.5,60.36558604904619,
65,44,44,67,0,18,18,18,,,,,,,,,,,None,134.0860335000325,134.0860335000325,134.0860335000325,134.0860335000325,134.0860335000325,134.0860335000325,f,0.5276367000769824,134.6367691999767,134.6367691999767,134.6367691999767,134.6367691999767,134.6367691999767,134.6367691999767,134.9201040000189,135.9526211998891,135.9526211998891,135.9526211998891,135.9526211998891,135.9526211998891,135.9526211998891,135.93595569999889,135.9526211998891,135.9526211998891,135.9526211998891,135.9526211998891,135.9526211998891,135.9526211998891,135.9526211998891,137.26731020002626,137.26731020002626,137.26731020002626,137.26731020002626,137.26731020002626,137.26731020002626,137.26731020002626,67,44,65,44,67,60,137.26731020002626,138.8189856999088,,,,,,,,,,,,,,,,,,,003,f,20,2023-05-13_13h38.18.930,RL,2022.2.5,60.36558604904619,
64,52,44,65,0,19,19,19,,,,,,,,,,,None,138.8189856999088,138.8189856999088,138.8189856999088,138.8189856999088,138.8189856999088,138.8189856999088,f,0.834569500060752,139.68715059990063,139.68715059990063,139.68715059990063,139.68715059990063,139.68715059990063,139.68715059990063,139.98549150000326,140.95213579991832,140.95213579991832,140.95213579991832,140.95213579991832,140.95213579991832,140.95213579991832,140.93527689995244,140.95213579991832,140.95213579991832,140.95213579991832,140.95213579991832,140.95213579991832,140.95213579991832,140.95213579991832,142.19992649997585,142.19992649997585,142.19992649997585,142.19992649997585,142.19992649997585,142.19992649997585,142.19992649997585,65,44,64,52,65,60,142.19992649997585,144.13410019990988,,,,,,,,,,,,,,,,,,,003,f,20,2023-05-13_13h38.18.930,RL,2022.2.5,60.36558604904619,
54,52,47,67,0,20,20,20,,,,,,,,,,,None,144.13410019990988,144.13410019990988,144.13410019990988,144.13410019990988,144.13410019990988,144.13410019990988,f,0.33841639989987016,144.50132269994356,144.50132269994356,144.50132269994356,144.50132269994356,144.50132269994356,144.50132269994356,144.80121880001388,145.834405799862,145.834405799862,145.834405799862,145.834405799862,145.834405799862,145.834405799862,145.834405799862,145.834405799862,145.834405799862,145.834405799862,145.834405799862,145.834405799862,145.834405799862,145.834405799862,147.1656810999848,147.1656810999848,147.1656810999848,147.1656810999848,147.1656810999848,147.1656810999848,147.1656810999848,67,47,54,52,67,60,147.1656810999848,148.88417199999094,,,,,,,,,,,,,,,,,,,003,f,20,2023-05-13_13h38.18.930,RL,2022.2.5,60.36558604904619,
57,56,38,63,0,21,21,21,,,,,,,,,,,None,148.88417199999094,148.88417199999094,148.88417199999094,148.88417199999094,148.88417199999094,148.88417199999094,f,0.5882790999021381,149.5004894998856,149.5004894998856,149.5004894998856,149.5004894998856,149.5004894998856,149.5004894998856,149.80083129997365,150.61677509988658,150.61677509988658,150.61677509988658,150.61677509988658,150.61677509988658,150.61677509988658,150.61677509988658,150.61677509988658,150.61677509988658,150.61677509988658,150.61677509988658,150.61677509988658,150.61677509988658,150.61677509988658,151.73203469999135,151.73203469999135,151.73203469999135,151.73203469999135,151.73203469999135,151.73203469999135,151.73203469999135,63,38,57,56,63,60,151.73203469999135,153.28309559985064,,,,,,,,,,,,,,,,,,,003,f,20,2023-05-13_13h38.18.930,RL,2022.2.5,60.36558604904619,
57,66,55,76,0,22,22,22,,,,,,,,,,,None,153.28309559985064,153.28309559985064,153.28309559985064,153.28309559985064,153.28309559985064,153.28309559985064,r,0.4241582998074591,153.7331653998699,153.7331653998699,153.7331653998699,153.7331653998699,153.7331653998699,153.7331653998699,154.01627360004932,155.7826250998769,155.7826250998769,155.7826250998769,155.7826250998769,155.7826250998769,155.7826250998769,155.76604659995064,155.7826250998769,155.7826250998769,155.7826250998769,155.7826250998769,155.7826250998769,155.7826250998769,155.7826250998769,157.83106649992988,157.83106649992988,157.83106649992988,157.83106649992988,157.83106649992988,157.83106649992988,157.83106649992988,76,55,57,66,55,60,157.83106649992988,159.5813323999755,,,,,,,,,,,,,,,,,,,003,f,20,2023-05-13_13h38.18.930,RL,2022.2.5,60.36558604904619,
57,67,47,69,0,23,23,23,,,,,,,,,,,None,159.5813323999755,159.5813323999755,159.5813323999755,159.5813323999755,159.5813323999755,159.5813323999755,f,0.4691626999992877,160.08326589991339,160.08326589991339,160.08326589991339,160.08326589991339,160.08326589991339,160.08326589991339,160.38220610003918,162.34837360004894,162.34837360004894,162.34837360004894,162.34837360004894,162.34837360004894,162.34837360004894,162.34837360004894,162.34837360004894,162.34837360004894,162.34837360004894,162.34837360004894,162.34837360004894,162.34837360004894,162.34837360004894,164.61267049983144,164.61267049983144,164.61267049983144,164.61267049983144,164.61267049983144,164.61267049983144,164.61267049983144,69,47,57,67,69,60,164.61267049983144,166.4969613000285,,,,,,,,,,,,,,,,,,,003,f,20,2023-05-13_13h38.18.930,RL,2022.2.5,60.36558604904619,
61,66,38,69,0,24,24,24,,,,,,,,,,,None,166.4969613000285,166.4969613000285,166.4969613000285,166.4969613000285,166.4969613000285,166.4969613000285,i,0.34921210003085434,166.86467279982753,166.86467279982753,166.86467279982753,166.86467279982753,166.86467279982753,166.86467279982753,167.14788579987362,168.83012919989415,168.83012919989415,168.83012919989415,168.83012919989415,168.83012919989415,168.83012919989415,168.8142564999871,168.83012919989415,168.83012919989415,168.83012919989415,168.83012919989415,168.83012919989415,168.83012919989415,168.83012919989415,170.79553809994832,170.79553809994832,170.79553809994832,170.79553809994832,170.79553809994832,170.79553809994832,170.79553809994832,69,38,61,66,61,60,170.79553809994832,172.54679999989457,,,,,,,,,,,,,,,,,,,003,f,20,2023-05-13_13h38.18.930,RL,2022.2.5,60.36558604904619,
51,52,30,71,0,25,25,25,,,,,,,,,,,None,172.54679999989457,172.54679999989457,172.54679999989457,172.54679999989457,172.54679999989457,172.54679999989457,j,0.3579687001183629,172.93015669984743,172.93015669984743,172.93015669984743,172.93015669984743,172.93015669984743,172.93015669984743,173.2134227999486,174.84605870000087,174.84605870000087,174.84605870000087,174.84605870000087,174.84605870000087,174.84605870000087,174.8295986999292,174.84605870000087,174.84605870000087,174.84605870000087,174.84605870000087,174.84605870000087,174.84605870000087,174.84605870000087,176.76022099982947,176.76022099982947,176.76022099982947,176.76022099982947,176.76022099982947,176.76022099982947,176.76022099982947,71,30,51,52,52,60,176.76022099982947,178.72899489989504,,,,,,,,,,,,,,,,,,,003,f,20,2023-05-13_13h38.18.930,RL,2022.2.5,60.36558604904619,
55,62,38,63,0,26,26,26,,,,,,,,,,,None,178.72899489989504,178.72899489989504,178.72899489989504,178.72899489989504,178.72899489989504,178.72899489989504,f,0.480948300100863,179.23035679990426,179.23035679990426,179.23035679990426,179.23035679990426,179.23035679990426,179.23035679990426,179.5292211000342,181.42822070000693,181.42822070000693,181.42822070000693,181.42822070000693,181.42822070000693,181.42822070000693,181.42822070000693,181.42822070000693,181.42822070000693,181.42822070000693,181.42822070000693,181.42822070000693,181.42822070000693,181.42822070000693,183.62685539992526,183.62685539992526,183.62685539992526,183.62685539992526,183.62685539992526,183.62685539992526,183.62685539992526,63,38,55,62,63,60,183.62685539992526,185.37712379987352,,,,,,,,,,,,,,,,,,,003,f,20,2023-05-13_13h38.18.930,RL,2022.2.5,60.36558604904619,
52,55,31,65,0,27,27,27,,,,,,,,,,,None,185.37712379987352,185.37712379987352,185.37712379987352,185.37712379987352,185.37712379987352,185.37712379987352,j,0.4681786000728607,185.87805019994266,185.87805019994266,185.87805019994266,185.87805019994266,185.87805019994266,185.87805019994266,186.1611333999317,187.1604603000451,187.1604603000451,187.1604603000451,187.1604603000451,187.1604603000451,187.1604603000451,187.14422989985906,187.1604603000451,187.1604603000451,187.1604603000451,187.1604603000451,187.1604603000451,187.1604603000451,187.1604603000451,188.4425543998368,188.4425543998368,188.4425543998368,188.4425543998368,188.4425543998368,188.4425543998368,188.4425543998368,65,31,52,55,55,60,188.4425543998368,190.42643880005926,,,,,,,,,,,,,,,,,,,003,f,20,2023-05-13_13h38.18.930,RL,2022.2.5,60.36558604904619,
51,61,33,63,0,28,28,28,,,,,,,,,,,None,190.42643880005926,190.42643880005926,190.42643880005926,190.42643880005926,190.42643880005926,190.42643880005926,i,0.4320300999097526,190.87812689994462,190.87812689994462,190.87812689994462,190.87812689994462,190.87812689994462,190.87812689994462,191.17683240002953,193.15968209994026,193.15968209994026,193.15968209994026,193.15968209994026,193.15968209994026,193.15968209994026,193.15968209994026,193.15968209994026,193.15968209994026,193.15968209994026,193.15968209994026,193.15968209994026,193.15968209994026,193.15968209994026,195.4411619999446,195.4411619999446,195.4411619999446,195.4411619999446,195.4411619999446,195.4411619999446,195.4411619999446,63,33,51,61,51,60,195.4411619999446,197.19198999996297,,,,,,,,,,,,,,,,,,,003,f,20,2023-05-13_13h38.18.930,RL,2022.2.5,60.36558604904619,
42,62,26,60,0,29,29,29,,,,,,,,,,,None,197.19198999996297,197.19198999996297,197.19198999996297,197.19198999996297,197.19198999996297,197.19198999996297,r,0.45329670002683997,197.67632619990036,197.67632619990036,197.67632619990036,197.67632619990036,197.67632619990036,197.67632619990036,197.95922850002535,199.27558679995127,199.27558679995127,199.27558679995127,199.27558679995127,199.27558679995127,199.27558679995127,199.25883789989166,199.27558679995127,199.27558679995127,199.27558679995127,199.27558679995127,199.27558679995127,199.27558679995127,199.27558679995127,200.87356309988536,200.87356309988536,200.87356309988536,200.87356309988536,200.87356309988536,200.87356309988536,200.87356309988536,60,26,42,62,26,60,200.87356309988536,202.77462409995496,,,,,,,,,,,,,,,,,,,003,f,20,2023-05-13_13h38.18.930,RL,2022.2.5,60.36558604904619,
44,58,34,60,0,30,30,30,,,,,,,,,,,None,202.77462409995496,202.77462409995496,202.77462409995496,202.77462409995496,202.77462409995496,202.77462409995496,f,0.4442427000030875,203.24169159983285,203.24169159983285,203.24169159983285,203.24169159983285,203.24169159983285,203.24169159983285,203.52506959997118,205.54030959983356,205.54030959983356,205.54030959983356,205.54030959983356,205.54030959983356,205.54030959983356,205.5241517999675,205.54030959983356,205.54030959983356,205.54030959983356,205.54030959983356,205.54030959983356,205.54030959983356,205.54030959983356,207.82183060003445,207.82183060003445,207.82183060003445,207.82183060003445,207.82183060003445,207.82183060003445,207.82183060003445,60,34,44,58,60,60,207.82183060003445,209.37356489989907,,,,,,,,,,,,,,,,,,,003,f,20,2023-05-13_13h38.18.930,RL,2022.2.5,60.36558604904619,
34,61,40,65,0,31,31,31,,,,,,,,,,,None,209.37356489989907,209.37356489989907,209.37356489989907,209.37356489989907,209.37356489989907,209.37356489989907,f,0.5369724000338465,209.9442779000383,209.9442779000383,209.9442779000383,209.9442779000383,209.9442779000383,209.9442779000383,210.2237272998318,211.28961679991335,211.28961679991335,211.28961679991335,211.28961679991335,211.28961679991335,211.28961679991335,211.2563519999385,211.28961679991335,211.28961679991335,211.28961679991335,211.28961679991335,211.28961679991335,211.28961679991335,211.28961679991335,212.6212349999696,212.6212349999696,212.6212349999696,212.6212349999696,212.6212349999696,212.6212349999696,212.6212349999696,65,40,34,61,65,60,212.6212349999696,214.62224289984442,,,,,,,,,,,,,,,,,,,003,f,20,2023-05-13_13h38.18.930,RL,2022.2.5,60.36558604904619,
43,55,33,62,0,32,32,32,,,,,,,,,,,None,214.62224289984442,214.62224289984442,214.62224289984442,214.62224289984442,214.62224289984442,214.62224289984442,f,0.48460459988564253,215.14048649999313,215.14048649999313,215.14048649999313,215.14048649999313,215.14048649999313,215.14048649999313,215.42237279983237,217.02210419997573,217.02210419997573,217.02210419997573,217.02210419997573,217.02210419997573,217.02210419997573,217.00542719988152,217.02210419997573,217.02210419997573,217.02210419997573,217.02210419997573,217.02210419997573,217.02210419997573,217.02210419997573,218.903372899862,218.903372899862,218.903372899862,218.903372899862,218.903372899862,218.903372899862,218.903372899862,62,33,43,55,62,60,218.903372899862,220.6548246999737,,,,,,,,,,,,,,,,,,,003,f,20,2023-05-13_13h38.18.930,RL,2022.2.5,60.36558604904619,
44,53,29,62,0,33,33,33,,,,,,,,,,,None,220.6548246999737,220.6548246999737,220.6548246999737,220.6548246999737,220.6548246999737,220.6548246999737,f,0.3807758002076298,221.05486309994012,221.05486309994012,221.05486309994012,221.05486309994012,221.05486309994012,221.05486309994012,221.33829169999808,223.25393130001612,223.25393130001612,223.25393130001612,223.25393130001612,223.25393130001612,223.25393130001612,223.2372373000253,223.25393130001612,223.25393130001612,223.25393130001612,223.25393130001612,223.25393130001612,223.25393130001612,223.25393130001612,225.45220379997045,225.45220379997045,225.45220379997045,225.45220379997045,225.45220379997045,225.45220379997045,225.45220379997045,62,29,44,53,62,60,225.45220379997045,227.0706943999976,,,,,,,,,,,,,,,,,,,003,f,20,2023-05-13_13h38.18.930,RL,2022.2.5,60.36558604904619,
39,55,33,61,0,34,34,34,,,,,,,,,,,None,227.0706943999976,227.0706943999976,227.0706943999976,227.0706943999976,227.0706943999976,227.0706943999976,f,0.36430069990456104,227.45506289997138,227.45506289997138,227.45506289997138,227.45506289997138,227.45506289997138,227.45506289997138,227.7373730998952,228.92022149986587,228.92022149986587,228.92022149986587,228.92022149986587,228.92022149986587,228.92022149986587,228.90358489984646,228.92022149986587,228.92022149986587,228.92022149986587,228.92022149986587,228.92022149986587,228.92022149986587,228.92022149986587,230.3845670998562,230.3845670998562,230.3845670998562,230.3845670998562,230.3845670998562,230.3845670998562,230.3845670998562,61,33,39,55,61,60,230.3845670998562,232.2027673998382,,,,,,,,,,,,,,,,,,,003,f,20,2023-05-13_13h38.18.930,RL,2022.2.5,60.36558604904619,
39,51,29,57,0,35,35,35,,,,,,,,,,,None,232.2027673998382,232.2027673998382,232.2027673998382,232.2027673998382,232.2027673998382,232.2027673998382,j,0.46592170000076294,232.68618569988757,232.68618569988757,232.68618569988757,232.68618569988757,232.68618569988757,232.68618569988757,232.96972159994766,234.03599000000395,234.03599000000395,234.03599000000395,234.03599000000395,234.03599000000395,234.03599000000395,234.01927269995213,234.03599000000395,234.03599000000395,234.03599000000395,234.03599000000395,234.03599000000395,234.03599000000395,234.03599000000395,235.38352999999188,235.38352999999188,235.38352999999188,235.38352999999188,235.38352999999188,235.38352999999188,235.38352999999188,57,29,39,51,51,60,235.38352999999188,237.31865140004084,,,,,,,,,,,,,,,,,,,003,f,20,2023-05-13_13h38.18.930,RL,2022.2.5,60.36558604904619,
34,43,35,56,0,36,36,36,,,,,,,,,,,None,237.31865140004084,237.31865140004084,237.31865140004084,237.31865140004084,237.31865140004084,237.31865140004084,i,0.3666109999176115,237.70302849984728,237.70302849984728,237.70302849984728,237.70302849984728,237.70302849984728,237.70302849984728,237.98544749990106,239.5847871999722,239.5847871999722,239.5847871999722,239.5847871999722,239.5847871999722,239.5847871999722,239.56845139991492,239.5847871999722,239.5847871999722,239.5847871999722,239.5847871999722,239.5847871999722,239.5847871999722,239.5847871999722,241.46613339986652,241.46613339986652,241.46613339986652,241.46613339986652,241.46613339986652,241.46613339986652,241.46613339986652,56,35,34,43,34,60,241.46613339986652,243.2338878000155,,,,,,,,,,,,,,,,,,,003,f,20,2023-05-13_13h38.18.930,RL,2022.2.5,60.36558604904619,
37,44,25,49,0,37,37,37,,,,,,,,,,,None,243.2338878000155,243.2338878000155,243.2338878000155,243.2338878000155,243.2338878000155,243.2338878000155,r,0.5508322999812663,243.8180062000174,243.8180062000174,243.8180062000174,243.8180062000174,243.8180062000174,243.8180062000174,244.1007006999571,245.91678570001386,245.91678570001386,245.91678570001386,245.91678570001386,245.91678570001386,245.91678570001386,245.90069209993817,245.91678570001386,245.91678570001386,245.91678570001386,245.91678570001386,245.91678570001386,245.91678570001386,245.91678570001386,248.01489049987867,248.01489049987867,248.01489049987867,248.01489049987867,248.01489049987867,248.01489049987867,248.01489049987867,49,25,37,44,25,60,248.01489049987867,249.98270659986883,,,,,,,,,,,,,,,,,,,003,f,20,2023-05-13_13h38.18.930,RL,2022.2.5,60.36558604904619,
47,47,26,58,0,38,38,38,,,,,,,,,,,None,249.98270659986883,249.98270659986883,249.98270659986883,249.98270659986883,249.98270659986883,249.98270659986883,f,0.5031789999920875,250.51649730000645,250.51649730000645,250.51649730000645,250.51649730000645,250.51649730000645,250.51649730000645,250.79984720004722,251.66601289995015,251.66601289995015,251.66601289995015,251.66601289995015,251.66601289995015,251.66601289995015,251.64928209991194,251.66601289995015,251.66601289995015,251.66601289995015,251.66601289995015,251.66601289995015,251.66601289995015,251.66601289995015,252.81419739988633,252.81419739988633,252.81419739988633,252.81419739988633,252.81419739988633,252.81419739988633,252.81419739988633,58,26,47,47,58,60,252.81419739988633,254.78165160003118,,,,,,,,,,,,,,,,,,,003,f,20,2023-05-13_13h38.18.930,RL,2022.2.5,60.36558604904619,
56,49,29,50,0,39,39,39,,,,,,,,,,,None,254.78165160003118,254.78165160003118,254.78165160003118,254.78165160003118,254.78165160003118,254.78165160003118,f,0.42010560003109276,255.2360461000353,255.2360461000353,255.2360461000353,255.2360461000353,255.2360461000353,255.2360461000353,255.53229000000283,256.7150985999033,256.7150985999033,256.7150985999033,256.7150985999033,256.7150985999033,256.7150985999033,256.7150985999033,256.7150985999033,256.7150985999033,256.7150985999033,256.7150985999033,256.7150985999033,256.7150985999033,256.7150985999033,258.1966661999468,258.1966661999468,258.1966661999468,258.1966661999468,258.1966661999468,258.1966661999468,258.1966661999468,50,29,56,49,50,60,258.1966661999468,259.84736549993977,,,,,,,,,,,,,,,,,,,003,f,20,2023-05-13_13h38.18.930,RL,2022.2.5,60.36558604904619,
45,50,19,60,0,40,40,40,,,,,,,,,,,None,259.84736549993977,259.84736549993977,259.84736549993977,259.84736549993977,259.84736549993977,259.84736549993977,None,,,,,,,,,,,,,,,,,,,,,,,,,,,,,,60,19,45,50,0,60,267.3449693999719,268.99637489998713,261.34590690000914,261.34590690000914,261.34590690000914,261.34590690000914,261.34590690000914,261.34590690000914,261.34590690000914,267.3449693999719,,,,,,,,,,,003,f,20,2023-05-13_13h38.18.930,RL,2022.2.5,60.36558604904619,
45,45,27,50,0,41,41,41,,,,,,,,,,,None,268.99637489998713,268.99637489998713,268.99637489998713,268.99637489998713,268.99637489998713,268.99637489998713,i,0.5523294000886381,269.5806028000079,269.5806028000079,269.5806028000079,269.5806028000079,269.5806028000079,269.5806028000079,269.879469800042,270.9960409998894,270.9960409998894,270.9960409998894,270.9960409998894,270.9960409998894,270.9960409998894,270.9960409998894,270.9960409998894,270.9960409998894,270.9960409998894,270.9960409998894,270.9960409998894,270.9960409998894,270.9960409998894,272.41082459990866,272.41082459990866,272.41082459990866,272.41082459990866,272.41082459990866,272.41082459990866,272.41082459990866,50,27,45,45,45,60,272.41082459990866,274.011720799841,,,,,,,,,,,,,,,,,,,003,f,20,2023-05-13_13h38.18.930,RL,2022.2.5,60.36558604904619,
39,48,23,63,0,42,42,42,,,,,,,,,,,None,274.011720799841,274.011720799841,274.011720799841,274.011720799841,274.011720799841,274.011720799841,r,0.436294199898839,274.4790419000201,274.4790419000201,274.4790419000201,274.4790419000201,274.4790419000201,274.4790419000201,274.76207589986734,276.644907400012,276.644907400012,276.644907400012,276.644907400012,276.644907400012,276.644907400012,276.62839229987003,276.644907400012,276.644907400012,276.644907400012,276.644907400012,276.644907400012,276.644907400012,276.644907400012,278.8096508998424,278.8096508998424,278.8096508998424,278.8096508998424,278.8096508998424,278.8096508998424,278.8096508998424,63,23,39,48,23,60,278.8096508998424,280.41077339998446,,,,,,,,,,,,,,,,,,,003,f,20,2023-05-13_13h38.18.930,RL,2022.2.5,60.36558604904619,
38,46,15,60,0,43,43,43,,,,,,,,,,,None,280.41077339998446,280.41077339998446,280.41077339998446,280.41077339998446,280.41077339998446,280.41077339998446,j,0.34538620011880994,280.77893419982865,280.77893419982865,280.77893419982865,280.77893419982865,280.77893419982865,280.77893419982865,281.0613635999616,282.02761580003425,282.02761580003425,282.02761580003425,282.02761580003425,282.02761580003425,282.02761580003425,282.0112109000329,282.02761580003425,282.02761580003425,282.02761580003425,282.02761580003425,282.02761580003425,282.02761580003425,282.02761580003425,283.27537909988314,283.27537909988314,283.27537909988314,283.27537909988314,283.27537909988314,283.27537909988314,283.27537909988314,60,15,38,46,46,60,283.27537909988314,285.17668929998763,,,,,,,,,,,,,,,,,,,003,f,20,2023-05-13_13h38.18.930,RL,2022.2.5,60.36558604904619,
36,47,12,61,0,44,44,44,,,,,,,,,,,None,285.17668929998763,285.17668929998763,285.17668929998763,285.17668929998763,285.17668929998763,285.17668929998763,f,0.3336394999641925,285.5448143999092,285.5448143999092,285.5448143999092,285.5448143999092,285.5448143999092,285.5448143999092,285.8436950999312,287.69312920002267,287.69312920002267,287.69312920002267,287.69312920002267,287.69312920002267,287.69312920002267,287.69312920002267,287.69312920002267,287.69312920002267,287.69312920002267,287.69312920002267,287.69312920002267,287.69312920002267,287.69312920002267,289.8409321999643,289.8409321999643,289.8409321999643,289.8409321999643,289.8409321999643,289.8409321999643,289.8409321999643,61,12,36,47,61,60,289.8409321999643,291.658763299929,,,,,,,,,,,,,,,,,,,003,f,20,2023-05-13_13h38.18.930,RL,2022.2.5,60.36558604904619,
39,49,15,63,0,45,45,45,,,,,,,,,,,None,291.658763299929,291.658763299929,291.658763299929,291.658763299929,291.658763299929,291.658763299929,f,0.579583799932152,292.26156489993446,292.26156489993446,292.26156489993446,292.26156489993446,292.26156489993446,292.26156489993446,292.55891370004974,294.091850399971,294.091850399971,294.091850399971,294.091850399971,294.091850399971,294.091850399971,294.091850399971,294.091850399971,294.091850399971,294.091850399971,294.091850399971,294.091850399971,294.091850399971,294.091850399971,295.92311339988373,295.92311339988373,295.92311339988373,295.92311339988373,295.92311339988373,295.92311339988373,295.92311339988373,63,15,39,49,63,60,295.92311339988373,297.6914037000388,,,,,,,,,,,,,,,,,,,003,f,20,2023-05-13_13h38.18.930,RL,2022.2.5,60.36558604904619,
31,51,12,53,0,46,46,46,,,,,,,,,,,None,297.6914037000388,297.6914037000388,297.6914037000388,297.6914037000388,297.6914037000388,297.6914037000388,f,0.3385701000224799,298.0593198998831,298.0593198998831,298.0593198998831,298.0593198998831,298.0593198998831,298.0593198998831,298.34199459990487,299.29129539988935,299.29129539988935,299.29129539988935,299.29129539988935,299.29129539988935,299.29129539988935,299.27446449990384,299.29129539988935,299.29129539988935,299.29129539988935,299.29129539988935,299.29129539988935,299.29129539988935,299.29129539988935,300.5224534999579,300.5224534999579,300.5224534999579,300.5224534999579,300.5224534999579,300.5224534999579,300.5224534999579,53,12,31,51,53,60,300.5224534999579,302.3236720999703,,,,,,,,,,,,,,,,,,,003,f,20,2023-05-13_13h38.18.930,RL,2022.2.5,60.36558604904619,
37,48,8,58,0,47,47,47,,,,,,,,,,,None,302.3236720999703,302.3236720999703,302.3236720999703,302.3236720999703,302.3236720999703,302.3236720999703,f,0.3533375000115484,302.7098983998876,302.7098983998876,302.7098983998876,302.7098983998876,302.7098983998876,302.7098983998876,303.0070431998465,304.2401922000572,304.2401922000572,304.2401922000572,304.2401922000572,304.2401922000572,304.2401922000572,304.2401922000572,304.2401922000572,304.2401922000572,304.2401922000572,304.2401922000572,304.2401922000572,304.2401922000572,304.2401922000572,305.7717899000272,305.7717899000272,305.7717899000272,305.7717899000272,305.7717899000272,305.7717899000272,305.7717899000272,58,8,37,48,58,60,305.7717899000272,307.5393866999075,,,,,,,,,,,,,,,,,,,003,f,20,2023-05-13_13h38.18.930,RL,2022.2.5,60.36558604904619,
30,58,18,69,0,48,48,48,,,,,,,,,,,None,307.5393866999075,307.5393866999075,307.5393866999075,307.5393866999075,307.5393866999075,307.5393866999075,f,0.40201830002479255,307.9766066998709,307.9766066998709,307.9766066998709,307.9766066998709,307.9766066998709,307.9766066998709,308.2731999999378,310.0393715000246,310.0393715000246,310.0393715000246,310.0393715000246,310.0393715000246,310.0393715000246,310.0393715000246,310.0393715000246,310.0393715000246,310.0393715000246,310.0393715000246,310.0393715000246,310.0393715000246,310.0393715000246,312.1037041998934,312.1037041998934,312.1037041998934,312.1037041998934,312.1037041998934,312.1037041998934,312.1037041998934,69,18,30,58,69,60,312.1037041998934,314.08820219989866,,,,,,,,,,,,,,,,,,,003,f,20,2023-05-13_13h38.18.930,RL,2022.2.5,60.36558604904619,
26,59,18,72,0,49,49,49,,,,,,,,,,,None,314.08820219989866,314.08820219989866,314.08820219989866,314.08820219989866,314.08820219989866,314.08820219989866,f,0.8977406001649797,315.00853449990973,315.00853449990973,315.00853449990973,315.00853449990973,315.00853449990973,315.00853449990973,315.2888606998604,317.0383792000357,317.0383792000357,317.0383792000357,317.0383792000357,317.0383792000357,317.0383792000357,317.00500550004654,317.0383792000357,317.0383792000357,317.0383792000357,317.0383792000357,317.0383792000357,317.0383792000357,317.0383792000357,319.069212900009,319.069212900009,319.069212900009,319.069212900009,319.069212900009,319.069212900009,319.069212900009,72,18,26,59,72,60,319.069212900009,320.8706712999847,,,,,,,,,,,,,,,,,,,003,f,20,2023-05-13_13h38.18.930,RL,2022.2.5,60.36558604904619,
29,52,22,67,0,50,50,50,,,,,,,,,,,None,320.8706712999847,320.8706712999847,320.8706712999847,320.8706712999847,320.8706712999847,320.8706712999847,f,0.4953628999646753,321.38887739996426,321.38887739996426,321.38887739996426,321.38887739996426,321.38887739996426,321.38887739996426,321.670779600041,323.553743599914,323.553743599914,323.553743599914,323.553743599914,323.553743599914,323.553743599914,323.5368220000528,323.553743599914,323.553743599914,323.553743599914,323.553743599914,323.553743599914,323.553743599914,323.553743599914,325.7180494000204,325.7180494000204,325.7180494000204,325.7180494000204,325.7180494000204,325.7180494000204,325.7180494000204,67,22,29,52,67,60,325.7180494000204,327.43565979995765,,,,,,,,,,,,,,,,,,,003,f,20,2023-05-13_13h38.18.930,RL,2022.2.5,60.36558604904619,
27,56,24,83,0,51,51,51,,,,,,,,,,,None,327.43565979995765,327.43565979995765,327.43565979995765,327.43565979995765,327.43565979995765,327.43565979995765,f,0.32421429990790784,327.78636689996347,327.78636689996347,327.78636689996347,327.78636689996347,327.78636689996347,327.78636689996347,328.06962149986066,329.6696120998822,329.6696120998822,329.6696120998822,329.6696120998822,329.6696120998822,329.6696120998822,329.6526953999419,329.6696120998822,329.6696120998822,329.6696120998822,329.6696120998822,329.6696120998822,329.6696120998822,329.6696120998822,331.5506215998903,331.5506215998903,331.5506215998903,331.5506215998903,331.5506215998903,331.5506215998903,331.5506215998903,83,24,27,56,83,60,331.5506215998903,333.4347891998477,,,,,,,,,,,,,,,,,,,003,f,20,2023-05-13_13h38.18.930,RL,2022.2.5,60.36558604904619,
29,53,16,58,0,52,52,52,,,,,,,,,,,None,333.4347891998477,333.4347891998477,333.4347891998477,333.4347891998477,333.4347891998477,333.4347891998477,f,0.32692359993234277,333.78626239998266,333.78626239998266,333.78626239998266,333.78626239998266,333.78626239998266,333.78626239998266,334.085355799878,335.9346712999977,335.9346712999977,335.9346712999977,335.9346712999977,335.9346712999977,335.9346712999977,335.9346712999977,335.9346712999977,335.9346712999977,335.9346712999977,335.9346712999977,335.9346712999977,335.9346712999977,335.9346712999977,338.0825833999552,338.0825833999552,338.0825833999552,338.0825833999552,338.0825833999552,338.0825833999552,338.0825833999552,58,16,29,53,58,60,338.0825833999552,340.0673611999955,,,,,,,,,,,,,,,,,,,003,f,20,2023-05-13_13h38.18.930,RL,2022.2.5,60.36558604904619,
36,58,29,75,0,53,53,53,,,,,,,,,,,None,340.0673611999955,340.0673611999955,340.0673611999955,340.0673611999955,340.0673611999955,340.0673611999955,f,0.4212818001396954,340.5174767000135,340.5174767000135,340.5174767000135,340.5174767000135,340.5174767000135,340.5174767000135,340.80097949993797,341.6338605999481,341.6338605999481,341.6338605999481,341.6338605999481,341.6338605999481,341.6338605999481,341.61723649990745,341.6338605999481,341.6338605999481,341.6338605999481,341.6338605999481,341.6338605999481,341.6338605999481,341.6338605999481,342.74851499986835,342.74851499986835,342.74851499986835,342.74851499986835,342.74851499986835,342.74851499986835,342.74851499986835,75,29,36,58,75,60,342.74851499986835,344.69974329997785,,,,,,,,,,,,,,,,,,,003,f,20,2023-05-13_13h38.18.930,RL,2022.2.5,60.36558604904619,
34,45,23,57,0,54,54,54,,,,,,,,,,,None,344.69974329997785,344.69974329997785,344.69974329997785,344.69974329997785,344.69974329997785,344.69974329997785,f,0.3138075000606477,345.0334499999881,345.0334499999881,345.0334499999881,345.0334499999881,345.0334499999881,345.0334499999881,345.3167210998945,346.4993318999186,346.4993318999186,346.4993318999186,346.4993318999186,346.4993318999186,346.4993318999186,346.4827801999636,346.4993318999186,346.4993318999186,346.4993318999186,346.4993318999186,346.4993318999186,346.4993318999186,346.4993318999186,347.9647184999194,347.9647184999194,347.9647184999194,347.9647184999194,347.9647184999194,347.9647184999194,347.9647184999194,57,23,34,45,57,60,347.9647184999194,349.8656969999429,,,,,,,,,,,,,,,,,,,003,f,20,2023-05-13_13h38.18.930,RL,2022.2.5,60.36558604904619,
34,44,32,83,0,55,55,55,,,,,,,,,,,None,349.8656969999429,349.8656969999429,349.8656969999429,349.8656969999429,349.8656969999429,349.8656969999429,f,0.2729325001128018,350.1659718998708,350.1659718998708,350.1659718998708,350.1659718998708,350.1659718998708,350.1659718998708,350.44895650004037,351.64874730003066,351.64874730003066,351.64874730003066,351.64874730003066,351.64874730003066,351.64874730003066,351.63203409989364,351.64874730003066,351.64874730003066,351.64874730003066,351.64874730003066,351.64874730003066,351.64874730003066,351.64874730003066,353.1298487999011,353.1298487999011,353.1298487999011,353.1298487999011,353.1298487999011,353.1298487999011,353.1298487999011,83,32,34,44,83,60,353.1298487999011,355.08125459984876,,,,,,,,,,,,,,,,,,,003,f,20,2023-05-13_13h38.18.930,RL,2022.2.5,60.36558604904619,
32,44,30,84,0,56,56,56,,,,,,,,,,,None,355.08125459984876,355.08125459984876,355.08125459984876,355.08125459984876,355.08125459984876,355.08125459984876,f,0.2952439999207854,355.398750100052,355.398750100052,355.398750100052,355.398750100052,355.398750100052,355.398750100052,355.681331000058,356.8809342000168,356.8809342000168,356.8809342000168,356.8809342000168,356.8809342000168,356.8809342000168,356.86480630002916,356.8809342000168,356.8809342000168,356.8809342000168,356.8809342000168,356.8809342000168,356.8809342000168,356.8809342000168,358.36292869993486,358.36292869993486,358.36292869993486,358.36292869993486,358.36292869993486,358.36292869993486,358.36292869993486,84,30,32,44,84,60,358.36292869993486,360.1638722999487,,,,,,,,,,,,,,,,,,,003,f,20,2023-05-13_13h38.18.930,RL,2022.2.5,60.36558604904619,
29,43,21,80,0,57,57,57,,,,,,,,,,,None,360.1638722999487,360.1638722999487,360.1638722999487,360.1638722999487,360.1638722999487,360.1638722999487,f,0.28873850009404123,360.48438439983875,360.48438439983875,360.48438439983875,360.48438439983875,360.48438439983875,360.48438439983875,360.78082789992914,362.730156699894,362.730156699894,362.730156699894,362.730156699894,362.730156699894,362.730156699894,362.730156699894,362.730156699894,362.730156699894,362.730156699894,362.730156699894,362.730156699894,362.730156699894,362.730156699894,364.9784224999603,364.9784224999603,364.9784224999603,364.9784224999603,364.9784224999603,364.9784224999603,364.9784224999603,80,21,29,43,80,60,364.9784224999603,366.8462076999713,,,,,,,,,,,,,,,,,,,003,f,20,2023-05-13_13h38.18.930,RL,2022.2.5,60.36558604904619,
32,48,18,85,0,58,58,58,,,,,,,,,,,None,366.8462076999713,366.8462076999713,366.8462076999713,366.8462076999713,366.8462076999713,366.8462076999713,f,0.3298589999321848,367.1968402999919,367.1968402999919,367.1968402999919,367.1968402999919,367.1968402999919,367.1968402999919,367.4797067998443,369.3201752998866,369.3201752998866,369.3201752998866,369.3201752998866,369.3201752998866,369.3201752998866,369.2622960000299,369.3201752998866,369.3201752998866,369.3201752998866,369.3201752998866,369.3201752998866,369.3201752998866,369.3201752998866,371.3933657000307,371.3933657000307,371.3933657000307,371.3933657000307,371.3933657000307,371.3933657000307,371.3933657000307,85,18,32,48,85,60,371.3933657000307,373.1611667999532,,,,,,,,,,,,,,,,,,,003,f,20,2023-05-13_13h38.18.930,RL,2022.2.5,60.36558604904619,
30,43,23,84,0,59,59,59,,,,,,,,,,,None,373.1611667999532,373.1611667999532,373.1611667999532,373.1611667999532,373.1611667999532,373.1611667999532,f,0.33500430011190474,373.5291979999747,373.5291979999747,373.5291979999747,373.5291979999747,373.5291979999747,373.5291979999747,373.8116230999585,375.4279873999767,375.4279873999767,375.4279873999767,375.4279873999767,375.4279873999767,375.4279873999767,375.411390400026,375.4279873999767,375.4279873999767,375.4279873999767,375.4279873999767,375.4279873999767,375.4279873999767,375.4279873999767,377.32588989986107,377.32588989986107,377.32588989986107,377.32588989986107,377.32588989986107,377.32588989986107,377.32588989986107,84,23,30,43,84,60,377.32588989986107,378.96027010004036,,,,,,,,,,,,,,,,,,,003,f,20,2023-05-13_13h38.18.930,RL,2022.2.5,60.36558604904619,
32,43,22,85,0,60,60,60,,,,,,,,,,,None,378.96027010004036,378.96027010004036,378.96027010004036,378.96027010004036,378.96027010004036,378.96027010004036,f,0.3571635999251157,379.34413639991544,379.34413639991544,379.34413639991544,379.34413639991544,379.34413639991544,379.34413639991544,379.6273540998809,381.34337110002525,381.34337110002525,381.34337110002525,381.34337110002525,381.34337110002525,381.34337110002525,381.32699649990536,381.34337110002525,381.34337110002525,381.34337110002525,381.34337110002525,381.34337110002525,381.34337110002525,381.34337110002525,383.3417773998808,383.3417773998808,383.3417773998808,383.3417773998808,383.3417773998808,383.3417773998808,383.3417773998808,85,22,32,43,85,60,383.3417773998808,384.9591581998393,,,,,,,,,,,,,,,,,,,003,f,20,2023-05-13_13h38.18.930,RL,2022.2.5,60.36558604904619,
29,36,25,79,0,61,61,61,,,,,,,,,,,None,384.9591581998393,384.9591581998393,384.9591581998393,384.9591581998393,384.9591581998393,384.9591581998393,f,0.35948710003867745,385.3446545000188,385.3446545000188,385.3446545000188,385.3446545000188,385.3446545000188,385.3446545000188,385.6427555999253,386.72614549985155,386.72614549985155,386.72614549985155,386.72614549985155,386.72614549985155,386.72614549985155,386.7096895999275,386.72614549985155,386.72614549985155,386.72614549985155,386.72614549985155,386.72614549985155,386.72614549985155,386.72614549985155,388.1074099999387,388.1074099999387,388.1074099999387,388.1074099999387,388.1074099999387,388.1074099999387,388.1074099999387,79,25,29,36,79,60,388.1074099999387,390.0248902000021,,,,,,,,,,,,,,,,,,,003,f,20,2023-05-13_13h38.18.930,RL,2022.2.5,60.36558604904619,
32,41,26,80,0,62,62,62,,,,,,,,,,,None,390.0248902000021,390.0248902000021,390.0248902000021,390.0248902000021,390.0248902000021,390.0248902000021,f,0.26437430013902485,390.3105542999692,390.3105542999692,390.3105542999692,390.3105542999692,390.3105542999692,390.3105542999692,390.60885089985095,391.5086333998479,391.5086333998479,391.5086333998479,391.5086333998479,391.5086333998479,391.5086333998479,391.5086333998479,391.5086333998479,391.5086333998479,391.5086333998479,391.5086333998479,391.5086333998479,391.5086333998479,391.5086333998479,392.7067543999292,392.7067543999292,392.7067543999292,392.7067543999292,392.7067543999292,392.7067543999292,392.7067543999292,80,26,32,41,80,60,392.7067543999292,394.6245662998408,,,,,,,,,,,,,,,,,,,003,f,20,2023-05-13_13h38.18.930,RL,2022.2.5,60.36558604904619,
24,31,29,75,0,63,63,63,,,,,,,,,,,None,394.6245662998408,394.6245662998408,394.6245662998408,394.6245662998408,394.6245662998408,394.6245662998408,f,0.27835019980557263,394.92706079990603,394.92706079990603,394.92706079990603,394.92706079990603,394.92706079990603,394.92706079990603,395.22482350002974,396.3244395998772,396.3244395998772,396.3244395998772,396.3244395998772,396.3244395998772,396.3244395998772,396.3244395998772,396.3244395998772,396.3244395998772,396.3244395998772,396.3244395998772,396.3244395998772,396.3244395998772,396.3244395998772,397.7223684999626,397.7223684999626,397.7223684999626,397.7223684999626,397.7223684999626,397.7223684999626,397.7223684999626,75,29,24,31,75,60,397.7223684999626,399.44010320003144,,,,,,,,,,,,,,,,,,,003,f,20,2023-05-13_13h38.18.930,RL,2022.2.5,60.36558604904619,
27,36,27,66,0,64,64,64,,,,,,,,,,,None,399.44010320003144,399.44010320003144,399.44010320003144,399.44010320003144,399.44010320003144,399.44010320003144,j,0.3953119998332113,399.8589186000172,399.8589186000172,399.8589186000172,399.8589186000172,399.8589186000172,399.8589186000172,400.1402975998353,401.93972519994713,401.93972519994713,401.93972519994713,401.93972519994713,401.93972519994713,401.93972519994713,401.9235588000156,401.93972519994713,401.93972519994713,401.93972519994713,401.93972519994713,401.93972519994713,401.93972519994713,401.93972519994713,404.02121639996767,404.02121639996767,404.02121639996767,404.02121639996767,404.02121639996767,404.02121639996767,404.02121639996767,66,27,27,36,36,60,404.02121639996767,405.53903650003485,,,,,,,,,,,,,,,,,,,003,f,20,2023-05-13_13h38.18.930,RL,2022.2.5,60.36558604904619,
30,31,23,67,0,65,65,65,,,,,,,,,,,None,405.53903650003485,405.53903650003485,405.53903650003485,405.53903650003485,405.53903650003485,405.53903650003485,i,0.34250540006905794,405.9061063998379,405.9061063998379,405.9061063998379,405.9061063998379,405.9061063998379,405.9061063998379,406.18917949986644,407.93875989993103,407.93875989993103,407.93875989993103,407.93875989993103,407.93875989993103,407.93875989993103,407.92235299991444,407.93875989993103,407.93875989993103,407.93875989993103,407.93875989993103,407.93875989993103,407.93875989993103,407.93875989993103,409.97015920002013,409.97015920002013,409.97015920002013,409.97015920002013,409.97015920002013,409.97015920002013,409.97015920002013,67,23,30,31,30,60,409.97015920002013,411.65439789998345,,,,,,,,,,,,,,,,,,,003,f,20,2023-05-13_13h38.18.930,RL,2022.2.5,60.36558604904619,
38,28,20,74,0,66,66,66,,,,,,,,,,,None,411.65439789998345,411.65439789998345,411.65439789998345,411.65439789998345,411.65439789998345,411.65439789998345,r,0.3064025000203401,411.98977159988135,411.98977159988135,411.98977159988135,411.98977159988135,411.98977159988135,411.98977159988135,412.2885508998297,413.1550072999671,413.1550072999671,413.1550072999671,413.1550072999671,413.1550072999671,413.1550072999671,413.1550072999671,413.1550072999671,413.1550072999671,413.1550072999671,413.1550072999671,413.1550072999671,413.1550072999671,413.1550072999671,414.3192715998739,414.3192715998739,414.3192715998739,414.3192715998739,414.3192715998739,414.3192715998739,414.3192715998739,74,20,38,28,20,60,414.3192715998739,415.8537798000034,,,,,,,,,,,,,,,,,,,003,f,20,2023-05-13_13h38.18.930,RL,2022.2.5,60.36558604904619,
39,31,31,67,0,67,67,67,,,,,,,,,,,None,415.8537798000034,415.8537798000034,415.8537798000034,415.8537798000034,415.8537798000034,415.8537798000034,f,0.34992150007747114,416.22131459997036,416.22131459997036,416.22131459997036,416.22131459997036,416.22131459997036,416.22131459997036,416.50464759999886,417.57036280003376,417.57036280003376,417.57036280003376,417.57036280003376,417.57036280003376,417.57036280003376,417.55402999999933,417.57036280003376,417.57036280003376,417.57036280003376,417.57036280003376,417.57036280003376,417.57036280003376,417.57036280003376,418.9022792999167,418.9022792999167,418.9022792999167,418.9022792999167,418.9022792999167,418.9022792999167,418.9022792999167,67,31,39,31,67,60,418.9022792999167,420.71980179985985,,,,,,,,,,,,,,,,,,,003,f,20,2023-05-13_13h38.18.930,RL,2022.2.5,60.36558604904619,
37,27,29,65,0,68,68,68,,,,,,,,,,,None,420.71980179985985,420.71980179985985,420.71980179985985,420.71980179985985,420.71980179985985,420.71980179985985,f,0.38290650001727045,421.12087909993716,421.12087909993716,421.12087909993716,421.12087909993716,421.12087909993716,421.12087909993716,421.41957709984854,423.41944910003804,423.41944910003804,423.41944910003804,423.41944910003804,423.41944910003804,423.41944910003804,423.41944910003804,423.41944910003804,423.41944910003804,423.41944910003804,423.41944910003804,423.41944910003804,423.41944910003804,423.41944910003804,425.71768979984336,425.71768979984336,425.71768979984336,425.71768979984336,425.71768979984336,425.71768979984336,425.71768979984336,65,29,37,27,65,60,425.71768979984336,427.535118999891,,,,,,,,,,,,,,,,,,,003,f,20,2023-05-13_13h38.18.930,RL,2022.2.5,60.36558604904619,
33,29,29,62,0,69,69,69,,,,,,,,,,,None,427.535118999891,427.535118999891,427.535118999891,427.535118999891,427.535118999891,427.535118999891,f,0.42150310007855296,427.9868520000018,427.9868520000018,427.9868520000018,427.9868520000018,427.9868520000018,427.9868520000018,428.2690488998778,429.36855809995905,429.36855809995905,429.36855809995905,429.36855809995905,429.36855809995905,429.36855809995905,429.3524006998632,429.36855809995905,429.36855809995905,429.36855809995905,429.36855809995905,429.36855809995905,429.36855809995905,429.36855809995905,430.7497469999362,430.7497469999362,430.7497469999362,430.7497469999362,430.7497469999362,430.7497469999362,430.7497469999362,62,29,33,29,62,60,430.7497469999362,432.48428069986403,,,,,,,,,,,,,,,,,,,003,f,20,2023-05-13_13h38.18.930,RL,2022.2.5,60.36558604904619,
40,41,36,53,0,70,70,70,,,,,,,,,,,None,432.48428069986403,432.48428069986403,432.48428069986403,432.48428069986403,432.48428069986403,432.48428069986403,f,0.32619350007735193,432.83677639998496,432.83677639998496,432.83677639998496,432.83677639998496,432.83677639998496,432.83677639998496,433.1345001999289,434.36769840004854,434.36769840004854,434.36769840004854,434.36769840004854,434.36769840004854,434.36769840004854,434.36769840004854,434.36769840004854,434.36769840004854,434.36769840004854,434.36769840004854,434.36769840004854,434.36769840004854,434.36769840004854,435.8989432998933,435.8989432998933,435.8989432998933,435.8989432998933,435.8989432998933,435.8989432998933,435.8989432998933,53,36,40,41,53,60,435.8989432998933,437.500188899925,,,,,,,,,,,,,,,,,,,003,f,20,2023-05-13_13h38.18.930,RL,2022.2.5,60.36558604904619,
35,32,32,58,0,71,71,71,,,,,,,,,,,None,437.500188899925,437.500188899925,437.500188899925,437.500188899925,437.500188899925,437.500188899925,f,0.29140790016390383,437.8191398999188,437.8191398999188,437.8191398999188,437.8191398999188,437.8191398999188,437.8191398999188,438.1172843000386,439.60018569999374,439.60018569999374,439.60018569999374,439.60018569999374,439.60018569999374,439.60018569999374,439.60018569999374,439.60018569999374,439.60018569999374,439.60018569999374,439.60018569999374,439.60018569999374,439.60018569999374,439.60018569999374,441.38141090003774,441.38141090003774,441.38141090003774,441.38141090003774,441.38141090003774,441.38141090003774,441.38141090003774,58,32,35,32,58,60,441.38141090003774,443.08253380004317,,,,,,,,,,,,,,,,,,,003,f,20,2023-05-13_13h38.18.930,RL,2022.2.5,60.36558604904619,
35,31,29,58,0,72,72,72,,,,,,,,,,,None,443.08253380004317,443.08253380004317,443.08253380004317,443.08253380004317,443.08253380004317,443.08253380004317,f,0.28180120000615716,443.38284189999104,443.38284189999104,443.38284189999104,443.38284189999104,443.38284189999104,443.38284189999104,443.66585640003905,444.8493494000286,444.8493494000286,444.8493494000286,444.8493494000286,444.8493494000286,444.8493494000286,444.83306619990617,444.8493494000286,444.8493494000286,444.8493494000286,444.8493494000286,444.8493494000286,444.8493494000286,444.8493494000286,446.31368399993517,446.31368399993517,446.31368399993517,446.31368399993517,446.31368399993517,446.31368399993517,446.31368399993517,58,29,35,31,58,60,446.31368399993517,448.09872470004484,,,,,,,,,,,,,,,,,,,003,f,20,2023-05-13_13h38.18.930,RL,2022.2.5,60.36558604904619,
32,27,30,49,0,73,73,73,,,,,,,,,,,None,448.09872470004484,448.09872470004484,448.09872470004484,448.09872470004484,448.09872470004484,448.09872470004484,f,0.33455579984001815,448.4666577000171,448.4666577000171,448.4666577000171,448.4666577000171,448.4666577000171,448.4666577000171,448.76505589997396,450.1315723999869,450.1315723999869,450.1315723999869,450.1315723999869,450.1315723999869,450.1315723999869,450.1315723999869,450.1315723999869,450.1315723999869,450.1315723999869,450.1315723999869,450.1315723999869,450.1315723999869,450.1315723999869,451.79654469992965,451.79654469992965,451.79654469992965,451.79654469992965,451.79654469992965,451.79654469992965,451.79654469992965,49,30,32,27,49,60,451.79654469992965,453.3474546999205,,,,,,,,,,,,,,,,,,,003,f,20,2023-05-13_13h38.18.930,RL,2022.2.5,60.36558604904619,
38,30,27,64,0,74,74,74,,,,,,,,,,,None,453.3474546999205,453.3474546999205,453.3474546999205,453.3474546999205,453.3474546999205,453.3474546999205,f,0.37187799997627735,453.74790029996075,453.74790029996075,453.74790029996075,453.74790029996075,453.74790029996075,453.74790029996075,454.03093809983693,455.697410200024,455.697410200024,455.697410200024,455.697410200024,455.697410200024,455.697410200024,455.68058980000205,455.697410200024,455.697410200024,455.697410200024,455.697410200024,455.697410200024,455.697410200024,455.697410200024,457.6455601998605,457.6455601998605,457.6455601998605,457.6455601998605,457.6455601998605,457.6455601998605,457.6455601998605,64,27,38,30,64,60,457.6455601998605,459.49519369984046,,,,,,,,,,,,,,,,,,,003,f,20,2023-05-13_13h38.18.930,RL,2022.2.5,60.36558604904619,
39,31,17,52,0,75,75,75,,,,,,,,,,,q,635.9492830999661,635.9492830999661,635.9492830999661,635.9492830999661,635.9492830999661,635.9492830999661,r,0.512877999804914,636.487548999954,636.487548999954,636.487548999954,636.487548999954,636.487548999954,636.487548999954,636.7662231998984,637.9823334999382,637.9823334999382,637.9823334999382,637.9823334999382,637.9823334999382,637.9823334999382,637.948824999854,637.9823334999382,637.9823334999382,637.9823334999382,637.9823334999382,637.9823334999382,637.9823334999382,637.9823334999382,639.4636045000516,639.4636045000516,639.4636045000516,639.4636045000516,639.4636045000516,639.4636045000516,639.4636045000516,52,17,39,31,17,60,639.4636045000516,640.9982039998285,,,,,,,,,459.49519369984046,459.49519369984046,171.41541139991023,630.934294299921,630.934294299921,635.9492830999661,635.9492830999661,,,,003,f,20,2023-05-13_13h38.18.930,RL,2022.2.5,60.36558604904619,
36,43,23,56,0,76,76,76,,,,,,,,,,,None,640.9982039998285,640.9982039998285,640.9982039998285,640.9982039998285,640.9982039998285,640.9982039998285,f,0.33732699998654425,641.3687266998459,641.3687266998459,641.3687266998459,641.3687266998459,641.3687266998459,641.3687266998459,641.6485629000235,643.6647021998651,643.6647021998651,643.6647021998651,643.6647021998651,643.6647021998651,643.6647021998651,643.6481482998934,643.6647021998651,643.6647021998651,643.6647021998651,643.6647021998651,643.6647021998651,643.6647021998651,643.6647021998651,645.9625019999221,645.9625019999221,645.9625019999221,645.9625019999221,645.9625019999221,645.9625019999221,645.9625019999221,56,23,36,43,56,60,645.9625019999221,647.5973267999943,,,,,,,,,,,,,,,,,,,003,f,20,2023-05-13_13h38.18.930,RL,2022.2.5,60.36558604904619,
34,36,18,60,0,77,77,77,,,,,,,,,,,None,647.5973267999943,647.5973267999943,647.5973267999943,647.5973267999943,647.5973267999943,647.5973267999943,j,0.3289133000653237,647.947805200005,647.947805200005,647.947805200005,647.947805200005,647.947805200005,647.947805200005,648.2308483000379,649.7803272998426,649.7803272998426,649.7803272998426,649.7803272998426,649.7803272998426,649.7803272998426,649.7638789999764,649.7803272998426,649.7803272998426,649.7803272998426,649.7803272998426,649.7803272998426,649.7803272998426,649.7803272998426,651.6116027999669,651.6116027999669,651.6116027999669,651.6116027999669,651.6116027999669,651.6116027999669,651.6116027999669,60,18,34,36,36,60,651.6116027999669,653.5461752999108,,,,,,,,,,,,,,,,,,,003,f,20,2023-05-13_13h38.18.930,RL,2022.2.5,60.36558604904619,
32,35,15,62,0,78,78,78,,,,,,,,,,,None,653.5461752999108,653.5461752999108,653.5461752999108,653.5461752999108,653.5461752999108,653.5461752999108,i,0.3093870999291539,653.8798199000303,653.8798199000303,653.8798199000303,653.8798199000303,653.8798199000303,653.8798199000303,654.1629302999936,655.4625776000321,655.4625776000321,655.4625776000321,655.4625776000321,655.4625776000321,655.4625776000321,655.4460509000346,655.4625776000321,655.4625776000321,655.4625776000321,655.4625776000321,655.4625776000321,655.4625776000321,655.4625776000321,657.0437715000007,657.0437715000007,657.0437715000007,657.0437715000007,657.0437715000007,657.0437715000007,657.0437715000007,62,15,32,35,32,60,657.0437715000007,658.8448164998554,,,,,,,,,,,,,,,,,,,003,f,20,2023-05-13_13h38.18.930,RL,2022.2.5,60.36558604904619,
34,39,28,68,0,79,79,79,,,,,,,,,,,None,658.8448164998554,658.8448164998554,658.8448164998554,658.8448164998554,658.8448164998554,658.8448164998554,f,0.3232573000714183,659.1971340000164,659.1971340000164,659.1971340000164,659.1971340000164,659.1971340000164,659.1971340000164,659.478632699931,661.011666999897,661.011666999897,661.011666999897,661.011666999897,661.011666999897,661.011666999897,660.9949403998908,661.011666999897,661.011666999897,661.011666999897,661.011666999897,661.011666999897,661.011666999897,661.011666999897,662.8264011999127,662.8264011999127,662.8264011999127,662.8264011999127,662.8264011999127,662.8264011999127,662.8264011999127,68,28,34,39,68,60,662.8264011999127,664.6271678998601,,,,,,,,,,,,,,,,,,,003,f,20,2023-05-13_13h38.18.930,RL,2022.2.5,60.36558604904619,
36,32,17,69,0,80,80,80,,,,,,,,,,,None,664.6271678998601,664.6271678998601,664.6271678998601,664.6271678998601,664.6271678998601,664.6271678998601,f,0.41628729994408786,665.0614324999042,665.0614324999042,665.0614324999042,665.0614324999042,665.0614324999042,665.0614324999042,665.3445305998903,667.3442873000167,667.3442873000167,667.3442873000167,667.3442873000167,667.3442873000167,667.3442873000167,667.3272728000302,667.3442873000167,667.3442873000167,667.3442873000167,667.3442873000167,667.3442873000167,667.3442873000167,667.3442873000167,669.6250596998725,669.6250596998725,669.6250596998725,669.6250596998725,669.6250596998725,669.6250596998725,669.6250596998725,69,17,36,32,69,60,669.6250596998725,671.1428310000338,,,,,,,,,,,,,,,,,,,003,f,20,2023-05-13_13h38.18.930,RL,2022.2.5,60.36558604904619,
33,36,33,68,0,81,81,81,,,,,,,,,,,None,671.1428310000338,671.1428310000338,671.1428310000338,671.1428310000338,671.1428310000338,671.1428310000338,f,0.33907540002837777,671.5112980999984,671.5112980999984,671.5112980999984,671.5112980999984,671.5112980999984,671.5112980999984,671.7936031999998,672.7265329000074,672.7265329000074,672.7265329000074,672.7265329000074,672.7265329000074,672.7265329000074,672.7096957999747,672.7265329000074,672.7265329000074,672.7265329000074,672.7265329000074,672.7265329000074,672.7265329000074,672.7265329000074,673.9410085999407,673.9410085999407,673.9410085999407,673.9410085999407,673.9410085999407,673.9410085999407,673.9410085999407,68,33,33,36,68,60,673.9410085999407,675.6920572998933,,,,,,,,,,,,,,,,,,,003,f,20,2023-05-13_13h38.18.930,RL,2022.2.5,60.36558604904619,
40,32,22,65,0,82,82,82,,,,,,,,,,,None,675.6920572998933,675.6920572998933,675.6920572998933,675.6920572998933,675.6920572998933,675.6920572998933,f,0.3342472000513226,676.0600505999755,676.0600505999755,676.0600505999755,676.0600505999755,676.0600505999755,676.0600505999755,676.3590991999954,677.7591095999815,677.7591095999815,677.7591095999815,677.7591095999815,677.7591095999815,677.7591095999815,677.7591095999815,677.7591095999815,677.7591095999815,677.7591095999815,677.7591095999815,677.7591095999815,677.7591095999815,677.7591095999815,679.4568204998504,679.4568204998504,679.4568204998504,679.4568204998504,679.4568204998504,679.4568204998504,679.4568204998504,65,22,40,32,65,60,679.4568204998504,681.0744819999672,,,,,,,,,,,,,,,,,,,003,f,20,2023-05-13_13h38.18.930,RL,2022.2.5,60.36558604904619,
43,37,28,59,0,83,83,83,,,,,,,,,,,None,681.0744819999672,681.0744819999672,681.0744819999672,681.0744819999672,681.0744819999672,681.0744819999672,f,0.40845849993638694,681.5083516999148,681.5083516999148,681.5083516999148,681.5083516999148,681.5083516999148,681.5083516999148,681.7912800000049,683.5243583999109,683.5243583999109,683.5243583999109,683.5243583999109,683.5243583999109,683.5243583999109,683.5076544999611,683.5243583999109,683.5243583999109,683.5243583999109,683.5243583999109,683.5243583999109,683.5243583999109,683.5243583999109,685.5388132999651,685.5388132999651,685.5388132999651,685.5388132999651,685.5388132999651,685.5388132999651,685.5388132999651,59,28,43,37,59,60,685.5388132999651,687.4238672000356,,,,,,,,,,,,,,,,,,,003,f,20,2023-05-13_13h38.18.930,RL,2022.2.5,60.36558604904619,
36,34,16,66,0,84,84,84,,,,,,,,,,,None,687.4238672000356,687.4238672000356,687.4238672000356,687.4238672000356,687.4238672000356,687.4238672000356,f,0.6138008998241276,688.0571024999954,688.0571024999954,688.0571024999954,688.0571024999954,688.0571024999954,688.0571024999954,688.3398907999508,689.4732863998506,689.4732863998506,689.4732863998506,689.4732863998506,689.4732863998506,689.4732863998506,689.4566285999026,689.4732863998506,689.4732863998506,689.4732863998506,689.4732863998506,689.4732863998506,689.4732863998506,689.4732863998506,690.8884045998566,690.8884045998566,690.8884045998566,690.8884045998566,690.8884045998566,690.8884045998566,690.8884045998566,66,16,36,34,66,60,690.8884045998566,692.7229277000297,,,,,,,,,,,,,,,,,,,003,f,20,2023-05-13_13h38.18.930,RL,2022.2.5,60.36558604904619,
33,32,20,59,0,85,85,85,,,,,,,,,,,None,692.7229277000297,692.7229277000297,692.7229277000297,692.7229277000297,692.7229277000297,692.7229277000297,f,0.28056810004636645,693.0228559998795,693.0228559998795,693.0228559998795,693.0228559998795,693.0228559998795,693.0228559998795,693.3062525000423,694.4059198999312,694.4059198999312,694.4059198999312,694.4059198999312,694.4059198999312,694.4059198999312,694.3893855998758,694.4059198999312,694.4059198999312,694.4059198999312,694.4059198999312,694.4059198999312,694.4059198999312,694.4059198999312,695.7870940000284,695.7870940000284,695.7870940000284,695.7870940000284,695.7870940000284,695.7870940000284,695.7870940000284,59,20,33,32,59,60,695.7870940000284,697.505133099854,,,,,,,,,,,,,,,,,,,003,f,20,2023-05-13_13h38.18.930,RL,2022.2.5,60.36558604904619,
40,29,31,65,0,86,86,86,,,,,,,,,,,None,697.505133099854,697.505133099854,697.505133099854,697.505133099854,697.505133099854,697.505133099854,f,0.44498739996924996,697.9727551999968,697.9727551999968,697.9727551999968,697.9727551999968,697.9727551999968,697.9727551999968,698.2550871998537,700.0880906998646,700.0880906998646,700.0880906998646,700.0880906998646,700.0880906998646,700.0880906998646,700.0714942000341,700.0880906998646,700.0880906998646,700.0880906998646,700.0880906998646,700.0880906998646,700.0880906998646,700.0880906998646,702.2028944999911,702.2028944999911,702.2028944999911,702.2028944999911,702.2028944999911,702.2028944999911,702.2028944999911,65,31,40,29,65,60,702.2028944999911,703.9536265998613,,,,,,,,,,,,,,,,,,,003,f,20,2023-05-13_13h38.18.930,RL,2022.2.5,60.36558604904619,
42,28,34,55,0,87,87,87,,,,,,,,,,,None,703.9536265998613,703.9536265998613,703.9536265998613,703.9536265998613,703.9536265998613,703.9536265998613,i,0.3700176998972893,704.3548013998661,704.3548013998661,704.3548013998661,704.3548013998661,704.3548013998661,704.3548013998661,704.6374846999533,705.5205812000204,705.5205812000204,705.5205812000204,705.5205812000204,705.5205812000204,705.5205812000204,705.5040410999209,705.5205812000204,705.5205812000204,705.5205812000204,705.5205812000204,705.5205812000204,705.5205812000204,705.5205812000204,706.6854152998421,706.6854152998421,706.6854152998421,706.6854152998421,706.6854152998421,706.6854152998421,706.6854152998421,55,34,42,28,42,60,706.6854152998421,708.3697116998956,,,,,,,,,,,,,,,,,,,003,f,20,2023-05-13_13h38.18.930,RL,2022.2.5,60.36558604904619,
44,24,27,54,0,88,88,88,,,,,,,,,,,None,708.3697116998956,708.3697116998956,708.3697116998956,708.3697116998956,708.3697116998956,708.3697116998956,f,0.31752869999036193,708.72021639999,708.72021639999,708.72021639999,708.72021639999,708.72021639999,708.72021639999,709.0033775998745,710.5864023999311,710.5864023999311,710.5864023999311,710.5864023999311,710.5864023999311,710.5864023999311,710.5702603999525,710.5864023999311,710.5864023999311,710.5864023999311,710.5864023999311,710.5864023999311,710.5864023999311,710.5864023999311,712.4514549998567,712.4514549998567,712.4514549998567,712.4514549998567,712.4514549998567,712.4514549998567,712.4514549998567,54,27,44,24,54,60,712.4514549998567,714.3358402999584,,,,,,,,,,,,,,,,,,,003,f,20,2023-05-13_13h38.18.930,RL,2022.2.5,60.36558604904619,
38,39,29,60,0,89,89,89,,,,,,,,,,,None,714.3358402999584,714.3358402999584,714.3358402999584,714.3358402999584,714.3358402999584,714.3358402999584,f,0.27605230011977255,714.6387914000079,714.6387914000079,714.6387914000079,714.6387914000079,714.6387914000079,714.6387914000079,714.9354042999912,716.5690068998374,716.5690068998374,716.5690068998374,716.5690068998374,716.5690068998374,716.5690068998374,716.5690068998374,716.5690068998374,716.5690068998374,716.5690068998374,716.5690068998374,716.5690068998374,716.5690068998374,716.5690068998374,718.5000654000323,718.5000654000323,718.5000654000323,718.5000654000323,718.5000654000323,718.5000654000323,718.5000654000323,60,29,38,39,60,60,718.5000654000323,720.4174295000266,,,,,,,,,,,,,,,,,,,003,f,20,2023-05-13_13h38.18.930,RL,2022.2.5,60.36558604904619,
43,41,29,64,0,90,90,90,,,,,,,,,,,None,720.4174295000266,720.4174295000266,720.4174295000266,720.4174295000266,720.4174295000266,720.4174295000266,f,0.2832333000842482,720.7181301000528,720.7181301000528,720.7181301000528,720.7181301000528,720.7181301000528,720.7181301000528,721.001341199968,722.5675816000439,722.5675816000439,722.5675816000439,722.5675816000439,722.5675816000439,722.5675816000439,722.5514022998977,722.5675816000439,722.5675816000439,722.5675816000439,722.5675816000439,722.5675816000439,722.5675816000439,722.5675816000439,724.4158119000494,724.4158119000494,724.4158119000494,724.4158119000494,724.4158119000494,724.4158119000494,724.4158119000494,64,29,43,41,64,60,724.4158119000494,726.1836457999889,,,,,,,,,,,,,,,,,,,003,f,20,2023-05-13_13h38.18.930,RL,2022.2.5,60.36558604904619,
44,24,33,55,0,91,91,91,,,,,,,,,,,None,726.1836457999889,726.1836457999889,726.1836457999889,726.1836457999889,726.1836457999889,726.1836457999889,f,0.5353866999503225,726.7516195999924,726.7516195999924,726.7516195999924,726.7516195999924,726.7516195999924,726.7516195999924,727.0501635998953,728.1499464998487,728.1499464998487,728.1499464998487,728.1499464998487,728.1499464998487,728.1499464998487,728.1499464998487,728.1499464998487,728.1499464998487,728.1499464998487,728.1499464998487,728.1499464998487,728.1499464998487,728.1499464998487,729.5481103998609,729.5481103998609,729.5481103998609,729.5481103998609,729.5481103998609,729.5481103998609,729.5481103998609,55,33,44,24,55,60,729.5481103998609,731.0990897999145,,,,,,,,,,,,,,,,,,,003,f,20,2023-05-13_13h38.18.930,RL,2022.2.5,60.36558604904619,
50,32,29,50,0,92,92,92,,,,,,,,,,,None,731.0990897999145,731.0990897999145,731.0990897999145,731.0990897999145,731.0990897999145,731.0990897999145,f,0.44233869994059205,731.5674621998332,731.5674621998332,731.5674621998332,731.5674621998332,731.5674621998332,731.5674621998332,731.8661129998509,732.7824813998304,732.7824813998304,732.7824813998304,732.7824813998304,732.7824813998304,732.7824813998304,732.7824813998304,732.7824813998304,732.7824813998304,732.7824813998304,732.7824813998304,732.7824813998304,732.7824813998304,732.7824813998304,733.9972651998978,733.9972651998978,733.9972651998978,733.9972651998978,733.9972651998978,733.9972651998978,733.9972651998978,50,29,50,32,50,60,733.9972651998978,735.9814738000277,,,,,,,,,,,,,,,,,,,003,f,20,2023-05-13_13h38.18.930,RL,2022.2.5,60.36558604904619,
45,29,32,60,0,93,93,93,,,,,,,,,,,None,735.9814738000277,735.9814738000277,735.9814738000277,735.9814738000277,735.9814738000277,735.9814738000277,j,0.32046939991414547,736.3320577000268,736.3320577000268,736.3320577000268,736.3320577000268,736.3320577000268,736.3320577000268,736.6156281000003,738.164848400047,738.164848400047,738.164848400047,738.164848400047,738.164848400047,738.164848400047,738.1482969999779,738.164848400047,738.164848400047,738.164848400047,738.164848400047,738.164848400047,738.164848400047,738.164848400047,739.9961329998914,739.9961329998914,739.9961329998914,739.9961329998914,739.9961329998914,739.9961329998914,739.9961329998914,60,32,45,29,29,60,739.9961329998914,741.6805868998636,,,,,,,,,,,,,,,,,,,003,f,20,2023-05-13_13h38.18.930,RL,2022.2.5,60.36558604904619,
42,28,38,60,0,94,94,94,,,,,,,,,,,None,741.6805868998636,741.6805868998636,741.6805868998636,741.6805868998636,741.6805868998636,741.6805868998636,r,0.2958356000017375,741.9982286000159,741.9982286000159,741.9982286000159,741.9982286000159,741.9982286000159,741.9982286000159,742.2975319998804,744.230415500002,744.230415500002,744.230415500002,744.230415500002,744.230415500002,744.230415500002,744.230415500002,744.230415500002,744.230415500002,744.230415500002,744.230415500002,744.230415500002,744.230415500002,744.230415500002,746.4622235998977,746.4622235998977,746.4622235998977,746.4622235998977,746.4622235998977,746.4622235998977,746.4622235998977,60,38,42,28,38,60,746.4622235998977,748.1961423999164,,,,,,,,,,,,,,,,,,,003,f,20,2023-05-13_13h38.18.930,RL,2022.2.5,60.36558604904619,
37,36,31,47,0,95,95,95,,,,,,,,,,,None,748.1961423999164,748.1961423999164,748.1961423999164,748.1961423999164,748.1961423999164,748.1961423999164,i,0.3358144999947399,748.566257599974,748.566257599974,748.566257599974,748.566257599974,748.566257599974,748.566257599974,748.8466507999692,750.2793669998646,750.2793669998646,750.2793669998646,750.2793669998646,750.2793669998646,750.2793669998646,750.2628069999628,750.2793669998646,750.2793669998646,750.2793669998646,750.2793669998646,750.2793669998646,750.2793669998646,750.2793669998646,751.9942650999874,751.9942650999874,751.9942650999874,751.9942650999874,751.9942650999874,751.9942650999874,751.9942650999874,47,31,37,36,37,60,751.9942650999874,753.9623463999014,,,,,,,,,,,,,,,,,,,003,f,20,2023-05-13_13h38.18.930,RL,2022.2.5,60.36558604904619,
33,30,35,56,0,96,96,96,,,,,,,,,,,None,753.9623463999014,753.9623463999014,753.9623463999014,753.9623463999014,753.9623463999014,753.9623463999014,f,0.2752584000118077,754.2649840998929,754.2649840998929,754.2649840998929,754.2649840998929,754.2649840998929,754.2649840998929,754.545805899892,756.4284026999958,756.4284026999958,756.4284026999958,756.4284026999958,756.4284026999958,756.4284026999958,756.3951995000243,756.4284026999958,756.4284026999958,756.4284026999958,756.4284026999958,756.4284026999958,756.4284026999958,756.4284026999958,758.5761335999705,758.5761335999705,758.5761335999705,758.5761335999705,758.5761335999705,758.5761335999705,758.5761335999705,56,35,33,30,56,60,758.5761335999705,760.3440998999868,,,,,,,,,,,,,,,,,,,003,f,20,2023-05-13_13h38.18.930,RL,2022.2.5,60.36558604904619,
39,34,43,61,0,97,97,97,,,,,,,,,,,None,760.3440998999868,760.3440998999868,760.3440998999868,760.3440998999868,760.3440998999868,760.3440998999868,f,0.35104680014774203,760.7278533999342,760.7278533999342,760.7278533999342,760.7278533999342,760.7278533999342,760.7278533999342,761.0113504000474,761.994109199848,761.994109199848,761.994109199848,761.994109199848,761.994109199848,761.994109199848,761.9775560998823,761.994109199848,761.994109199848,761.994109199848,761.994109199848,761.994109199848,761.994109199848,761.994109199848,763.2588324998505,763.2588324998505,763.2588324998505,763.2588324998505,763.2588324998505,763.2588324998505,763.2588324998505,61,43,39,34,61,60,763.2588324998505,764.8431696000043,,,,,,,,,,,,,,,,,,,003,f,20,2023-05-13_13h38.18.930,RL,2022.2.5,60.36558604904619,
39,28,32,59,0,98,98,98,,,,,,,,,,,None,764.8431696000043,764.8431696000043,764.8431696000043,764.8431696000043,764.8431696000043,764.8431696000043,f,0.29707510001026094,765.1622015999164,765.1622015999164,765.1622015999164,765.1622015999164,765.1622015999164,765.1622015999164,765.4603782000486,767.4431121998932,767.4431121998932,767.4431121998932,767.4431121998932,767.4431121998932,767.4431121998932,767.4431121998932,767.4431121998932,767.4431121998932,767.4431121998932,767.4431121998932,767.4431121998932,767.4431121998932,767.4431121998932,769.7241940000094,769.7241940000094,769.7241940000094,769.7241940000094,769.7241940000094,769.7241940000094,769.7241940000094,59,32,39,28,59,60,769.7241940000094,771.592565599829,,,,,,,,,,,,,,,,,,,003,f,20,2023-05-13_13h38.18.930,RL,2022.2.5,60.36558604904619,
36,22,25,64,0,99,99,99,,,,,,,,,,,None,771.592565599829,771.592565599829,771.592565599829,771.592565599829,771.592565599829,771.592565599829,f,0.3951568999327719,772.009231199976,772.009231199976,772.009231199976,772.009231199976,772.009231199976,772.009231199976,772.3089981998783,773.2753254000563,773.2753254000563,773.2753254000563,773.2753254000563,773.2753254000563,773.2753254000563,773.2753254000563,773.2753254000563,773.2753254000563,773.2753254000563,773.2753254000563,773.2753254000563,773.2753254000563,773.2753254000563,774.540196100017,774.540196100017,774.540196100017,774.540196100017,774.540196100017,774.540196100017,774.540196100017,64,25,36,22,64,60,774.540196100017,776.5413124999031,,,,,,,,,,,,,,,,,,,003,f,20,2023-05-13_13h38.18.930,RL,2022.2.5,60.36558604904619,
35,23,24,50,0,100,100,100,,,,,,,,,,,None,776.5413124999031,776.5413124999031,776.5413124999031,776.5413124999031,776.5413124999031,776.5413124999031,f,0.25896500004455447,776.8260192000307,776.8260192000307,776.8260192000307,776.8260192000307,776.8260192000307,776.8260192000307,777.1082347999327,778.6745374999009,778.6745374999009,778.6745374999009,778.6745374999009,778.6745374999009,778.6745374999009,778.6578492999543,778.6745374999009,778.6745374999009,778.6745374999009,778.6745374999009,778.6745374999009,778.6745374999009,778.6745374999009,780.5224341999274,780.5224341999274,780.5224341999274,780.5224341999274,780.5224341999274,780.5224341999274,780.5224341999274,50,24,35,23,50,60,780.5224341999274,782.1406739999074,,,,,,,,,,,,,,,,,,,003,f,20,2023-05-13_13h38.18.930,RL,2022.2.5,60.36558604904619,
35,21,21,52,0,101,101,101,,,,,,,,,,,None,782.1406739999074,782.1406739999074,782.1406739999074,782.1406739999074,782.1406739999074,782.1406739999074,f,0.34619039995595813,782.5088108000346,782.5088108000346,782.5088108000346,782.5088108000346,782.5088108000346,782.5088108000346,782.8071733999532,784.3234597998671,784.3234597998671,784.3234597998671,784.3234597998671,784.3234597998671,784.3234597998671,784.3234597998671,784.3234597998671,784.3234597998671,784.3234597998671,784.3234597998671,784.3234597998671,784.3234597998671,784.3234597998671,786.1384908999316,786.1384908999316,786.1384908999316,786.1384908999316,786.1384908999316,786.1384908999316,786.1384908999316,52,21,35,21,52,60,786.1384908999316,787.7061486998573,,,,,,,,,,,,,,,,,,,003,f,20,2023-05-13_13h38.18.930,RL,2022.2.5,60.36558604904619,
28,39,18,60,0,102,102,102,,,,,,,,,,,None,787.7061486998573,787.7061486998573,787.7061486998573,787.7061486998573,787.7061486998573,787.7061486998573,f,0.26331280008889735,787.9916379998904,787.9916379998904,787.9916379998904,787.9916379998904,787.9916379998904,787.9916379998904,788.2728993999772,789.1397938998416,789.1397938998416,789.1397938998416,789.1397938998416,789.1397938998416,789.1397938998416,789.1230772999115,789.1397938998416,789.1397938998416,789.1397938998416,789.1397938998416,789.1397938998416,789.1397938998416,789.1397938998416,790.2872549998574,790.2872549998574,790.2872549998574,790.2872549998574,790.2872549998574,790.2872549998574,790.2872549998574,60,18,28,39,60,60,790.2872549998574,791.8053437999915,,,,,,,,,,,,,,,,,,,003,f,20,2023-05-13_13h38.18.930,RL,2022.2.5,60.36558604904619,
25,26,18,55,0,103,103,103,,,,,,,,,,,None,791.8053437999915,791.8053437999915,791.8053437999915,791.8053437999915,791.8053437999915,791.8053437999915,f,0.38319670013152063,792.2056563999504,792.2056563999504,792.2056563999504,792.2056563999504,792.2056563999504,792.2056563999504,792.5055247000419,793.7719097998925,793.7719097998925,793.7719097998925,793.7719097998925,793.7719097998925,793.7719097998925,793.7719097998925,793.7719097998925,793.7719097998925,793.7719097998925,793.7719097998925,793.7719097998925,793.7719097998925,793.7719097998925,795.3367204000242,795.3367204000242,795.3367204000242,795.3367204000242,795.3367204000242,795.3367204000242,795.3367204000242,55,18,25,26,55,60,795.3367204000242,797.0210659999866,,,,,,,,,,,,,,,,,,,003,f,20,2023-05-13_13h38.18.930,RL,2022.2.5,60.36558604904619,
33,16,18,49,0,104,104,104,,,,,,,,,,,None,797.0210659999866,797.0210659999866,797.0210659999866,797.0210659999866,797.0210659999866,797.0210659999866,f,0.2809844999574125,797.3219385999255,797.3219385999255,797.3219385999255,797.3219385999255,797.3219385999255,797.3219385999255,797.6049195998348,798.8043817998841,798.8043817998841,798.8043817998841,798.8043817998841,798.8043817998841,798.8043817998841,798.7878696999978,798.8043817998841,798.8043817998841,798.8043817998841,798.8043817998841,798.8043817998841,798.8043817998841,798.8043817998841,800.285923199961,800.285923199961,800.285923199961,800.285923199961,800.285923199961,800.285923199961,800.285923199961,49,18,33,16,49,60,800.285923199961,801.8873068999965,,,,,,,,,,,,,,,,,,,003,f,20,2023-05-13_13h38.18.930,RL,2022.2.5,60.36558604904619,
32,20,24,54,0,105,105,105,,,,,,,,,,,None,801.8873068999965,801.8873068999965,801.8873068999965,801.8873068999965,801.8873068999965,801.8873068999965,i,0.2812961000017822,802.1873639998958,802.1873639998958,802.1873639998958,802.1873639998958,802.1873639998958,802.1873639998958,802.4874038000125,803.5202587998938,803.5202587998938,803.5202587998938,803.5202587998938,803.5202587998938,803.5202587998938,803.5202587998938,803.5202587998938,803.5202587998938,803.5202587998938,803.5202587998938,803.5202587998938,803.5202587998938,803.5202587998938,804.8515039000195,804.8515039000195,804.8515039000195,804.8515039000195,804.8515039000195,804.8515039000195,804.8515039000195,54,24,32,20,32,60,804.8515039000195,806.8025552998297,,,,,,,,,,,,,,,,,,,003,f,20,2023-05-13_13h38.18.930,RL,2022.2.5,60.36558604904619,
40,20,23,60,0,106,106,106,,,,,,,,,,,None,806.8025552998297,806.8025552998297,806.8025552998297,806.8025552998297,806.8025552998297,806.8025552998297,f,0.28817679989151657,807.121906499844,807.121906499844,807.121906499844,807.121906499844,807.121906499844,807.121906499844,807.4032162998337,808.5029213000089,808.5029213000089,808.5029213000089,808.5029213000089,808.5029213000089,808.5029213000089,808.486405899981,808.5029213000089,808.5029213000089,808.5029213000089,808.5029213000089,808.5029213000089,808.5029213000089,808.5029213000089,809.8838386000134,809.8838386000134,809.8838386000134,809.8838386000134,809.8838386000134,809.8838386000134,809.8838386000134,60,23,40,20,60,60,809.8838386000134,811.7182291999925,,,,,,,,,,,,,,,,,,,003,f,20,2023-05-13_13h38.18.930,RL,2022.2.5,60.36558604904619,
33,15,21,58,0,107,107,107,,,,,,,,,,,None,811.7182291999925,811.7182291999925,811.7182291999925,811.7182291999925,811.7182291999925,811.7182291999925,f,0.2484359999652952,811.9863270998467,811.9863270998467,811.9863270998467,811.9863270998467,811.9863270998467,811.9863270998467,812.2687482000329,813.7349771000445,813.7349771000445,813.7349771000445,813.7349771000445,813.7349771000445,813.7349771000445,813.7183395999018,813.7349771000445,813.7349771000445,813.7349771000445,813.7349771000445,813.7349771000445,813.7349771000445,813.7349771000445,815.4837096000556,815.4837096000556,815.4837096000556,815.4837096000556,815.4837096000556,815.4837096000556,815.4837096000556,58,21,33,15,58,60,815.4837096000556,817.4505975998472,,,,,,,,,,,,,,,,,,,003,f,20,2023-05-13_13h38.18.930,RL,2022.2.5,60.36558604904619,
34,22,21,66,0,108,108,108,,,,,,,,,,,None,817.4505975998472,817.4505975998472,817.4505975998472,817.4505975998472,817.4505975998472,817.4505975998472,f,0.28447469999082386,817.7681884998456,817.7681884998456,817.7681884998456,817.7681884998456,817.7681884998456,817.7681884998456,818.0511370999739,819.8171977000311,819.8171977000311,819.8171977000311,819.8171977000311,819.8171977000311,819.8171977000311,819.800879899878,819.8171977000311,819.8171977000311,819.8171977000311,819.8171977000311,819.8171977000311,819.8171977000311,819.8171977000311,821.8651169999503,821.8651169999503,821.8651169999503,821.8651169999503,821.8651169999503,821.8651169999503,821.8651169999503,66,21,34,22,66,60,821.8651169999503,823.6498274998739,,,,,,,,,,,,,,,,,,,003,f,20,2023-05-13_13h38.18.930,RL,2022.2.5,60.36558604904619,
32,23,39,63,0,109,109,109,,,,,,,,,,,None,823.6498274998739,823.6498274998739,823.6498274998739,823.6498274998739,823.6498274998739,823.6498274998739,f,0.3126846000086516,823.9854673000518,823.9854673000518,823.9854673000518,823.9854673000518,823.9854673000518,823.9854673000518,824.2839374998584,826.2662277999334,826.2662277999334,826.2662277999334,826.2662277999334,826.2662277999334,826.2662277999334,826.2662277999334,826.2662277999334,826.2662277999334,826.2662277999334,826.2662277999334,826.2662277999334,826.2662277999334,826.2662277999334,828.5482636999805,828.5482636999805,828.5482636999805,828.5482636999805,828.5482636999805,828.5482636999805,828.5482636999805,63,39,32,23,63,60,828.5482636999805,830.465543899918,,,,,,,,,,,,,,,,,,,003,f,20,2023-05-13_13h38.18.930,RL,2022.2.5,60.36558604904619,
33,27,30,68,0,110,110,110,,,,,,,,,,,None,830.465543899918,830.465543899918,830.465543899918,830.465543899918,830.465543899918,830.465543899918,f,0.2934575001709163,830.7842385999393,830.7842385999393,830.7842385999393,830.7842385999393,830.7842385999393,830.7842385999393,831.082250499865,832.2820021999069,832.2820021999069,832.2820021999069,832.2820021999069,832.2820021999069,832.2820021999069,832.2820021999069,832.2820021999069,832.2820021999069,832.2820021999069,832.2820021999069,832.2820021999069,832.2820021999069,832.2820021999069,833.7802208999638,833.7802208999638,833.7802208999638,833.7802208999638,833.7802208999638,833.7802208999638,833.7802208999638,68,30,33,27,68,60,833.7802208999638,835.4646618999541,,,,,,,,,,,,,,,,,,,003,f,20,2023-05-13_13h38.18.930,RL,2022.2.5,60.36558604904619,
39,27,30,67,0,111,111,111,,,,,,,,,,,None,835.4646618999541,835.4646618999541,835.4646618999541,835.4646618999541,835.4646618999541,835.4646618999541,f,0.2806340998504311,835.764858599985,835.764858599985,835.764858599985,835.764858599985,835.764858599985,835.764858599985,836.0484706000425,837.8641965999268,837.8641965999268,837.8641965999268,837.8641965999268,837.8641965999268,837.8641965999268,837.8480898998678,837.8641965999268,837.8641965999268,837.8641965999268,837.8641965999268,837.8641965999268,837.8641965999268,837.8641965999268,839.9622014998458,839.9622014998458,839.9622014998458,839.9622014998458,839.9622014998458,839.9622014998458,839.9622014998458,67,30,39,27,67,60,839.9622014998458,841.8797599999234,,,,,,,,,,,,,,,,,,,003,f,20,2023-05-13_13h38.18.930,RL,2022.2.5,60.36558604904619,
34,18,29,65,0,112,112,112,,,,,,,,,,,None,841.8797599999234,841.8797599999234,841.8797599999234,841.8797599999234,841.8797599999234,841.8797599999234,f,0.32211640011519194,842.2314283000305,842.2314283000305,842.2314283000305,842.2314283000305,842.2314283000305,842.2314283000305,842.5302786000539,843.4634451998863,843.4634451998863,843.4634451998863,843.4634451998863,843.4634451998863,843.4634451998863,843.4634451998863,843.4634451998863,843.4634451998863,843.4634451998863,843.4634451998863,843.4634451998863,843.4634451998863,843.4634451998863,844.6950073000044,844.6950073000044,844.6950073000044,844.6950073000044,844.6950073000044,844.6950073000044,844.6950073000044,65,29,34,18,65,60,844.6950073000044,846.3788987000007,,,,,,,,,,,,,,,,,,,003,f,20,2023-05-13_13h38.18.930,RL,2022.2.5,60.36558604904619,
42,28,31,68,0,113,113,113,,,,,,,,,,,None,846.3788987000007,846.3788987000007,846.3788987000007,846.3788987000007,846.3788987000007,846.3788987000007,f,0.5719804000109434,846.9827288999222,846.9827288999222,846.9827288999222,846.9827288999222,846.9827288999222,846.9827288999222,847.2626813000534,848.8124877000228,848.8124877000228,848.8124877000228,848.8124877000228,848.8124877000228,848.8124877000228,848.7955652000383,848.8124877000228,848.8124877000228,848.8124877000228,848.8124877000228,848.8124877000228,848.8124877000228,848.8124877000228,850.6437812999357,850.6437812999357,850.6437812999357,850.6437812999357,850.6437812999357,850.6437812999357,850.6437812999357,68,31,42,28,68,60,850.6437812999357,852.5615156998392,,,,,,,,,,,,,,,,,,,003,f,20,2023-05-13_13h38.18.930,RL,2022.2.5,60.36558604904619,
43,14,23,69,0,114,114,114,,,,,,,,,,,None,852.5615156998392,852.5615156998392,852.5615156998392,852.5615156998392,852.5615156998392,852.5615156998392,f,0.45559470006264746,853.0475253998302,853.0475253998302,853.0475253998302,853.0475253998302,853.0475253998302,853.0475253998302,853.3287460999563,854.4949328999501,854.4949328999501,854.4949328999501,854.4949328999501,854.4949328999501,854.4949328999501,854.4782745998818,854.4949328999501,854.4949328999501,854.4949328999501,854.4949328999501,854.4949328999501,854.4949328999501,854.4949328999501,855.9430799998809,855.9430799998809,855.9430799998809,855.9430799998809,855.9430799998809,855.9430799998809,855.9430799998809,69,23,43,14,69,60,855.9430799998809,857.5272190000396,,,,,,,,,,,,,,,,,,,003,f,20,2023-05-13_13h38.18.930,RL,2022.2.5,60.36558604904619,
47,23,24,68,0,115,115,115,,,,,,,,,,,None,857.5272190000396,857.5272190000396,857.5272190000396,857.5272190000396,857.5272190000396,857.5272190000396,f,0.3468176000751555,857.8942632998805,857.8942632998805,857.8942632998805,857.8942632998805,857.8942632998805,857.8942632998805,858.177812699927,859.7607256998308,859.7607256998308,859.7607256998308,859.7607256998308,859.7607256998308,859.7607256998308,859.7439641000237,859.7607256998308,859.7607256998308,859.7607256998308,859.7607256998308,859.7607256998308,859.7607256998308,859.7607256998308,861.6250058999285,861.6250058999285,861.6250058999285,861.6250058999285,861.6250058999285,861.6250058999285,861.6250058999285,68,24,47,23,68,60,861.6250058999285,863.3096771999262,,,,,,,,,,,,,,,,,,,003,f,20,2023-05-13_13h38.18.930,RL,2022.2.5,60.36558604904619,
48,27,23,72,0,116,116,116,,,,,,,,,,,None,863.3096771999262,863.3096771999262,863.3096771999262,863.3096771999262,863.3096771999262,863.3096771999262,f,0.31919410009868443,863.6604458999354,863.6604458999354,863.6604458999354,863.6604458999354,863.6604458999354,863.6604458999354,863.9596756999381,865.2763536998536,865.2763536998536,865.2763536998536,865.2763536998536,865.2763536998536,865.2763536998536,865.2763536998536,865.2763536998536,865.2763536998536,865.2763536998536,865.2763536998536,865.2763536998536,865.2763536998536,865.2763536998536,866.8912130000535,866.8912130000535,866.8912130000535,866.8912130000535,866.8912130000535,866.8912130000535,866.8912130000535,72,23,48,27,72,60,866.8912130000535,868.4589736999478,,,,,,,,,,,,,,,,,,,003,f,20,2023-05-13_13h38.18.930,RL,2022.2.5,60.36558604904619,
32,24,23,71,0,117,117,117,,,,,,,,,,,None,868.4589736999478,868.4589736999478,868.4589736999478,868.4589736999478,868.4589736999478,868.4589736999478,f,0.34673419990576804,868.8275247998536,868.8275247998536,868.8275247998536,868.8275247998536,868.8275247998536,868.8275247998536,869.1091028999072,871.0751084999647,871.0751084999647,871.0751084999647,871.0751084999647,871.0751084999647,871.0751084999647,871.0584543999285,871.0751084999647,871.0751084999647,871.0751084999647,871.0751084999647,871.0751084999647,871.0751084999647,871.0751084999647,873.3231597000267,873.3231597000267,873.3231597000267,873.3231597000267,873.3231597000267,873.3231597000267,873.3231597000267,71,23,32,24,71,60,873.3231597000267,874.840934399981,,,,,,,,,,,,,,,,,,,003,f,20,2023-05-13_13h38.18.930,RL,2022.2.5,60.36558604904619,
33,23,28,74,0,118,118,118,,,,,,,,,,,None,874.840934399981,874.840934399981,874.840934399981,874.840934399981,874.840934399981,874.840934399981,f,0.3198565000202507,875.1935282999184,875.1935282999184,875.1935282999184,875.1935282999184,875.1935282999184,875.1935282999184,875.4745247999672,876.6574917000253,876.6574917000253,876.6574917000253,876.6574917000253,876.6574917000253,876.6574917000253,876.624532799935,876.6574917000253,876.6574917000253,876.6574917000253,876.6574917000253,876.6574917000253,876.6574917000253,876.6574917000253,878.1056202999316,878.1056202999316,878.1056202999316,878.1056202999316,878.1056202999316,878.1056202999316,878.1056202999316,74,28,33,23,74,60,878.1056202999316,879.6237534999382,,,,,,,,,,,,,,,,,,,003,f,20,2023-05-13_13h38.18.930,RL,2022.2.5,60.36558604904619,
21,18,29,73,0,119,119,119,,,,,,,,,,,None,879.6237534999382,879.6237534999382,879.6237534999382,879.6237534999382,879.6237534999382,879.6237534999382,f,0.29990249988622963,879.9572826998774,879.9572826998774,879.9572826998774,879.9572826998774,879.9572826998774,879.9572826998774,880.2402738998644,882.0403318000026,882.0403318000026,882.0403318000026,882.0403318000026,882.0403318000026,882.0403318000026,882.0238689999096,882.0403318000026,882.0403318000026,882.0403318000026,882.0403318000026,882.0403318000026,882.0403318000026,882.0403318000026,884.1215456000064,884.1215456000064,884.1215456000064,884.1215456000064,884.1215456000064,884.1215456000064,884.1215456000064,73,29,21,18,73,60,884.1215456000064,886.0055623999797,,,,,,,,,,,,,,,,,,,003,f,20,2023-05-13_13h38.18.930,RL,2022.2.5,60.36558604904619,
