arm1,arm2,arm3,arm4,trials.thisRepN,trials.thisTrialN,trials.thisN,trials.thisIndex,instru_img1.started,instru_resp.started,instru_resp.keys,instru_resp.rt,image_2.started,text_2.started,image_2.stopped,text_2.stopped,fixbefore_2.started,fixbefore_2.stopped,rest_response.keys,red.started,green.started,yellow.started,blue.started,choose_bandit.started,Fixation.started,choose_bandit.keys,choose_bandit.rt,black.started,red_2.started,green_2.started,yellow_2.started,blue_2.started,fixation_2.started,docs.started,docs.stopped,black.stopped,red_2.stopped,green_2.stopped,yellow_2.stopped,blue_2.stopped,fixation_2.stopped,black_com.started,reward_sub.started,reward__sub.started,red_compare.started,green_com.started,yellow_com.started,blue_com.started,black_com.stopped,reward_sub.stopped,reward__sub.stopped,red_compare.stopped,green_com.stopped,yellow_com.stopped,blue_com.stopped,rewardred,rewardyellow,rewardblue,rewardgreen,subchoose,expectation,intertrialfix.started,intertrialfix.stopped,red.stopped,green.stopped,yellow.stopped,blue.stopped,choose_bandit.stopped,Fixation.stopped,bigx.started,bigx.stopped,rest_image.started,rest_response.started,rest_response.rt,image_expect_after.started,text_exp_after.started,image_expect_after.stopped,text_exp_after.stopped,image.started,key_resp.started,key_resp.keys,participant,Gender,Age,date,expName,psychopyVersion,frameRate,
,,,,,,,,15.346943899989128,15.346943899989128,space,12.933399599976838,,,,,,,,,,,,,,,,,,,,,,,,,,,,,,,,,,,,,,,,,,,,,,,,,,,,,,,,,,,,,,,,,,,,,,004,f,19,2023-05-13_14h12.35.637,RL,2022.2.5,59.92311862542044,
38,37,59,75,0,0,0,0,,,,,28.302398399915546,28.302398399915546,33.30154210003093,33.30154210003093,33.30154210003093,34.30491720000282,None,34.30491720000282,34.30491720000282,34.30491720000282,34.30491720000282,34.30491720000282,34.30491720000282,j,0.7292400000151247,35.0632455998566,35.0632455998566,35.0632455998566,35.0632455998566,35.0632455998566,35.0632455998566,35.35365880001336,37.302953500067815,37.32202690001577,37.32202690001577,37.32202690001577,37.32202690001577,37.32202690001577,37.32202690001577,37.32202690001577,37.32202690001577,37.32202690001577,37.32202690001577,37.32202690001577,37.32202690001577,37.32202690001577,39.62883120006882,39.62883120006882,39.62883120006882,39.62883120006882,39.62883120006882,39.62883120006882,39.62883120006882,37,38,59,75,75,70,39.62883120006882,41.28507489990443,,,,,,,,,,,,,,,,,,,004,f,19,2023-05-13_14h12.35.637,RL,2022.2.5,59.92311862542044,
43,44,51,78,0,1,1,1,,,,,,,,,,,None,41.28507489990443,41.28507489990443,41.28507489990443,41.28507489990443,41.28507489990443,41.28507489990443,i,0.5955205999780446,41.90218420000747,41.90218420000747,41.90218420000747,41.90218420000747,41.90218420000747,41.90218420000747,42.185220799874514,43.218392400071025,43.234931899933144,43.234931899933144,43.234931899933144,43.234931899933144,43.234931899933144,43.234931899933144,43.234931899933144,43.234931899933144,43.234931899933144,43.234931899933144,43.234931899933144,43.234931899933144,43.234931899933144,44.56680039991625,44.56680039991625,44.56680039991625,44.56680039991625,44.56680039991625,44.56680039991625,44.56680039991625,44,43,51,78,51,70,44.56680039991625,46.46735409996472,,,,,,,,,,,,,,,,,,,004,f,19,2023-05-13_14h12.35.637,RL,2022.2.5,59.92311862542044,
40,47,43,78,0,2,2,2,,,,,,,,,,,None,46.46735409996472,46.46735409996472,46.46735409996472,46.46735409996472,46.46735409996472,46.46735409996472,f,0.7262730000074953,47.21941979997791,47.21941979997791,47.21941979997791,47.21941979997791,47.21941979997791,47.21941979997791,47.50143989990465,49.251126300077885,49.26706929993816,49.26706929993816,49.26706929993816,49.26706929993816,49.26706929993816,49.26706929993816,49.26706929993816,49.26706929993816,49.26706929993816,49.26706929993816,49.26706929993816,49.26706929993816,49.26706929993816,51.31544620008208,51.31544620008208,51.31544620008208,51.31544620008208,51.31544620008208,51.31544620008208,51.31544620008208,47,40,43,78,47,70,51.31544620008208,53.100105199962854,,,,,,,,,,,,,,,,,,,004,f,19,2023-05-13_14h12.35.637,RL,2022.2.5,59.92311862542044,
46,51,52,83,0,3,3,3,,,,,,,,,,,None,53.100105199962854,53.100105199962854,53.100105199962854,53.100105199962854,53.100105199962854,53.100105199962854,r,0.6780683000106364,53.80039960006252,53.80039960006252,53.80039960006252,53.80039960006252,53.80039960006252,53.80039960006252,54.08331699995324,55.03322639991529,55.049465199932456,55.049465199932456,55.049465199932456,55.049465199932456,55.049465199932456,55.049465199932456,55.049465199932456,55.049465199932456,55.049465199932456,55.049465199932456,55.049465199932456,55.049465199932456,55.049465199932456,56.29830230004154,56.29830230004154,56.29830230004154,56.29830230004154,56.29830230004154,56.29830230004154,56.29830230004154,51,46,52,83,46,70,56.29830230004154,57.91570120002143,,,,,,,,,,,,,,,,,,,004,f,19,2023-05-13_14h12.35.637,RL,2022.2.5,59.92311862542044,
35,46,52,77,0,4,4,4,,,,,,,,,,,None,57.91570120002143,57.91570120002143,57.91570120002143,57.91570120002143,57.91570120002143,57.91570120002143,j,0.7122138999402523,58.65071259997785,58.65071259997785,58.65071259997785,58.65071259997785,58.65071259997785,58.65071259997785,58.94950650003739,60.349003199953586,60.349003199953586,60.349003199953586,60.349003199953586,60.349003199953586,60.349003199953586,60.349003199953586,60.349003199953586,60.349003199953586,60.349003199953586,60.349003199953586,60.349003199953586,60.349003199953586,60.349003199953586,62.0465988998767,62.0465988998767,62.0465988998767,62.0465988998767,62.0465988998767,62.0465988998767,62.0465988998767,46,35,52,77,77,70,62.0465988998767,63.79777939990163,,,,,,,,,,,,,,,,,,,004,f,19,2023-05-13_14h12.35.637,RL,2022.2.5,59.92311862542044,
39,49,46,72,0,5,5,5,,,,,,,,,,,None,63.79777939990163,63.79777939990163,63.79777939990163,63.79777939990163,63.79777939990163,63.79777939990163,j,0.5983065001200885,64.41493740002625,64.41493740002625,64.41493740002625,64.41493740002625,64.41493740002625,64.41493740002625,64.69837919995189,65.56520569999702,65.58089290000498,65.58089290000498,65.58089290000498,65.58089290000498,65.58089290000498,65.58089290000498,65.58089290000498,65.58089290000498,65.58089290000498,65.58089290000498,65.58089290000498,65.58089290000498,65.58089290000498,66.74608649988659,66.74608649988659,66.74608649988659,66.74608649988659,66.74608649988659,66.74608649988659,66.74608649988659,49,39,46,72,72,70,66.74608649988659,68.28020809986629,,,,,,,,,,,,,,,,,,,004,f,19,2023-05-13_14h12.35.637,RL,2022.2.5,59.92311862542044,
31,48,49,76,0,6,6,6,,,,,,,,,,,None,68.28020809986629,68.28020809986629,68.28020809986629,68.28020809986629,68.28020809986629,68.28020809986629,j,1.140368599910289,69.44767170003615,69.44767170003615,69.44767170003615,69.44767170003615,69.44767170003615,69.44767170003615,69.73047759989277,71.24719160003588,71.26354110008106,71.26354110008106,71.26354110008106,71.26354110008106,71.26354110008106,71.26354110008106,71.26354110008106,71.26354110008106,71.26354110008106,71.26354110008106,71.26354110008106,71.26354110008106,71.26354110008106,73.07817850005813,73.07817850005813,73.07817850005813,73.07817850005813,73.07817850005813,73.07817850005813,73.07817850005813,48,31,49,76,76,70,73.07817850005813,74.62965800007805,,,,,,,,,,,,,,,,,,,004,f,19,2023-05-13_14h12.35.637,RL,2022.2.5,59.92311862542044,
47,49,36,73,0,7,7,7,,,,,,,,,,,None,74.62965800007805,74.62965800007805,74.62965800007805,74.62965800007805,74.62965800007805,74.62965800007805,i,0.794246600009501,75.44757119985297,75.44757119985297,75.44757119985297,75.44757119985297,75.44757119985297,75.44757119985297,75.72923869988881,76.56309160008095,76.57903159991838,76.57903159991838,76.57903159991838,76.57903159991838,76.57903159991838,76.57903159991838,76.57903159991838,76.57903159991838,76.57903159991838,76.57903159991838,76.57903159991838,76.57903159991838,76.57903159991838,77.71109070000239,77.71109070000239,77.71109070000239,77.71109070000239,77.71109070000239,77.71109070000239,77.71109070000239,49,47,36,73,36,70,77.71109070000239,79.26228899997659,,,,,,,,,,,,,,,,,,,004,f,19,2023-05-13_14h12.35.637,RL,2022.2.5,59.92311862542044,
47,59,45,72,0,8,8,8,,,,,,,,,,,None,79.26228899997659,79.26228899997659,79.26228899997659,79.26228899997659,79.26228899997659,79.26228899997659,j,0.7113478998653591,79.99566080002114,79.99566080002114,79.99566080002114,79.99566080002114,79.99566080002114,79.99566080002114,80.27906029997393,81.2786934999749,81.29538160003722,81.29538160003722,81.29538160003722,81.29538160003722,81.29538160003722,81.29538160003722,81.29538160003722,81.29538160003722,81.29538160003722,81.29538160003722,81.29538160003722,81.29538160003722,81.29538160003722,82.593066399917,82.593066399917,82.593066399917,82.593066399917,82.593066399917,82.593066399917,82.593066399917,59,47,45,72,72,70,82.593066399917,84.2443792000413,,,,,,,,,,,,,,,,,,,004,f,19,2023-05-13_14h12.35.637,RL,2022.2.5,59.92311862542044,
53,57,50,73,0,9,9,9,,,,,,,,,,,None,84.2443792000413,84.2443792000413,84.2443792000413,84.2443792000413,84.2443792000413,84.2443792000413,j,0.6782029999885708,84.94587769987993,84.94587769987993,84.94587769987993,84.94587769987993,84.94587769987993,84.94587769987993,85.22817369992845,87.1943375999108,87.21079879999161,87.21079879999161,87.21079879999161,87.21079879999161,87.21079879999161,87.21079879999161,87.21079879999161,87.21079879999161,87.21079879999161,87.21079879999161,87.21079879999161,87.21079879999161,87.21079879999161,89.47538509988226,89.47538509988226,89.47538509988226,89.47538509988226,89.47538509988226,89.47538509988226,89.47538509988226,57,53,50,73,73,70,89.47538509988226,91.47652629995719,,,,,,,,,,,,,,,,,,,004,f,19,2023-05-13_14h12.35.637,RL,2022.2.5,59.92311862542044,
55,54,59,68,0,10,10,10,,,,,,,,,,,None,91.47652629995719,91.47652629995719,91.47652629995719,91.47652629995719,91.47652629995719,91.47652629995719,j,0.7440419998019934,92.24363290006295,92.24363290006295,92.24363290006295,92.24363290006295,92.24363290006295,92.24363290006295,92.52627959987149,93.5263268998824,93.5427518999204,93.5427518999204,93.5427518999204,93.5427518999204,93.5427518999204,93.5427518999204,93.5427518999204,93.5427518999204,93.5427518999204,93.5427518999204,93.5427518999204,93.5427518999204,93.5427518999204,94.84178270003758,94.84178270003758,94.84178270003758,94.84178270003758,94.84178270003758,94.84178270003758,94.84178270003758,54,55,59,68,68,70,94.84178270003758,96.50875669997185,,,,,,,,,,,,,,,,,,,004,f,19,2023-05-13_14h12.35.637,RL,2022.2.5,59.92311862542044,
51,54,54,74,0,11,11,11,,,,,,,,,,,None,96.50875669997185,96.50875669997185,96.50875669997185,96.50875669997185,96.50875669997185,96.50875669997185,f,0.7421813998371363,97.27586619998328,97.27586619998328,97.27586619998328,97.27586619998328,97.27586619998328,97.27586619998328,97.55874329991639,98.44228299986571,98.45902969990857,98.45902969990857,98.45902969990857,98.45902969990857,98.45902969990857,98.45902969990857,98.45902969990857,98.45902969990857,98.45902969990857,98.45902969990857,98.45902969990857,98.45902969990857,98.45902969990857,99.64021679991856,99.64021679991856,99.64021679991856,99.64021679991856,99.64021679991856,99.64021679991856,99.64021679991856,54,51,54,74,54,70,99.64021679991856,101.37457709992304,,,,,,,,,,,,,,,,,,,004,f,19,2023-05-13_14h12.35.637,RL,2022.2.5,59.92311862542044,
61,53,55,63,0,12,12,12,,,,,,,,,,,None,101.37457709992304,101.37457709992304,101.37457709992304,101.37457709992304,101.37457709992304,101.37457709992304,f,0.8738011000677943,102.27504769992083,102.27504769992083,102.27504769992083,102.27504769992083,102.27504769992083,102.27504769992083,102.55822429992259,104.00792929995805,104.04143300000578,104.04143300000578,104.04143300000578,104.04143300000578,104.04143300000578,104.04143300000578,104.04143300000578,104.04143300000578,104.04143300000578,104.04143300000578,104.04143300000578,104.04143300000578,104.04143300000578,105.80619230004959,105.80619230004959,105.80619230004959,105.80619230004959,105.80619230004959,105.80619230004959,105.80619230004959,53,61,55,63,53,70,105.80619230004959,107.59023019997403,,,,,,,,,,,,,,,,,,,004,f,19,2023-05-13_14h12.35.637,RL,2022.2.5,59.92311862542044,
60,45,48,56,0,13,13,13,,,,,,,,,,,None,107.59023019997403,107.59023019997403,107.59023019997403,107.59023019997403,107.59023019997403,107.59023019997403,r,0.850907500134781,108.47388099995442,108.47388099995442,108.47388099995442,108.47388099995442,108.47388099995442,108.47388099995442,108.77374539989978,109.99034909997135,109.99034909997135,109.99034909997135,109.99034909997135,109.99034909997135,109.99034909997135,109.99034909997135,109.99034909997135,109.99034909997135,109.99034909997135,109.99034909997135,109.99034909997135,109.99034909997135,109.99034909997135,111.50523309991695,111.50523309991695,111.50523309991695,111.50523309991695,111.50523309991695,111.50523309991695,111.50523309991695,45,60,48,56,60,70,111.50523309991695,113.42239070008509,,,,,,,,,,,,,,,,,,,004,f,19,2023-05-13_14h12.35.637,RL,2022.2.5,59.92311862542044,
63,50,52,65,0,14,14,14,,,,,,,,,,,None,113.42239070008509,113.42239070008509,113.42239070008509,113.42239070008509,113.42239070008509,113.42239070008509,r,0.7129280001390725,114.15817050007172,114.15817050007172,114.15817050007172,114.15817050007172,114.15817050007172,114.15817050007172,114.4560151998885,116.12270110007375,116.13925000000745,116.13925000000745,116.13925000000745,116.13925000000745,116.13925000000745,116.13925000000745,116.13925000000745,116.13925000000745,116.13925000000745,116.13925000000745,116.13925000000745,116.13925000000745,116.13925000000745,118.10387440002523,118.10387440002523,118.10387440002523,118.10387440002523,118.10387440002523,118.10387440002523,118.10387440002523,50,63,52,65,63,70,118.10387440002523,119.85478900000453,,,,,,,,,,,,,,,,,,,004,f,19,2023-05-13_14h12.35.637,RL,2022.2.5,59.92311862542044,
58,48,51,69,0,15,15,15,,,,,,,,,,,None,119.85478900000453,119.85478900000453,119.85478900000453,119.85478900000453,119.85478900000453,119.85478900000453,r,0.7168224998749793,120.60629929997958,120.60629929997958,120.60629929997958,120.60629929997958,120.60629929997958,120.60629929997958,120.9047159999609,122.7050089999102,122.7050089999102,122.7050089999102,122.7050089999102,122.7050089999102,122.7050089999102,122.7050089999102,122.7050089999102,122.7050089999102,122.7050089999102,122.7050089999102,122.7050089999102,122.7050089999102,122.7050089999102,124.80235600005835,124.80235600005835,124.80235600005835,124.80235600005835,124.80235600005835,124.80235600005835,124.80235600005835,48,58,51,69,58,70,124.80235600005835,126.52036069985479,,,,,,,,,,,,,,,,,,,004,f,19,2023-05-13_14h12.35.637,RL,2022.2.5,59.92311862542044,
56,57,46,62,0,16,16,16,,,,,,,,,,,None,126.52036069985479,126.52036069985479,126.52036069985479,126.52036069985479,126.52036069985479,126.52036069985479,j,0.7487264000810683,127.28774499986321,127.28774499986321,127.28774499986321,127.28774499986321,127.28774499986321,127.28774499986321,127.57049509999342,128.8368972998578,128.85348189994693,128.85348189994693,128.85348189994693,128.85348189994693,128.85348189994693,128.85348189994693,128.85348189994693,128.85348189994693,128.85348189994693,128.85348189994693,128.85348189994693,128.85348189994693,128.85348189994693,130.41833520005457,130.41833520005457,130.41833520005457,130.41833520005457,130.41833520005457,130.41833520005457,130.41833520005457,57,56,46,62,62,70,130.41833520005457,131.95308910007589,,,,,,,,,,,,,,,,,,,004,f,19,2023-05-13_14h12.35.637,RL,2022.2.5,59.92311862542044,
57,48,51,77,0,17,17,17,,,,,,,,,,,None,131.95308910007589,131.95308910007589,131.95308910007589,131.95308910007589,131.95308910007589,131.95308910007589,r,0.6503590999636799,132.63814099994488,132.63814099994488,132.63814099994488,132.63814099994488,132.63814099994488,132.63814099994488,132.91995229991153,133.86959429993294,133.8859403000679,133.8859403000679,133.8859403000679,133.8859403000679,133.8859403000679,133.8859403000679,133.8859403000679,133.8859403000679,133.8859403000679,133.8859403000679,133.8859403000679,133.8859403000679,133.8859403000679,135.1342408999335,135.1342408999335,135.1342408999335,135.1342408999335,135.1342408999335,135.1342408999335,135.1342408999335,48,57,51,77,57,70,135.1342408999335,136.95213699992746,,,,,,,,,,,,,,,,,,,004,f,19,2023-05-13_14h12.35.637,RL,2022.2.5,59.92311862542044,
65,44,44,67,0,18,18,18,,,,,,,,,,,None,136.95213699992746,136.95213699992746,136.95213699992746,136.95213699992746,136.95213699992746,136.95213699992746,r,0.8106025001034141,137.7855129998643,137.7855129998643,137.7855129998643,137.7855129998643,137.7855129998643,137.7855129998643,138.06855609989725,139.76884799986146,139.78517089993693,139.78517089993693,139.78517089993693,139.78517089993693,139.78517089993693,139.78517089993693,139.78517089993693,139.78517089993693,139.78517089993693,139.78517089993693,139.78517089993693,139.78517089993693,139.78517089993693,141.7835331999231,141.7835331999231,141.7835331999231,141.7835331999231,141.7835331999231,141.7835331999231,141.7835331999231,44,65,44,67,65,70,141.7835331999231,143.367562700063,,,,,,,,,,,,,,,,,,,004,f,19,2023-05-13_14h12.35.637,RL,2022.2.5,59.92311862542044,
64,52,44,65,0,19,19,19,,,,,,,,,,,None,143.367562700063,143.367562700063,143.367562700063,143.367562700063,143.367562700063,143.367562700063,r,0.6418263998348266,144.03857730003074,144.03857730003074,144.03857730003074,144.03857730003074,144.03857730003074,144.03857730003074,144.31720920000225,145.9340305000078,145.96721399994567,145.96721399994567,145.96721399994567,145.96721399994567,145.96721399994567,145.96721399994567,145.96721399994567,145.96721399994567,145.96721399994567,145.96721399994567,145.96721399994567,145.96721399994567,145.96721399994567,147.88164500007406,147.88164500007406,147.88164500007406,147.88164500007406,147.88164500007406,147.88164500007406,147.88164500007406,52,64,44,65,64,70,147.88164500007406,149.68304309993982,,,,,,,,,,,,,,,,,,,004,f,19,2023-05-13_14h12.35.637,RL,2022.2.5,59.92311862542044,
54,52,47,67,0,20,20,20,,,,,,,,,,,None,149.68304309993982,149.68304309993982,149.68304309993982,149.68304309993982,149.68304309993982,149.68304309993982,f,0.7666333001106977,150.48464190005325,150.48464190005325,150.48464190005325,150.48464190005325,150.48464190005325,150.48464190005325,150.76672660000622,151.94953139987774,151.96618280000985,151.96618280000985,151.96618280000985,151.96618280000985,151.96618280000985,151.96618280000985,151.96618280000985,151.96618280000985,151.96618280000985,151.96618280000985,151.96618280000985,151.96618280000985,151.96618280000985,153.4473900999874,153.4473900999874,153.4473900999874,153.4473900999874,153.4473900999874,153.4473900999874,153.4473900999874,52,54,47,67,52,70,153.4473900999874,155.3984974999912,,,,,,,,,,,,,,,,,,,004,f,19,2023-05-13_14h12.35.637,RL,2022.2.5,59.92311862542044,
57,56,38,63,0,21,21,21,,,,,,,,,,,None,155.3984974999912,155.3984974999912,155.3984974999912,155.3984974999912,155.3984974999912,155.3984974999912,r,0.8797822999767959,156.30071610002778,156.30071610002778,156.30071610002778,156.30071610002778,156.30071610002778,156.30071610002778,156.59878999996,158.46501749986783,158.46501749986783,158.46501749986783,158.46501749986783,158.46501749986783,158.46501749986783,158.46501749986783,158.46501749986783,158.46501749986783,158.46501749986783,158.46501749986783,158.46501749986783,158.46501749986783,158.46501749986783,160.63022170006298,160.63022170006298,160.63022170006298,160.63022170006298,160.63022170006298,160.63022170006298,160.63022170006298,56,57,38,63,57,70,160.63022170006298,162.28046999988146,,,,,,,,,,,,,,,,,,,004,f,19,2023-05-13_14h12.35.637,RL,2022.2.5,59.92311862542044,
57,66,55,76,0,22,22,22,,,,,,,,,,,None,162.28046999988146,162.28046999988146,162.28046999988146,162.28046999988146,162.28046999988146,162.28046999988146,i,0.851126000052318,163.16522399988025,163.16522399988025,163.16522399988025,163.16522399988025,163.16522399988025,163.16522399988025,163.44788219989277,165.29734789999202,165.31379109993577,165.31379109993577,165.31379109993577,165.31379109993577,165.31379109993577,165.31379109993577,165.31379109993577,165.31379109993577,165.31379109993577,165.31379109993577,165.31379109993577,165.31379109993577,165.31379109993577,167.46191319986247,167.46191319986247,167.46191319986247,167.46191319986247,167.46191319986247,167.46191319986247,167.46191319986247,66,57,55,76,55,70,167.46191319986247,169.42948430008255,,,,,,,,,,,,,,,,,,,004,f,19,2023-05-13_14h12.35.637,RL,2022.2.5,59.92311862542044,
57,67,47,69,0,23,23,23,,,,,,,,,,,None,169.42948430008255,169.42948430008255,169.42948430008255,169.42948430008255,169.42948430008255,169.42948430008255,i,0.6982965997885913,170.1465320000425,170.1465320000425,170.1465320000425,170.1465320000425,170.1465320000425,170.1465320000425,170.4296474000439,171.4295929998625,171.44613579986617,171.44613579986617,171.44613579986617,171.44613579986617,171.44613579986617,171.44613579986617,171.44613579986617,171.44613579986617,171.44613579986617,171.44613579986617,171.44613579986617,171.44613579986617,171.44613579986617,172.74433019990101,172.74433019990101,172.74433019990101,172.74433019990101,172.74433019990101,172.74433019990101,172.74433019990101,67,57,47,69,47,70,172.74433019990101,174.59549029986374,,,,,,,,,,,,,,,,,,,004,f,19,2023-05-13_14h12.35.637,RL,2022.2.5,59.92311862542044,
61,66,38,69,0,24,24,24,,,,,,,,,,,None,174.59549029986374,174.59549029986374,174.59549029986374,174.59549029986374,174.59549029986374,174.59549029986374,r,0.9637299000751227,175.57914069993421,175.57914069993421,175.57914069993421,175.57914069993421,175.57914069993421,175.57914069993421,175.86202910006978,177.14520050003193,177.16167379985563,177.16167379985563,177.16167379985563,177.16167379985563,177.16167379985563,177.16167379985563,177.16167379985563,177.16167379985563,177.16167379985563,177.16167379985563,177.16167379985563,177.16167379985563,177.16167379985563,178.74291389994323,178.74291389994323,178.74291389994323,178.74291389994323,178.74291389994323,178.74291389994323,178.74291389994323,66,61,38,69,61,70,178.74291389994323,180.26072839996777,,,,,,,,,,,,,,,,,,,004,f,19,2023-05-13_14h12.35.637,RL,2022.2.5,59.92311862542044,
51,52,30,71,0,25,25,25,,,,,,,,,,,None,180.26072839996777,180.26072839996777,180.26072839996777,180.26072839996777,180.26072839996777,180.26072839996777,r,1.0413142999168485,181.3278473999817,181.3278473999817,181.3278473999817,181.3278473999817,181.3278473999817,181.3278473999817,181.61118589993566,182.92816989985295,182.94444820005447,182.94444820005447,182.94444820005447,182.94444820005447,182.94444820005447,182.94444820005447,182.94444820005447,182.94444820005447,182.94444820005447,182.94444820005447,182.94444820005447,182.94444820005447,182.94444820005447,184.5591917000711,184.5591917000711,184.5591917000711,184.5591917000711,184.5591917000711,184.5591917000711,184.5591917000711,52,51,30,71,51,70,184.5591917000711,186.29330580006354,,,,,,,,,,,,,,,,,,,004,f,19,2023-05-13_14h12.35.637,RL,2022.2.5,59.92311862542044,
55,62,38,63,0,26,26,26,,,,,,,,,,,None,186.29330580006354,186.29330580006354,186.29330580006354,186.29330580006354,186.29330580006354,186.29330580006354,j,0.8390407999977469,187.16167939989828,187.16167939989828,187.16167939989828,187.16167939989828,187.16167939989828,187.16167939989828,187.44371160003357,188.79313390003517,188.8101069999393,188.8101069999393,188.8101069999393,188.8101069999393,188.8101069999393,188.8101069999393,188.8101069999393,188.8101069999393,188.8101069999393,188.8101069999393,188.8101069999393,188.8101069999393,188.8101069999393,190.4580554999411,190.4580554999411,190.4580554999411,190.4580554999411,190.4580554999411,190.4580554999411,190.4580554999411,62,55,38,63,63,70,190.4580554999411,192.02584449993446,,,,,,,,,,,,,,,,,,,004,f,19,2023-05-13_14h12.35.637,RL,2022.2.5,59.92311862542044,
52,55,31,65,0,27,27,27,,,,,,,,,,,None,192.02584449993446,192.02584449993446,192.02584449993446,192.02584449993446,192.02584449993446,192.02584449993446,j,1.4335014000535011,193.49429519986734,193.49429519986734,193.49429519986734,193.49429519986734,193.49429519986734,193.49429519986734,193.7758760000579,194.74264670000412,194.7589399998542,194.7589399998542,194.7589399998542,194.7589399998542,194.7589399998542,194.7589399998542,194.7589399998542,194.7589399998542,194.7589399998542,194.7589399998542,194.7589399998542,194.7589399998542,194.7589399998542,196.02386839990504,196.02386839990504,196.02386839990504,196.02386839990504,196.02386839990504,196.02386839990504,196.02386839990504,55,52,31,65,65,70,196.02386839990504,197.87503500003368,,,,,,,,,,,,,,,,,,,004,f,19,2023-05-13_14h12.35.637,RL,2022.2.5,59.92311862542044,
51,61,33,63,0,28,28,28,,,,,,,,,,,None,197.87503500003368,197.87503500003368,197.87503500003368,197.87503500003368,197.87503500003368,197.87503500003368,j,0.8869290999136865,198.79536550003104,198.79536550003104,198.79536550003104,198.79536550003104,198.79536550003104,198.79536550003104,199.0751715998631,200.12494920007885,200.14120900002308,200.14120900002308,200.14120900002308,200.14120900002308,200.14120900002308,200.14120900002308,200.14120900002308,200.14120900002308,200.14120900002308,200.14120900002308,200.14120900002308,200.14120900002308,200.14120900002308,201.48960560001433,201.48960560001433,201.48960560001433,201.48960560001433,201.48960560001433,201.48960560001433,201.48960560001433,61,51,33,63,63,70,201.48960560001433,203.05709729995579,,,,,,,,,,,,,,,,,,,004,f,19,2023-05-13_14h12.35.637,RL,2022.2.5,59.92311862542044,
42,62,26,60,0,29,29,29,,,,,,,,,,,None,203.05709729995579,203.05709729995579,203.05709729995579,203.05709729995579,203.05709729995579,203.05709729995579,j,1.4574635000899434,204.54166910005733,204.54166910005733,204.54166910005733,204.54166910005733,204.54166910005733,204.54166910005733,204.8239696000237,206.32398179988377,206.34039300004952,206.34039300004952,206.34039300004952,206.34039300004952,206.34039300004952,206.34039300004952,206.34039300004952,206.34039300004952,206.34039300004952,206.34039300004952,206.34039300004952,206.34039300004952,206.34039300004952,208.1380610000342,208.1380610000342,208.1380610000342,208.1380610000342,208.1380610000342,208.1380610000342,208.1380610000342,62,42,26,60,60,70,208.1380610000342,209.72284270008095,,,,,,,,,,,,,,,,,,,004,f,19,2023-05-13_14h12.35.637,RL,2022.2.5,59.92311862542044,
44,58,34,60,0,30,30,30,,,,,,,,,,,None,209.72284270008095,209.72284270008095,209.72284270008095,209.72284270008095,209.72284270008095,209.72284270008095,None,,,,,,,,,,,,,,,,,,,,,,,,,,,,,,58,44,34,60,0,70,217.21973449992947,219.02059470000677,211.2211035999935,211.2211035999935,211.2211035999935,211.2211035999935,211.2211035999935,211.2211035999935,211.2211035999935,217.21973449992947,,,,,,,,,,,004,f,19,2023-05-13_14h12.35.637,RL,2022.2.5,59.92311862542044,
34,61,40,65,0,31,31,31,,,,,,,,,,,None,219.02059470000677,219.02059470000677,219.02059470000677,219.02059470000677,219.02059470000677,219.02059470000677,r,0.7790479001123458,219.82143760006875,219.82143760006875,219.82143760006875,219.82143760006875,219.82143760006875,219.82143760006875,220.1045403999742,222.00426719989628,222.020803200081,222.020803200081,222.020803200081,222.020803200081,222.020803200081,222.020803200081,222.020803200081,222.020803200081,222.020803200081,222.020803200081,222.020803200081,222.020803200081,222.020803200081,224.21859860001132,224.21859860001132,224.21859860001132,224.21859860001132,224.21859860001132,224.21859860001132,224.21859860001132,61,34,40,65,34,70,224.21859860001132,225.76962739997543,,,,,,,,,,,,,,,,,,,004,f,19,2023-05-13_14h12.35.637,RL,2022.2.5,59.92311862542044,
43,55,33,62,0,32,32,32,,,,,,,,,,,None,225.76962739997543,225.76962739997543,225.76962739997543,225.76962739997543,225.76962739997543,225.76962739997543,j,0.467788000125438,226.27022120007314,226.27022120007314,226.27022120007314,226.27022120007314,226.27022120007314,226.27022120007314,226.5702102999203,227.93613229994662,227.93613229994662,227.93613229994662,227.93613229994662,227.93613229994662,227.93613229994662,227.93613229994662,227.93613229994662,227.93613229994662,227.93613229994662,227.93613229994662,227.93613229994662,227.93613229994662,227.93613229994662,229.60124309989624,229.60124309989624,229.60124309989624,229.60124309989624,229.60124309989624,229.60124309989624,229.60124309989624,55,43,33,62,62,70,229.60124309989624,231.48582419985905,,,,,,,,,,,,,,,,,,,004,f,19,2023-05-13_14h12.35.637,RL,2022.2.5,59.92311862542044,
44,53,29,62,0,33,33,33,,,,,,,,,,,None,231.48582419985905,231.48582419985905,231.48582419985905,231.48582419985905,231.48582419985905,231.48582419985905,i,0.47145979991182685,231.98761609988287,231.98761609988287,231.98761609988287,231.98761609988287,231.98761609988287,231.98761609988287,232.28537030005828,234.1017903999891,234.1017903999891,234.1017903999891,234.1017903999891,234.1017903999891,234.1017903999891,234.1017903999891,234.1017903999891,234.1017903999891,234.1017903999891,234.1017903999891,234.1017903999891,234.1017903999891,234.1017903999891,236.2165349998977,236.2165349998977,236.2165349998977,236.2165349998977,236.2165349998977,236.2165349998977,236.2165349998977,53,44,29,62,29,70,236.2165349998977,237.83397719985805,,,,,,,,,,,,,,,,,,,004,f,19,2023-05-13_14h12.35.637,RL,2022.2.5,59.92311862542044,
39,55,33,61,0,34,34,34,,,,,,,,,,,None,237.83397719985805,237.83397719985805,237.83397719985805,237.83397719985805,237.83397719985805,237.83397719985805,f,0.7998086998704821,238.6529749999754,238.6529749999754,238.6529749999754,238.6529749999754,238.6529749999754,238.6529749999754,238.93463289993815,240.08441059989855,240.10095719993114,240.10095719993114,240.10095719993114,240.10095719993114,240.10095719993114,240.10095719993114,240.10095719993114,240.10095719993114,240.10095719993114,240.10095719993114,240.10095719993114,240.10095719993114,240.10095719993114,241.5487400998827,241.5487400998827,241.5487400998827,241.5487400998827,241.5487400998827,241.5487400998827,241.5487400998827,55,39,33,61,55,70,241.5487400998827,243.1999275998678,,,,,,,,,,,,,,,,,,,004,f,19,2023-05-13_14h12.35.637,RL,2022.2.5,59.92311862542044,
39,51,29,57,0,35,35,35,,,,,,,,,,,None,243.1999275998678,243.1999275998678,243.1999275998678,243.1999275998678,243.1999275998678,243.1999275998678,f,0.6959188999608159,243.9184218000155,243.9184218000155,243.9184218000155,243.9184218000155,243.9184218000155,243.9184218000155,244.21682129986584,245.78315789997578,245.78315789997578,245.78315789997578,245.78315789997578,245.78315789997578,245.78315789997578,245.78315789997578,245.78315789997578,245.78315789997578,245.78315789997578,245.78315789997578,245.78315789997578,245.78315789997578,245.78315789997578,247.647729099961,247.647729099961,247.647729099961,247.647729099961,247.647729099961,247.647729099961,247.647729099961,51,39,29,57,51,70,247.647729099961,249.3487943999935,,,,,,,,,,,,,,,,,,,004,f,19,2023-05-13_14h12.35.637,RL,2022.2.5,59.92311862542044,
34,43,35,56,0,36,36,36,,,,,,,,,,,None,249.3487943999935,249.3487943999935,249.3487943999935,249.3487943999935,249.3487943999935,249.3487943999935,i,0.4849167000502348,249.86623699986376,249.86623699986376,249.86623699986376,249.86623699986376,249.86623699986376,249.86623699986376,250.14927669987082,251.6492975000292,251.66578190005384,251.66578190005384,251.66578190005384,251.66578190005384,251.66578190005384,251.66578190005384,251.66578190005384,251.66578190005384,251.66578190005384,251.66578190005384,251.66578190005384,251.66578190005384,251.66578190005384,253.46389540005475,253.46389540005475,253.46389540005475,253.46389540005475,253.46389540005475,253.46389540005475,253.46389540005475,43,34,35,56,35,70,253.46389540005475,254.98114080005325,,,,,,,,,,,,,,,,,,,004,f,19,2023-05-13_14h12.35.637,RL,2022.2.5,59.92311862542044,
37,44,25,49,0,37,37,37,,,,,,,,,,,None,254.98114080005325,254.98114080005325,254.98114080005325,254.98114080005325,254.98114080005325,254.98114080005325,i,0.601542399963364,255.6153249000199,255.6153249000199,255.6153249000199,255.6153249000199,255.6153249000199,255.6153249000199,255.89807999995537,257.214829799952,257.2313594999723,257.2313594999723,257.2313594999723,257.2313594999723,257.2313594999723,257.2313594999723,257.2313594999723,257.2313594999723,257.2313594999723,257.2313594999723,257.2313594999723,257.2313594999723,257.2313594999723,258.8458165000193,258.8458165000193,258.8458165000193,258.8458165000193,258.8458165000193,258.8458165000193,258.8458165000193,44,37,25,49,25,70,258.8458165000193,260.364323399961,,,,,,,,,,,,,,,,,,,004,f,19,2023-05-13_14h12.35.637,RL,2022.2.5,59.92311862542044,
47,47,26,58,0,38,38,38,,,,,,,,,,,None,260.364323399961,260.364323399961,260.364323399961,260.364323399961,260.364323399961,260.364323399961,j,0.5243582001421601,260.9142769998871,260.9142769998871,260.9142769998871,260.9142769998871,260.9142769998871,260.9142769998871,261.21376369986683,262.94685869989917,262.94685869989917,262.94685869989917,262.94685869989917,262.94685869989917,262.94685869989917,262.94685869989917,262.94685869989917,262.94685869989917,262.94685869989917,262.94685869989917,262.94685869989917,262.94685869989917,262.94685869989917,264.9782006999012,264.9782006999012,264.9782006999012,264.9782006999012,264.9782006999012,264.9782006999012,264.9782006999012,47,47,26,58,58,70,264.9782006999012,266.96260880003683,,,,,,,,,,,,,,,,,,,004,f,19,2023-05-13_14h12.35.637,RL,2022.2.5,59.92311862542044,
56,49,29,50,0,39,39,39,,,,,,,,,,,None,266.96260880003683,266.96260880003683,266.96260880003683,266.96260880003683,266.96260880003683,266.96260880003683,j,0.4952982000540942,267.4805838998873,267.4805838998873,267.4805838998873,267.4805838998873,267.4805838998873,267.4805838998873,267.7794832000509,269.1463136000093,269.1463136000093,269.1463136000093,269.1463136000093,269.1463136000093,269.1463136000093,269.1463136000093,269.1463136000093,269.1463136000093,269.1463136000093,269.1463136000093,269.1463136000093,269.1463136000093,269.1463136000093,270.81051700003445,270.81051700003445,270.81051700003445,270.81051700003445,270.81051700003445,270.81051700003445,270.81051700003445,49,56,29,50,50,70,270.81051700003445,272.7285074000247,,,,,,,,,,,,,,,,,,,004,f,19,2023-05-13_14h12.35.637,RL,2022.2.5,59.92311862542044,
45,50,19,60,0,40,40,40,,,,,,,,,,,None,272.7285074000247,272.7285074000247,272.7285074000247,272.7285074000247,272.7285074000247,272.7285074000247,r,0.7126770000904799,273.46201030001976,273.46201030001976,273.46201030001976,273.46201030001976,273.46201030001976,273.46201030001976,273.7455160000827,275.72821659990586,275.74492760002613,275.74492760002613,275.74492760002613,275.74492760002613,275.74492760002613,275.74492760002613,275.74492760002613,275.74492760002613,275.74492760002613,275.74492760002613,275.74492760002613,275.74492760002613,275.74492760002613,278.02639349992387,278.02639349992387,278.02639349992387,278.02639349992387,278.02639349992387,278.02639349992387,278.02639349992387,50,45,19,60,45,70,278.02639349992387,279.7434672000818,,,,,,,,,,,,,,,,,,,004,f,19,2023-05-13_14h12.35.637,RL,2022.2.5,59.92311862542044,
45,45,27,50,0,41,41,41,,,,,,,,,,,None,279.7434672000818,279.7434672000818,279.7434672000818,279.7434672000818,279.7434672000818,279.7434672000818,r,0.581806099973619,280.34402769990265,280.34402769990265,280.34402769990265,280.34402769990265,280.34402769990265,280.34402769990265,280.6272771998774,282.59383290004916,282.6104919000063,282.6104919000063,282.6104919000063,282.6104919000063,282.6104919000063,282.6104919000063,282.6104919000063,282.6104919000063,282.6104919000063,282.6104919000063,282.6104919000063,282.6104919000063,282.6104919000063,284.8746839000378,284.8746839000378,284.8746839000378,284.8746839000378,284.8746839000378,284.8746839000378,284.8746839000378,45,45,27,50,45,70,284.8746839000378,286.85959320003167,,,,,,,,,,,,,,,,,,,004,f,19,2023-05-13_14h12.35.637,RL,2022.2.5,59.92311862542044,
39,48,23,63,0,42,42,42,,,,,,,,,,,None,286.85959320003167,286.85959320003167,286.85959320003167,286.85959320003167,286.85959320003167,286.85959320003167,f,0.871881099883467,287.7609153999947,287.7609153999947,287.7609153999947,287.7609153999947,287.7609153999947,287.7609153999947,288.0425551000517,289.89224740001373,289.90928989998065,289.90928989998065,289.90928989998065,289.90928989998065,289.90928989998065,289.90928989998065,289.90928989998065,289.90928989998065,289.90928989998065,289.90928989998065,289.90928989998065,289.90928989998065,289.90928989998065,292.0568619999103,292.0568619999103,292.0568619999103,292.0568619999103,292.0568619999103,292.0568619999103,292.0568619999103,48,39,23,63,48,70,292.0568619999103,293.62455479986966,,,,,,,,,,,,,,,,,,,004,f,19,2023-05-13_14h12.35.637,RL,2022.2.5,59.92311862542044,
38,46,15,60,0,43,43,43,,,,,,,,,,,None,293.62455479986966,293.62455479986966,293.62455479986966,293.62455479986966,293.62455479986966,293.62455479986966,f,0.7497097000014037,294.3918419999536,294.3918419999536,294.3918419999536,294.3918419999536,294.3918419999536,294.3918419999536,294.6916020999197,296.25783749995753,296.25783749995753,296.25783749995753,296.25783749995753,296.25783749995753,296.25783749995753,296.25783749995753,296.25783749995753,296.25783749995753,296.25783749995753,296.25783749995753,296.25783749995753,296.25783749995753,296.25783749995753,298.12258540000767,298.12258540000767,298.12258540000767,298.12258540000767,298.12258540000767,298.12258540000767,298.12258540000767,46,38,15,60,46,70,298.12258540000767,299.75712179997936,,,,,,,,,,,,,,,,,,,004,f,19,2023-05-13_14h12.35.637,RL,2022.2.5,59.92311862542044,
36,47,12,61,0,44,44,44,,,,,,,,,,,None,299.75712179997936,299.75712179997936,299.75712179997936,299.75712179997936,299.75712179997936,299.75712179997936,r,0.8207396999932826,300.6072112999391,300.6072112999391,300.6072112999391,300.6072112999391,300.6072112999391,300.6072112999391,300.89027239987627,302.5235029999167,302.53999429987743,302.53999429987743,302.53999429987743,302.53999429987743,302.53999429987743,302.53999429987743,302.53999429987743,302.53999429987743,302.53999429987743,302.53999429987743,302.53999429987743,302.53999429987743,302.53999429987743,304.47116720001213,304.47116720001213,304.47116720001213,304.47116720001213,304.47116720001213,304.47116720001213,304.47116720001213,47,36,12,61,36,70,304.47116720001213,306.0725426999852,,,,,,,,,,,,,,,,,,,004,f,19,2023-05-13_14h12.35.637,RL,2022.2.5,59.92311862542044,
39,49,15,63,0,45,45,45,,,,,,,,,,,None,306.0725426999852,306.0725426999852,306.0725426999852,306.0725426999852,306.0725426999852,306.0725426999852,j,0.4753216998651624,306.5733071998693,306.5733071998693,306.5733071998693,306.5733071998693,306.5733071998693,306.5733071998693,306.8562181000598,308.2225001999177,308.2390433999244,308.2390433999244,308.2390433999244,308.2390433999244,308.2390433999244,308.2390433999244,308.2390433999244,308.2390433999244,308.2390433999244,308.2390433999244,308.2390433999244,308.2390433999244,308.2390433999244,309.9036391999107,309.9036391999107,309.9036391999107,309.9036391999107,309.9036391999107,309.9036391999107,309.9036391999107,49,39,15,63,63,70,309.9036391999107,311.4385174999479,,,,,,,,,,,,,,,,,,,004,f,19,2023-05-13_14h12.35.637,RL,2022.2.5,59.92311862542044,
31,51,12,53,0,46,46,46,,,,,,,,,,,None,311.4385174999479,311.4385174999479,311.4385174999479,311.4385174999479,311.4385174999479,311.4385174999479,j,0.6902605998329818,312.15664010006003,312.15664010006003,312.15664010006003,312.15664010006003,312.15664010006003,312.15664010006003,312.43867289996706,314.0215686999727,314.05465029994957,314.05465029994957,314.05465029994957,314.05465029994957,314.05465029994957,314.05465029994957,314.05465029994957,314.05465029994957,314.05465029994957,314.05465029994957,314.05465029994957,314.05465029994957,314.05465029994957,315.9363524999935,315.9363524999935,315.9363524999935,315.9363524999935,315.9363524999935,315.9363524999935,315.9363524999935,51,31,12,53,53,70,315.9363524999935,317.83690200001,,,,,,,,,,,,,,,,,,,004,f,19,2023-05-13_14h12.35.637,RL,2022.2.5,59.92311862542044,
37,48,8,58,0,47,47,47,,,,,,,,,,,None,317.83690200001,317.83690200001,317.83690200001,317.83690200001,317.83690200001,317.83690200001,j,0.5946023999713361,318.45492559997365,318.45492559997365,318.45492559997365,318.45492559997365,318.45492559997365,318.45492559997365,318.7375622000545,319.97024250007235,319.9869567998685,319.9869567998685,319.9869567998685,319.9869567998685,319.9869567998685,319.9869567998685,319.9869567998685,319.9869567998685,319.9869567998685,319.9869567998685,319.9869567998685,319.9869567998685,319.9869567998685,321.51855539996177,321.51855539996177,321.51855539996177,321.51855539996177,321.51855539996177,321.51855539996177,321.51855539996177,48,37,8,58,58,70,321.51855539996177,323.2193960000295,,,,,,,,,,,,,,,,,,,004,f,19,2023-05-13_14h12.35.637,RL,2022.2.5,59.92311862542044,
30,58,18,69,0,48,48,48,,,,,,,,,,,None,323.2193960000295,323.2193960000295,323.2193960000295,323.2193960000295,323.2193960000295,323.2193960000295,r,0.8059812998399138,324.0554940998554,324.0554940998554,324.0554940998554,324.0554940998554,324.0554940998554,324.0554940998554,324.3363524999004,325.653048499953,325.6859198999591,325.6859198999591,325.6859198999591,325.6859198999591,325.6859198999591,325.6859198999591,325.6859198999591,325.6859198999591,325.6859198999591,325.6859198999591,325.6859198999591,325.6859198999591,325.6859198999591,327.30072489986196,327.30072489986196,327.30072489986196,327.30072489986196,327.30072489986196,327.30072489986196,327.30072489986196,58,30,18,69,30,70,327.30072489986196,329.13523419993,,,,,,,,,,,,,,,,,,,004,f,19,2023-05-13_14h12.35.637,RL,2022.2.5,59.92311862542044,
26,59,18,72,0,49,49,49,,,,,,,,,,,None,329.13523419993,329.13523419993,329.13523419993,329.13523419993,329.13523419993,329.13523419993,f,0.7619239999912679,329.9188556999434,329.9188556999434,329.9188556999434,329.9188556999434,329.9188556999434,329.9188556999434,330.20216370001435,332.1350099998526,332.1515623999294,332.1515623999294,332.1515623999294,332.1515623999294,332.1515623999294,332.1515623999294,332.1515623999294,332.1515623999294,332.1515623999294,332.1515623999294,332.1515623999294,332.1515623999294,332.1515623999294,334.3831807000097,334.3831807000097,334.3831807000097,334.3831807000097,334.3831807000097,334.3831807000097,334.3831807000097,59,26,18,72,59,70,334.3831807000097,336.18414229992777,,,,,,,,,,,,,,,,,,,004,f,19,2023-05-13_14h12.35.637,RL,2022.2.5,59.92311862542044,
29,52,22,67,0,50,50,50,,,,,,,,,,,None,336.18414229992777,336.18414229992777,336.18414229992777,336.18414229992777,336.18414229992777,336.18414229992777,f,0.6149887000210583,336.8194941000547,336.8194941000547,336.8194941000547,336.8194941000547,336.8194941000547,336.8194941000547,337.11724280007184,339.10004030005075,339.11694630002603,339.11694630002603,339.11694630002603,339.11694630002603,339.11694630002603,339.11694630002603,339.11694630002603,339.11694630002603,339.11694630002603,339.11694630002603,339.11694630002603,339.11694630002603,339.11694630002603,341.39829379995354,341.39829379995354,341.39829379995354,341.39829379995354,341.39829379995354,341.39829379995354,341.39829379995354,52,29,22,67,52,70,341.39829379995354,343.08328849985264,,,,,,,,,,,,,,,,,,,004,f,19,2023-05-13_14h12.35.637,RL,2022.2.5,59.92311862542044,
27,56,24,83,0,51,51,51,,,,,,,,,,,None,343.08328849985264,343.08328849985264,343.08328849985264,343.08328849985264,343.08328849985264,343.08328849985264,j,0.6617676999885589,343.76656379993074,343.76656379993074,343.76656379993074,343.76656379993074,343.76656379993074,343.76656379993074,344.06626269989647,345.2659352000337,345.2659352000337,345.2659352000337,345.2659352000337,345.2659352000337,345.2659352000337,345.2659352000337,345.2659352000337,345.2659352000337,345.2659352000337,345.2659352000337,345.2659352000337,345.2659352000337,345.2659352000337,346.76442099991255,346.76442099991255,346.76442099991255,346.76442099991255,346.76442099991255,346.76442099991255,346.76442099991255,56,27,24,83,83,70,346.76442099991255,348.3984046999831,,,,,,,,,,,,,,,,,,,004,f,19,2023-05-13_14h12.35.637,RL,2022.2.5,59.92311862542044,
29,53,16,58,0,52,52,52,,,,,,,,,,,None,348.3984046999831,348.3984046999831,348.3984046999831,348.3984046999831,348.3984046999831,348.3984046999831,f,1.1639349998440593,349.5824454999529,349.5824454999529,349.5824454999529,349.5824454999529,349.5824454999529,349.5824454999529,349.8825503999833,350.98166569997557,350.98166569997557,350.98166569997557,350.98166569997557,350.98166569997557,350.98166569997557,350.98166569997557,350.98166569997557,350.98166569997557,350.98166569997557,350.98166569997557,350.98166569997557,350.98166569997557,350.98166569997557,352.37968460004777,352.37968460004777,352.37968460004777,352.37968460004777,352.37968460004777,352.37968460004777,352.37968460004777,53,29,16,58,53,70,352.37968460004777,354.01433490007184,,,,,,,,,,,,,,,,,,,004,f,19,2023-05-13_14h12.35.637,RL,2022.2.5,59.92311862542044,
36,58,29,75,0,53,53,53,,,,,,,,,,,None,354.01433490007184,354.01433490007184,354.01433490007184,354.01433490007184,354.01433490007184,354.01433490007184,j,0.7362395999953151,354.7827298999764,354.7827298999764,354.7827298999764,354.7827298999764,354.7827298999764,354.7827298999764,355.08121099998243,356.8303346000612,356.8303346000612,356.8303346000612,356.8303346000612,356.8303346000612,356.8303346000612,356.8303346000612,356.8303346000612,356.8303346000612,356.8303346000612,356.8303346000612,356.8303346000612,356.8303346000612,356.8303346000612,358.87853610003367,358.87853610003367,358.87853610003367,358.87853610003367,358.87853610003367,358.87853610003367,358.87853610003367,58,36,29,75,75,70,358.87853610003367,360.6463605000172,,,,,,,,,,,,,,,,,,,004,f,19,2023-05-13_14h12.35.637,RL,2022.2.5,59.92311862542044,
34,45,23,57,0,54,54,54,,,,,,,,,,,None,360.6463605000172,360.6463605000172,360.6463605000172,360.6463605000172,360.6463605000172,360.6463605000172,j,0.6992993999738246,361.36699980008416,361.36699980008416,361.36699980008416,361.36699980008416,361.36699980008416,361.36699980008416,361.6633256999776,362.5629763000179,362.5629763000179,362.5629763000179,362.5629763000179,362.5629763000179,362.5629763000179,362.5629763000179,362.5629763000179,362.5629763000179,362.5629763000179,362.5629763000179,362.5629763000179,362.5629763000179,362.5629763000179,363.76152869989164,363.76152869989164,363.76152869989164,363.76152869989164,363.76152869989164,363.76152869989164,363.76152869989164,45,34,23,57,57,70,363.76152869989164,365.6626831998583,,,,,,,,,,,,,,,,,,,004,f,19,2023-05-13_14h12.35.637,RL,2022.2.5,59.92311862542044,
34,44,32,83,0,55,55,55,,,,,,,,,,,None,365.6626831998583,365.6626831998583,365.6626831998583,365.6626831998583,365.6626831998583,365.6626831998583,f,0.6697770999744534,366.3632072999608,366.3632072999608,366.3632072999608,366.3632072999608,366.3632072999608,366.3632072999608,366.6623891000636,367.6121854998637,367.6121854998637,367.6121854998637,367.6121854998637,367.6121854998637,367.6121854998637,367.6121854998637,367.6121854998637,367.6121854998637,367.6121854998637,367.6121854998637,367.6121854998637,367.6121854998637,367.6121854998637,368.8602378000505,368.8602378000505,368.8602378000505,368.8602378000505,368.8602378000505,368.8602378000505,368.8602378000505,44,34,32,83,44,70,368.8602378000505,370.477916700067,,,,,,,,,,,,,,,,,,,004,f,19,2023-05-13_14h12.35.637,RL,2022.2.5,59.92311862542044,
32,44,30,84,0,56,56,56,,,,,,,,,,,None,370.477916700067,370.477916700067,370.477916700067,370.477916700067,370.477916700067,370.477916700067,j,0.7442578000482172,371.2453193999827,371.2453193999827,371.2453193999827,371.2453193999827,371.2453193999827,371.2453193999827,371.5282523999922,373.29481390002184,373.3111026000697,373.3111026000697,373.3111026000697,373.3111026000697,373.3111026000697,373.3111026000697,373.3111026000697,373.3111026000697,373.3111026000697,373.3111026000697,373.3111026000697,373.3111026000697,373.3111026000697,375.3758954999503,375.3758954999503,375.3758954999503,375.3758954999503,375.3758954999503,375.3758954999503,375.3758954999503,44,32,30,84,84,70,375.3758954999503,377.0439758999273,,,,,,,,,,,,,,,,,,,004,f,19,2023-05-13_14h12.35.637,RL,2022.2.5,59.92311862542044,
29,43,21,80,0,57,57,57,,,,,,,,,,,None,377.0439758999273,377.0439758999273,377.0439758999273,377.0439758999273,377.0439758999273,377.0439758999273,f,0.6851925998926163,377.76053209998645,377.76053209998645,377.76053209998645,377.76053209998645,377.76053209998645,377.76053209998645,378.043385699857,379.8099444999825,379.8265376999043,379.8265376999043,379.8265376999043,379.8265376999043,379.8265376999043,379.8265376999043,379.8265376999043,379.8265376999043,379.8265376999043,379.8265376999043,379.8265376999043,379.8265376999043,379.8265376999043,381.8912378998939,381.8912378998939,381.8912378998939,381.8912378998939,381.8912378998939,381.8912378998939,381.8912378998939,43,29,21,80,43,70,381.8912378998939,383.5586733999662,,,,,,,,,,,,,,,,,,,004,f,19,2023-05-13_14h12.35.637,RL,2022.2.5,59.92311862542044,
32,48,18,85,0,58,58,58,,,,,,,,,,,None,383.5586733999662,383.5586733999662,383.5586733999662,383.5586733999662,383.5586733999662,383.5586733999662,j,0.7874841999728233,384.3781757999677,384.3781757999677,384.3781757999677,384.3781757999677,384.3781757999677,384.3781757999677,384.6758218999021,386.3491112999618,386.3491112999618,386.3491112999618,386.3491112999618,386.3491112999618,386.3491112999618,386.3491112999618,386.3491112999618,386.3491112999618,386.3491112999618,386.3491112999618,386.3491112999618,386.3491112999618,386.3491112999618,388.28989159991033,388.28989159991033,388.28989159991033,388.28989159991033,388.28989159991033,388.28989159991033,388.28989159991033,48,32,18,85,85,70,388.28989159991033,389.95811329991557,,,,,,,,,,,,,,,,,,,004,f,19,2023-05-13_14h12.35.637,RL,2022.2.5,59.92311862542044,
30,43,23,84,0,59,59,59,,,,,,,,,,,None,389.95811329991557,389.95811329991557,389.95811329991557,389.95811329991557,389.95811329991557,389.95811329991557,i,0.8518785999622196,390.84324219985865,390.84324219985865,390.84324219985865,390.84324219985865,390.84324219985865,390.84324219985865,391.14139740006067,392.4743941000197,392.4743941000197,392.4743941000197,392.4743941000197,392.4743941000197,392.4743941000197,392.4743941000197,392.4743941000197,392.4743941000197,392.4743941000197,392.4743941000197,392.4743941000197,392.4743941000197,392.4743941000197,394.10600159992464,394.10600159992464,394.10600159992464,394.10600159992464,394.10600159992464,394.10600159992464,394.10600159992464,43,30,23,84,23,70,394.10600159992464,395.62350389990024,,,,,,,,,,,,,,,,,,,004,f,19,2023-05-13_14h12.35.637,RL,2022.2.5,59.92311862542044,
32,43,22,85,0,60,60,60,,,,,,,,,,,None,395.62350389990024,395.62350389990024,395.62350389990024,395.62350389990024,395.62350389990024,395.62350389990024,j,0.5744898999109864,396.2258426998742,396.2258426998742,396.2258426998742,396.2258426998742,396.2258426998742,396.2258426998742,396.5238228000235,397.5901967000682,397.60690949996933,397.60690949996933,397.60690949996933,397.60690949996933,397.60690949996933,397.60690949996933,397.60690949996933,397.60690949996933,397.60690949996933,397.60690949996933,397.60690949996933,397.60690949996933,397.60690949996933,398.97164430003613,398.97164430003613,398.97164430003613,398.97164430003613,398.97164430003613,398.97164430003613,398.97164430003613,43,32,22,85,85,70,398.97164430003613,400.75659939995967,,,,,,,,,,,,,,,,,,,004,f,19,2023-05-13_14h12.35.637,RL,2022.2.5,59.92311862542044,
29,36,25,79,0,61,61,61,,,,,,,,,,,None,400.75659939995967,400.75659939995967,400.75659939995967,400.75659939995967,400.75659939995967,400.75659939995967,r,0.5954392000567168,401.3764903000556,401.3764903000556,401.3764903000556,401.3764903000556,401.3764903000556,401.3764903000556,401.67294409987517,402.572604799876,402.572604799876,402.572604799876,402.572604799876,402.572604799876,402.572604799876,402.572604799876,402.572604799876,402.572604799876,402.572604799876,402.572604799876,402.572604799876,402.572604799876,402.572604799876,403.7711853000801,403.7711853000801,403.7711853000801,403.7711853000801,403.7711853000801,403.7711853000801,403.7711853000801,36,29,25,79,29,70,403.7711853000801,405.42192870005965,,,,,,,,,,,,,,,,,,,004,f,19,2023-05-13_14h12.35.637,RL,2022.2.5,59.92311862542044,
32,41,26,80,0,62,62,62,,,,,,,,,,,None,405.42192870005965,405.42192870005965,405.42192870005965,405.42192870005965,405.42192870005965,405.42192870005965,j,0.7058959999121726,406.15860480000265,406.15860480000265,406.15860480000265,406.15860480000265,406.15860480000265,406.15860480000265,406.4383719000034,408.2549072999973,408.2881704000756,408.2881704000756,408.2881704000756,408.2881704000756,408.2881704000756,408.2881704000756,408.2881704000756,408.2881704000756,408.2881704000756,408.2881704000756,408.2881704000756,408.2881704000756,408.2881704000756,410.40366129996255,410.40366129996255,410.40366129996255,410.40366129996255,410.40366129996255,410.40366129996255,410.40366129996255,41,32,26,80,80,70,410.40366129996255,411.9376370999962,,,,,,,,,,,,,,,,,,,004,f,19,2023-05-13_14h12.35.637,RL,2022.2.5,59.92311862542044,
24,31,29,75,0,63,63,63,,,,,,,,,,,None,411.9376370999962,411.9376370999962,411.9376370999962,411.9376370999962,411.9376370999962,411.9376370999962,f,0.9952291001100093,412.9555750999134,412.9555750999134,412.9555750999134,412.9555750999134,412.9555750999134,412.9555750999134,413.23777089989744,414.58768090000376,414.60415540006943,414.60415540006943,414.60415540006943,414.60415540006943,414.60415540006943,414.60415540006943,414.60415540006943,414.60415540006943,414.60415540006943,414.60415540006943,414.60415540006943,414.60415540006943,414.60415540006943,416.2521401999984,416.2521401999984,416.2521401999984,416.2521401999984,416.2521401999984,416.2521401999984,416.2521401999984,31,24,29,75,31,70,416.2521401999984,418.2197598000057,,,,,,,,,,,,,,,,,,,004,f,19,2023-05-13_14h12.35.637,RL,2022.2.5,59.92311862542044,
27,36,27,66,0,64,64,64,,,,,,,,,,,None,418.2197598000057,418.2197598000057,418.2197598000057,418.2197598000057,418.2197598000057,418.2197598000057,j,0.8434885998722166,419.08973859995604,419.08973859995604,419.08973859995604,419.08973859995604,419.08973859995604,419.08973859995604,419.370263800025,420.50337260006927,420.5367580000311,420.5367580000311,420.5367580000311,420.5367580000311,420.5367580000311,420.5367580000311,420.5367580000311,420.5367580000311,420.5367580000311,420.5367580000311,420.5367580000311,420.5367580000311,420.5367580000311,421.967583199963,421.967583199963,421.967583199963,421.967583199963,421.967583199963,421.967583199963,421.967583199963,36,27,27,66,66,70,421.967583199963,423.75220029987395,,,,,,,,,,,,,,,,,,,004,f,19,2023-05-13_14h12.35.637,RL,2022.2.5,59.92311862542044,
30,31,23,67,0,65,65,65,,,,,,,,,,,None,423.75220029987395,423.75220029987395,423.75220029987395,423.75220029987395,423.75220029987395,423.75220029987395,j,0.9914407001342624,424.76983670005575,424.76983670005575,424.76983670005575,424.76983670005575,424.76983670005575,424.76983670005575,425.06869059987366,426.86860879999585,426.86860879999585,426.86860879999585,426.86860879999585,426.86860879999585,426.86860879999585,426.86860879999585,426.86860879999585,426.86860879999585,426.86860879999585,426.86860879999585,426.86860879999585,426.86860879999585,426.86860879999585,428.9665324999951,428.9665324999951,428.9665324999951,428.9665324999951,428.9665324999951,428.9665324999951,428.9665324999951,31,30,23,67,67,70,428.9665324999951,430.61788819986396,,,,,,,,,,,,,,,,,,,004,f,19,2023-05-13_14h12.35.637,RL,2022.2.5,59.92311862542044,
38,28,20,74,0,66,66,66,,,,,,,,,,,None,430.61788819986396,430.61788819986396,430.61788819986396,430.61788819986396,430.61788819986396,430.61788819986396,j,0.9573162000160664,431.60165710002184,431.60165710002184,431.60165710002184,431.60165710002184,431.60165710002184,431.60165710002184,431.9012543000281,432.98399939993396,432.98399939993396,432.98399939993396,432.98399939993396,432.98399939993396,432.98399939993396,432.98399939993396,432.98399939993396,432.98399939993396,432.98399939993396,432.98399939993396,432.98399939993396,432.98399939993396,432.98399939993396,434.3653945000842,434.3653945000842,434.3653945000842,434.3653945000842,434.3653945000842,434.3653945000842,434.3653945000842,28,38,20,74,74,70,434.3653945000842,436.25023499992676,,,,,,,,,,,,,,,,,,,004,f,19,2023-05-13_14h12.35.637,RL,2022.2.5,59.92311862542044,
39,31,31,67,0,67,67,67,,,,,,,,,,,None,436.25023499992676,436.25023499992676,436.25023499992676,436.25023499992676,436.25023499992676,436.25023499992676,j,0.8644554000347853,437.1357489998918,437.1357489998918,437.1357489998918,437.1357489998918,437.1357489998918,437.1357489998918,437.4171283999458,438.5667621998582,438.583000499988,438.583000499988,438.583000499988,438.583000499988,438.583000499988,438.583000499988,438.583000499988,438.583000499988,438.583000499988,438.583000499988,438.583000499988,438.583000499988,438.583000499988,440.0314784999937,440.0314784999937,440.0314784999937,440.0314784999937,440.0314784999937,440.0314784999937,440.0314784999937,31,39,31,67,67,70,440.0314784999937,441.681965299882,,,,,,,,,,,,,,,,,,,004,f,19,2023-05-13_14h12.35.637,RL,2022.2.5,59.92311862542044,
37,27,29,65,0,68,68,68,,,,,,,,,,,None,441.681965299882,441.681965299882,441.681965299882,441.681965299882,441.681965299882,441.681965299882,j,0.876616399968043,442.5827786999289,442.5827786999289,442.5827786999289,442.5827786999289,442.5827786999289,442.5827786999289,442.8828894000035,443.8989172000438,443.8989172000438,443.8989172000438,443.8989172000438,443.8989172000438,443.8989172000438,443.8989172000438,443.8989172000438,443.8989172000438,443.8989172000438,443.8989172000438,443.8989172000438,443.8989172000438,443.8989172000438,445.21404440002516,445.21404440002516,445.21404440002516,445.21404440002516,445.21404440002516,445.21404440002516,445.21404440002516,27,37,29,65,65,70,445.21404440002516,446.7481654000003,,,,,,,,,,,,,,,,,,,004,f,19,2023-05-13_14h12.35.637,RL,2022.2.5,59.92311862542044,
33,29,29,62,0,69,69,69,,,,,,,,,,,None,446.7481654000003,446.7481654000003,446.7481654000003,446.7481654000003,446.7481654000003,446.7481654000003,j,0.9628398998174816,447.7321063999552,447.7321063999552,447.7321063999552,447.7321063999552,447.7321063999552,447.7321063999552,448.03149099997245,449.0316077999305,449.0316077999305,449.0316077999305,449.0316077999305,449.0316077999305,449.0316077999305,449.0316077999305,449.0316077999305,449.0316077999305,449.0316077999305,449.0316077999305,449.0316077999305,449.0316077999305,449.0316077999305,450.3296201999765,450.3296201999765,450.3296201999765,450.3296201999765,450.3296201999765,450.3296201999765,450.3296201999765,29,33,29,62,62,70,450.3296201999765,451.9804044000339,,,,,,,,,,,,,,,,,,,004,f,19,2023-05-13_14h12.35.637,RL,2022.2.5,59.92311862542044,
40,41,36,53,0,70,70,70,,,,,,,,,,,None,451.9804044000339,451.9804044000339,451.9804044000339,451.9804044000339,451.9804044000339,451.9804044000339,j,0.7050071000121534,452.7142197000794,452.7142197000794,452.7142197000794,452.7142197000794,452.7142197000794,452.7142197000794,453.0140464999713,454.48047770000994,454.48047770000994,454.48047770000994,454.48047770000994,454.48047770000994,454.48047770000994,454.48047770000994,454.48047770000994,454.48047770000994,454.48047770000994,454.48047770000994,454.48047770000994,454.48047770000994,454.48047770000994,456.2454013999086,456.2454013999086,456.2454013999086,456.2454013999086,456.2454013999086,456.2454013999086,456.2454013999086,41,40,36,53,53,70,456.2454013999086,458.0628889000509,,,,,,,,,,,,,,,,,,,004,f,19,2023-05-13_14h12.35.637,RL,2022.2.5,59.92311862542044,
35,32,32,58,0,71,71,71,,,,,,,,,,,None,458.0628889000509,458.0628889000509,458.0628889000509,458.0628889000509,458.0628889000509,458.0628889000509,f,0.3925063998904079,458.48272500000894,458.48272500000894,458.48272500000894,458.48272500000894,458.48272500000894,458.48272500000894,458.76337549998425,459.5963151999749,459.61267050006427,459.61267050006427,459.61267050006427,459.61267050006427,459.61267050006427,459.61267050006427,459.61267050006427,459.61267050006427,459.61267050006427,459.61267050006427,459.61267050006427,459.61267050006427,459.61267050006427,460.74482039990835,460.74482039990835,460.74482039990835,460.74482039990835,460.74482039990835,460.74482039990835,460.74482039990835,32,35,32,58,32,70,460.74482039990835,462.3624783998821,,,,,,,,,,,,,,,,,,,004,f,19,2023-05-13_14h12.35.637,RL,2022.2.5,59.92311862542044,
35,31,29,58,0,72,72,72,,,,,,,,,,,None,462.3624783998821,462.3624783998821,462.3624783998821,462.3624783998821,462.3624783998821,462.3624783998821,j,0.5361137001309544,462.9308331999928,462.9308331999928,462.9308331999928,462.9308331999928,462.9308331999928,462.9308331999928,463.2126448000781,464.8455250998959,464.86178490007296,464.86178490007296,464.86178490007296,464.86178490007296,464.86178490007296,464.86178490007296,464.86178490007296,464.86178490007296,464.86178490007296,464.86178490007296,464.86178490007296,464.86178490007296,464.86178490007296,466.7932527998928,466.7932527998928,466.7932527998928,466.7932527998928,466.7932527998928,466.7932527998928,466.7932527998928,31,35,29,58,58,70,466.7932527998928,468.7606713999994,,,,,,,,,,,,,,,,,,,004,f,19,2023-05-13_14h12.35.637,RL,2022.2.5,59.92311862542044,
32,27,30,49,0,73,73,73,,,,,,,,,,,None,468.7606713999994,468.7606713999994,468.7606713999994,468.7606713999994,468.7606713999994,468.7606713999994,f,0.6381324999965727,469.42780789989047,469.42780789989047,469.42780789989047,469.42780789989047,469.42780789989047,469.42780789989047,469.71146949985996,471.5774282999337,471.59398479992524,471.59398479992524,471.59398479992524,471.59398479992524,471.59398479992524,471.59398479992524,471.59398479992524,471.59398479992524,471.59398479992524,471.59398479992524,471.59398479992524,471.59398479992524,471.59398479992524,473.75856920005754,473.75856920005754,473.75856920005754,473.75856920005754,473.75856920005754,473.75856920005754,473.75856920005754,27,32,30,49,27,70,473.75856920005754,475.7265725999605,,,,,,,,,,,,,,,,,,,004,f,19,2023-05-13_14h12.35.637,RL,2022.2.5,59.92311862542044,
38,30,27,64,0,74,74,74,,,,,,,,,,,None,475.7265725999605,475.7265725999605,475.7265725999605,475.7265725999605,475.7265725999605,475.7265725999605,j,0.4880146000068635,476.24477849993855,476.24477849993855,476.24477849993855,476.24477849993855,476.24477849993855,476.24477849993855,476.52670040004887,478.32617300003767,478.3427875000052,478.3427875000052,478.3427875000052,478.3427875000052,478.3427875000052,478.3427875000052,478.3427875000052,478.3427875000052,478.3427875000052,478.3427875000052,478.3427875000052,478.3427875000052,478.3427875000052,480.44132099999115,480.44132099999115,480.44132099999115,480.44132099999115,480.44132099999115,480.44132099999115,480.44132099999115,30,38,27,64,64,70,480.44132099999115,482.22446800000034,,,,,,,,,,,,,,,,,,,004,f,19,2023-05-13_14h12.35.637,RL,2022.2.5,59.92311862542044,
39,31,17,52,0,75,75,75,,,,,,,,,,,q,542.6313245999627,542.6313245999627,542.6313245999627,542.6313245999627,542.6313245999627,542.6313245999627,i,0.7174894001800567,543.3702475999016,543.3702475999016,543.3702475999016,543.3702475999016,543.3702475999016,543.3702475999016,543.6649003999773,544.7484412000049,544.7649481000844,544.7649481000844,544.7649481000844,544.7649481000844,544.7649481000844,544.7649481000844,544.7649481000844,544.7649481000844,544.7649481000844,544.7649481000844,544.7649481000844,544.7649481000844,544.7649481000844,546.1463937000372,546.1463937000372,546.1463937000372,546.1463937000372,546.1463937000372,546.1463937000372,546.1463937000372,31,39,17,52,17,70,546.1463937000372,547.7970571999904,,,,,,,,,482.22446800000034,482.22446800000034,55.370130099821836,537.6163067999296,537.6163067999296,542.6313245999627,542.6313245999627,,,,004,f,19,2023-05-13_14h12.35.637,RL,2022.2.5,59.92311862542044,
36,43,23,56,0,76,76,76,,,,,,,,,,,None,547.7970571999904,547.7970571999904,547.7970571999904,547.7970571999904,547.7970571999904,547.7970571999904,j,0.47389909997582436,548.2983721999917,548.2983721999917,548.2983721999917,548.2983721999917,548.2983721999917,548.2983721999917,548.5973332999274,549.7806323000696,549.7806323000696,549.7806323000696,549.7806323000696,549.7806323000696,549.7806323000696,549.7806323000696,549.7806323000696,549.7806323000696,549.7806323000696,549.7806323000696,549.7806323000696,549.7806323000696,549.7806323000696,551.2619636999443,551.2619636999443,551.2619636999443,551.2619636999443,551.2619636999443,551.2619636999443,551.2619636999443,43,36,23,56,56,70,551.2619636999443,552.9462659000419,,,,,,,,,,,,,,,,,,,004,f,19,2023-05-13_14h12.35.637,RL,2022.2.5,59.92311862542044,
34,36,18,60,0,77,77,77,,,,,,,,,,,None,552.9462659000419,552.9462659000419,552.9462659000419,552.9462659000419,552.9462659000419,552.9462659000419,j,0.3913059998303652,553.368138599908,553.368138599908,553.368138599908,553.368138599908,553.368138599908,553.368138599908,553.6469308000524,555.0799068999477,555.0962427998893,555.0962427998893,555.0962427998893,555.0962427998893,555.0962427998893,555.0962427998893,555.0962427998893,555.0962427998893,555.0962427998893,555.0962427998893,555.0962427998893,555.0962427998893,555.0962427998893,556.8279776000418,556.8279776000418,556.8279776000418,556.8279776000418,556.8279776000418,556.8279776000418,556.8279776000418,36,34,18,60,60,70,556.8279776000418,558.362230699975,,,,,,,,,,,,,,,,,,,004,f,19,2023-05-13_14h12.35.637,RL,2022.2.5,59.92311862542044,
32,35,15,62,0,78,78,78,,,,,,,,,,,None,558.362230699975,558.362230699975,558.362230699975,558.362230699975,558.362230699975,558.362230699975,j,0.46224309992976487,558.8464200000744,558.8464200000744,558.8464200000744,558.8464200000744,558.8464200000744,558.8464200000744,559.129023199901,560.1785357000772,560.1952019999735,560.1952019999735,560.1952019999735,560.1952019999735,560.1952019999735,560.1952019999735,560.1952019999735,560.1952019999735,560.1952019999735,560.1952019999735,560.1952019999735,560.1952019999735,560.1952019999735,561.5434091000352,561.5434091000352,561.5434091000352,561.5434091000352,561.5434091000352,561.5434091000352,561.5434091000352,35,32,15,62,62,70,561.5434091000352,563.361400200054,,,,,,,,,,,,,,,,,,,004,f,19,2023-05-13_14h12.35.637,RL,2022.2.5,59.92311862542044,
34,39,28,68,0,79,79,79,,,,,,,,,,,None,563.361400200054,563.361400200054,563.361400200054,563.361400200054,563.361400200054,563.361400200054,j,0.5677133998833597,563.9616548998747,563.9616548998747,563.9616548998747,563.9616548998747,563.9616548998747,563.9616548998747,564.2448577999603,565.7113767000847,565.7279366999865,565.7279366999865,565.7279366999865,565.7279366999865,565.7279366999865,565.7279366999865,565.7279366999865,565.7279366999865,565.7279366999865,565.7279366999865,565.7279366999865,565.7279366999865,565.7279366999865,567.4928423999809,567.4928423999809,567.4928423999809,567.4928423999809,567.4928423999809,567.4928423999809,567.4928423999809,39,34,28,68,68,70,567.4928423999809,569.4769939000253,,,,,,,,,,,,,,,,,,,004,f,19,2023-05-13_14h12.35.637,RL,2022.2.5,59.92311862542044,
36,32,17,69,0,80,80,80,,,,,,,,,,,None,569.4769939000253,569.4769939000253,569.4769939000253,569.4769939000253,569.4769939000253,569.4769939000253,j,0.4718168000690639,569.9797185999341,569.9797185999341,569.9797185999341,569.9797185999341,569.9797185999341,569.9797185999341,570.2770926998928,571.8267588999588,571.843194700079,571.843194700079,571.843194700079,571.843194700079,571.843194700079,571.843194700079,571.843194700079,571.843194700079,571.843194700079,571.843194700079,571.843194700079,571.843194700079,571.843194700079,573.6912537000608,573.6912537000608,573.6912537000608,573.6912537000608,573.6912537000608,573.6912537000608,573.6912537000608,32,36,17,69,69,70,573.6912537000608,575.5928378999233,,,,,,,,,,,,,,,,,,,004,f,19,2023-05-13_14h12.35.637,RL,2022.2.5,59.92311862542044,
33,36,33,68,0,81,81,81,,,,,,,,,,,None,575.5928378999233,575.5928378999233,575.5928378999233,575.5928378999233,575.5928378999233,575.5928378999233,j,0.349550100043416,575.9611378998961,575.9611378998961,575.9611378998961,575.9611378998961,575.9611378998961,575.9611378998961,576.2593815999571,577.9421091999393,577.9421091999393,577.9421091999393,577.9421091999393,577.9421091999393,577.9421091999393,577.9421091999393,577.9421091999393,577.9421091999393,577.9421091999393,577.9421091999393,577.9421091999393,577.9421091999393,577.9421091999393,579.9241497998592,579.9241497998592,579.9241497998592,579.9241497998592,579.9241497998592,579.9241497998592,579.9241497998592,36,33,33,68,68,70,579.9241497998592,581.908168700058,,,,,,,,,,,,,,,,,,,004,f,19,2023-05-13_14h12.35.637,RL,2022.2.5,59.92311862542044,
40,32,22,65,0,82,82,82,,,,,,,,,,,None,581.908168700058,581.908168700058,581.908168700058,581.908168700058,581.908168700058,581.908168700058,j,0.4255109999794513,582.3583821000066,582.3583821000066,582.3583821000066,582.3583821000066,582.3583821000066,582.3583821000066,582.6414381999057,583.7578823999502,583.7744185999036,583.7744185999036,583.7744185999036,583.7744185999036,583.7744185999036,583.7744185999036,583.7744185999036,583.7744185999036,583.7744185999036,583.7744185999036,583.7744185999036,583.7744185999036,583.7744185999036,585.1895727000665,585.1895727000665,585.1895727000665,585.1895727000665,585.1895727000665,585.1895727000665,585.1895727000665,32,40,22,65,65,70,585.1895727000665,586.906849599909,,,,,,,,,,,,,,,,,,,004,f,19,2023-05-13_14h12.35.637,RL,2022.2.5,59.92311862542044,
43,37,28,59,0,83,83,83,,,,,,,,,,,None,586.906849599909,586.906849599909,586.906849599909,586.906849599909,586.906849599909,586.906849599909,f,0.48659750004298985,587.425275699934,587.425275699934,587.425275699934,587.425275699934,587.425275699934,587.425275699934,587.7072193999775,589.1904301999602,589.2067418999504,589.2067418999504,589.2067418999504,589.2067418999504,589.2067418999504,589.2067418999504,589.2067418999504,589.2067418999504,589.2067418999504,589.2067418999504,589.2067418999504,589.2067418999504,589.2067418999504,590.9882940999232,590.9882940999232,590.9882940999232,590.9882940999232,590.9882940999232,590.9882940999232,590.9882940999232,37,43,28,59,37,70,590.9882940999232,592.5390512000304,,,,,,,,,,,,,,,,,,,004,f,19,2023-05-13_14h12.35.637,RL,2022.2.5,59.92311862542044,
36,34,16,66,0,84,84,84,,,,,,,,,,,None,592.5390512000304,592.5390512000304,592.5390512000304,592.5390512000304,592.5390512000304,592.5390512000304,j,0.6248939000070095,593.1919149998575,593.1919149998575,593.1919149998575,593.1919149998575,593.1919149998575,593.1919149998575,593.4730851999484,595.3225900998805,595.3391120000742,595.3391120000742,595.3391120000742,595.3391120000742,595.3391120000742,595.3391120000742,595.3391120000742,595.3391120000742,595.3391120000742,595.3391120000742,595.3391120000742,595.3391120000742,595.3391120000742,597.4872757000849,597.4872757000849,597.4872757000849,597.4872757000849,597.4872757000849,597.4872757000849,597.4872757000849,34,36,16,66,66,70,597.4872757000849,599.2886351998895,,,,,,,,,,,,,,,,,,,004,f,19,2023-05-13_14h12.35.637,RL,2022.2.5,59.92311862542044,
33,32,20,59,0,85,85,85,,,,,,,,,,,None,599.2886351998895,599.2886351998895,599.2886351998895,599.2886351998895,599.2886351998895,599.2886351998895,r,0.5463670000899583,599.8551727999002,599.8551727999002,599.8551727999002,599.8551727999002,599.8551727999002,599.8551727999002,600.1386257999111,601.9547361000441,601.9713341000024,601.9713341000024,601.9713341000024,601.9713341000024,601.9713341000024,601.9713341000024,601.9713341000024,601.9713341000024,601.9713341000024,601.9713341000024,601.9713341000024,601.9713341000024,601.9713341000024,604.0861197998747,604.0861197998747,604.0861197998747,604.0861197998747,604.0861197998747,604.0861197998747,604.0861197998747,32,33,20,59,33,70,604.0861197998747,605.9038259000517,,,,,,,,,,,,,,,,,,,004,f,19,2023-05-13_14h12.35.637,RL,2022.2.5,59.92311862542044,
40,29,31,65,0,86,86,86,,,,,,,,,,,None,605.9038259000517,605.9038259000517,605.9038259000517,605.9038259000517,605.9038259000517,605.9038259000517,j,0.41769779985770583,606.3562304999214,606.3562304999214,606.3562304999214,606.3562304999214,606.3562304999214,606.3562304999214,606.6374222000595,608.2870107998606,608.320232699858,608.320232699858,608.320232699858,608.320232699858,608.320232699858,608.320232699858,608.320232699858,608.320232699858,608.320232699858,608.320232699858,608.320232699858,608.320232699858,608.320232699858,610.2684130000416,610.2684130000416,610.2684130000416,610.2684130000416,610.2684130000416,610.2684130000416,610.2684130000416,29,40,31,65,65,70,610.2684130000416,611.8360419999808,,,,,,,,,,,,,,,,,,,004,f,19,2023-05-13_14h12.35.637,RL,2022.2.5,59.92311862542044,
42,28,34,55,0,87,87,87,,,,,,,,,,,None,611.8360419999808,611.8360419999808,611.8360419999808,611.8360419999808,611.8360419999808,611.8360419999808,j,0.4218745999969542,612.2866173998918,612.2866173998918,612.2866173998918,612.2866173998918,612.2866173998918,612.2866173998918,612.569787299959,613.4360634000041,613.452633799985,613.452633799985,613.452633799985,613.452633799985,613.452633799985,613.452633799985,613.452633799985,613.452633799985,613.452633799985,613.452633799985,613.452633799985,613.452633799985,613.452633799985,614.6176880998537,614.6176880998537,614.6176880998537,614.6176880998537,614.6176880998537,614.6176880998537,614.6176880998537,28,42,34,55,55,70,614.6176880998537,616.3019329998642,,,,,,,,,,,,,,,,,,,004,f,19,2023-05-13_14h12.35.637,RL,2022.2.5,59.92311862542044,
44,24,27,54,0,88,88,88,,,,,,,,,,,None,616.3019329998642,616.3019329998642,616.3019329998642,616.3019329998642,616.3019329998642,616.3019329998642,j,0.7109469999559224,617.0359431998804,617.0359431998804,617.0359431998804,617.0359431998804,617.0359431998804,617.0359431998804,617.3190770999063,618.3021126000676,618.3187470999546,618.3187470999546,618.3187470999546,618.3187470999546,618.3187470999546,618.3187470999546,618.3187470999546,618.3187470999546,618.3187470999546,618.3187470999546,618.3187470999546,618.3187470999546,618.3187470999546,619.5999668999575,619.5999668999575,619.5999668999575,619.5999668999575,619.5999668999575,619.5999668999575,619.5999668999575,24,44,27,54,54,70,619.5999668999575,621.2009518998675,,,,,,,,,,,,,,,,,,,004,f,19,2023-05-13_14h12.35.637,RL,2022.2.5,59.92311862542044,
38,39,29,60,0,89,89,89,,,,,,,,,,,None,621.2009518998675,621.2009518998675,621.2009518998675,621.2009518998675,621.2009518998675,621.2009518998675,j,0.6976337998639792,621.9181514999364,621.9181514999364,621.9181514999364,621.9181514999364,621.9181514999364,621.9181514999364,622.2013182998635,624.034186600009,624.050872300053,624.050872300053,624.050872300053,624.050872300053,624.050872300053,624.050872300053,624.050872300053,624.050872300053,624.050872300053,624.050872300053,624.050872300053,624.050872300053,624.050872300053,626.182453099871,626.182453099871,626.182453099871,626.182453099871,626.182453099871,626.182453099871,626.182453099871,39,38,29,60,60,70,626.182453099871,627.7833402000833,,,,,,,,,,,,,,,,,,,004,f,19,2023-05-13_14h12.35.637,RL,2022.2.5,59.92311862542044,
43,41,29,64,0,90,90,90,,,,,,,,,,,None,627.7833402000833,627.7833402000833,627.7833402000833,627.7833402000833,627.7833402000833,627.7833402000833,j,0.6585518999490887,628.4672654999886,628.4672654999886,628.4672654999886,628.4672654999886,628.4672654999886,628.4672654999886,628.7500219000503,630.5500322999433,630.566831999924,630.566831999924,630.566831999924,630.566831999924,630.566831999924,630.566831999924,630.566831999924,630.566831999924,630.566831999924,630.566831999924,630.566831999924,630.566831999924,630.566831999924,632.6644852999598,632.6644852999598,632.6644852999598,632.6644852999598,632.6644852999598,632.6644852999598,632.6644852999598,41,43,29,64,64,70,632.6644852999598,634.3985951999202,,,,,,,,,,,,,,,,,,,004,f,19,2023-05-13_14h12.35.637,RL,2022.2.5,59.92311862542044,
44,24,33,55,0,91,91,91,,,,,,,,,,,None,634.3985951999202,634.3985951999202,634.3985951999202,634.3985951999202,634.3985951999202,634.3985951999202,j,0.7162092998623848,635.1350793000311,635.1350793000311,635.1350793000311,635.1350793000311,635.1350793000311,635.1350793000311,635.4325933998916,637.0152872998733,637.0152872998733,637.0152872998733,637.0152872998733,637.0152872998733,637.0152872998733,637.0152872998733,637.0152872998733,637.0152872998733,637.0152872998733,637.0152872998733,637.0152872998733,637.0152872998733,637.0152872998733,638.8969735999126,638.8969735999126,638.8969735999126,638.8969735999126,638.8969735999126,638.8969735999126,638.8969735999126,24,44,33,55,55,70,638.8969735999126,640.7813945000526,,,,,,,,,,,,,,,,,,,004,f,19,2023-05-13_14h12.35.637,RL,2022.2.5,59.92311862542044,
50,32,29,50,0,92,92,92,,,,,,,,,,,None,640.7813945000526,640.7813945000526,640.7813945000526,640.7813945000526,640.7813945000526,640.7813945000526,f,0.5503632000181824,641.3662089998834,641.3662089998834,641.3662089998834,641.3662089998834,641.3662089998834,641.3662089998834,641.6483155998867,642.814348399872,642.8308480000123,642.8308480000123,642.8308480000123,642.8308480000123,642.8308480000123,642.8308480000123,642.8308480000123,642.8308480000123,642.8308480000123,642.8308480000123,642.8308480000123,642.8308480000123,642.8308480000123,644.2958597000688,644.2958597000688,644.2958597000688,644.2958597000688,644.2958597000688,644.2958597000688,644.2958597000688,32,50,29,50,32,70,644.2958597000688,646.0798517998774,,,,,,,,,,,,,,,,,,,004,f,19,2023-05-13_14h12.35.637,RL,2022.2.5,59.92311862542044,
45,29,32,60,0,93,93,93,,,,,,,,,,,None,646.0798517998774,646.0798517998774,646.0798517998774,646.0798517998774,646.0798517998774,646.0798517998774,r,0.5593143000733107,646.6655540000647,646.6655540000647,646.6655540000647,646.6655540000647,646.6655540000647,646.6655540000647,646.963904599892,648.0299798999913,648.0299798999913,648.0299798999913,648.0299798999913,648.0299798999913,648.0299798999913,648.0299798999913,648.0299798999913,648.0299798999913,648.0299798999913,648.0299798999913,648.0299798999913,648.0299798999913,648.0299798999913,649.3953434000723,649.3953434000723,649.3953434000723,649.3953434000723,649.3953434000723,649.3953434000723,649.3953434000723,29,45,32,60,45,70,649.3953434000723,651.0790613999125,,,,,,,,,,,,,,,,,,,004,f,19,2023-05-13_14h12.35.637,RL,2022.2.5,59.92311862542044,
42,28,38,60,0,94,94,94,,,,,,,,,,,None,651.0790613999125,651.0790613999125,651.0790613999125,651.0790613999125,651.0790613999125,651.0790613999125,j,0.7686583998147398,651.8813821000513,651.8813821000513,651.8813821000513,651.8813821000513,651.8813821000513,651.8813821000513,652.1629848999437,653.9289861000143,653.9456883000676,653.9456883000676,653.9456883000676,653.9456883000676,653.9456883000676,653.9456883000676,653.9456883000676,653.9456883000676,653.9456883000676,653.9456883000676,653.9456883000676,653.9456883000676,653.9456883000676,656.0104248998687,656.0104248998687,656.0104248998687,656.0104248998687,656.0104248998687,656.0104248998687,656.0104248998687,28,42,38,60,60,70,656.0104248998687,657.7284675000701,,,,,,,,,,,,,,,,,,,004,f,19,2023-05-13_14h12.35.637,RL,2022.2.5,59.92311862542044,
37,36,31,47,0,95,95,95,,,,,,,,,,,None,657.7284675000701,657.7284675000701,657.7284675000701,657.7284675000701,657.7284675000701,657.7284675000701,i,0.5147367999888957,658.2617975000758,658.2617975000758,658.2617975000758,658.2617975000758,658.2617975000758,658.2617975000758,658.5452566000167,659.7449594000354,659.7615290998947,659.7615290998947,659.7615290998947,659.7615290998947,659.7615290998947,659.7615290998947,659.7615290998947,659.7615290998947,659.7615290998947,659.7615290998947,659.7615290998947,659.7615290998947,659.7615290998947,661.2598363000434,661.2598363000434,661.2598363000434,661.2598363000434,661.2598363000434,661.2598363000434,661.2598363000434,36,37,31,47,31,70,661.2598363000434,663.0106979999691,,,,,,,,,,,,,,,,,,,004,f,19,2023-05-13_14h12.35.637,RL,2022.2.5,59.92311862542044,
33,30,35,56,0,96,96,96,,,,,,,,,,,None,663.0106979999691,663.0106979999691,663.0106979999691,663.0106979999691,663.0106979999691,663.0106979999691,r,0.4529544999822974,663.4955603999551,663.4955603999551,663.4955603999551,663.4955603999551,663.4955603999551,663.4955603999551,663.7773889000528,665.327234899858,665.3437081999145,665.3437081999145,665.3437081999145,665.3437081999145,665.3437081999145,665.3437081999145,665.3437081999145,665.3437081999145,665.3437081999145,665.3437081999145,665.3437081999145,665.3437081999145,665.3437081999145,667.1916672000661,667.1916672000661,667.1916672000661,667.1916672000661,667.1916672000661,667.1916672000661,667.1916672000661,30,33,35,56,33,70,667.1916672000661,669.0766191000585,,,,,,,,,,,,,,,,,,,004,f,19,2023-05-13_14h12.35.637,RL,2022.2.5,59.92311862542044,
39,34,43,61,0,97,97,97,,,,,,,,,,,None,669.0766191000585,669.0766191000585,669.0766191000585,669.0766191000585,669.0766191000585,669.0766191000585,j,0.5190543001517653,669.6282635000534,669.6282635000534,669.6282635000534,669.6282635000534,669.6282635000534,669.6282635000534,669.9100651000626,671.5593562000431,671.5759886000305,671.5759886000305,671.5759886000305,671.5759886000305,671.5759886000305,671.5759886000305,671.5759886000305,671.5759886000305,671.5759886000305,671.5759886000305,671.5759886000305,671.5759886000305,671.5759886000305,673.5239484999329,673.5239484999329,673.5239484999329,673.5239484999329,673.5239484999329,673.5239484999329,673.5239484999329,34,39,43,61,61,70,673.5239484999329,675.0248882998712,,,,,,,,,,,,,,,,,,,004,f,19,2023-05-13_14h12.35.637,RL,2022.2.5,59.92311862542044,
39,28,32,59,0,98,98,98,,,,,,,,,,,None,675.0248882998712,675.0248882998712,675.0248882998712,675.0248882998712,675.0248882998712,675.0248882998712,r,0.4227637001313269,675.4759603999555,675.4759603999555,675.4759603999555,675.4759603999555,675.4759603999555,675.4759603999555,675.7592909999657,677.058930600062,677.0749303000048,677.0749303000048,677.0749303000048,677.0749303000048,677.0749303000048,677.0749303000048,677.0749303000048,677.0749303000048,677.0749303000048,677.0749303000048,677.0749303000048,677.0749303000048,677.0749303000048,678.6730293000583,678.6730293000583,678.6730293000583,678.6730293000583,678.6730293000583,678.6730293000583,678.6730293000583,28,39,32,59,39,70,678.6730293000583,680.6405797998887,,,,,,,,,,,,,,,,,,,004,f,19,2023-05-13_14h12.35.637,RL,2022.2.5,59.92311862542044,
36,22,25,64,0,99,99,99,,,,,,,,,,,None,680.6405797998887,680.6405797998887,680.6405797998887,680.6405797998887,680.6405797998887,680.6405797998887,f,0.4357648999430239,681.1087682000361,681.1087682000361,681.1087682000361,681.1087682000361,681.1087682000361,681.1087682000361,681.4075769998599,682.8407000000589,682.8407000000589,682.8407000000589,682.8407000000589,682.8407000000589,682.8407000000589,682.8407000000589,682.8407000000589,682.8407000000589,682.8407000000589,682.8407000000589,682.8407000000589,682.8407000000589,682.8407000000589,684.5724185998552,684.5724185998552,684.5724185998552,684.5724185998552,684.5724185998552,684.5724185998552,684.5724185998552,22,36,25,64,22,70,684.5724185998552,686.0901271998882,,,,,,,,,,,,,,,,,,,004,f,19,2023-05-13_14h12.35.637,RL,2022.2.5,59.92311862542044,
35,23,24,50,0,100,100,100,,,,,,,,,,,None,686.0901271998882,686.0901271998882,686.0901271998882,686.0901271998882,686.0901271998882,686.0901271998882,j,0.6826025999616832,686.7902450000402,686.7902450000402,686.7902450000402,686.7902450000402,686.7902450000402,686.7902450000402,687.0898672998883,688.9895013999194,688.9895013999194,688.9895013999194,688.9895013999194,688.9895013999194,688.9895013999194,688.9895013999194,688.9895013999194,688.9895013999194,688.9895013999194,688.9895013999194,688.9895013999194,688.9895013999194,688.9895013999194,691.1878116999287,691.1878116999287,691.1878116999287,691.1878116999287,691.1878116999287,691.1878116999287,691.1878116999287,23,35,24,50,50,70,691.1878116999287,693.0220949000213,,,,,,,,,,,,,,,,,,,004,f,19,2023-05-13_14h12.35.637,RL,2022.2.5,59.92311862542044,
35,21,21,52,0,101,101,101,,,,,,,,,,,None,693.0220949000213,693.0220949000213,693.0220949000213,693.0220949000213,693.0220949000213,693.0220949000213,f,0.8544159000739455,693.90560310008,693.90560310008,693.90560310008,693.90560310008,693.90560310008,693.90560310008,694.1886718000751,696.055637500016,696.0718179000542,696.0718179000542,696.0718179000542,696.0718179000542,696.0718179000542,696.0718179000542,696.0718179000542,696.0718179000542,696.0718179000542,696.0718179000542,696.0718179000542,696.0718179000542,696.0718179000542,698.2365599998739,698.2365599998739,698.2365599998739,698.2365599998739,698.2365599998739,698.2365599998739,698.2365599998739,21,35,21,52,21,70,698.2365599998739,699.9212181998882,,,,,,,,,,,,,,,,,,,004,f,19,2023-05-13_14h12.35.637,RL,2022.2.5,59.92311862542044,
28,39,18,60,0,102,102,102,,,,,,,,,,,None,699.9212181998882,699.9212181998882,699.9212181998882,699.9212181998882,699.9212181998882,699.9212181998882,j,0.4066722998395562,700.3547475000378,700.3547475000378,700.3547475000378,700.3547475000378,700.3547475000378,700.3547475000378,700.6378677000757,701.7875510000158,701.8042514999397,701.8042514999397,701.8042514999397,701.8042514999397,701.8042514999397,701.8042514999397,701.8042514999397,701.8042514999397,701.8042514999397,701.8042514999397,701.8042514999397,701.8042514999397,701.8042514999397,703.2527445000596,703.2527445000596,703.2527445000596,703.2527445000596,703.2527445000596,703.2527445000596,703.2527445000596,39,28,18,60,60,70,703.2527445000596,705.1531714000739,,,,,,,,,,,,,,,,,,,004,f,19,2023-05-13_14h12.35.637,RL,2022.2.5,59.92311862542044,
25,26,18,55,0,103,103,103,,,,,,,,,,,None,705.1531714000739,705.1531714000739,705.1531714000739,705.1531714000739,705.1531714000739,705.1531714000739,i,0.4435689998790622,705.6206088999752,705.6206088999752,705.6206088999752,705.6206088999752,705.6206088999752,705.6206088999752,705.9034507998731,706.8532497000415,706.8699459999334,706.8699459999334,706.8699459999334,706.8699459999334,706.8699459999334,706.8699459999334,706.8699459999334,706.8699459999334,706.8699459999334,706.8699459999334,706.8699459999334,706.8699459999334,706.8699459999334,708.1183136000764,708.1183136000764,708.1183136000764,708.1183136000764,708.1183136000764,708.1183136000764,708.1183136000764,26,25,18,55,18,70,708.1183136000764,710.0025909999385,,,,,,,,,,,,,,,,,,,004,f,19,2023-05-13_14h12.35.637,RL,2022.2.5,59.92311862542044,
33,16,18,49,0,104,104,104,,,,,,,,,,,None,710.0025909999385,710.0025909999385,710.0025909999385,710.0025909999385,710.0025909999385,710.0025909999385,j,0.6683124001137912,710.7039801999927,710.7039801999927,710.7039801999927,710.7039801999927,710.7039801999927,710.7039801999927,710.9861588000786,712.4026090998668,712.4356937999837,712.4356937999837,712.4356937999837,712.4356937999837,712.4356937999837,712.4356937999837,712.4356937999837,712.4356937999837,712.4356937999837,712.4356937999837,712.4356937999837,712.4356937999837,712.4356937999837,714.1504486000631,714.1504486000631,714.1504486000631,714.1504486000631,714.1504486000631,714.1504486000631,714.1504486000631,16,33,18,49,49,70,714.1504486000631,716.1347713000141,,,,,,,,,,,,,,,,,,,004,f,19,2023-05-13_14h12.35.637,RL,2022.2.5,59.92311862542044,
32,20,24,54,0,105,105,105,,,,,,,,,,,None,716.1347713000141,716.1347713000141,716.1347713000141,716.1347713000141,716.1347713000141,716.1347713000141,f,0.8853132999502122,717.0517760000657,717.0517760000657,717.0517760000657,717.0517760000657,717.0517760000657,717.0517760000657,717.3349788999185,718.5351752999704,718.5517671999987,718.5517671999987,718.5517671999987,718.5517671999987,718.5517671999987,718.5517671999987,718.5517671999987,718.5517671999987,718.5517671999987,718.5517671999987,718.5517671999987,718.5517671999987,718.5517671999987,720.049442099873,720.049442099873,720.049442099873,720.049442099873,720.049442099873,720.049442099873,720.049442099873,20,32,24,54,20,70,720.049442099873,721.9167583999224,,,,,,,,,,,,,,,,,,,004,f,19,2023-05-13_14h12.35.637,RL,2022.2.5,59.92311862542044,
40,20,23,60,0,106,106,106,,,,,,,,,,,None,721.9167583999224,721.9167583999224,721.9167583999224,721.9167583999224,721.9167583999224,721.9167583999224,f,0.8811089000664651,722.8185350999702,722.8185350999702,722.8185350999702,722.8185350999702,722.8185350999702,722.8185350999702,723.1005434999242,724.9339304000605,724.9671660000458,724.9671660000458,724.9671660000458,724.9671660000458,724.9671660000458,724.9671660000458,724.9671660000458,724.9671660000458,724.9671660000458,724.9671660000458,724.9671660000458,724.9671660000458,724.9671660000458,727.098062499892,727.098062499892,727.098062499892,727.098062499892,727.098062499892,727.098062499892,727.098062499892,20,40,23,60,20,70,727.098062499892,728.8161851998884,,,,,,,,,,,,,,,,,,,004,f,19,2023-05-13_14h12.35.637,RL,2022.2.5,59.92311862542044,
33,15,21,58,0,107,107,107,,,,,,,,,,,None,728.8161851998884,728.8161851998884,728.8161851998884,728.8161851998884,728.8161851998884,728.8161851998884,j,0.9890817000996321,729.8354966000188,729.8354966000188,729.8354966000188,729.8354966000188,729.8354966000188,729.8354966000188,730.132693399908,731.7655920998659,731.7655920998659,731.7655920998659,731.7655920998659,731.7655920998659,731.7655920998659,731.7655920998659,731.7655920998659,731.7655920998659,731.7655920998659,731.7655920998659,731.7655920998659,731.7655920998659,731.7655920998659,733.6969250999391,733.6969250999391,733.6969250999391,733.6969250999391,733.6969250999391,733.6969250999391,733.6969250999391,15,33,21,58,58,70,733.6969250999391,735.6811621999368,,,,,,,,,,,,,,,,,,,004,f,19,2023-05-13_14h12.35.637,RL,2022.2.5,59.92311862542044,
34,22,21,66,0,108,108,108,,,,,,,,,,,None,735.6811621999368,735.6811621999368,735.6811621999368,735.6811621999368,735.6811621999368,735.6811621999368,j,0.41730790003202856,736.1322488998994,736.1322488998994,736.1322488998994,736.1322488998994,736.1322488998994,736.1322488998994,736.4315394998994,737.8808019000571,737.8808019000571,737.8808019000571,737.8808019000571,737.8808019000571,737.8808019000571,737.8808019000571,737.8808019000571,737.8808019000571,737.8808019000571,737.8808019000571,737.8808019000571,737.8808019000571,737.8808019000571,739.6290235000197,739.6290235000197,739.6290235000197,739.6290235000197,739.6290235000197,739.6290235000197,739.6290235000197,22,34,21,66,66,70,739.6290235000197,741.2636045999825,,,,,,,,,,,,,,,,,,,004,f,19,2023-05-13_14h12.35.637,RL,2022.2.5,59.92311862542044,
32,23,39,63,0,109,109,109,,,,,,,,,,,None,741.2636045999825,741.2636045999825,741.2636045999825,741.2636045999825,741.2636045999825,741.2636045999825,j,0.8146476000547409,742.0976790999994,742.0976790999994,742.0976790999994,742.0976790999994,742.0976790999994,742.0976790999994,742.3803020999767,743.8471901998855,743.8636415000074,743.8636415000074,743.8636415000074,743.8636415000074,743.8636415000074,743.8636415000074,743.8636415000074,743.8636415000074,743.8636415000074,743.8636415000074,743.8636415000074,743.8636415000074,743.8636415000074,745.6279289999511,745.6279289999511,745.6279289999511,745.6279289999511,745.6279289999511,745.6279289999511,745.6279289999511,23,32,39,63,63,70,745.6279289999511,747.5958469999023,,,,,,,,,,,,,,,,,,,004,f,19,2023-05-13_14h12.35.637,RL,2022.2.5,59.92311862542044,
33,27,30,68,0,110,110,110,,,,,,,,,,,None,747.5958469999023,747.5958469999023,747.5958469999023,747.5958469999023,747.5958469999023,747.5958469999023,i,0.688142100116238,748.3148103998974,748.3148103998974,748.3148103998974,748.3148103998974,748.3148103998974,748.3148103998974,748.5966527999844,750.0624776000623,750.0791356000118,750.0791356000118,750.0791356000118,750.0791356000118,750.0791356000118,750.0791356000118,750.0791356000118,750.0791356000118,750.0791356000118,750.0791356000118,750.0791356000118,750.0791356000118,750.0791356000118,751.8440441999119,751.8440441999119,751.8440441999119,751.8440441999119,751.8440441999119,751.8440441999119,751.8440441999119,27,33,30,68,30,70,751.8440441999119,753.4618601000402,,,,,,,,,,,,,,,,,,,004,f,19,2023-05-13_14h12.35.637,RL,2022.2.5,59.92311862542044,
39,27,30,67,0,111,111,111,,,,,,,,,,,None,753.4618601000402,753.4618601000402,753.4618601000402,753.4618601000402,753.4618601000402,753.4618601000402,i,0.5730576999485493,754.0643879999407,754.0643879999407,754.0643879999407,754.0643879999407,754.0643879999407,754.0643879999407,754.3615309000015,756.1285333000124,756.1450344000477,756.1450344000477,756.1450344000477,756.1450344000477,756.1450344000477,756.1450344000477,756.1450344000477,756.1450344000477,756.1450344000477,756.1450344000477,756.1450344000477,756.1450344000477,756.1450344000477,758.2091611998621,758.2091611998621,758.2091611998621,758.2091611998621,758.2091611998621,758.2091611998621,758.2091611998621,27,39,30,67,30,70,758.2091611998621,760.0436825999059,,,,,,,,,,,,,,,,,,,004,f,19,2023-05-13_14h12.35.637,RL,2022.2.5,59.92311862542044,
34,18,29,65,0,112,112,112,,,,,,,,,,,None,760.0436825999059,760.0436825999059,760.0436825999059,760.0436825999059,760.0436825999059,760.0436825999059,r,0.4635067000053823,760.5278471999336,760.5278471999336,760.5278471999336,760.5278471999336,760.5278471999336,760.5278471999336,760.81092790002,762.2433529000264,762.2601626000833,762.2601626000833,762.2601626000833,762.2601626000833,762.2601626000833,762.2601626000833,762.2601626000833,762.2601626000833,762.2601626000833,762.2601626000833,762.2601626000833,762.2601626000833,762.2601626000833,763.9919288000092,763.9919288000092,763.9919288000092,763.9919288000092,763.9919288000092,763.9919288000092,763.9919288000092,18,34,29,65,34,70,763.9919288000092,765.9762329000514,,,,,,,,,,,,,,,,,,,004,f,19,2023-05-13_14h12.35.637,RL,2022.2.5,59.92311862542044,
42,28,31,68,0,113,113,113,,,,,,,,,,,None,765.9762329000514,765.9762329000514,765.9762329000514,765.9762329000514,765.9762329000514,765.9762329000514,r,0.43506829999387264,766.4433683999814,766.4433683999814,766.4433683999814,766.4433683999814,766.4433683999814,766.4433683999814,766.726684999885,767.9763267999515,767.9928810999263,767.9928810999263,767.9928810999263,767.9928810999263,767.9928810999263,767.9928810999263,767.9928810999263,767.9928810999263,767.9928810999263,767.9928810999263,767.9928810999263,767.9928810999263,767.9928810999263,769.5406293999404,769.5406293999404,769.5406293999404,769.5406293999404,769.5406293999404,769.5406293999404,769.5406293999404,28,42,31,68,42,70,769.5406293999404,771.4248655000702,,,,,,,,,,,,,,,,,,,004,f,19,2023-05-13_14h12.35.637,RL,2022.2.5,59.92311862542044,
43,14,23,69,0,114,114,114,,,,,,,,,,,None,771.4248655000702,771.4248655000702,771.4248655000702,771.4248655000702,771.4248655000702,771.4248655000702,j,0.5700497999787331,772.0253037998918,772.0253037998918,772.0253037998918,772.0253037998918,772.0253037998918,772.0253037998918,772.3084646998905,773.9917647000402,774.0082880998962,774.0082880998962,774.0082880998962,774.0082880998962,774.0082880998962,774.0082880998962,774.0082880998962,774.0082880998962,774.0082880998962,774.0082880998962,774.0082880998962,774.0082880998962,774.0082880998962,775.9894238999113,775.9894238999113,775.9894238999113,775.9894238999113,775.9894238999113,775.9894238999113,775.9894238999113,14,43,23,69,69,70,775.9894238999113,777.7242081000004,,,,,,,,,,,,,,,,,,,004,f,19,2023-05-13_14h12.35.637,RL,2022.2.5,59.92311862542044,
47,23,24,68,0,115,115,115,,,,,,,,,,,None,777.7242081000004,777.7242081000004,777.7242081000004,777.7242081000004,777.7242081000004,777.7242081000004,r,0.45614370005205274,778.208566499874,778.208566499874,778.208566499874,778.208566499874,778.208566499874,778.208566499874,778.5076528999489,779.6571490999777,779.6571490999777,779.6571490999777,779.6571490999777,779.6571490999777,779.6571490999777,779.6571490999777,779.6571490999777,779.6571490999777,779.6571490999777,779.6571490999777,779.6571490999777,779.6571490999777,779.6571490999777,781.1055777999572,781.1055777999572,781.1055777999572,781.1055777999572,781.1055777999572,781.1055777999572,781.1055777999572,23,47,24,68,47,70,781.1055777999572,782.9893016000278,,,,,,,,,,,,,,,,,,,004,f,19,2023-05-13_14h12.35.637,RL,2022.2.5,59.92311862542044,
48,27,23,72,0,116,116,116,,,,,,,,,,,None,782.9893016000278,782.9893016000278,782.9893016000278,782.9893016000278,782.9893016000278,782.9893016000278,j,0.3820646998938173,783.3899890000466,783.3899890000466,783.3899890000466,783.3899890000466,783.3899890000466,783.3899890000466,783.6735846998636,784.9732802000362,784.9897779000457,784.9897779000457,784.9897779000457,784.9897779000457,784.9897779000457,784.9897779000457,784.9897779000457,784.9897779000457,784.9897779000457,784.9897779000457,784.9897779000457,784.9897779000457,784.9897779000457,786.5880463998765,786.5880463998765,786.5880463998765,786.5880463998765,786.5880463998765,786.5880463998765,786.5880463998765,27,48,23,72,72,70,786.5880463998765,788.5053008000832,,,,,,,,,,,,,,,,,,,004,f,19,2023-05-13_14h12.35.637,RL,2022.2.5,59.92311862542044,
32,24,23,71,0,117,117,117,,,,,,,,,,,None,788.5053008000832,788.5053008000832,788.5053008000832,788.5053008000832,788.5053008000832,788.5053008000832,r,0.5552751000504941,789.0894079999998,789.0894079999998,789.0894079999998,789.0894079999998,789.0894079999998,789.0894079999998,789.3890696000308,790.2055599000305,790.2055599000305,790.2055599000305,790.2055599000305,790.2055599000305,790.2055599000305,790.2055599000305,790.2055599000305,790.2055599000305,790.2055599000305,790.2055599000305,790.2055599000305,790.2055599000305,790.2055599000305,791.320452600019,791.320452600019,791.320452600019,791.320452600019,791.320452600019,791.320452600019,791.320452600019,24,32,23,71,32,70,791.320452600019,793.3050968998577,,,,,,,,,,,,,,,,,,,004,f,19,2023-05-13_14h12.35.637,RL,2022.2.5,59.92311862542044,
33,23,28,74,0,118,118,118,,,,,,,,,,,None,793.3050968998577,793.3050968998577,793.3050968998577,793.3050968998577,793.3050968998577,793.3050968998577,j,0.7788610998541117,794.1064514999744,794.1064514999744,794.1064514999744,794.1064514999744,794.1064514999744,794.1064514999744,794.4050503000617,795.4877778000664,795.4877778000664,795.4877778000664,795.4877778000664,795.4877778000664,795.4877778000664,795.4877778000664,795.4877778000664,795.4877778000664,795.4877778000664,795.4877778000664,795.4877778000664,795.4877778000664,795.4877778000664,796.8693409999833,796.8693409999833,796.8693409999833,796.8693409999833,796.8693409999833,796.8693409999833,796.8693409999833,23,33,28,74,74,70,796.8693409999833,798.520511199953,,,,,,,,,,,,,,,,,,,004,f,19,2023-05-13_14h12.35.637,RL,2022.2.5,59.92311862542044,
21,18,29,73,0,119,119,119,,,,,,,,,,,None,798.520511199953,798.520511199953,798.520511199953,798.520511199953,798.520511199953,798.520511199953,r,1.2220266999211162,799.7719407000113,799.7719407000113,799.7719407000113,799.7719407000113,799.7719407000113,799.7719407000113,800.0540112999734,801.4868209999986,801.503758299863,801.503758299863,801.503758299863,801.503758299863,801.503758299863,801.503758299863,801.503758299863,801.503758299863,801.503758299863,801.503758299863,801.503758299863,801.503758299863,801.503758299863,803.2348519000225,803.2348519000225,803.2348519000225,803.2348519000225,803.2348519000225,803.2348519000225,803.2348519000225,18,21,29,73,21,70,803.2348519000225,805.1860762999859,,,,,,,,,,,,,,,,,,,004,f,19,2023-05-13_14h12.35.637,RL,2022.2.5,59.92311862542044,
