arm1,arm2,arm3,arm4,trials.thisRepN,trials.thisTrialN,trials.thisN,trials.thisIndex,instru_img1.started,instru_resp.started,instru_resp.keys,instru_resp.rt,image_2.started,text_2.started,image_2.stopped,text_2.stopped,fixbefore_2.started,fixbefore_2.stopped,rest_response.keys,red.started,green.started,yellow.started,blue.started,choose_bandit.started,Fixation.started,choose_bandit.keys,choose_bandit.rt,black.started,red_2.started,green_2.started,yellow_2.started,blue_2.started,fixation_2.started,docs.started,black.stopped,red_2.stopped,green_2.stopped,yellow_2.stopped,blue_2.stopped,fixation_2.stopped,docs.stopped,black_com.started,reward_sub.started,reward__sub.started,red_compare.started,green_com.started,yellow_com.started,blue_com.started,black_com.stopped,reward_sub.stopped,reward__sub.stopped,red_compare.stopped,green_com.stopped,yellow_com.stopped,blue_com.stopped,rewardred,rewardyellow,rewardblue,rewardgreen,subchoose,expectation,intertrialfix.started,intertrialfix.stopped,rest_image.started,rest_response.started,rest_response.rt,image_expect_after.started,text_exp_after.started,image_expect_after.stopped,text_exp_after.stopped,bigx.started,bigx.stopped,image.started,key_resp.started,key_resp.keys,participant,Gender,Age,date,expName,psychopyVersion,frameRate,
,,,,,,,,19.558392299804837,19.558392299804837,space,17.747210199944675,,,,,,,,,,,,,,,,,,,,,,,,,,,,,,,,,,,,,,,,,,,,,,,,,,,,,,,,,,,,,,,,005,f,23,2023-05-13_15h00.55.392,RL,2022.2.5,60.237625370687745,
26,37,67,72,0,0,0,0,,,,,37.33277009986341,37.33277009986341,42.332371999975294,42.332371999975294,42.332371999975294,43.33400259981863,None,43.33400259981863,43.33400259981863,43.33400259981863,43.33400259981863,43.33400259981863,43.33400259981863,r,0.4310494000092149,43.791491699870676,43.791491699870676,43.791491699870676,43.791491699870676,43.791491699870676,43.791491699870676,44.08398150000721,45.53415509988554,45.53415509988554,45.53415509988554,45.53415509988554,45.53415509988554,45.53415509988554,45.53415509988554,45.53415509988554,45.53415509988554,45.53415509988554,45.53415509988554,45.53415509988554,45.53415509988554,45.53415509988554,47.33680589986034,47.33680589986034,47.33680589986034,47.33680589986034,47.33680589986034,47.33680589986034,47.33680589986034,72,67,37,26,67,60,47.33680589986034,48.999277599854395,,,,,,,,,,,,,005,f,23,2023-05-13_15h00.55.392,RL,2022.2.5,60.237625370687745,
22,55,69,70,0,1,1,1,,,,,,,,,,,None,48.999277599854395,48.999277599854395,48.999277599854395,48.999277599854395,48.999277599854395,48.999277599854395,f,0.22989990003407001,49.250933799892664,49.250933799892664,49.250933799892664,49.250933799892664,49.250933799892664,49.250933799892664,49.55050419992767,51.16548049985431,51.16548049985431,51.16548049985431,51.16548049985431,51.16548049985431,51.16548049985431,51.16548049985431,51.16548049985431,51.16548049985431,51.16548049985431,51.16548049985431,51.16548049985431,51.16548049985431,51.16548049985431,53.08059509983286,53.08059509983286,53.08059509983286,53.08059509983286,53.08059509983286,53.08059509983286,53.08059509983286,70,69,55,22,70,60,53.08059509983286,54.76497329981066,,,,,,,,,,,,,005,f,23,2023-05-13_15h00.55.392,RL,2022.2.5,60.237625370687745,
17,53,69,69,0,2,2,2,,,,,,,,,,,None,54.76497329981066,54.76497329981066,54.76497329981066,54.76497329981066,54.76497329981066,54.76497329981066,i,0.26347440015524626,55.0506530997809,55.0506530997809,55.0506530997809,55.0506530997809,55.0506530997809,55.0506530997809,55.34864749992266,56.765484399860725,56.765484399860725,56.765484399860725,56.765484399860725,56.765484399860725,56.765484399860725,56.765484399860725,56.765484399860725,56.765484399860725,56.765484399860725,56.765484399860725,56.765484399860725,56.765484399860725,56.765484399860725,58.47958429995924,58.47958429995924,58.47958429995924,58.47958429995924,58.47958429995924,58.47958429995924,58.47958429995924,69,69,53,17,53,60,58.47958429995924,60.19758699997328,,,,,,,,,,,,,005,f,23,2023-05-13_15h00.55.392,RL,2022.2.5,60.237625370687745,
32,37,76,72,0,3,3,3,,,,,,,,,,,None,60.19758699997328,60.19758699997328,60.19758699997328,60.19758699997328,60.19758699997328,60.19758699997328,j,0.3017895999364555,60.53109069983475,60.53109069983475,60.53109069983475,60.53109069983475,60.53109069983475,60.53109069983475,60.830906099872664,62.41380289988592,62.41380289988592,62.41380289988592,62.41380289988592,62.41380289988592,62.41380289988592,62.41380289988592,62.41380289988592,62.41380289988592,62.41380289988592,62.41380289988592,62.41380289988592,62.41380289988592,62.41380289988592,64.29532719985582,64.29532719985582,64.29532719985582,64.29532719985582,64.29532719985582,64.29532719985582,64.29532719985582,72,76,37,32,32,60,64.29532719985582,65.98014159989543,,,,,,,,,,,,,005,f,23,2023-05-13_15h00.55.392,RL,2022.2.5,60.237625370687745,
30,50,65,65,0,4,4,4,,,,,,,,,,,None,65.98014159989543,65.98014159989543,65.98014159989543,65.98014159989543,65.98014159989543,65.98014159989543,f,0.2622234998270869,66.26632449985482,66.26632449985482,66.26632449985482,66.26632449985482,66.26632449985482,66.26632449985482,66.56335199996829,67.8959489997942,67.8959489997942,67.8959489997942,67.8959489997942,67.8959489997942,67.8959489997942,67.87994049978442,67.8959489997942,67.8959489997942,67.8959489997942,67.8959489997942,67.8959489997942,67.8959489997942,67.8959489997942,69.51091599999927,69.51091599999927,69.51091599999927,69.51091599999927,69.51091599999927,69.51091599999927,69.51091599999927,65,65,50,30,65,60,69.51091599999927,71.32873359997757,,,,,,,,,,,,,005,f,23,2023-05-13_15h00.55.392,RL,2022.2.5,60.237625370687745,
26,49,62,61,0,5,5,5,,,,,,,,,,,None,71.32873359997757,71.32873359997757,71.32873359997757,71.32873359997757,71.32873359997757,71.32873359997757,f,0.5304873001296073,71.88050219998695,71.88050219998695,71.88050219998695,71.88050219998695,71.88050219998695,71.88050219998695,72.17899059993215,73.41173569997773,73.41173569997773,73.41173569997773,73.41173569997773,73.41173569997773,73.41173569997773,73.41173569997773,73.41173569997773,73.41173569997773,73.41173569997773,73.41173569997773,73.41173569997773,73.41173569997773,73.41173569997773,74.9434162999969,74.9434162999969,74.9434162999969,74.9434162999969,74.9434162999969,74.9434162999969,74.9434162999969,61,62,49,26,61,60,74.9434162999969,76.49431839981116,,,,,,,,,,,,,005,f,23,2023-05-13_15h00.55.392,RL,2022.2.5,60.237625370687745,
18,44,62,52,0,6,6,6,,,,,,,,,,,None,76.49431839981116,76.49431839981116,76.49431839981116,76.49431839981116,76.49431839981116,76.49431839981116,f,0.35903469985350966,76.8784655998461,76.8784655998461,76.8784655998461,76.8784655998461,76.8784655998461,76.8784655998461,77.17832700000145,79.12772709992714,79.12772709992714,79.12772709992714,79.12772709992714,79.12772709992714,79.12772709992714,79.12772709992714,79.12772709992714,79.12772709992714,79.12772709992714,79.12772709992714,79.12772709992714,79.12772709992714,79.12772709992714,81.37626139982603,81.37626139982603,81.37626139982603,81.37626139982603,81.37626139982603,81.37626139982603,81.37626139982603,52,62,44,18,52,60,81.37626139982603,82.96000379999168,,,,,,,,,,,,,005,f,23,2023-05-13_15h00.55.392,RL,2022.2.5,60.237625370687745,
23,57,71,63,0,7,7,7,,,,,,,,,,,None,82.96000379999168,82.96000379999168,82.96000379999168,82.96000379999168,82.96000379999168,82.96000379999168,r,0.2923022999893874,83.27842250000685,83.27842250000685,83.27842250000685,83.27842250000685,83.27842250000685,83.27842250000685,83.57701609982178,85.3266002999153,85.3266002999153,85.3266002999153,85.3266002999153,85.3266002999153,85.3266002999153,85.3266002999153,85.3266002999153,85.3266002999153,85.3266002999153,85.3266002999153,85.3266002999153,85.3266002999153,85.3266002999153,87.37465889984742,87.37465889984742,87.37465889984742,87.37465889984742,87.37465889984742,87.37465889984742,87.37465889984742,63,71,57,23,71,60,87.37465889984742,89.34266329999082,,,,,,,,,,,,,005,f,23,2023-05-13_15h00.55.392,RL,2022.2.5,60.237625370687745,
26,61,78,62,0,8,8,8,,,,,,,,,,,None,89.34266329999082,89.34266329999082,89.34266329999082,89.34266329999082,89.34266329999082,89.34266329999082,r,0.34927679994143546,89.70933849993162,89.70933849993162,89.70933849993162,89.70933849993162,89.70933849993162,89.70933849993162,89.9926616998855,91.05886889994144,91.05886889994144,91.05886889994144,91.05886889994144,91.05886889994144,91.05886889994144,91.0425057997927,91.05886889994144,91.05886889994144,91.05886889994144,91.05886889994144,91.05886889994144,91.05886889994144,91.05886889994144,92.40668139979243,92.40668139979243,92.40668139979243,92.40668139979243,92.40668139979243,92.40668139979243,92.40668139979243,62,78,61,26,78,60,92.40668139979243,94.04119359981269,,,,,,,,,,,,,005,f,23,2023-05-13_15h00.55.392,RL,2022.2.5,60.237625370687745,
28,53,68,59,0,9,9,9,,,,,,,,,,,None,94.04119359981269,94.04119359981269,94.04119359981269,94.04119359981269,94.04119359981269,94.04119359981269,r,0.2971986001357436,94.35968349990435,94.35968349990435,94.35968349990435,94.35968349990435,94.35968349990435,94.35968349990435,94.65841539995745,95.75810939981602,95.75810939981602,95.75810939981602,95.75810939981602,95.75810939981602,95.75810939981602,95.75810939981602,95.75810939981602,95.75810939981602,95.75810939981602,95.75810939981602,95.75810939981602,95.75810939981602,95.75810939981602,97.15619579982013,97.15619579982013,97.15619579982013,97.15619579982013,97.15619579982013,97.15619579982013,97.15619579982013,59,68,53,28,68,60,97.15619579982013,98.87427839986049,,,,,,,,,,,,,005,f,23,2023-05-13_15h00.55.392,RL,2022.2.5,60.237625370687745,
22,53,68,62,0,10,10,10,,,,,,,,,,,None,98.87427839986049,98.87427839986049,98.87427839986049,98.87427839986049,98.87427839986049,98.87427839986049,r,0.345713899936527,99.242165699834,99.242165699834,99.242165699834,99.242165699834,99.242165699834,99.242165699834,99.52440719981678,100.64050499978475,100.64050499978475,100.64050499978475,100.64050499978475,100.64050499978475,100.64050499978475,100.62410079990514,100.64050499978475,100.64050499978475,100.64050499978475,100.64050499978475,100.64050499978475,100.64050499978475,100.64050499978475,102.03865499980748,102.03865499980748,102.03865499980748,102.03865499980748,102.03865499980748,102.03865499980748,102.03865499980748,62,68,53,22,68,60,102.03865499980748,103.72328739985824,,,,,,,,,,,,,005,f,23,2023-05-13_15h00.55.392,RL,2022.2.5,60.237625370687745,
21,54,63,61,0,11,11,11,,,,,,,,,,,None,103.72328739985824,103.72328739985824,103.72328739985824,103.72328739985824,103.72328739985824,103.72328739985824,r,1.4268088000826538,105.17835469986312,105.17835469986312,105.17835469986312,105.17835469986312,105.17835469986312,105.17835469986312,105.47321669990197,106.62318449979648,106.62318449979648,106.62318449979648,106.62318449979648,106.62318449979648,106.62318449979648,106.60669990000315,106.62318449979648,106.62318449979648,106.62318449979648,106.62318449979648,106.62318449979648,106.62318449979648,106.62318449979648,108.05446649994701,108.05446649994701,108.05446649994701,108.05446649994701,108.05446649994701,108.05446649994701,108.05446649994701,61,63,54,21,63,60,108.05446649994701,109.88880339986645,,,,,,,,,,,,,005,f,23,2023-05-13_15h00.55.392,RL,2022.2.5,60.237625370687745,
24,54,60,54,0,12,12,12,,,,,,,,,,,None,109.88880339986645,109.88880339986645,109.88880339986645,109.88880339986645,109.88880339986645,109.88880339986645,r,0.524655899964273,110.43940199981444,110.43940199981444,110.43940199981444,110.43940199981444,110.43940199981444,110.43940199981444,110.72220620000735,112.33868619985878,112.33868619985878,112.33868619985878,112.33868619985878,112.33868619985878,112.33868619985878,112.32224699994549,112.33868619985878,112.33868619985878,112.33868619985878,112.33868619985878,112.33868619985878,112.33868619985878,112.33868619985878,114.23655999987386,114.23655999987386,114.23655999987386,114.23655999987386,114.23655999987386,114.23655999987386,114.23655999987386,54,60,54,24,60,60,114.23655999987386,116.08760529989377,,,,,,,,,,,,,005,f,23,2023-05-13_15h00.55.392,RL,2022.2.5,60.237625370687745,
34,63,67,52,0,13,13,13,,,,,,,,,,,None,116.08760529989377,116.08760529989377,116.08760529989377,116.08760529989377,116.08760529989377,116.08760529989377,r,0.3572995001450181,116.4726551999338,116.4726551999338,116.4726551999338,116.4726551999338,116.4726551999338,116.4726551999338,116.77129409997724,118.77080890000798,118.77080890000798,118.77080890000798,118.77080890000798,118.77080890000798,118.77080890000798,118.77080890000798,118.77080890000798,118.77080890000798,118.77080890000798,118.77080890000798,118.77080890000798,118.77080890000798,118.77080890000798,121.06905289995484,121.06905289995484,121.06905289995484,121.06905289995484,121.06905289995484,121.06905289995484,121.06905289995484,52,67,63,34,67,60,121.06905289995484,122.90337509987876,,,,,,,,,,,,,005,f,23,2023-05-13_15h00.55.392,RL,2022.2.5,60.237625370687745,
27,64,65,63,0,14,14,14,,,,,,,,,,,None,122.90337509987876,122.90337509987876,122.90337509987876,122.90337509987876,122.90337509987876,122.90337509987876,r,0.50370779982768,123.43691879999824,123.43691879999824,123.43691879999824,123.43691879999824,123.43691879999824,123.43691879999824,123.73649749998003,124.88686009985395,124.88686009985395,124.88686009985395,124.88686009985395,124.88686009985395,124.88686009985395,124.88686009985395,124.88686009985395,124.88686009985395,124.88686009985395,124.88686009985395,124.88686009985395,124.88686009985395,124.88686009985395,126.33467689994723,126.33467689994723,126.33467689994723,126.33467689994723,126.33467689994723,126.33467689994723,126.33467689994723,63,65,64,27,65,60,126.33467689994723,128.20209229993634,,,,,,,,,,,,,005,f,23,2023-05-13_15h00.55.392,RL,2022.2.5,60.237625370687745,
19,60,69,57,0,15,15,15,,,,,,,,,,,None,128.20209229993634,128.20209229993634,128.20209229993634,128.20209229993634,128.20209229993634,128.20209229993634,f,0.5853255998808891,128.82020079996437,128.82020079996437,128.82020079996437,128.82020079996437,128.82020079996437,128.82020079996437,129.10270709986798,131.05186589993536,131.05186589993536,131.05186589993536,131.05186589993536,131.05186589993536,131.05186589993536,131.0356767999474,131.05186589993536,131.05186589993536,131.05186589993536,131.05186589993536,131.05186589993536,131.05186589993536,131.05186589993536,133.2835344998166,133.2835344998166,133.2835344998166,133.2835344998166,133.2835344998166,133.2835344998166,133.2835344998166,57,69,60,19,57,60,133.2835344998166,135.06811319990084,,,,,,,,,,,,,005,f,23,2023-05-13_15h00.55.392,RL,2022.2.5,60.237625370687745,
18,48,74,56,0,16,16,16,,,,,,,,,,,None,135.06811319990084,135.06811319990084,135.06811319990084,135.06811319990084,135.06811319990084,135.06811319990084,r,0.3053420998621732,135.40141599997878,135.40141599997878,135.40141599997878,135.40141599997878,135.40141599997878,135.40141599997878,135.70121849980205,137.35055209998973,137.35055209998973,137.35055209998973,137.35055209998973,137.35055209998973,137.35055209998973,137.35055209998973,137.35055209998973,137.35055209998973,137.35055209998973,137.35055209998973,137.35055209998973,137.35055209998973,137.35055209998973,139.298786399886,139.298786399886,139.298786399886,139.298786399886,139.298786399886,139.298786399886,139.298786399886,56,74,48,18,74,60,139.298786399886,141.1499933998566,,,,,,,,,,,,,005,f,23,2023-05-13_15h00.55.392,RL,2022.2.5,60.237625370687745,
25,59,70,53,0,17,17,17,,,,,,,,,,,None,141.1499933998566,141.1499933998566,141.1499933998566,141.1499933998566,141.1499933998566,141.1499933998566,r,0.39466520003043115,141.5679877998773,141.5679877998773,141.5679877998773,141.5679877998773,141.5679877998773,141.5679877998773,141.85035709990188,142.7166635999456,142.7166635999456,142.7166635999456,142.7166635999456,142.7166635999456,142.7166635999456,142.7000789998565,142.7166635999456,142.7166635999456,142.7166635999456,142.7166635999456,142.7166635999456,142.7166635999456,142.7166635999456,143.86467639985494,143.86467639985494,143.86467639985494,143.86467639985494,143.86467639985494,143.86467639985494,143.86467639985494,53,70,59,25,70,60,143.86467639985494,145.48276089993306,,,,,,,,,,,,,005,f,23,2023-05-13_15h00.55.392,RL,2022.2.5,60.237625370687745,
18,55,73,58,0,18,18,18,,,,,,,,,,,None,145.48276089993306,145.48276089993306,145.48276089993306,145.48276089993306,145.48276089993306,145.48276089993306,r,0.9220360000617802,146.43313019978814,146.43313019978814,146.43313019978814,146.43313019978814,146.43313019978814,146.43313019978814,146.7159680998884,147.6491033998318,147.6491033998318,147.6491033998318,147.6491033998318,147.6491033998318,147.6491033998318,147.63259259983897,147.6491033998318,147.6491033998318,147.6491033998318,147.6491033998318,147.6491033998318,147.6491033998318,147.6491033998318,148.86378249991685,148.86378249991685,148.86378249991685,148.86378249991685,148.86378249991685,148.86378249991685,148.86378249991685,58,73,55,18,73,60,148.86378249991685,150.79796639992855,,,,,,,,,,,,,005,f,23,2023-05-13_15h00.55.392,RL,2022.2.5,60.237625370687745,
15,61,73,53,0,19,19,19,,,,,,,,,,,None,150.79796639992855,150.79796639992855,150.79796639992855,150.79796639992855,150.79796639992855,150.79796639992855,r,0.4569705000612885,151.28304419992492,151.28304419992492,151.28304419992492,151.28304419992492,151.28304419992492,151.28304419992492,151.5656500000041,152.6149150999263,152.6149150999263,152.6149150999263,152.6149150999263,152.6149150999263,152.6149150999263,152.59824369987473,152.6149150999263,152.6149150999263,152.6149150999263,152.6149150999263,152.6149150999263,152.6149150999263,152.6149150999263,153.94639779999852,153.94639779999852,153.94639779999852,153.94639779999852,153.94639779999852,153.94639779999852,153.94639779999852,53,73,61,15,73,60,153.94639779999852,155.86398669984192,,,,,,,,,,,,,005,f,23,2023-05-13_15h00.55.392,RL,2022.2.5,60.237625370687745,
14,57,69,49,0,20,20,20,,,,,,,,,,,None,155.86398669984192,155.86398669984192,155.86398669984192,155.86398669984192,155.86398669984192,155.86398669984192,r,0.4917862000875175,156.38247449998744,156.38247449998744,156.38247449998744,156.38247449998744,156.38247449998744,156.38247449998744,156.681124499999,158.68023419985548,158.68023419985548,158.68023419985548,158.68023419985548,158.68023419985548,158.68023419985548,158.66410829988308,158.68023419985548,158.68023419985548,158.68023419985548,158.68023419985548,158.68023419985548,158.68023419985548,158.68023419985548,160.96206609997898,160.96206609997898,160.96206609997898,160.96206609997898,160.96206609997898,160.96206609997898,160.96206609997898,49,69,57,14,69,60,160.96206609997898,162.7629763998557,,,,,,,,,,,,,005,f,23,2023-05-13_15h00.55.392,RL,2022.2.5,60.237625370687745,
17,60,71,43,0,21,21,21,,,,,,,,,,,None,162.7629763998557,162.7629763998557,162.7629763998557,162.7629763998557,162.7629763998557,162.7629763998557,r,0.3513592998497188,163.14670359995216,163.14670359995216,163.14670359995216,163.14670359995216,163.14670359995216,163.14670359995216,163.4302094997838,164.49616189999506,164.49616189999506,164.49616189999506,164.49616189999506,164.49616189999506,164.49616189999506,164.47960239998065,164.49616189999506,164.49616189999506,164.49616189999506,164.49616189999506,164.49616189999506,164.49616189999506,164.49616189999506,165.84435159992427,165.84435159992427,165.84435159992427,165.84435159992427,165.84435159992427,165.84435159992427,165.84435159992427,43,71,60,17,71,60,165.84435159992427,167.69567609997466,,,,,,,,,,,,,005,f,23,2023-05-13_15h00.55.392,RL,2022.2.5,60.237625370687745,
18,52,69,52,0,22,22,22,,,,,,,,,,,None,167.69567609997466,167.69567609997466,167.69567609997466,167.69567609997466,167.69567609997466,167.69567609997466,r,0.346026600105688,168.06242199987173,168.06242199987173,168.06242199987173,168.06242199987173,168.06242199987173,168.06242199987173,168.36274509993382,169.59539099992253,169.59539099992253,169.59539099992253,169.59539099992253,169.59539099992253,169.59539099992253,169.59539099992253,169.59539099992253,169.59539099992253,169.59539099992253,169.59539099992253,169.59539099992253,169.59539099992253,169.59539099992253,171.12698539998382,171.12698539998382,171.12698539998382,171.12698539998382,171.12698539998382,171.12698539998382,171.12698539998382,52,69,52,18,69,60,171.12698539998382,173.12798869982362,,,,,,,,,,,,,005,f,23,2023-05-13_15h00.55.392,RL,2022.2.5,60.237625370687745,
28,53,75,64,0,23,23,23,,,,,,,,,,,None,173.12798869982362,173.12798869982362,173.12798869982362,173.12798869982362,173.12798869982362,173.12798869982362,r,0.3996210000477731,173.54637189977802,173.54637189977802,173.54637189977802,173.54637189977802,173.54637189977802,173.54637189977802,173.82813459984027,175.11089779995382,175.11089779995382,175.11089779995382,175.11089779995382,175.11089779995382,175.11089779995382,175.0944099999033,175.11089779995382,175.11089779995382,175.11089779995382,175.11089779995382,175.11089779995382,175.11089779995382,175.11089779995382,176.67618889990263,176.67618889990263,176.67618889990263,176.67618889990263,176.67618889990263,176.67618889990263,176.67618889990263,64,75,53,28,75,60,176.67618889990263,178.6430865000002,,,,,,,,,,,,,005,f,23,2023-05-13_15h00.55.392,RL,2022.2.5,60.237625370687745,
23,65,82,60,0,24,24,24,,,,,,,,,,,None,178.6430865000002,178.6430865000002,178.6430865000002,178.6430865000002,178.6430865000002,178.6430865000002,r,0.34348310017958283,179.0104783999268,179.0104783999268,179.0104783999268,179.0104783999268,179.0104783999268,179.0104783999268,179.29363849991933,180.99329769983888,180.99329769983888,180.99329769983888,180.99329769983888,180.99329769983888,180.99329769983888,180.97683059982955,180.99329769983888,180.99329769983888,180.99329769983888,180.99329769983888,180.99329769983888,180.99329769983888,180.99329769983888,182.9752651997842,182.9752651997842,182.9752651997842,182.9752651997842,182.9752651997842,182.9752651997842,182.9752651997842,60,82,65,23,82,60,182.9752651997842,184.75942629994825,,,,,,,,,,,,,005,f,23,2023-05-13_15h00.55.392,RL,2022.2.5,60.237625370687745,
17,60,82,50,0,25,25,25,,,,,,,,,,,None,184.75942629994825,184.75942629994825,184.75942629994825,184.75942629994825,184.75942629994825,184.75942629994825,r,0.29671699996106327,185.07669659983367,185.07669659983367,185.07669659983367,185.07669659983367,185.07669659983367,185.07669659983367,185.3761680999305,186.79249459994026,186.79249459994026,186.79249459994026,186.79249459994026,186.79249459994026,186.79249459994026,186.79249459994026,186.79249459994026,186.79249459994026,186.79249459994026,186.79249459994026,186.79249459994026,186.79249459994026,186.79249459994026,188.5068649998866,188.5068649998866,188.5068649998866,188.5068649998866,188.5068649998866,188.5068649998866,188.5068649998866,50,82,60,17,82,60,188.5068649998866,190.1248286999762,,,,,,,,,,,,,005,f,23,2023-05-13_15h00.55.392,RL,2022.2.5,60.237625370687745,
19,67,78,49,0,26,26,26,,,,,,,,,,,None,190.1248286999762,190.1248286999762,190.1248286999762,190.1248286999762,190.1248286999762,190.1248286999762,r,0.3785587998572737,190.52625049999915,190.52625049999915,190.52625049999915,190.52625049999915,190.52625049999915,190.52625049999915,190.82511449977756,191.99166309996508,191.99166309996508,191.99166309996508,191.99166309996508,191.99166309996508,191.99166309996508,191.99166309996508,191.99166309996508,191.99166309996508,191.99166309996508,191.99166309996508,191.99166309996508,191.99166309996508,191.99166309996508,193.45633329986595,193.45633329986595,193.45633329986595,193.45633329986595,193.45633329986595,193.45633329986595,193.45633329986595,49,78,67,19,78,60,193.45633329986595,195.17373639997095,,,,,,,,,,,,,005,f,23,2023-05-13_15h00.55.392,RL,2022.2.5,60.237625370687745,
19,59,68,54,0,27,27,27,,,,,,,,,,,None,195.17373639997095,195.17373639997095,195.17373639997095,195.17373639997095,195.17373639997095,195.17373639997095,r,0.44585980009287596,195.64309049979784,195.64309049979784,195.64309049979784,195.64309049979784,195.64309049979784,195.64309049979784,195.94125969987363,197.15716679999605,197.15716679999605,197.15716679999605,197.15716679999605,197.15716679999605,197.15716679999605,197.15716679999605,197.15716679999605,197.15716679999605,197.15716679999605,197.15716679999605,197.15716679999605,197.15716679999605,197.15716679999605,198.67163569992408,198.67163569992408,198.67163569992408,198.67163569992408,198.67163569992408,198.67163569992408,198.67163569992408,54,68,59,19,68,60,198.67163569992408,200.2898562999908,,,,,,,,,,,,,005,f,23,2023-05-13_15h00.55.392,RL,2022.2.5,60.237625370687745,
16,56,79,49,0,28,28,28,,,,,,,,,,,None,200.2898562999908,200.2898562999908,200.2898562999908,200.2898562999908,200.2898562999908,200.2898562999908,r,0.3900924001354724,200.7070342998486,200.7070342998486,200.7070342998486,200.7070342998486,200.7070342998486,200.7070342998486,200.98977749980986,202.22316919988953,202.22316919988953,202.22316919988953,202.22316919988953,202.22316919988953,202.22316919988953,202.20641579991207,202.22316919988953,202.22316919988953,202.22316919988953,202.22316919988953,202.22316919988953,202.22316919988953,202.22316919988953,203.73798499978147,203.73798499978147,203.73798499978147,203.73798499978147,203.73798499978147,203.73798499978147,203.73798499978147,49,79,56,16,79,60,203.73798499978147,205.705185999861,,,,,,,,,,,,,005,f,23,2023-05-13_15h00.55.392,RL,2022.2.5,60.237625370687745,
27,64,73,44,0,29,29,29,,,,,,,,,,,None,205.705185999861,205.705185999861,205.705185999861,205.705185999861,205.705185999861,205.705185999861,r,0.3436656000558287,206.0726350999903,206.0726350999903,206.0726350999903,206.0726350999903,206.0726350999903,206.0726350999903,206.3559232999105,207.48869239981286,207.48869239981286,207.48869239981286,207.48869239981286,207.48869239981286,207.48869239981286,207.4725803998299,207.48869239981286,207.48869239981286,207.48869239981286,207.48869239981286,207.48869239981286,207.48869239981286,207.48869239981286,208.90318829985335,208.90318829985335,208.90318829985335,208.90318829985335,208.90318829985335,208.90318829985335,208.90318829985335,44,73,64,27,73,60,208.90318829985335,210.72101229988039,,,,,,,,,,,,,005,f,23,2023-05-13_15h00.55.392,RL,2022.2.5,60.237625370687745,
17,60,82,54,0,30,30,30,,,,,,,,,,,None,210.72101229988039,210.72101229988039,210.72101229988039,210.72101229988039,210.72101229988039,210.72101229988039,r,0.35448549990542233,211.1048285998404,211.1048285998404,211.1048285998404,211.1048285998404,211.1048285998404,211.1048285998404,211.38804319989868,212.90477789985016,212.90477789985016,212.90477789985016,212.90477789985016,212.90477789985016,212.90477789985016,212.88829739997163,212.90477789985016,212.90477789985016,212.90477789985016,212.90477789985016,212.90477789985016,212.90477789985016,212.90477789985016,214.70252910000272,214.70252910000272,214.70252910000272,214.70252910000272,214.70252910000272,214.70252910000272,214.70252910000272,54,82,60,17,82,60,214.70252910000272,216.55333549994975,,,,,,,,,,,,,005,f,23,2023-05-13_15h00.55.392,RL,2022.2.5,60.237625370687745,
28,60,81,43,0,31,31,31,,,,,,,,,,,None,216.55333549994975,216.55333549994975,216.55333549994975,216.55333549994975,216.55333549994975,216.55333549994975,r,0.2573492999654263,216.83738859998994,216.83738859998994,216.83738859998994,216.83738859998994,216.83738859998994,216.83738859998994,217.12079379986972,218.85358150000684,218.85358150000684,218.85358150000684,218.85358150000684,218.85358150000684,218.85358150000684,218.83698019990698,218.85358150000684,218.85358150000684,218.85358150000684,218.85358150000684,218.85358150000684,218.85358150000684,218.85358150000684,220.86797739984468,220.86797739984468,220.86797739984468,220.86797739984468,220.86797739984468,220.86797739984468,220.86797739984468,43,81,60,28,81,60,220.86797739984468,222.45243189996108,,,,,,,,,,,,,005,f,23,2023-05-13_15h00.55.392,RL,2022.2.5,60.237625370687745,
23,69,76,42,0,32,32,32,,,,,,,,,,,None,222.45243189996108,222.45243189996108,222.45243189996108,222.45243189996108,222.45243189996108,222.45243189996108,r,0.2632113001309335,222.73660859977826,222.73660859977826,222.73660859977826,222.73660859977826,222.73660859977826,222.73660859977826,223.01929869991727,223.9526356998831,223.9526356998831,223.9526356998831,223.9526356998831,223.9526356998831,223.9526356998831,223.93590349983424,223.9526356998831,223.9526356998831,223.9526356998831,223.9526356998831,223.9526356998831,223.9526356998831,223.9526356998831,225.16721389978193,225.16721389978193,225.16721389978193,225.16721389978193,225.16721389978193,225.16721389978193,225.16721389978193,42,76,69,23,76,60,225.16721389978193,226.9015716998838,,,,,,,,,,,,,005,f,23,2023-05-13_15h00.55.392,RL,2022.2.5,60.237625370687745,
30,66,85,32,0,33,33,33,,,,,,,,,,,None,226.9015716998838,226.9015716998838,226.9015716998838,226.9015716998838,226.9015716998838,226.9015716998838,r,0.3240958000533283,227.25359799992293,227.25359799992293,227.25359799992293,227.25359799992293,227.25359799992293,227.25359799992293,227.55194809986278,229.16835709987208,229.16835709987208,229.16835709987208,229.16835709987208,229.16835709987208,229.16835709987208,229.16835709987208,229.16835709987208,229.16835709987208,229.16835709987208,229.16835709987208,229.16835709987208,229.16835709987208,229.16835709987208,231.08283959981054,231.08283959981054,231.08283959981054,231.08283959981054,231.08283959981054,231.08283959981054,231.08283959981054,32,85,66,30,85,60,231.08283959981054,232.65066909999587,,,,,,,,,,,,,005,f,23,2023-05-13_15h00.55.392,RL,2022.2.5,60.237625370687745,
30,68,83,35,0,34,34,34,,,,,,,,,,,None,232.65066909999587,232.65066909999587,232.65066909999587,232.65066909999587,232.65066909999587,232.65066909999587,r,0.40892620012164116,233.08593859989196,233.08593859989196,233.08593859989196,233.08593859989196,233.08593859989196,233.08593859989196,233.38430589996278,234.78393899998628,234.78393899998628,234.78393899998628,234.78393899998628,234.78393899998628,234.78393899998628,234.78393899998628,234.78393899998628,234.78393899998628,234.78393899998628,234.78393899998628,234.78393899998628,234.78393899998628,234.78393899998628,236.48269360000268,236.48269360000268,236.48269360000268,236.48269360000268,236.48269360000268,236.48269360000268,236.48269360000268,35,83,68,30,83,60,236.48269360000268,238.0995810998138,,,,,,,,,,,,,005,f,23,2023-05-13_15h00.55.392,RL,2022.2.5,60.237625370687745,
34,61,83,43,0,35,35,35,,,,,,,,,,,None,238.0995810998138,238.0995810998138,238.0995810998138,238.0995810998138,238.0995810998138,238.0995810998138,r,0.40768199996091425,238.53372899978422,238.53372899978422,238.53372899978422,238.53372899978422,238.53372899978422,238.53372899978422,238.81678439979441,240.3665902998764,240.3665902998764,240.3665902998764,240.3665902998764,240.3665902998764,240.3665902998764,240.34980639978312,240.3665902998764,240.3665902998764,240.3665902998764,240.3665902998764,240.3665902998764,240.3665902998764,240.3665902998764,242.1977361999452,242.1977361999452,242.1977361999452,242.1977361999452,242.1977361999452,242.1977361999452,242.1977361999452,43,83,61,34,83,60,242.1977361999452,244.18205479998142,,,,,,,,,,,,,005,f,23,2023-05-13_15h00.55.392,RL,2022.2.5,60.237625370687745,
22,58,88,41,0,36,36,36,,,,,,,,,,,None,244.18205479998142,244.18205479998142,244.18205479998142,244.18205479998142,244.18205479998142,244.18205479998142,r,0.2856793999671936,244.49937859992497,244.49937859992497,244.49937859992497,244.49937859992497,244.49937859992497,244.49937859992497,244.78225469985045,246.53216809988953,246.53216809988953,246.53216809988953,246.53216809988953,246.53216809988953,246.53216809988953,246.5159612998832,246.53216809988953,246.53216809988953,246.53216809988953,246.53216809988953,246.53216809988953,246.53216809988953,246.53216809988953,248.56327389995568,248.56327389995568,248.56327389995568,248.56327389995568,248.56327389995568,248.56327389995568,248.56327389995568,41,88,58,22,88,60,248.56327389995568,250.26442049979232,,,,,,,,,,,,,005,f,23,2023-05-13_15h00.55.392,RL,2022.2.5,60.237625370687745,
34,58,83,32,0,37,37,37,,,,,,,,,,,None,250.26442049979232,250.26442049979232,250.26442049979232,250.26442049979232,250.26442049979232,250.26442049979232,r,0.28452089987695217,250.58243499998935,250.58243499998935,250.58243499998935,250.58243499998935,250.58243499998935,250.58243499998935,250.88104139990173,252.86412689997815,252.86412689997815,252.86412689997815,252.86412689997815,252.86412689997815,252.86412689997815,252.86412689997815,252.86412689997815,252.86412689997815,252.86412689997815,252.86412689997815,252.86412689997815,252.86412689997815,252.86412689997815,255.14539799978957,255.14539799978957,255.14539799978957,255.14539799978957,255.14539799978957,255.14539799978957,255.14539799978957,32,83,58,34,83,60,255.14539799978957,257.0131113999523,,,,,,,,,,,,,005,f,23,2023-05-13_15h00.55.392,RL,2022.2.5,60.237625370687745,
37,53,78,42,0,38,38,38,,,,,,,,,,,None,257.0131113999523,257.0131113999523,257.0131113999523,257.0131113999523,257.0131113999523,257.0131113999523,r,0.3000036000739783,257.3353793998249,257.3353793998249,257.3353793998249,257.3353793998249,257.3353793998249,257.3353793998249,257.6299175999593,258.67984050000086,258.67984050000086,258.67984050000086,258.67984050000086,258.67984050000086,258.67984050000086,258.67984050000086,258.67984050000086,258.67984050000086,258.67984050000086,258.67984050000086,258.67984050000086,258.67984050000086,258.67984050000086,260.02819099999033,260.02819099999033,260.02819099999033,260.02819099999033,260.02819099999033,260.02819099999033,260.02819099999033,42,78,53,37,78,60,260.02819099999033,261.91206549992785,,,,,,,,,,,,,005,f,23,2023-05-13_15h00.55.392,RL,2022.2.5,60.237625370687745,
37,52,83,32,0,39,39,39,,,,,,,,,,,None,261.91206549992785,261.91206549992785,261.91206549992785,261.91206549992785,261.91206549992785,261.91206549992785,r,0.36598549992777407,262.29610959999263,262.29610959999263,262.29610959999263,262.29610959999263,262.29610959999263,262.29610959999263,262.579182599904,264.46207519993186,264.46207519993186,264.46207519993186,264.46207519993186,264.46207519993186,264.46207519993186,264.44588909996673,264.46207519993186,264.46207519993186,264.46207519993186,264.46207519993186,264.46207519993186,264.46207519993186,264.46207519993186,266.6269613998011,266.6269613998011,266.6269613998011,266.6269613998011,266.6269613998011,266.6269613998011,266.6269613998011,32,83,52,37,83,60,266.6269613998011,268.4276080999989,,,,,,,,,,,,,005,f,23,2023-05-13_15h00.55.392,RL,2022.2.5,60.237625370687745,
34,58,86,42,0,40,40,40,,,,,,,,,,,None,268.4276080999989,268.4276080999989,268.4276080999989,268.4276080999989,268.4276080999989,268.4276080999989,r,0.35406229994259775,268.8119413999375,268.8119413999375,268.8119413999375,268.8119413999375,268.8119413999375,268.8119413999375,269.09470269992016,270.8113494999707,270.8113494999707,270.8113494999707,270.8113494999707,270.8113494999707,270.8113494999707,270.79458149988204,270.8113494999707,270.8113494999707,270.8113494999707,270.8113494999707,270.8113494999707,270.8113494999707,270.8113494999707,272.809445399791,272.809445399791,272.809445399791,272.809445399791,272.809445399791,272.809445399791,272.809445399791,42,86,58,34,86,60,272.809445399791,274.6267188999336,,,,,,,,,,,,,005,f,23,2023-05-13_15h00.55.392,RL,2022.2.5,60.237625370687745,
32,53,83,42,0,41,41,41,,,,,,,,,,,None,274.6267188999336,274.6267188999336,274.6267188999336,274.6267188999336,274.6267188999336,274.6267188999336,r,0.2755925999954343,274.9275707998313,274.9275707998313,274.9275707998313,274.9275707998313,274.9275707998313,274.9275707998313,275.21070809988305,276.0935237999074,276.0935237999074,276.0935237999074,276.0935237999074,276.0935237999074,276.0935237999074,276.07718489994295,276.0935237999074,276.0935237999074,276.0935237999074,276.0935237999074,276.0935237999074,276.0935237999074,276.0935237999074,277.2581338000018,277.2581338000018,277.2581338000018,277.2581338000018,277.2581338000018,277.2581338000018,277.2581338000018,42,83,53,32,83,60,277.2581338000018,279.2096867999062,,,,,,,,,,,,,005,f,23,2023-05-13_15h00.55.392,RL,2022.2.5,60.237625370687745,
29,55,79,29,0,42,42,42,,,,,,,,,,,None,279.2096867999062,279.2096867999062,279.2096867999062,279.2096867999062,279.2096867999062,279.2096867999062,r,0.26212679990567267,279.4940848997794,279.4940848997794,279.4940848997794,279.4940848997794,279.4940848997794,279.4940848997794,279.7930317998398,281.30901249987073,281.30901249987073,281.30901249987073,281.30901249987073,281.30901249987073,281.30901249987073,281.30901249987073,281.30901249987073,281.30901249987073,281.30901249987073,281.30901249987073,281.30901249987073,281.30901249987073,281.30901249987073,283.12377189984545,283.12377189984545,283.12377189984545,283.12377189984545,283.12377189984545,283.12377189984545,283.12377189984545,29,79,55,29,79,60,283.12377189984545,284.77505799988285,,,,,,,,,,,,,005,f,23,2023-05-13_15h00.55.392,RL,2022.2.5,60.237625370687745,
31,53,79,25,0,43,43,43,,,,,,,,,,,None,284.77505799988285,284.77505799988285,284.77505799988285,284.77505799988285,284.77505799988285,284.77505799988285,r,0.317675500176847,285.11142629990354,285.11142629990354,285.11142629990354,285.11142629990354,285.11142629990354,285.11142629990354,285.40859569981694,286.67502969992347,286.67502969992347,286.67502969992347,286.67502969992347,286.67502969992347,286.67502969992347,286.67502969992347,286.67502969992347,286.67502969992347,286.67502969992347,286.67502969992347,286.67502969992347,286.67502969992347,286.67502969992347,288.2398431999609,288.2398431999609,288.2398431999609,288.2398431999609,288.2398431999609,288.2398431999609,288.2398431999609,25,79,53,31,79,60,288.2398431999609,290.224249899853,,,,,,,,,,,,,005,f,23,2023-05-13_15h00.55.392,RL,2022.2.5,60.237625370687745,
32,53,73,33,0,44,44,44,,,,,,,,,,,None,290.224249899853,290.224249899853,290.224249899853,290.224249899853,290.224249899853,290.224249899853,r,0.2833902998827398,290.5413966998458,290.5413966998458,290.5413966998458,290.5413966998458,290.5413966998458,290.5413966998458,290.8242277998943,292.57390369987115,292.57390369987115,292.57390369987115,292.57390369987115,292.57390369987115,292.57390369987115,292.55720479995944,292.57390369987115,292.57390369987115,292.57390369987115,292.57390369987115,292.57390369987115,292.57390369987115,292.57390369987115,294.605084199924,294.605084199924,294.605084199924,294.605084199924,294.605084199924,294.605084199924,294.605084199924,33,73,53,32,73,60,294.605084199924,296.18990059988573,,,,,,,,,,,,,005,f,23,2023-05-13_15h00.55.392,RL,2022.2.5,60.237625370687745,
34,53,76,33,0,45,45,45,,,,,,,,,,,None,296.18990059988573,296.18990059988573,296.18990059988573,296.18990059988573,296.18990059988573,296.18990059988573,r,0.4430609999690205,296.6567947999574,296.6567947999574,296.6567947999574,296.6567947999574,296.6567947999574,296.6567947999574,296.93981669982895,298.47309929993935,298.47309929993935,298.47309929993935,298.47309929993935,298.47309929993935,298.47309929993935,298.45626829983667,298.47309929993935,298.47309929993935,298.47309929993935,298.47309929993935,298.47309929993935,298.47309929993935,298.47309929993935,300.28778839996085,300.28778839996085,300.28778839996085,300.28778839996085,300.28778839996085,300.28778839996085,300.28778839996085,33,76,53,34,76,60,300.28778839996085,302.2220846998971,,,,,,,,,,,,,005,f,23,2023-05-13_15h00.55.392,RL,2022.2.5,60.237625370687745,
38,54,77,25,0,46,46,46,,,,,,,,,,,None,302.2220846998971,302.2220846998971,302.2220846998971,302.2220846998971,302.2220846998971,302.2220846998971,r,0.2992018999066204,302.5413880997803,302.5413880997803,302.5413880997803,302.5413880997803,302.5413880997803,302.5413880997803,302.8224316998385,304.57220729999244,304.57220729999244,304.57220729999244,304.57220729999244,304.57220729999244,304.57220729999244,304.5383454998955,304.57220729999244,304.57220729999244,304.57220729999244,304.57220729999244,304.57220729999244,304.57220729999244,304.57220729999244,306.5868339999579,306.5868339999579,306.5868339999579,306.5868339999579,306.5868339999579,306.5868339999579,306.5868339999579,25,77,54,38,77,60,306.5868339999579,308.4710616997909,,,,,,,,,,,,,005,f,23,2023-05-13_15h00.55.392,RL,2022.2.5,60.237625370687745,
31,57,74,35,0,47,47,47,,,,,,,,,,,None,308.4710616997909,308.4710616997909,308.4710616997909,308.4710616997909,308.4710616997909,308.4710616997909,r,0.2299063999671489,308.7237171998713,308.7237171998713,308.7237171998713,308.7237171998713,308.7237171998713,308.7237171998713,309.02099729981273,310.02118099993095,310.02118099993095,310.02118099993095,310.02118099993095,310.02118099993095,310.02118099993095,310.02118099993095,310.02118099993095,310.02118099993095,310.02118099993095,310.02118099993095,310.02118099993095,310.02118099993095,310.02118099993095,311.3192845999729,311.3192845999729,311.3192845999729,311.3192845999729,311.3192845999729,311.3192845999729,311.3192845999729,35,74,57,31,74,60,311.3192845999729,313.1867689997889,,,,,,,,,,,,,005,f,23,2023-05-13_15h00.55.392,RL,2022.2.5,60.237625370687745,
23,49,73,28,0,48,48,48,,,,,,,,,,,None,313.1867689997889,313.1867689997889,313.1867689997889,313.1867689997889,313.1867689997889,313.1867689997889,r,0.33593659987673163,313.5548604999203,313.5548604999203,313.5548604999203,313.5548604999203,313.5548604999203,313.5548604999203,313.8535466999747,315.3198400998954,315.3198400998954,315.3198400998954,315.3198400998954,315.3198400998954,315.3198400998954,315.3198400998954,315.3198400998954,315.3198400998954,315.3198400998954,315.3198400998954,315.3198400998954,315.3198400998954,315.3198400998954,317.0845664998051,317.0845664998051,317.0845664998051,317.0845664998051,317.0845664998051,317.0845664998051,317.0845664998051,28,73,49,23,73,60,317.0845664998051,318.70282619982027,,,,,,,,,,,,,005,f,23,2023-05-13_15h00.55.392,RL,2022.2.5,60.237625370687745,
34,45,67,29,0,49,49,49,,,,,,,,,,,None,318.70282619982027,318.70282619982027,318.70282619982027,318.70282619982027,318.70282619982027,318.70282619982027,r,0.3479913000483066,319.0724086998962,319.0724086998962,319.0724086998962,319.0724086998962,319.0724086998962,319.0724086998962,319.3531100999098,321.00254279980436,321.00254279980436,321.00254279980436,321.00254279980436,321.00254279980436,321.00254279980436,320.9856936999131,321.00254279980436,321.00254279980436,321.00254279980436,321.00254279980436,321.00254279980436,321.00254279980436,321.00254279980436,322.9337421997916,322.9337421997916,322.9337421997916,322.9337421997916,322.9337421997916,322.9337421997916,322.9337421997916,29,67,45,34,67,60,322.9337421997916,324.6016486999579,,,,,,,,,,,,,005,f,23,2023-05-13_15h00.55.392,RL,2022.2.5,60.237625370687745,
30,37,69,32,0,50,50,50,,,,,,,,,,,None,324.6016486999579,324.6016486999579,324.6016486999579,324.6016486999579,324.6016486999579,324.6016486999579,r,0.28235670016147196,324.9032711999025,324.9032711999025,324.9032711999025,324.9032711999025,324.9032711999025,324.9032711999025,325.20158909983,326.68496849993244,326.68496849993244,326.68496849993244,326.68496849993244,326.68496849993244,326.68496849993244,326.68496849993244,326.68496849993244,326.68496849993244,326.68496849993244,326.68496849993244,326.68496849993244,326.68496849993244,326.68496849993244,328.46590599999763,328.46590599999763,328.46590599999763,328.46590599999763,328.46590599999763,328.46590599999763,328.46590599999763,32,69,37,30,69,60,328.46590599999763,330.3341190998908,,,,,,,,,,,,,005,f,23,2023-05-13_15h00.55.392,RL,2022.2.5,60.237625370687745,
26,46,74,37,0,51,51,51,,,,,,,,,,,None,330.3341190998908,330.3341190998908,330.3341190998908,330.3341190998908,330.3341190998908,330.3341190998908,r,0.3146893000230193,330.6698912999127,330.6698912999127,330.6698912999127,330.6698912999127,330.6698912999127,330.6698912999127,330.95075469999574,332.3336681998335,332.3336681998335,332.3336681998335,332.3336681998335,332.3336681998335,332.3336681998335,332.316960999975,332.3336681998335,332.3336681998335,332.3336681998335,332.3336681998335,332.3336681998335,332.3336681998335,332.3336681998335,333.99838569993153,333.99838569993153,333.99838569993153,333.99838569993153,333.99838569993153,333.99838569993153,333.99838569993153,37,74,46,26,74,60,333.99838569993153,335.9828062998131,,,,,,,,,,,,,005,f,23,2023-05-13_15h00.55.392,RL,2022.2.5,60.237625370687745,
22,47,74,31,0,52,52,52,,,,,,,,,,,None,335.9828062998131,335.9828062998131,335.9828062998131,335.9828062998131,335.9828062998131,335.9828062998131,r,0.281833800021559,336.28433329984546,336.28433329984546,336.28433329984546,336.28433329984546,336.28433329984546,336.28433329984546,336.56630619987845,338.29931079992093,338.29931079992093,338.29931079992093,338.29931079992093,338.29931079992093,338.29931079992093,338.28263609996065,338.29931079992093,338.29931079992093,338.29931079992093,338.29931079992093,338.29931079992093,338.29931079992093,338.29931079992093,340.3138248999603,340.3138248999603,340.3138248999603,340.3138248999603,340.3138248999603,340.3138248999603,340.3138248999603,31,74,47,22,74,60,340.3138248999603,341.9982811999507,,,,,,,,,,,,,005,f,23,2023-05-13_15h00.55.392,RL,2022.2.5,60.237625370687745,
36,58,77,30,0,53,53,53,,,,,,,,,,,None,341.9982811999507,341.9982811999507,341.9982811999507,341.9982811999507,341.9982811999507,341.9982811999507,r,0.27394430013373494,342.3006781998556,342.3006781998556,342.3006781998556,342.3006781998556,342.3006781998556,342.3006781998556,342.5983680000063,343.51541969995014,343.51541969995014,343.51541969995014,343.51541969995014,343.51541969995014,343.51541969995014,343.51541969995014,343.51541969995014,343.51541969995014,343.51541969995014,343.51541969995014,343.51541969995014,343.51541969995014,343.51541969995014,344.73003159998916,344.73003159998916,344.73003159998916,344.73003159998916,344.73003159998916,344.73003159998916,344.73003159998916,30,77,58,36,77,60,344.73003159998916,346.5472532999702,,,,,,,,,,,,,005,f,23,2023-05-13_15h00.55.392,RL,2022.2.5,60.237625370687745,
19,52,75,26,0,54,54,54,,,,,,,,,,,None,346.5472532999702,346.5472532999702,346.5472532999702,346.5472532999702,346.5472532999702,346.5472532999702,r,0.2865814999677241,346.86694290000014,346.86694290000014,346.86694290000014,346.86694290000014,346.86694290000014,346.86694290000014,347.16433919989504,349.09735029982403,349.09735029982403,349.09735029982403,349.09735029982403,349.09735029982403,349.09735029982403,349.09735029982403,349.09735029982403,349.09735029982403,349.09735029982403,349.09735029982403,349.09735029982403,349.09735029982403,349.09735029982403,351.3289854999166,351.3289854999166,351.3289854999166,351.3289854999166,351.3289854999166,351.3289854999166,351.3289854999166,26,75,52,19,75,60,351.3289854999166,352.9128463999368,,,,,,,,,,,,,005,f,23,2023-05-13_15h00.55.392,RL,2022.2.5,60.237625370687745,
24,58,67,25,0,55,55,55,,,,,,,,,,,None,352.9128463999368,352.9128463999368,352.9128463999368,352.9128463999368,352.9128463999368,352.9128463999368,r,0.30954489996656775,353.2493699998595,353.2493699998595,353.2493699998595,353.2493699998595,353.2493699998595,353.2493699998595,353.5467887998093,355.2629626998678,355.2629626998678,355.2629626998678,355.2629626998678,355.2629626998678,355.2629626998678,355.2629626998678,355.2629626998678,355.2629626998678,355.2629626998678,355.2629626998678,355.2629626998678,355.2629626998678,355.2629626998678,357.27769239991903,357.27769239991903,357.27769239991903,357.27769239991903,357.27769239991903,357.27769239991903,357.27769239991903,25,67,58,24,67,60,357.27769239991903,358.97902619978413,,,,,,,,,,,,,005,f,23,2023-05-13_15h00.55.392,RL,2022.2.5,60.237625370687745,
29,59,67,27,0,56,56,56,,,,,,,,,,,None,358.97902619978413,358.97902619978413,358.97902619978413,358.97902619978413,358.97902619978413,358.97902619978413,r,0.28852639999240637,359.2976210999768,359.2976210999768,359.2976210999768,359.2976210999768,359.2976210999768,359.2976210999768,359.5955970999785,360.6120537999086,360.6120537999086,360.6120537999086,360.6120537999086,360.6120537999086,360.6120537999086,360.6120537999086,360.6120537999086,360.6120537999086,360.6120537999086,360.6120537999086,360.6120537999086,360.6120537999086,360.6120537999086,361.927210399881,361.927210399881,361.927210399881,361.927210399881,361.927210399881,361.927210399881,361.927210399881,27,67,59,29,67,60,361.927210399881,363.4778682999313,,,,,,,,,,,,,005,f,23,2023-05-13_15h00.55.392,RL,2022.2.5,60.237625370687745,
31,54,71,22,0,57,57,57,,,,,,,,,,,None,363.4778682999313,363.4778682999313,363.4778682999313,363.4778682999313,363.4778682999313,363.4778682999313,r,0.3834420999046415,363.8954480998218,363.8954480998218,363.8954480998218,363.8954480998218,363.8954480998218,363.8954480998218,364.1784947998822,365.7683277998585,365.7683277998585,365.7683277998585,365.7683277998585,365.7683277998585,365.7683277998585,365.71163309994154,365.7683277998585,365.7683277998585,365.7683277998585,365.7683277998585,365.7683277998585,365.7683277998585,365.7683277998585,367.59263939992525,367.59263939992525,367.59263939992525,367.59263939992525,367.59263939992525,367.59263939992525,367.59263939992525,22,71,54,31,71,60,367.59263939992525,369.5267327998299,,,,,,,,,,,,,005,f,23,2023-05-13_15h00.55.392,RL,2022.2.5,60.237625370687745,
26,50,65,22,0,58,58,58,,,,,,,,,,,None,369.5267327998299,369.5267327998299,369.5267327998299,369.5267327998299,369.5267327998299,369.5267327998299,r,0.2937608000356704,369.84524819999933,369.84524819999933,369.84524819999933,369.84524819999933,369.84524819999933,369.84524819999933,370.12742559984326,371.52679609996267,371.52679609996267,371.52679609996267,371.52679609996267,371.52679609996267,371.52679609996267,371.51037249993533,371.52679609996267,371.52679609996267,371.52679609996267,371.52679609996267,371.52679609996267,371.52679609996267,371.52679609996267,373.2081273999065,373.2081273999065,373.2081273999065,373.2081273999065,373.2081273999065,373.2081273999065,373.2081273999065,22,65,50,26,65,60,373.2081273999065,374.94277809979394,,,,,,,,,,,,,005,f,23,2023-05-13_15h00.55.392,RL,2022.2.5,60.237625370687745,
28,58,64,25,0,59,59,59,,,,,,,,,,,None,374.94277809979394,374.94277809979394,374.94277809979394,374.94277809979394,374.94277809979394,374.94277809979394,r,0.4357857999857515,375.4102852998767,375.4102852998767,375.4102852998767,375.4102852998767,375.4102852998767,375.4102852998767,375.6929786999244,377.7090655998327,377.7090655998327,377.7090655998327,377.7090655998327,377.7090655998327,377.7090655998327,377.6925365999341,377.7090655998327,377.7090655998327,377.7090655998327,377.7090655998327,377.7090655998327,377.7090655998327,377.7090655998327,380.00748819997534,380.00748819997534,380.00748819997534,380.00748819997534,380.00748819997534,380.00748819997534,380.00748819997534,25,64,58,28,64,60,380.00748819997534,381.82502469979227,,,,,,,,,,,,,005,f,23,2023-05-13_15h00.55.392,RL,2022.2.5,60.237625370687745,
17,49,68,22,0,60,60,60,,,,,,,,,,,None,381.82502469979227,381.82502469979227,381.82502469979227,381.82502469979227,381.82502469979227,381.82502469979227,r,0.2825318998657167,382.126684299903,382.126684299903,382.126684299903,382.126684299903,382.126684299903,382.126684299903,382.408372099977,383.7913642998319,383.7913642998319,383.7913642998319,383.7913642998319,383.7913642998319,383.7913642998319,383.7749403999187,383.7913642998319,383.7913642998319,383.7913642998319,383.7913642998319,383.7913642998319,383.7913642998319,383.7913642998319,385.4560358999297,385.4560358999297,385.4560358999297,385.4560358999297,385.4560358999297,385.4560358999297,385.4560358999297,22,68,49,17,68,60,385.4560358999297,387.040748299798,,,,,,,,,,,,,005,f,23,2023-05-13_15h00.55.392,RL,2022.2.5,60.237625370687745,
24,46,61,28,0,61,61,61,,,,,,,,,,,None,387.040748299798,387.040748299798,387.040748299798,387.040748299798,387.040748299798,387.040748299798,r,0.3261932998429984,387.3913330999203,387.3913330999203,387.3913330999203,387.3913330999203,387.3913330999203,387.3913330999203,387.6741186999716,389.6904074999038,389.6904074999038,389.6904074999038,389.6904074999038,389.6904074999038,389.6904074999038,389.6738135998603,389.6904074999038,389.6904074999038,389.6904074999038,389.6904074999038,389.6904074999038,389.6904074999038,389.6904074999038,391.9886090999935,391.9886090999935,391.9886090999935,391.9886090999935,391.9886090999935,391.9886090999935,391.9886090999935,28,61,46,24,61,60,391.9886090999935,393.92248829989694,,,,,,,,,,,,,005,f,23,2023-05-13_15h00.55.392,RL,2022.2.5,60.237625370687745,
43,47,54,36,0,62,62,62,,,,,,,,,,,None,393.92248829989694,393.92248829989694,393.92248829989694,393.92248829989694,393.92248829989694,393.92248829989694,r,0.30768739990890026,394.25987769989297,394.25987769989297,394.25987769989297,394.25987769989297,394.25987769989297,394.25987769989297,394.5564351999201,396.43922399985604,396.43922399985604,396.43922399985604,396.43922399985604,396.43922399985604,396.43922399985604,396.43922399985604,396.43922399985604,396.43922399985604,396.43922399985604,396.43922399985604,396.43922399985604,396.43922399985604,396.43922399985604,398.6203928999603,398.6203928999603,398.6203928999603,398.6203928999603,398.6203928999603,398.6203928999603,398.6203928999603,36,54,47,43,54,60,398.6203928999603,400.23869219981134,,,,,,,,,,,,,005,f,23,2023-05-13_15h00.55.392,RL,2022.2.5,60.237625370687745,
34,52,66,9,0,63,63,63,,,,,,,,,,,None,400.23869219981134,400.23869219981134,400.23869219981134,400.23869219981134,400.23869219981134,400.23869219981134,f,0.3102186999749392,400.57210609992035,400.57210609992035,400.57210609992035,400.57210609992035,400.57210609992035,400.57210609992035,400.87176439980976,402.73804279998876,402.73804279998876,402.73804279998876,402.73804279998876,402.73804279998876,402.73804279998876,402.73804279998876,402.73804279998876,402.73804279998876,402.73804279998876,402.73804279998876,402.73804279998876,402.73804279998876,402.73804279998876,404.90289439982735,404.90289439982735,404.90289439982735,404.90289439982735,404.90289439982735,404.90289439982735,404.90289439982735,9,66,52,34,9,60,404.90289439982735,406.7374835999217,,,,,,,,,,,,,005,f,23,2023-05-13_15h00.55.392,RL,2022.2.5,60.237625370687745,
25,42,59,21,0,64,64,64,,,,,,,,,,,None,406.7374835999217,406.7374835999217,406.7374835999217,406.7374835999217,406.7374835999217,406.7374835999217,j,0.3510986000765115,407.1213019997813,407.1213019997813,407.1213019997813,407.1213019997813,407.1213019997813,407.1213019997813,407.4207271998748,408.97019579983316,408.97019579983316,408.97019579983316,408.97019579983316,408.97019579983316,408.97019579983316,408.97019579983316,408.97019579983316,408.97019579983316,408.97019579983316,408.97019579983316,408.97019579983316,408.97019579983316,408.97019579983316,410.81865049991757,410.81865049991757,410.81865049991757,410.81865049991757,410.81865049991757,410.81865049991757,410.81865049991757,21,59,42,25,25,60,410.81865049991757,412.63597059994936,,,,,,,,,,,,,005,f,23,2023-05-13_15h00.55.392,RL,2022.2.5,60.237625370687745,
27,52,58,14,0,65,65,65,,,,,,,,,,,None,412.63597059994936,412.63597059994936,412.63597059994936,412.63597059994936,412.63597059994936,412.63597059994936,i,0.26913910009898245,412.9368813999463,412.9368813999463,412.9368813999463,412.9368813999463,412.9368813999463,412.9368813999463,413.22020689980127,414.2029263000004,414.2029263000004,414.2029263000004,414.2029263000004,414.2029263000004,414.2029263000004,414.1866078998428,414.2029263000004,414.2029263000004,414.2029263000004,414.2029263000004,414.2029263000004,414.2029263000004,414.2029263000004,415.4680859998334,415.4680859998334,415.4680859998334,415.4680859998334,415.4680859998334,415.4680859998334,415.4680859998334,14,58,52,27,52,60,415.4680859998334,417.43518789997324,,,,,,,,,,,,,005,f,23,2023-05-13_15h00.55.392,RL,2022.2.5,60.237625370687745,
26,47,57,17,0,66,66,66,,,,,,,,,,,None,417.43518789997324,417.43518789997324,417.43518789997324,417.43518789997324,417.43518789997324,417.43518789997324,r,0.4175602998584509,417.88634109986015,417.88634109986015,417.88634109986015,417.88634109986015,417.88634109986015,417.88634109986015,418.1854740998242,419.61908399988897,419.61908399988897,419.61908399988897,419.61908399988897,419.61908399988897,419.61908399988897,419.61908399988897,419.61908399988897,419.61908399988897,419.61908399988897,419.61908399988897,419.61908399988897,419.61908399988897,419.61908399988897,421.3504925998859,421.3504925998859,421.3504925998859,421.3504925998859,421.3504925998859,421.3504925998859,421.3504925998859,17,57,47,26,57,60,421.3504925998859,422.9846576999407,,,,,,,,,,,,,005,f,23,2023-05-13_15h00.55.392,RL,2022.2.5,60.237625370687745,
32,43,56,18,0,67,67,67,,,,,,,,,,,None,422.9846576999407,422.9846576999407,422.9846576999407,422.9846576999407,422.9846576999407,422.9846576999407,r,0.33567980001680553,423.3534508999437,423.3534508999437,423.3534508999437,423.3534508999437,423.3534508999437,423.3534508999437,423.6514296999667,425.66733519989066,425.66733519989066,425.66733519989066,425.66733519989066,425.66733519989066,425.66733519989066,425.65105479978956,425.66733519989066,425.66733519989066,425.66733519989066,425.66733519989066,425.66733519989066,425.66733519989066,425.66733519989066,427.9658837998286,427.9658837998286,427.9658837998286,427.9658837998286,427.9658837998286,427.9658837998286,427.9658837998286,18,56,43,32,56,60,427.9658837998286,429.9666561000049,,,,,,,,,,,,,005,f,23,2023-05-13_15h00.55.392,RL,2022.2.5,60.237625370687745,
24,60,53,15,0,68,68,68,,,,,,,,,,,None,429.9666561000049,429.9666561000049,429.9666561000049,429.9666561000049,429.9666561000049,429.9666561000049,i,0.2961653999518603,430.2836423998233,430.2836423998233,430.2836423998233,430.2836423998233,430.2836423998233,430.2836423998233,430.5673306998797,432.23354379995726,432.23354379995726,432.23354379995726,432.23354379995726,432.23354379995726,432.23354379995726,432.21665749978274,432.23354379995726,432.23354379995726,432.23354379995726,432.23354379995726,432.23354379995726,432.23354379995726,432.23354379995726,434.1810084998142,434.1810084998142,434.1810084998142,434.1810084998142,434.1810084998142,434.1810084998142,434.1810084998142,15,53,60,24,60,60,434.1810084998142,435.71539079979993,,,,,,,,,,,,,005,f,23,2023-05-13_15h00.55.392,RL,2022.2.5,60.237625370687745,
26,61,52,24,0,69,69,69,,,,,,,,,,,None,435.71539079979993,435.71539079979993,435.71539079979993,435.71539079979993,435.71539079979993,435.71539079979993,i,0.3013088000006974,436.05157199990936,436.05157199990936,436.05157199990936,436.05157199990936,436.05157199990936,436.05157199990936,436.33274589991197,437.39896049979143,437.39896049979143,437.39896049979143,437.39896049979143,437.39896049979143,437.39896049979143,437.3825676999986,437.39896049979143,437.39896049979143,437.39896049979143,437.39896049979143,437.39896049979143,437.39896049979143,437.39896049979143,438.7472012999933,438.7472012999933,438.7472012999933,438.7472012999933,438.7472012999933,438.7472012999933,438.7472012999933,24,52,61,26,61,60,438.7472012999933,440.63164619985037,,,,,,,,,,,,,005,f,23,2023-05-13_15h00.55.392,RL,2022.2.5,60.237625370687745,
24,54,55,17,0,70,70,70,,,,,,,,,,,None,440.63164619985037,440.63164619985037,440.63164619985037,440.63164619985037,440.63164619985037,440.63164619985037,i,0.375939599936828,441.03174859983847,441.03174859983847,441.03174859983847,441.03174859983847,441.03174859983847,441.03174859983847,441.3148522998672,442.99803479993716,442.99803479993716,442.99803479993716,442.99803479993716,442.99803479993716,442.99803479993716,442.9812440997921,442.99803479993716,442.99803479993716,442.99803479993716,442.99803479993716,442.99803479993716,442.99803479993716,442.99803479993716,444.9629231998697,444.9629231998697,444.9629231998697,444.9629231998697,444.9629231998697,444.9629231998697,444.9629231998697,17,55,54,24,54,60,444.9629231998697,446.5807155999355,,,,,,,,,,,,,005,f,23,2023-05-13_15h00.55.392,RL,2022.2.5,60.237625370687745,
30,60,64,12,0,71,71,71,,,,,,,,,,,None,446.5807155999355,446.5807155999355,446.5807155999355,446.5807155999355,446.5807155999355,446.5807155999355,r,0.2762668998911977,446.88055929983966,446.88055929983966,446.88055929983966,446.88055929983966,446.88055929983966,446.88055929983966,447.1813238998875,448.3470949998591,448.3470949998591,448.3470949998591,448.3470949998591,448.3470949998591,448.3470949998591,448.3470949998591,448.3470949998591,448.3470949998591,448.3470949998591,448.3470949998591,448.3470949998591,448.3470949998591,448.3470949998591,449.8116204999387,449.8116204999387,449.8116204999387,449.8116204999387,449.8116204999387,449.8116204999387,449.8116204999387,12,64,60,30,64,60,449.8116204999387,451.3970060998108,,,,,,,,,,,,,005,f,23,2023-05-13_15h00.55.392,RL,2022.2.5,60.237625370687745,
27,59,56,20,0,72,72,72,,,,,,,,,,,None,451.3970060998108,451.3970060998108,451.3970060998108,451.3970060998108,451.3970060998108,451.3970060998108,r,0.29128130013123155,451.71311139990576,451.71311139990576,451.71311139990576,451.71311139990576,451.71311139990576,451.71311139990576,451.9968781999778,453.462911499897,453.462911499897,453.462911499897,453.462911499897,453.462911499897,453.462911499897,453.44620239990763,453.462911499897,453.462911499897,453.462911499897,453.462911499897,453.462911499897,453.462911499897,453.462911499897,455.2104776999913,455.2104776999913,455.2104776999913,455.2104776999913,455.2104776999913,455.2104776999913,455.2104776999913,20,56,59,27,56,60,455.2104776999913,456.9614825998433,,,,,,,,,,,,,005,f,23,2023-05-13_15h00.55.392,RL,2022.2.5,60.237625370687745,
37,54,65,8,0,73,73,73,,,,,,,,,,,None,456.9614825998433,456.9614825998433,456.9614825998433,456.9614825998433,456.9614825998433,456.9614825998433,r,0.3601108000148088,457.3461291999556,457.3461291999556,457.3461291999556,457.3461291999556,457.3461291999556,457.3461291999556,457.62869499996305,458.57847459986806,458.57847459986806,458.57847459986806,458.57847459986806,458.57847459986806,458.57847459986806,458.562220599968,458.57847459986806,458.57847459986806,458.57847459986806,458.57847459986806,458.57847459986806,458.57847459986806,458.57847459986806,459.8096847999841,459.8096847999841,459.8096847999841,459.8096847999841,459.8096847999841,459.8096847999841,459.8096847999841,8,65,54,37,65,60,459.8096847999841,461.69434829987586,,,,,,,,,,,,,005,f,23,2023-05-13_15h00.55.392,RL,2022.2.5,60.237625370687745,
38,58,69,18,0,74,74,74,,,,,,,,,,,None,461.69434829987586,461.69434829987586,461.69434829987586,461.69434829987586,461.69434829987586,461.69434829987586,r,0.3098838999867439,462.02858579996973,462.02858579996973,462.02858579996973,462.02858579996973,462.02858579996973,462.02858579996973,462.31122589996085,464.01107379980385,464.01107379980385,464.01107379980385,464.01107379980385,464.01107379980385,464.01107379980385,463.9948675998021,464.01107379980385,464.01107379980385,464.01107379980385,464.01107379980385,464.01107379980385,464.01107379980385,464.01107379980385,465.99230399983935,465.99230399983935,465.99230399983935,465.99230399983935,465.99230399983935,465.99230399983935,465.99230399983935,18,69,58,38,69,60,465.99230399983935,467.8757489998825,,,,,,,,,,,,,005,f,23,2023-05-13_15h00.55.392,RL,2022.2.5,60.237625370687745,
36,60,64,25,0,75,75,75,,,,,,,,,,,q,496.02178099984303,496.02178099984303,496.02178099984303,496.02178099984303,496.02178099984303,496.02178099984303,r,0.4431429000105709,496.48941789986566,496.48941789986566,496.48941789986566,496.48941789986566,496.48941789986566,496.48941789986566,496.7719941998366,498.7051028998103,498.7051028998103,498.7051028998103,498.7051028998103,498.7051028998103,498.7051028998103,498.6884562999476,498.7051028998103,498.7051028998103,498.7051028998103,498.7051028998103,498.7051028998103,498.7051028998103,498.7051028998103,500.9193795998581,500.9193795998581,500.9193795998581,500.9193795998581,500.9193795998581,500.9193795998581,500.9193795998581,25,64,60,36,64,60,500.9193795998581,502.6537360998336,467.8757489998825,467.8757489998825,23.101280000060797,491.0070105998311,491.0070105998311,496.02178099984303,496.02178099984303,,,,,,005,f,23,2023-05-13_15h00.55.392,RL,2022.2.5,60.237625370687745,
38,53,60,12,0,76,76,76,,,,,,,,,,,None,502.6537360998336,502.6537360998336,502.6537360998336,502.6537360998336,502.6537360998336,502.6537360998336,r,0.2742011998780072,502.9604276998434,502.9604276998434,502.9604276998434,502.9604276998434,502.9604276998434,502.9604276998434,503.2378785999026,505.13711549993604,505.13711549993604,505.13711549993604,505.13711549993604,505.13711549993604,505.13711549993604,505.1204613998998,505.13711549993604,505.13711549993604,505.13711549993604,505.13711549993604,505.13711549993604,505.13711549993604,505.13711549993604,507.31825989997014,507.31825989997014,507.31825989997014,507.31825989997014,507.31825989997014,507.31825989997014,507.31825989997014,12,60,53,38,60,60,507.31825989997014,508.90281159989536,,,,,,,,,,,,,005,f,23,2023-05-13_15h00.55.392,RL,2022.2.5,60.237625370687745,
42,62,56,12,0,77,77,77,,,,,,,,,,,None,508.90281159989536,508.90281159989536,508.90281159989536,508.90281159989536,508.90281159989536,508.90281159989536,r,0.25377449998632073,509.18845609994605,509.18845609994605,509.18845609994605,509.18845609994605,509.18845609994605,509.18845609994605,509.4863073998131,511.1190846997779,511.1190846997779,511.1190846997779,511.1190846997779,511.1190846997779,511.1190846997779,511.1190846997779,511.1190846997779,511.1190846997779,511.1190846997779,511.1190846997779,511.1190846997779,511.1190846997779,511.1190846997779,513.0508079999126,513.0508079999126,513.0508079999126,513.0508079999126,513.0508079999126,513.0508079999126,513.0508079999126,12,56,62,42,56,60,513.0508079999126,514.8350050998852,,,,,,,,,,,,,005,f,23,2023-05-13_15h00.55.392,RL,2022.2.5,60.237625370687745,
44,61,66,8,0,78,78,78,,,,,,,,,,,None,514.8350050998852,514.8350050998852,514.8350050998852,514.8350050998852,514.8350050998852,514.8350050998852,i,0.24367709993384778,515.1022134998348,515.1022134998348,515.1022134998348,515.1022134998348,515.1022134998348,515.1022134998348,515.385788799962,517.1348504999187,517.1348504999187,517.1348504999187,517.1348504999187,517.1348504999187,517.1348504999187,517.1183865999337,517.1348504999187,517.1348504999187,517.1348504999187,517.1348504999187,517.1348504999187,517.1348504999187,517.1348504999187,519.1662460998632,519.1662460998632,519.1662460998632,519.1662460998632,519.1662460998632,519.1662460998632,519.1662460998632,8,66,61,44,61,60,519.1662460998632,521.05072379997,,,,,,,,,,,,,005,f,23,2023-05-13_15h00.55.392,RL,2022.2.5,60.237625370687745,
51,60,65,21,0,79,79,79,,,,,,,,,,,None,521.05072379997,521.05072379997,521.05072379997,521.05072379997,521.05072379997,521.05072379997,i,0.4303649999201298,521.5025548997801,521.5025548997801,521.5025548997801,521.5025548997801,521.5025548997801,521.5025548997801,521.7843750999309,522.7673716999125,522.7673716999125,522.7673716999125,522.7673716999125,522.7673716999125,522.7673716999125,522.7505168998614,522.7673716999125,522.7673716999125,522.7673716999125,522.7673716999125,522.7673716999125,522.7673716999125,522.7673716999125,524.0320377999451,524.0320377999451,524.0320377999451,524.0320377999451,524.0320377999451,524.0320377999451,524.0320377999451,21,65,60,51,60,60,524.0320377999451,525.816473999992,,,,,,,,,,,,,005,f,23,2023-05-13_15h00.55.392,RL,2022.2.5,60.237625370687745,
35,55,60,15,0,80,80,80,,,,,,,,,,,None,525.816473999992,525.816473999992,525.816473999992,525.816473999992,525.816473999992,525.816473999992,i,0.3696105999406427,526.2170085997786,526.2170085997786,526.2170085997786,526.2170085997786,526.2170085997786,526.2170085997786,526.5005341998767,527.6664811999071,527.6664811999071,527.6664811999071,527.6664811999071,527.6664811999071,527.6664811999071,527.6496945999097,527.6664811999071,527.6664811999071,527.6664811999071,527.6664811999071,527.6664811999071,527.6664811999071,527.6664811999071,529.11469019996,529.11469019996,529.11469019996,529.11469019996,529.11469019996,529.11469019996,529.11469019996,15,60,55,35,55,60,529.11469019996,530.965085899923,,,,,,,,,,,,,005,f,23,2023-05-13_15h00.55.392,RL,2022.2.5,60.237625370687745,
41,59,75,17,0,81,81,81,,,,,,,,,,,None,530.965085899923,530.965085899923,530.965085899923,530.965085899923,530.965085899923,530.965085899923,r,0.25089469994418323,531.2494485999923,531.2494485999923,531.2494485999923,531.2494485999923,531.2494485999923,531.2494485999923,531.532096899813,532.4319524997845,532.4319524997845,532.4319524997845,532.4319524997845,532.4319524997845,532.4319524997845,532.4152506999671,532.4319524997845,532.4319524997845,532.4319524997845,532.4319524997845,532.4319524997845,532.4319524997845,532.4319524997845,533.6141289998777,533.6141289998777,533.6141289998777,533.6141289998777,533.6141289998777,533.6141289998777,533.6141289998777,17,75,59,41,75,60,533.6141289998777,535.515372299822,,,,,,,,,,,,,005,f,23,2023-05-13_15h00.55.392,RL,2022.2.5,60.237625370687745,
39,63,64,14,0,82,82,82,,,,,,,,,,,None,535.515372299822,535.515372299822,535.515372299822,535.515372299822,535.515372299822,535.515372299822,r,0.4131414000876248,535.9484724998474,535.9484724998474,535.9484724998474,535.9484724998474,535.9484724998474,535.9484724998474,536.248136999784,537.4981114999391,537.4981114999391,537.4981114999391,537.4981114999391,537.4981114999391,537.4981114999391,537.4981114999391,537.4981114999391,537.4981114999391,537.4981114999391,537.4981114999391,537.4981114999391,537.4981114999391,537.4981114999391,539.0463423999026,539.0463423999026,539.0463423999026,539.0463423999026,539.0463423999026,539.0463423999026,539.0463423999026,14,64,63,39,64,60,539.0463423999026,540.664416999789,,,,,,,,,,,,,005,f,23,2023-05-13_15h00.55.392,RL,2022.2.5,60.237625370687745,
32,62,63,15,0,83,83,83,,,,,,,,,,,None,540.664416999789,540.664416999789,540.664416999789,540.664416999789,540.664416999789,540.664416999789,r,0.2874485000502318,540.9825419997796,540.9825419997796,540.9825419997796,540.9825419997796,540.9825419997796,540.9825419997796,541.2806683999952,542.6140314999502,542.6140314999502,542.6140314999502,542.6140314999502,542.6140314999502,542.6140314999502,542.6140314999502,542.6140314999502,542.6140314999502,542.6140314999502,542.6140314999502,542.6140314999502,542.6140314999502,542.6140314999502,544.2452392999548,544.2452392999548,544.2452392999548,544.2452392999548,544.2452392999548,544.2452392999548,544.2452392999548,15,63,62,32,63,60,544.2452392999548,545.8964401998091,,,,,,,,,,,,,005,f,23,2023-05-13_15h00.55.392,RL,2022.2.5,60.237625370687745,
42,63,51,10,0,84,84,84,,,,,,,,,,,None,545.8964401998091,545.8964401998091,545.8964401998091,545.8964401998091,545.8964401998091,545.8964401998091,r,0.2533708999399096,546.181044699857,546.181044699857,546.181044699857,546.181044699857,546.181044699857,546.181044699857,546.4799638998229,547.7133619999513,547.7133619999513,547.7133619999513,547.7133619999513,547.7133619999513,547.7133619999513,547.7133619999513,547.7133619999513,547.7133619999513,547.7133619999513,547.7133619999513,547.7133619999513,547.7133619999513,547.7133619999513,549.244803099893,549.244803099893,549.244803099893,549.244803099893,549.244803099893,549.244803099893,549.244803099893,10,51,63,42,51,60,549.244803099893,550.9793490997981,,,,,,,,,,,,,005,f,23,2023-05-13_15h00.55.392,RL,2022.2.5,60.237625370687745,
33,65,54,13,0,85,85,85,,,,,,,,,,,None,550.9793490997981,550.9793490997981,550.9793490997981,550.9793490997981,550.9793490997981,550.9793490997981,i,0.24670969997532666,551.2468254999258,551.2468254999258,551.2468254999258,551.2468254999258,551.2468254999258,551.2468254999258,551.5458076999057,552.7621134999208,552.7621134999208,552.7621134999208,552.7621134999208,552.7621134999208,552.7621134999208,552.7621134999208,552.7621134999208,552.7621134999208,552.7621134999208,552.7621134999208,552.7621134999208,552.7621134999208,552.7621134999208,554.2770065998193,554.2770065998193,554.2770065998193,554.2770065998193,554.2770065998193,554.2770065998193,554.2770065998193,13,54,65,33,65,60,554.2770065998193,556.1948703997768,,,,,,,,,,,,,005,f,23,2023-05-13_15h00.55.392,RL,2022.2.5,60.237625370687745,
41,61,56,12,0,86,86,86,,,,,,,,,,,None,556.1948703997768,556.1948703997768,556.1948703997768,556.1948703997768,556.1948703997768,556.1948703997768,i,0.2780138999223709,556.4965017999057,556.4965017999057,556.4965017999057,556.4965017999057,556.4965017999057,556.4965017999057,556.7949547998141,557.8948029999156,557.8948029999156,557.8948029999156,557.8948029999156,557.8948029999156,557.8948029999156,557.8948029999156,557.8948029999156,557.8948029999156,557.8948029999156,557.8948029999156,557.8948029999156,557.8948029999156,557.8948029999156,559.2928783998359,559.2928783998359,559.2928783998359,559.2928783998359,559.2928783998359,559.2928783998359,559.2928783998359,12,56,61,41,61,60,559.2928783998359,560.843609899981,,,,,,,,,,,,,005,f,23,2023-05-13_15h00.55.392,RL,2022.2.5,60.237625370687745,
42,73,48,18,0,87,87,87,,,,,,,,,,,None,560.843609899981,560.843609899981,560.843609899981,560.843609899981,560.843609899981,560.843609899981,r,0.45469400007277727,561.3283219998702,561.3283219998702,561.3283219998702,561.3283219998702,561.3283219998702,561.3283219998702,561.627465199912,562.8775621999521,562.8775621999521,562.8775621999521,562.8775621999521,562.8775621999521,562.8775621999521,562.8775621999521,562.8775621999521,562.8775621999521,562.8775621999521,562.8775621999521,562.8775621999521,562.8775621999521,562.8775621999521,564.4252988998778,564.4252988998778,564.4252988998778,564.4252988998778,564.4252988998778,564.4252988998778,564.4252988998778,18,48,73,42,48,60,564.4252988998778,566.1092961998656,,,,,,,,,,,,,005,f,23,2023-05-13_15h00.55.392,RL,2022.2.5,60.237625370687745,
37,61,45,22,0,88,88,88,,,,,,,,,,,None,566.1092961998656,566.1092961998656,566.1092961998656,566.1092961998656,566.1092961998656,566.1092961998656,i,0.2774261001031846,566.4100074998569,566.4100074998569,566.4100074998569,566.4100074998569,566.4100074998569,566.4100074998569,566.6930406999309,567.8263141999487,567.8263141999487,567.8263141999487,567.8263141999487,567.8263141999487,567.8263141999487,567.8097720998339,567.8263141999487,567.8263141999487,567.8263141999487,567.8263141999487,567.8263141999487,567.8263141999487,567.8263141999487,569.2407233999111,569.2407233999111,569.2407233999111,569.2407233999111,569.2407233999111,569.2407233999111,569.2407233999111,22,45,61,37,61,60,569.2407233999111,571.1415524999611,,,,,,,,,,,,,005,f,23,2023-05-13_15h00.55.392,RL,2022.2.5,60.237625370687745,
41,61,47,30,0,89,89,89,,,,,,,,,,,None,571.1415524999611,571.1415524999611,571.1415524999611,571.1415524999611,571.1415524999611,571.1415524999611,r,0.6195215999614447,571.7941809999757,571.7941809999757,571.7941809999757,571.7941809999757,571.7941809999757,571.7941809999757,572.0918886999134,572.9917619999032,572.9917619999032,572.9917619999032,572.9917619999032,572.9917619999032,572.9917619999032,572.9917619999032,572.9917619999032,572.9917619999032,572.9917619999032,572.9917619999032,572.9917619999032,572.9917619999032,572.9917619999032,574.190058299806,574.190058299806,574.190058299806,574.190058299806,574.190058299806,574.190058299806,574.190058299806,30,47,61,41,47,60,574.190058299806,576.1243833999615,,,,,,,,,,,,,005,f,23,2023-05-13_15h00.55.392,RL,2022.2.5,60.237625370687745,
36,65,48,33,0,90,90,90,,,,,,,,,,,None,576.1243833999615,576.1243833999615,576.1243833999615,576.1243833999615,576.1243833999615,576.1243833999615,i,0.3978427001275122,576.5439662998542,576.5439662998542,576.5439662998542,576.5439662998542,576.5439662998542,576.5439662998542,576.8412326998077,577.7576054998208,577.7576054998208,577.7576054998208,577.7576054998208,577.7576054998208,577.7576054998208,577.7576054998208,577.7576054998208,577.7576054998208,577.7576054998208,577.7576054998208,577.7576054998208,577.7576054998208,577.7576054998208,578.9724892999511,578.9724892999511,578.9724892999511,578.9724892999511,578.9724892999511,578.9724892999511,578.9724892999511,33,48,65,36,65,60,578.9724892999511,580.806990499841,,,,,,,,,,,,,005,f,23,2023-05-13_15h00.55.392,RL,2022.2.5,60.237625370687745,
33,68,55,31,0,91,91,91,,,,,,,,,,,None,580.806990499841,580.806990499841,580.806990499841,580.806990499841,580.806990499841,580.806990499841,i,0.2962013999931514,581.1239436999895,581.1239436999895,581.1239436999895,581.1239436999895,581.1239436999895,581.1239436999895,581.4069926999509,583.1566497997846,583.1566497997846,583.1566497997846,583.1566497997846,583.1566497997846,583.1566497997846,583.140125699807,583.1566497997846,583.1566497997846,583.1566497997846,583.1566497997846,583.1566497997846,583.1566497997846,583.1566497997846,585.1883750997949,585.1883750997949,585.1883750997949,585.1883750997949,585.1883750997949,585.1883750997949,585.1883750997949,31,55,68,33,68,60,585.1883750997949,587.022372599924,,,,,,,,,,,,,005,f,23,2023-05-13_15h00.55.392,RL,2022.2.5,60.237625370687745,
45,76,53,34,0,92,92,92,,,,,,,,,,,None,587.022372599924,587.022372599924,587.022372599924,587.022372599924,587.022372599924,587.022372599924,i,0.26561090000905097,587.3061871998943,587.3061871998943,587.3061871998943,587.3061871998943,587.3061871998943,587.3061871998943,587.6060442999005,589.2390192998573,589.2390192998573,589.2390192998573,589.2390192998573,589.2390192998573,589.2390192998573,589.2390192998573,589.2390192998573,589.2390192998573,589.2390192998573,589.2390192998573,589.2390192998573,589.2390192998573,589.2390192998573,591.1703674998134,591.1703674998134,591.1703674998134,591.1703674998134,591.1703674998134,591.1703674998134,591.1703674998134,34,53,76,45,76,60,591.1703674998134,592.9884791998193,,,,,,,,,,,,,005,f,23,2023-05-13_15h00.55.392,RL,2022.2.5,60.237625370687745,
47,60,49,34,0,93,93,93,,,,,,,,,,,None,592.9884791998193,592.9884791998193,592.9884791998193,592.9884791998193,592.9884791998193,592.9884791998193,i,0.2694316999986768,593.2888495998923,593.2888495998923,593.2888495998923,593.2888495998923,593.2888495998923,593.2888495998923,593.5887381997891,594.8380857999437,594.8380857999437,594.8380857999437,594.8380857999437,594.8380857999437,594.8380857999437,594.8380857999437,594.8380857999437,594.8380857999437,594.8380857999437,594.8380857999437,594.8380857999437,594.8380857999437,594.8380857999437,596.3860727997962,596.3860727997962,596.3860727997962,596.3860727997962,596.3860727997962,596.3860727997962,596.3860727997962,34,49,60,47,60,60,596.3860727997962,598.0207407998387,,,,,,,,,,,,,005,f,23,2023-05-13_15h00.55.392,RL,2022.2.5,60.237625370687745,
53,60,52,26,0,94,94,94,,,,,,,,,,,None,598.0207407998387,598.0207407998387,598.0207407998387,598.0207407998387,598.0207407998387,598.0207407998387,j,0.5820045999716967,598.6226688998286,598.6226688998286,598.6226688998286,598.6226688998286,598.6226688998286,598.6226688998286,598.9209845999721,600.0870603998192,600.0870603998192,600.0870603998192,600.0870603998192,600.0870603998192,600.0870603998192,600.0870603998192,600.0870603998192,600.0870603998192,600.0870603998192,600.0870603998192,600.0870603998192,600.0870603998192,600.0870603998192,601.552194799995,601.552194799995,601.552194799995,601.552194799995,601.552194799995,601.552194799995,601.552194799995,26,52,60,53,53,60,601.552194799995,603.1533472998999,,,,,,,,,,,,,005,f,23,2023-05-13_15h00.55.392,RL,2022.2.5,60.237625370687745,
41,68,48,37,0,95,95,95,,,,,,,,,,,None,603.1533472998999,603.1533472998999,603.1533472998999,603.1533472998999,603.1533472998999,603.1533472998999,i,0.2956909998320043,603.4714598997962,603.4714598997962,603.4714598997962,603.4714598997962,603.4714598997962,603.4714598997962,603.7701678997837,605.6028897999786,605.6028897999786,605.6028897999786,605.6028897999786,605.6028897999786,605.6028897999786,605.6028897999786,605.6028897999786,605.6028897999786,605.6028897999786,605.6028897999786,605.6028897999786,605.6028897999786,605.6028897999786,607.7343293998856,607.7343293998856,607.7343293998856,607.7343293998856,607.7343293998856,607.7343293998856,607.7343293998856,37,48,68,41,68,60,607.7343293998856,609.2853369999211,,,,,,,,,,,,,005,f,23,2023-05-13_15h00.55.392,RL,2022.2.5,60.237625370687745,
40,59,57,31,0,96,96,96,,,,,,,,,,,None,609.2853369999211,609.2853369999211,609.2853369999211,609.2853369999211,609.2853369999211,609.2853369999211,i,0.30357899982482195,609.624049999984,609.624049999984,609.624049999984,609.624049999984,609.624049999984,609.624049999984,609.9021965998691,610.9688902997877,610.9688902997877,610.9688902997877,610.9688902997877,610.9688902997877,610.9688902997877,610.9520780998282,610.9688902997877,610.9688902997877,610.9688902997877,610.9688902997877,610.9688902997877,610.9688902997877,610.9688902997877,612.3168949999381,612.3168949999381,612.3168949999381,612.3168949999381,612.3168949999381,612.3168949999381,612.3168949999381,31,57,59,40,59,60,612.3168949999381,614.1010026999284,,,,,,,,,,,,,005,f,23,2023-05-13_15h00.55.392,RL,2022.2.5,60.237625370687745,
25,56,54,34,0,97,97,97,,,,,,,,,,,None,614.1010026999284,614.1010026999284,614.1010026999284,614.1010026999284,614.1010026999284,614.1010026999284,j,0.40550240012817085,614.5358930998482,614.5358930998482,614.5358930998482,614.5358930998482,614.5358930998482,614.5358930998482,614.8180580998305,615.8177217999473,615.8177217999473,615.8177217999473,615.8177217999473,615.8177217999473,615.8177217999473,615.8011777999345,615.8177217999473,615.8177217999473,615.8177217999473,615.8177217999473,615.8177217999473,615.8177217999473,615.8177217999473,617.0996207999997,617.0996207999997,617.0996207999997,617.0996207999997,617.0996207999997,617.0996207999997,617.0996207999997,34,54,56,25,25,60,617.0996207999997,618.7508779999334,,,,,,,,,,,,,005,f,23,2023-05-13_15h00.55.392,RL,2022.2.5,60.237625370687745,
38,56,42,31,0,98,98,98,,,,,,,,,,,None,618.7508779999334,618.7508779999334,618.7508779999334,618.7508779999334,618.7508779999334,618.7508779999334,i,0.2639999999664724,619.0355054999236,619.0355054999236,619.0355054999236,619.0355054999236,619.0355054999236,619.0355054999236,619.3338275998831,621.1166331998538,621.1166331998538,621.1166331998538,621.1166331998538,621.1166331998538,621.1166331998538,621.1166331998538,621.1166331998538,621.1166331998538,621.1166331998538,621.1166331998538,621.1166331998538,621.1166331998538,621.1166331998538,623.1981804999523,623.1981804999523,623.1981804999523,623.1981804999523,623.1981804999523,623.1981804999523,623.1981804999523,31,42,56,38,56,60,623.1981804999523,624.8826744998805,,,,,,,,,,,,,005,f,23,2023-05-13_15h00.55.392,RL,2022.2.5,60.237625370687745,
42,51,56,28,0,99,99,99,,,,,,,,,,,None,624.8826744998805,624.8826744998805,624.8826744998805,624.8826744998805,624.8826744998805,624.8826744998805,r,0.31232859985902905,625.2164686999749,625.2164686999749,625.2164686999749,625.2164686999749,625.2164686999749,625.2164686999749,625.4995362998452,626.4660607997794,626.4660607997794,626.4660607997794,626.4660607997794,626.4660607997794,626.4660607997794,626.4495163999964,626.4660607997794,626.4660607997794,626.4660607997794,626.4660607997794,626.4660607997794,626.4660607997794,626.4660607997794,627.7144962998573,627.7144962998573,627.7144962998573,627.7144962998573,627.7144962998573,627.7144962998573,627.7144962998573,28,56,51,42,56,60,627.7144962998573,629.5816182999406,,,,,,,,,,,,,005,f,23,2023-05-13_15h00.55.392,RL,2022.2.5,60.237625370687745,
41,48,54,37,0,100,100,100,,,,,,,,,,,None,629.5816182999406,629.5816182999406,629.5816182999406,629.5816182999406,629.5816182999406,629.5816182999406,f,0.4178599000442773,630.0326738997828,630.0326738997828,630.0326738997828,630.0326738997828,630.0326738997828,630.0326738997828,630.3156797999982,632.2647399997804,632.2647399997804,632.2647399997804,632.2647399997804,632.2647399997804,632.2647399997804,632.2483199997805,632.2647399997804,632.2647399997804,632.2647399997804,632.2647399997804,632.2647399997804,632.2647399997804,632.2647399997804,634.4966286998242,634.4966286998242,634.4966286998242,634.4966286998242,634.4966286998242,634.4966286998242,634.4966286998242,37,54,48,41,37,60,634.4966286998242,636.2809761997778,,,,,,,,,,,,,005,f,23,2023-05-13_15h00.55.392,RL,2022.2.5,60.237625370687745,
33,45,55,41,0,101,101,101,,,,,,,,,,,None,636.2809761997778,636.2809761997778,636.2809761997778,636.2809761997778,636.2809761997778,636.2809761997778,i,0.4102742001414299,636.7144480999559,636.7144480999559,636.7144480999559,636.7144480999559,636.7144480999559,636.7144480999559,637.0139840999618,638.8975031999871,638.8975031999871,638.8975031999871,638.8975031999871,638.8975031999871,638.8975031999871,638.8975031999871,638.8975031999871,638.8975031999871,638.8975031999871,638.8975031999871,638.8975031999871,638.8975031999871,638.8975031999871,641.0781087998766,641.0781087998766,641.0781087998766,641.0781087998766,641.0781087998766,641.0781087998766,641.0781087998766,41,55,45,33,45,60,641.0781087998766,642.6466139999684,,,,,,,,,,,,,005,f,23,2023-05-13_15h00.55.392,RL,2022.2.5,60.237625370687745,
42,47,56,38,0,102,102,102,,,,,,,,,,,None,642.6466139999684,642.6466139999684,642.6466139999684,642.6466139999684,642.6466139999684,642.6466139999684,r,0.352877400116995,643.0313859998714,643.0313859998714,643.0313859998714,643.0313859998714,643.0313859998714,643.0313859998714,643.3130975998938,644.3795233999845,644.3795233999845,644.3795233999845,644.3795233999845,644.3795233999845,644.3795233999845,644.346076999791,644.3795233999845,644.3795233999845,644.3795233999845,644.3795233999845,644.3795233999845,644.3795233999845,644.3795233999845,645.7110249998514,645.7110249998514,645.7110249998514,645.7110249998514,645.7110249998514,645.7110249998514,645.7110249998514,38,56,47,42,56,60,645.7110249998514,647.3452984998003,,,,,,,,,,,,,005,f,23,2023-05-13_15h00.55.392,RL,2022.2.5,60.237625370687745,
40,53,44,35,0,103,103,103,,,,,,,,,,,None,647.3452984998003,647.3452984998003,647.3452984998003,647.3452984998003,647.3452984998003,647.3452984998003,r,0.5217899000272155,647.8984836000018,647.8984836000018,647.8984836000018,647.8984836000018,647.8984836000018,647.8984836000018,648.1956324998755,649.2288478999399,649.2288478999399,649.2288478999399,649.2288478999399,649.2288478999399,649.2288478999399,649.2288478999399,649.2288478999399,649.2288478999399,649.2288478999399,649.2288478999399,649.2288478999399,649.2288478999399,649.2288478999399,650.5600133999251,650.5600133999251,650.5600133999251,650.5600133999251,650.5600133999251,650.5600133999251,650.5600133999251,35,44,53,40,44,60,650.5600133999251,652.2612278999295,,,,,,,,,,,,,005,f,23,2023-05-13_15h00.55.392,RL,2022.2.5,60.237625370687745,
48,48,44,35,0,104,104,104,,,,,,,,,,,None,652.2612278999295,652.2612278999295,652.2612278999295,652.2612278999295,652.2612278999295,652.2612278999295,j,0.3568141998257488,652.6462548999116,652.6462548999116,652.6462548999116,652.6462548999116,652.6462548999116,652.6462548999116,652.9453039998189,653.7944415998645,653.7944415998645,653.7944415998645,653.7944415998645,653.7944415998645,653.7944415998645,653.7944415998645,653.7944415998645,653.7944415998645,653.7944415998645,653.7944415998645,653.7944415998645,653.7944415998645,653.7944415998645,654.9426791998558,654.9426791998558,654.9426791998558,654.9426791998558,654.9426791998558,654.9426791998558,654.9426791998558,35,44,48,48,48,60,654.9426791998558,656.8270629998296,,,,,,,,,,,,,005,f,23,2023-05-13_15h00.55.392,RL,2022.2.5,60.237625370687745,
46,48,44,25,0,105,105,105,,,,,,,,,,,None,656.8270629998296,656.8270629998296,656.8270629998296,656.8270629998296,656.8270629998296,656.8270629998296,j,0.9405337998177856,657.7958220997825,657.7958220997825,657.7958220997825,657.7958220997825,657.7958220997825,657.7958220997825,658.0773835999426,659.9933598998468,659.9933598998468,659.9933598998468,659.9933598998468,659.9933598998468,659.9933598998468,659.9767813999206,659.9933598998468,659.9933598998468,659.9933598998468,659.9933598998468,659.9933598998468,659.9933598998468,659.9933598998468,662.1913425999228,662.1913425999228,662.1913425999228,662.1913425999228,662.1913425999228,662.1913425999228,662.1913425999228,25,44,48,46,46,60,662.1913425999228,664.0761476999614,,,,,,,,,,,,,005,f,23,2023-05-13_15h00.55.392,RL,2022.2.5,60.237625370687745,
43,54,48,37,0,106,106,106,,,,,,,,,,,None,664.0761476999614,664.0761476999614,664.0761476999614,664.0761476999614,664.0761476999614,664.0761476999614,i,0.2676264999900013,664.3761123998556,664.3761123998556,664.3761123998556,664.3761123998556,664.3761123998556,664.3761123998556,664.6594784997869,665.7257310999557,665.7257310999557,665.7257310999557,665.7257310999557,665.7257310999557,665.7257310999557,665.7091287998483,665.7257310999557,665.7257310999557,665.7257310999557,665.7257310999557,665.7257310999557,665.7257310999557,665.7257310999557,667.0739666000009,667.0739666000009,667.0739666000009,667.0739666000009,667.0739666000009,667.0739666000009,667.0739666000009,37,48,54,43,54,60,667.0739666000009,668.9247976997867,,,,,,,,,,,,,005,f,23,2023-05-13_15h00.55.392,RL,2022.2.5,60.237625370687745,
58,36,55,31,0,107,107,107,,,,,,,,,,,None,668.9247976997867,668.9247976997867,668.9247976997867,668.9247976997867,668.9247976997867,668.9247976997867,f,0.8850112999789417,669.8420814999845,669.8420814999845,669.8420814999845,669.8420814999845,669.8420814999845,669.8420814999845,670.142044399865,671.591943899868,671.591943899868,671.591943899868,671.591943899868,671.591943899868,671.591943899868,671.591943899868,671.591943899868,671.591943899868,671.591943899868,671.591943899868,671.591943899868,671.591943899868,671.591943899868,673.33909389982,673.33909389982,673.33909389982,673.33909389982,673.33909389982,673.33909389982,673.33909389982,31,55,36,58,31,60,673.33909389982,675.223704099888,,,,,,,,,,,,,005,f,23,2023-05-13_15h00.55.392,RL,2022.2.5,60.237625370687745,
42,42,47,35,0,108,108,108,,,,,,,,,,,None,675.223704099888,675.223704099888,675.223704099888,675.223704099888,675.223704099888,675.223704099888,i,0.26096640015020967,675.5076185998041,675.5076185998041,675.5076185998041,675.5076185998041,675.5076185998041,675.5076185998041,675.791273499839,676.9407443997916,676.9407443997916,676.9407443997916,676.9407443997916,676.9407443997916,676.9407443997916,676.9241550997831,676.9407443997916,676.9407443997916,676.9407443997916,676.9407443997916,676.9407443997916,676.9407443997916,676.9407443997916,678.3720963997766,678.3720963997766,678.3720963997766,678.3720963997766,678.3720963997766,678.3720963997766,678.3720963997766,35,47,42,42,42,60,678.3720963997766,680.2227741999086,,,,,,,,,,,,,005,f,23,2023-05-13_15h00.55.392,RL,2022.2.5,60.237625370687745,
44,45,39,36,0,109,109,109,,,,,,,,,,,None,680.2227741999086,680.2227741999086,680.2227741999086,680.2227741999086,680.2227741999086,680.2227741999086,r,0.37616119999438524,680.6235971997958,680.6235971997958,680.6235971997958,680.6235971997958,680.6235971997958,680.6235971997958,680.9065531999804,682.1229004999623,682.1229004999623,682.1229004999623,682.1229004999623,682.1229004999623,682.1229004999623,682.106298699975,682.1229004999623,682.1229004999623,682.1229004999623,682.1229004999623,682.1229004999623,682.1229004999623,682.1229004999623,683.6212746999227,683.6212746999227,683.6212746999227,683.6212746999227,683.6212746999227,683.6212746999227,683.6212746999227,36,39,45,44,39,60,683.6212746999227,685.172542499844,,,,,,,,,,,,,005,f,23,2023-05-13_15h00.55.392,RL,2022.2.5,60.237625370687745,
42,36,49,32,0,110,110,110,,,,,,,,,,,None,685.172542499844,685.172542499844,685.172542499844,685.172542499844,685.172542499844,685.172542499844,j,0.8986334998626262,686.08913019998,686.08913019998,686.08913019998,686.08913019998,686.08913019998,686.08913019998,686.3719645999372,687.4552705998067,687.4552705998067,687.4552705998067,687.4552705998067,687.4552705998067,687.4552705998067,687.438856799854,687.4552705998067,687.4552705998067,687.4552705998067,687.4552705998067,687.4552705998067,687.4552705998067,687.4552705998067,688.8199463998899,688.8199463998899,688.8199463998899,688.8199463998899,688.8199463998899,688.8199463998899,688.8199463998899,32,49,36,42,42,60,688.8199463998899,690.4042194997892,,,,,,,,,,,,,005,f,23,2023-05-13_15h00.55.392,RL,2022.2.5,60.237625370687745,
49,36,48,44,0,111,111,111,,,,,,,,,,,None,690.4042194997892,690.4042194997892,690.4042194997892,690.4042194997892,690.4042194997892,690.4042194997892,i,0.26788310008123517,690.7049236998428,690.7049236998428,690.7049236998428,690.7049236998428,690.7049236998428,690.7049236998428,691.0046002999879,691.9377856999636,691.9377856999636,691.9377856999636,691.9377856999636,691.9377856999636,691.9377856999636,691.9377856999636,691.9377856999636,691.9377856999636,691.9377856999636,691.9377856999636,691.9377856999636,691.9377856999636,691.9377856999636,693.1693408999126,693.1693408999126,693.1693408999126,693.1693408999126,693.1693408999126,693.1693408999126,693.1693408999126,44,48,36,49,36,60,693.1693408999126,694.9535981998779,,,,,,,,,,,,,005,f,23,2023-05-13_15h00.55.392,RL,2022.2.5,60.237625370687745,
47,33,55,36,0,112,112,112,,,,,,,,,,,None,694.9535981998779,694.9535981998779,694.9535981998779,694.9535981998779,694.9535981998779,694.9535981998779,None,,,,,,,,,,,,,,,,,,,,,,,,,,,,,,36,55,33,47,0,60,702.4681684998795,704.418635299895,,,,,,,,696.4548231998924,702.4681684998795,,,,005,f,23,2023-05-13_15h00.55.392,RL,2022.2.5,60.237625370687745,
47,33,52,31,0,113,113,113,,,,,,,,,,,None,704.418635299895,704.418635299895,704.418635299895,704.418635299895,704.418635299895,704.418635299895,j,0.31269910000264645,704.7561989999376,704.7561989999376,704.7561989999376,704.7561989999376,704.7561989999376,704.7561989999376,705.0362232998013,706.8356186999008,706.8356186999008,706.8356186999008,706.8356186999008,706.8356186999008,706.8356186999008,706.8184592998587,706.8356186999008,706.8356186999008,706.8356186999008,706.8356186999008,706.8356186999008,706.8356186999008,706.8356186999008,708.9164022998884,708.9164022998884,708.9164022998884,708.9164022998884,708.9164022998884,708.9164022998884,708.9164022998884,31,52,33,47,47,60,708.9164022998884,710.9178524999879,,,,,,,,,,,,,005,f,23,2023-05-13_15h00.55.392,RL,2022.2.5,60.237625370687745,
36,28,57,33,0,114,114,114,,,,,,,,,,,None,710.9178524999879,710.9178524999879,710.9178524999879,710.9178524999879,710.9178524999879,710.9178524999879,f,0.8597246999852359,711.8018464997876,711.8018464997876,711.8018464997876,711.8018464997876,711.8018464997876,711.8018464997876,712.1010668999515,713.8340048999526,713.8340048999526,713.8340048999526,713.8340048999526,713.8340048999526,713.8340048999526,713.8340048999526,713.8340048999526,713.8340048999526,713.8340048999526,713.8340048999526,713.8340048999526,713.8340048999526,713.8340048999526,715.8655073998962,715.8655073998962,715.8655073998962,715.8655073998962,715.8655073998962,715.8655073998962,715.8655073998962,33,57,28,36,33,60,715.8655073998962,717.6166862999089,,,,,,,,,,,,,005,f,23,2023-05-13_15h00.55.392,RL,2022.2.5,60.237625370687745,
45,25,45,23,0,115,115,115,,,,,,,,,,,None,717.6166862999089,717.6166862999089,717.6166862999089,717.6166862999089,717.6166862999089,717.6166862999089,r,0.3089618000667542,717.952832599869,717.952832599869,717.952832599869,717.952832599869,717.952832599869,717.952832599869,718.2499661999755,720.0999255999923,720.0999255999923,720.0999255999923,720.0999255999923,720.0999255999923,720.0999255999923,720.0999255999923,720.0999255999923,720.0999255999923,720.0999255999923,720.0999255999923,720.0999255999923,720.0999255999923,720.0999255999923,722.247643099865,722.247643099865,722.247643099865,722.247643099865,722.247643099865,722.247643099865,722.247643099865,23,45,25,45,45,60,722.247643099865,723.8989089999814,,,,,,,,,,,,,005,f,23,2023-05-13_15h00.55.392,RL,2022.2.5,60.237625370687745,
47,21,50,26,0,116,116,116,,,,,,,,,,,None,723.8989089999814,723.8989089999814,723.8989089999814,723.8989089999814,723.8989089999814,723.8989089999814,j,0.25906510022468865,724.1828161999583,724.1828161999583,724.1828161999583,724.1828161999583,724.1828161999583,724.1828161999583,724.4655298998114,725.6485588999931,725.6485588999931,725.6485588999931,725.6485588999931,725.6485588999931,725.6485588999931,725.6320504997857,725.6485588999931,725.6485588999931,725.6485588999931,725.6485588999931,725.6485588999931,725.6485588999931,725.6485588999931,727.1133121999446,727.1133121999446,727.1133121999446,727.1133121999446,727.1133121999446,727.1133121999446,727.1133121999446,26,50,21,47,47,60,727.1133121999446,728.8147169998847,,,,,,,,,,,,,005,f,23,2023-05-13_15h00.55.392,RL,2022.2.5,60.237625370687745,
46,24,48,23,0,117,117,117,,,,,,,,,,,None,728.8147169998847,728.8147169998847,728.8147169998847,728.8147169998847,728.8147169998847,728.8147169998847,i,0.53773929993622,729.3816255999263,729.3816255999263,729.3816255999263,729.3816255999263,729.3816255999263,729.3816255999263,729.6650062999688,731.4141935999505,731.4141935999505,731.4141935999505,731.4141935999505,731.4141935999505,731.4141935999505,731.3976213999558,731.4141935999505,731.4141935999505,731.4141935999505,731.4141935999505,731.4141935999505,731.4141935999505,731.4141935999505,733.4462615000084,733.4462615000084,733.4462615000084,733.4462615000084,733.4462615000084,733.4462615000084,733.4462615000084,23,48,24,46,24,60,733.4462615000084,735.1636566999368,,,,,,,,,,,,,005,f,23,2023-05-13_15h00.55.392,RL,2022.2.5,60.237625370687745,
41,31,55,25,0,118,118,118,,,,,,,,,,,None,735.1636566999368,735.1636566999368,735.1636566999368,735.1636566999368,735.1636566999368,735.1636566999368,j,0.3074864000082016,735.4994145999663,735.4994145999663,735.4994145999663,735.4994145999663,735.4994145999663,735.4994145999663,735.7808058999944,736.8301555998623,736.8301555998623,736.8301555998623,736.8301555998623,736.8301555998623,736.8301555998623,736.8138089999557,736.8301555998623,736.8301555998623,736.8301555998623,736.8301555998623,736.8301555998623,736.8301555998623,736.8301555998623,738.161497999914,738.161497999914,738.161497999914,738.161497999914,738.161497999914,738.161497999914,738.161497999914,25,55,31,41,41,60,738.161497999914,739.8957550998311,,,,,,,,,,,,,005,f,23,2023-05-13_15h00.55.392,RL,2022.2.5,60.237625370687745,
43,23,55,19,0,119,119,119,,,,,,,,,,,None,739.8957550998311,739.8957550998311,739.8957550998311,739.8957550998311,739.8957550998311,739.8957550998311,r,0.2682356000877917,740.19838419999,740.19838419999,740.19838419999,740.19838419999,740.19838419999,740.19838419999,740.4799372998532,741.6962142998818,741.6962142998818,741.6962142998818,741.6962142998818,741.6962142998818,741.6962142998818,741.6796237998642,741.6962142998818,741.6962142998818,741.6962142998818,741.6962142998818,741.6962142998818,741.6962142998818,741.6962142998818,743.1938503999263,743.1938503999263,743.1938503999263,743.1938503999263,743.1938503999263,743.1938503999263,743.1938503999263,19,55,23,43,55,60,743.1938503999263,744.9617794000078,,,,,,,,,,,,,005,f,23,2023-05-13_15h00.55.392,RL,2022.2.5,60.237625370687745,
51,26,52,23,0,120,120,120,,,,,,,,,,,None,744.9617794000078,744.9617794000078,744.9617794000078,744.9617794000078,744.9617794000078,744.9617794000078,r,0.3061480999458581,745.2963215999771,745.2963215999771,745.2963215999771,745.2963215999771,745.2963215999771,745.2963215999771,745.5952871998306,747.0285168997943,747.0285168997943,747.0285168997943,747.0285168997943,747.0285168997943,747.0285168997943,747.0285168997943,747.0285168997943,747.0285168997943,747.0285168997943,747.0285168997943,747.0285168997943,747.0285168997943,747.0285168997943,748.7601828000043,748.7601828000043,748.7601828000043,748.7601828000043,748.7601828000043,748.7601828000043,748.7601828000043,23,52,26,51,52,60,748.7601828000043,750.6109276998322,,,,,,,,,,,,,005,f,23,2023-05-13_15h00.55.392,RL,2022.2.5,60.237625370687745,
