arm1,arm2,arm3,arm4,trials.thisRepN,trials.thisTrialN,trials.thisN,trials.thisIndex,instru_img1.started,instru_resp.started,instru_resp.keys,instru_resp.rt,image_2.started,text_2.started,fixbefore_2.started,rest_response.keys,red.started,green.started,yellow.started,blue.started,choose_bandit.started,Fixation.started,choose_bandit.keys,choose_bandit.rt,black.started,red_2.started,green_2.started,yellow_2.started,blue_2.started,fixation_2.started,docs.started,black.stopped,red_2.stopped,green_2.stopped,yellow_2.stopped,blue_2.stopped,fixation_2.stopped,docs.stopped,black_com.started,reward_sub.started,reward__sub.started,red_compare.started,green_com.started,yellow_com.started,blue_com.started,black_com.stopped,reward_sub.stopped,reward__sub.stopped,red_compare.stopped,green_com.stopped,yellow_com.stopped,blue_com.stopped,rewardred,rewardyellow,rewardblue,rewardgreen,subchoose,expectation,intertrialfix.started,intertrialfix.stopped,rest_image.started,rest_response.started,rest_response.rt,image_expect_after.started,text_exp_after.started,image_expect_after.stopped,text_exp_after.stopped,red.stopped,green.stopped,yellow.stopped,blue.stopped,choose_bandit.stopped,Fixation.stopped,bigx.started,bigx.stopped,image.started,key_resp.started,key_resp.keys,participant,Gender,Age,date,expName,psychopyVersion,frameRate,
,,,,,,,,27.660996299935505,27.660996299935505,space,6.473899099975824,,,,,,,,,,,,,,,,,,,,,,,,,,,,,,,,,,,,,,,,,,,,,,,,,,,,,,,,,,,,,,,,,,,006,ｍ,２１,2023-05-13_15h49.41.587,RL,2022.2.5,59.98821833594402,
26,37,67,72,0,0,0,0,,,,,34.16680569993332,34.16680569993332,39.178001099964604,None,40.180867600021884,40.180867600021884,40.180867600021884,40.180867600021884,40.180867600021884,40.180867600021884,r,0.43721899995580316,40.65089510008693,40.65089510008693,40.65089510008693,40.65089510008693,40.65089510008693,40.65089510008693,40.94542029988952,42.62906070007011,42.62906070007011,42.62906070007011,42.62906070007011,42.62906070007011,42.62906070007011,42.62906070007011,42.62906070007011,42.62906070007011,42.62906070007011,42.62906070007011,42.62906070007011,42.62906070007011,42.62906070007011,44.65277500008233,44.65277500008233,44.65277500008233,44.65277500008233,44.65277500008233,44.65277500008233,44.65277500008233,26,67,72,37,67,70,44.65277500008233,46.294378499966115,,,,,,,,,,,,,,,,,,,006,ｍ,２１,2023-05-13_15h49.41.587,RL,2022.2.5,59.98821833594402,
22,55,69,70,0,1,1,1,,,,,,,,None,46.294378499966115,46.294378499966115,46.294378499966115,46.294378499966115,46.294378499966115,46.294378499966115,f,0.31069070007652044,46.630244199885055,46.630244199885055,46.630244199885055,46.630244199885055,46.630244199885055,46.630244199885055,46.91118360008113,47.94407150009647,47.94407150009647,47.94407150009647,47.94407150009647,47.94407150009647,47.94407150009647,47.91074729990214,47.94407150009647,47.94407150009647,47.94407150009647,47.94407150009647,47.94407150009647,47.94407150009647,47.94407150009647,49.242305600084364,49.242305600084364,49.242305600084364,49.242305600084364,49.242305600084364,49.242305600084364,49.242305600084364,22,69,70,55,22,70,49.242305600084364,50.77733219997026,,,,,,,,,,,,,,,,,,,006,ｍ,２１,2023-05-13_15h49.41.587,RL,2022.2.5,59.98821833594402,
17,53,69,69,0,2,2,2,,,,,,,,None,50.77733219997026,50.77733219997026,50.77733219997026,50.77733219997026,50.77733219997026,50.77733219997026,f,0.3784629001747817,51.17706159991212,51.17706159991212,51.17706159991212,51.17706159991212,51.17706159991212,51.17706159991212,51.46019249991514,52.709799899952486,52.709799899952486,52.709799899952486,52.709799899952486,52.709799899952486,52.709799899952486,52.69346829992719,52.709799899952486,52.709799899952486,52.709799899952486,52.709799899952486,52.709799899952486,52.709799899952486,52.709799899952486,54.24170139990747,54.24170139990747,54.24170139990747,54.24170139990747,54.24170139990747,54.24170139990747,54.24170139990747,17,69,69,53,17,70,54.24170139990747,55.75956919998862,,,,,,,,,,,,,,,,,,,006,ｍ,２１,2023-05-13_15h49.41.587,RL,2022.2.5,59.98821833594402,
32,37,76,72,0,3,3,3,,,,,,,,None,55.75956919998862,55.75956919998862,55.75956919998862,55.75956919998862,55.75956919998862,55.75956919998862,r,0.28719389997422695,56.07818010007031,56.07818010007031,56.07818010007031,56.07818010007031,56.07818010007031,56.07818010007031,56.359824399929494,57.52561010001227,57.52561010001227,57.52561010001227,57.52561010001227,57.52561010001227,57.52561010001227,57.492611499968916,57.52561010001227,57.52561010001227,57.52561010001227,57.52561010001227,57.52561010001227,57.52561010001227,57.52561010001227,58.957231499953195,58.957231499953195,58.957231499953195,58.957231499953195,58.957231499953195,58.957231499953195,58.957231499953195,32,76,72,37,76,70,58.957231499953195,60.55788159999065,,,,,,,,,,,,,,,,,,,006,ｍ,２１,2023-05-13_15h49.41.587,RL,2022.2.5,59.98821833594402,
30,50,65,65,0,4,4,4,,,,,,,,None,60.55788159999065,60.55788159999065,60.55788159999065,60.55788159999065,60.55788159999065,60.55788159999065,r,0.32320629991590977,60.90864060004242,60.90864060004242,60.90864060004242,60.90864060004242,60.90864060004242,60.90864060004242,61.20860280003399,62.64150830009021,62.64150830009021,62.64150830009021,62.64150830009021,62.64150830009021,62.64150830009021,62.64150830009021,62.64150830009021,62.64150830009021,62.64150830009021,62.64150830009021,62.64150830009021,62.64150830009021,62.64150830009021,64.37299340008758,64.37299340008758,64.37299340008758,64.37299340008758,64.37299340008758,64.37299340008758,64.37299340008758,30,65,65,50,65,70,64.37299340008758,66.14115939987823,,,,,,,,,,,,,,,,,,,006,ｍ,２１,2023-05-13_15h49.41.587,RL,2022.2.5,59.98821833594402,
26,49,62,61,0,5,5,5,,,,,,,,None,66.14115939987823,66.14115939987823,66.14115939987823,66.14115939987823,66.14115939987823,66.14115939987823,r,0.3046738998964429,66.47686560009606,66.47686560009606,66.47686560009606,66.47686560009606,66.47686560009606,66.47686560009606,66.77423109998927,68.57446569995955,68.57446569995955,68.57446569995955,68.57446569995955,68.57446569995955,68.57446569995955,68.57446569995955,68.57446569995955,68.57446569995955,68.57446569995955,68.57446569995955,68.57446569995955,68.57446569995955,68.57446569995955,70.67217030003667,70.67217030003667,70.67217030003667,70.67217030003667,70.67217030003667,70.67217030003667,70.67217030003667,26,62,61,49,62,70,70.67217030003667,72.22295639989898,,,,,,,,,,,,,,,,,,,006,ｍ,２１,2023-05-13_15h49.41.587,RL,2022.2.5,59.98821833594402,
18,44,62,52,0,6,6,6,,,,,,,,None,72.22295639989898,72.22295639989898,72.22295639989898,72.22295639989898,72.22295639989898,72.22295639989898,r,0.2600008000154048,72.50741610000841,72.50741610000841,72.50741610000841,72.50741610000841,72.50741610000841,72.50741610000841,72.8071709999349,74.12319609988481,74.12319609988481,74.12319609988481,74.12319609988481,74.12319609988481,74.12319609988481,74.12319609988481,74.12319609988481,74.12319609988481,74.12319609988481,74.12319609988481,74.12319609988481,74.12319609988481,74.12319609988481,75.73760419990867,75.73760419990867,75.73760419990867,75.73760419990867,75.73760419990867,75.73760419990867,75.73760419990867,18,62,52,44,62,70,75.73760419990867,77.28890779986978,,,,,,,,,,,,,,,,,,,006,ｍ,２１,2023-05-13_15h49.41.587,RL,2022.2.5,59.98821833594402,
23,57,71,63,0,7,7,7,,,,,,,,None,77.28890779986978,77.28890779986978,77.28890779986978,77.28890779986978,77.28890779986978,77.28890779986978,r,0.2544046000111848,77.57274010009132,77.57274010009132,77.57274010009132,77.57274010009132,77.57274010009132,77.57274010009132,77.85591679997742,78.90551239997149,78.90551239997149,78.90551239997149,78.90551239997149,78.90551239997149,78.90551239997149,78.8891187000554,78.90551239997149,78.90551239997149,78.90551239997149,78.90551239997149,78.90551239997149,78.90551239997149,78.90551239997149,80.2369544999674,80.2369544999674,80.2369544999674,80.2369544999674,80.2369544999674,80.2369544999674,80.2369544999674,23,71,63,57,71,70,80.2369544999674,81.77114590001293,,,,,,,,,,,,,,,,,,,006,ｍ,２１,2023-05-13_15h49.41.587,RL,2022.2.5,59.98821833594402,
26,61,78,62,0,8,8,8,,,,,,,,None,81.77114590001293,81.77114590001293,81.77114590001293,81.77114590001293,81.77114590001293,81.77114590001293,r,0.3141823001205921,82.10496170003898,82.10496170003898,82.10496170003898,82.10496170003898,82.10496170003898,82.10496170003898,82.38854059996083,83.38779420009814,83.38779420009814,83.38779420009814,83.38779420009814,83.38779420009814,83.38779420009814,83.37103169993497,83.38779420009814,83.38779420009814,83.38779420009814,83.38779420009814,83.38779420009814,83.38779420009814,83.38779420009814,84.66969270003028,84.66969270003028,84.66969270003028,84.66969270003028,84.66969270003028,84.66969270003028,84.66969270003028,26,78,62,61,78,70,84.66969270003028,86.50369179993868,,,,,,,,,,,,,,,,,,,006,ｍ,２１,2023-05-13_15h49.41.587,RL,2022.2.5,59.98821833594402,
28,53,68,59,0,9,9,9,,,,,,,,None,86.50369179993868,86.50369179993868,86.50369179993868,86.50369179993868,86.50369179993868,86.50369179993868,r,0.2825474999845028,86.80432430002838,86.80432430002838,86.80432430002838,86.80432430002838,86.80432430002838,86.80432430002838,87.08762730006129,88.03741850005463,88.03741850005463,88.03741850005463,88.03741850005463,88.03741850005463,88.03741850005463,88.02052429993637,88.03741850005463,88.03741850005463,88.03741850005463,88.03741850005463,88.03741850005463,88.03741850005463,88.03741850005463,89.26911729993299,89.26911729993299,89.26911729993299,89.26911729993299,89.26911729993299,89.26911729993299,89.26911729993299,28,68,59,53,68,70,89.26911729993299,90.85324289998971,,,,,,,,,,,,,,,,,,,006,ｍ,２１,2023-05-13_15h49.41.587,RL,2022.2.5,59.98821833594402,
22,53,68,62,0,10,10,10,,,,,,,,None,90.85324289998971,90.85324289998971,90.85324289998971,90.85324289998971,90.85324289998971,90.85324289998971,r,0.28709080000407994,91.17223959998228,91.17223959998228,91.17223959998228,91.17223959998228,91.17223959998228,91.17223959998228,91.45376849989407,92.40370439994149,92.40370439994149,92.40370439994149,92.40370439994149,92.40370439994149,92.40370439994149,92.37005969998427,92.40370439994149,92.40370439994149,92.40370439994149,92.40370439994149,92.40370439994149,92.40370439994149,92.40370439994149,93.61786410002969,93.61786410002969,93.61786410002969,93.61786410002969,93.61786410002969,93.61786410002969,93.61786410002969,22,68,62,53,68,70,93.61786410002969,95.26891370001249,,,,,,,,,,,,,,,,,,,006,ｍ,２１,2023-05-13_15h49.41.587,RL,2022.2.5,59.98821833594402,
21,54,63,61,0,11,11,11,,,,,,,,None,95.26891370001249,95.26891370001249,95.26891370001249,95.26891370001249,95.26891370001249,95.26891370001249,j,0.4016120999585837,95.7101805000566,95.7101805000566,95.7101805000566,95.7101805000566,95.7101805000566,95.7101805000566,96.00271899998188,97.9354262999259,97.9354262999259,97.9354262999259,97.9354262999259,97.9354262999259,97.9354262999259,97.9354262999259,97.9354262999259,97.9354262999259,97.9354262999259,97.9354262999259,97.9354262999259,97.9354262999259,97.9354262999259,100.16727370000444,100.16727370000444,100.16727370000444,100.16727370000444,100.16727370000444,100.16727370000444,100.16727370000444,21,63,61,54,54,70,100.16727370000444,101.8683456000872,,,,,,,,,,,,,,,,,,,006,ｍ,２１,2023-05-13_15h49.41.587,RL,2022.2.5,59.98821833594402,
24,54,60,54,0,12,12,12,,,,,,,,None,101.8683456000872,101.8683456000872,101.8683456000872,101.8683456000872,101.8683456000872,101.8683456000872,i,0.37422519992105663,102.26841349992901,102.26841349992901,102.26841349992901,102.26841349992901,102.26841349992901,102.26841349992901,102.55157230002806,103.93449999997392,103.93449999997392,103.93449999997392,103.93449999997392,103.93449999997392,103.93449999997392,103.91773230000399,103.93449999997392,103.93449999997392,103.93449999997392,103.93449999997392,103.93449999997392,103.93449999997392,103.93449999997392,105.59932100004517,105.59932100004517,105.59932100004517,105.59932100004517,105.59932100004517,105.59932100004517,105.59932100004517,24,60,54,54,54,70,105.59932100004517,107.3836729999166,,,,,,,,,,,,,,,,,,,006,ｍ,２１,2023-05-13_15h49.41.587,RL,2022.2.5,59.98821833594402,
34,63,67,52,0,13,13,13,,,,,,,,None,107.3836729999166,107.3836729999166,107.3836729999166,107.3836729999166,107.3836729999166,107.3836729999166,r,0.268241599900648,107.69398560002446,107.69398560002446,107.69398560002446,107.69398560002446,107.69398560002446,107.69398560002446,107.96704680006951,109.200231899973,109.200231899973,109.200231899973,109.200231899973,109.200231899973,109.200231899973,109.16706910007633,109.200231899973,109.200231899973,109.200231899973,109.200231899973,109.200231899973,109.200231899973,109.200231899973,110.69862849987112,110.69862849987112,110.69862849987112,110.69862849987112,110.69862849987112,110.69862849987112,110.69862849987112,34,67,52,63,67,70,110.69862849987112,112.49916210002266,,,,,,,,,,,,,,,,,,,006,ｍ,２１,2023-05-13_15h49.41.587,RL,2022.2.5,59.98821833594402,
27,64,65,63,0,14,14,14,,,,,,,,None,112.49916210002266,112.49916210002266,112.49916210002266,112.49916210002266,112.49916210002266,112.49916210002266,i,0.33780320012010634,112.86896790005267,112.86896790005267,112.86896790005267,112.86896790005267,112.86896790005267,112.86896790005267,113.14976250007749,114.58237369987182,114.58237369987182,114.58237369987182,114.58237369987182,114.58237369987182,114.58237369987182,114.56597890006378,114.58237369987182,114.58237369987182,114.58237369987182,114.58237369987182,114.58237369987182,114.58237369987182,114.58237369987182,116.29747390002012,116.29747390002012,116.29747390002012,116.29747390002012,116.29747390002012,116.29747390002012,116.29747390002012,27,65,63,64,63,70,116.29747390002012,117.8154583000578,,,,,,,,,,,,,,,,,,,006,ｍ,２１,2023-05-13_15h49.41.587,RL,2022.2.5,59.98821833594402,
19,60,69,57,0,15,15,15,,,,,,,,None,117.8154583000578,117.8154583000578,117.8154583000578,117.8154583000578,117.8154583000578,117.8154583000578,j,0.34069039998576045,118.18238899996504,118.18238899996504,118.18238899996504,118.18238899996504,118.18238899996504,118.18238899996504,118.46509200008586,119.74819099996239,119.74819099996239,119.74819099996239,119.74819099996239,119.74819099996239,119.74819099996239,119.73236760008149,119.74819099996239,119.74819099996239,119.74819099996239,119.74819099996239,119.74819099996239,119.74819099996239,119.74819099996239,121.31362670008093,121.31362670008093,121.31362670008093,121.31362670008093,121.31362670008093,121.31362670008093,121.31362670008093,19,69,57,60,60,70,121.31362670008093,122.98059309995733,,,,,,,,,,,,,,,,,,,006,ｍ,２１,2023-05-13_15h49.41.587,RL,2022.2.5,59.98821833594402,
18,48,74,56,0,16,16,16,,,,,,,,None,122.98059309995733,122.98059309995733,122.98059309995733,122.98059309995733,122.98059309995733,122.98059309995733,j,0.3086082001682371,123.31463459995575,123.31463459995575,123.31463459995575,123.31463459995575,123.31463459995575,123.31463459995575,123.59813659987412,125.4308493998833,125.4308493998833,125.4308493998833,125.4308493998833,125.4308493998833,125.4308493998833,125.41468339995481,125.4308493998833,125.4308493998833,125.4308493998833,125.4308493998833,125.4308493998833,125.4308493998833,125.4308493998833,127.54574309987947,127.54574309987947,127.54574309987947,127.54574309987947,127.54574309987947,127.54574309987947,127.54574309987947,18,74,56,48,48,70,127.54574309987947,129.51294740010053,,,,,,,,,,,,,,,,,,,006,ｍ,２１,2023-05-13_15h49.41.587,RL,2022.2.5,59.98821833594402,
25,59,70,53,0,17,17,17,,,,,,,,None,129.51294740010053,129.51294740010053,129.51294740010053,129.51294740010053,129.51294740010053,129.51294740010053,r,0.2925740999635309,129.83100129989907,129.83100129989907,129.83100129989907,129.83100129989907,129.83100129989907,129.83100129989907,130.11366300005466,131.06320269987918,131.06320269987918,131.06320269987918,131.06320269987918,131.06320269987918,131.06320269987918,131.04691529995762,131.06320269987918,131.06320269987918,131.06320269987918,131.06320269987918,131.06320269987918,131.06320269987918,131.06320269987918,132.29443929996341,132.29443929996341,132.29443929996341,132.29443929996341,132.29443929996341,132.29443929996341,132.29443929996341,25,70,53,59,70,70,132.29443929996341,133.9794908000622,,,,,,,,,,,,,,,,,,,006,ｍ,２１,2023-05-13_15h49.41.587,RL,2022.2.5,59.98821833594402,
18,55,73,58,0,18,18,18,,,,,,,,None,133.9794908000622,133.9794908000622,133.9794908000622,133.9794908000622,133.9794908000622,133.9794908000622,f,0.32510720007121563,134.3306058999151,134.3306058999151,134.3306058999151,134.3306058999151,134.3306058999151,134.3306058999151,134.62944869999774,136.02871689992025,136.02871689992025,136.02871689992025,136.02871689992025,136.02871689992025,136.02871689992025,136.02871689992025,136.02871689992025,136.02871689992025,136.02871689992025,136.02871689992025,136.02871689992025,136.02871689992025,136.02871689992025,137.7273466999177,137.7273466999177,137.7273466999177,137.7273466999177,137.7273466999177,137.7273466999177,137.7273466999177,18,73,58,55,18,70,137.7273466999177,139.42820099997334,,,,,,,,,,,,,,,,,,,006,ｍ,２１,2023-05-13_15h49.41.587,RL,2022.2.5,59.98821833594402,
15,61,73,53,0,19,19,19,,,,,,,,None,139.42820099997334,139.42820099997334,139.42820099997334,139.42820099997334,139.42820099997334,139.42820099997334,r,0.385708199813962,139.8517060999293,139.8517060999293,139.8517060999293,139.8517060999293,139.8517060999293,139.8517060999293,140.14492049999535,141.9285146999173,141.9285146999173,141.9285146999173,141.9285146999173,141.9285146999173,141.9285146999173,141.9118701000698,141.9285146999173,141.9285146999173,141.9285146999173,141.9285146999173,141.9285146999173,141.9285146999173,141.9285146999173,143.9928176999092,143.9928176999092,143.9928176999092,143.9928176999092,143.9928176999092,143.9928176999092,143.9928176999092,15,73,53,61,73,70,143.9928176999092,145.9606675999239,,,,,,,,,,,,,,,,,,,006,ｍ,２１,2023-05-13_15h49.41.587,RL,2022.2.5,59.98821833594402,
14,57,69,49,0,20,20,20,,,,,,,,None,145.9606675999239,145.9606675999239,145.9606675999239,145.9606675999239,145.9606675999239,145.9606675999239,r,0.324232499813661,146.31160419993103,146.31160419993103,146.31160419993103,146.31160419993103,146.31160419993103,146.31160419993103,146.5939257000573,147.95981510006823,147.95981510006823,147.95981510006823,147.95981510006823,147.95981510006823,147.95981510006823,147.94389809994027,147.95981510006823,147.95981510006823,147.95981510006823,147.95981510006823,147.95981510006823,147.95981510006823,147.95981510006823,149.60831829998642,149.60831829998642,149.60831829998642,149.60831829998642,149.60831829998642,149.60831829998642,149.60831829998642,14,69,49,57,69,70,149.60831829998642,151.59268769994378,,,,,,,,,,,,,,,,,,,006,ｍ,２１,2023-05-13_15h49.41.587,RL,2022.2.5,59.98821833594402,
17,60,71,43,0,21,21,21,,,,,,,,None,151.59268769994378,151.59268769994378,151.59268769994378,151.59268769994378,151.59268769994378,151.59268769994378,r,0.41914460016414523,152.05144959990866,152.05144959990866,152.05144959990866,152.05144959990866,152.05144959990866,152.05144959990866,152.32638249988668,153.84255299996585,153.84255299996585,153.84255299996585,153.84255299996585,153.84255299996585,153.84255299996585,153.80959479999729,153.84255299996585,153.84255299996585,153.84255299996585,153.84255299996585,153.84255299996585,153.84255299996585,153.84255299996585,155.62378160003573,155.62378160003573,155.62378160003573,155.62378160003573,155.62378160003573,155.62378160003573,155.62378160003573,17,71,43,60,71,70,155.62378160003573,157.44130699988455,,,,,,,,,,,,,,,,,,,006,ｍ,２１,2023-05-13_15h49.41.587,RL,2022.2.5,59.98821833594402,
18,52,69,52,0,22,22,22,,,,,,,,None,157.44130699988455,157.44130699988455,157.44130699988455,157.44130699988455,157.44130699988455,157.44130699988455,r,0.6229258000385016,158.09233730006963,158.09233730006963,158.09233730006963,158.09233730006963,158.09233730006963,158.09233730006963,158.3755723000504,160.0248396000825,160.0248396000825,160.0248396000825,160.0248396000825,160.0248396000825,160.0248396000825,160.00792509992607,160.0248396000825,160.0248396000825,160.0248396000825,160.0248396000825,160.0248396000825,160.0248396000825,160.0248396000825,161.95673179998994,161.95673179998994,161.95673179998994,161.95673179998994,161.95673179998994,161.95673179998994,161.95673179998994,18,69,52,52,69,70,161.95673179998994,163.4902675000485,,,,,,,,,,,,,,,,,,,006,ｍ,２１,2023-05-13_15h49.41.587,RL,2022.2.5,59.98821833594402,
28,53,75,64,0,23,23,23,,,,,,,,None,163.4902675000485,163.4902675000485,163.4902675000485,163.4902675000485,163.4902675000485,163.4902675000485,r,0.3247535000555217,163.842659200076,163.842659200076,163.842659200076,163.842659200076,163.842659200076,163.842659200076,164.12425170000643,165.82383050001226,165.82383050001226,165.82383050001226,165.82383050001226,165.82383050001226,165.82383050001226,165.80715920007788,165.82383050001226,165.82383050001226,165.82383050001226,165.82383050001226,165.82383050001226,165.82383050001226,165.82383050001226,167.8052662999835,167.8052662999835,167.8052662999835,167.8052662999835,167.8052662999835,167.8052662999835,167.8052662999835,28,75,64,53,75,70,167.8052662999835,169.63930659997277,,,,,,,,,,,,,,,,,,,006,ｍ,２１,2023-05-13_15h49.41.587,RL,2022.2.5,59.98821833594402,
23,65,82,60,0,24,24,24,,,,,,,,None,169.63930659997277,169.63930659997277,169.63930659997277,169.63930659997277,169.63930659997277,169.63930659997277,r,0.38346770009957254,170.06051980005577,170.06051980005577,170.06051980005577,170.06051980005577,170.06051980005577,170.06051980005577,170.33955690008588,171.87258800002746,171.87258800002746,171.87258800002746,171.87258800002746,171.87258800002746,171.87258800002746,171.85596009995788,171.87258800002746,171.87258800002746,171.87258800002746,171.87258800002746,171.87258800002746,171.87258800002746,171.87258800002746,173.68712979997508,173.68712979997508,173.68712979997508,173.68712979997508,173.68712979997508,173.68712979997508,173.68712979997508,23,82,60,65,82,70,173.68712979997508,175.65509600006044,,,,,,,,,,,,,,,,,,,006,ｍ,２１,2023-05-13_15h49.41.587,RL,2022.2.5,59.98821833594402,
17,60,82,50,0,25,25,25,,,,,,,,None,175.65509600006044,175.65509600006044,175.65509600006044,175.65509600006044,175.65509600006044,175.65509600006044,r,0.3127457001246512,175.98951969994232,175.98951969994232,175.98951969994232,175.98951969994232,175.98951969994232,175.98951969994232,176.27201769989915,178.22154689999297,178.22154689999297,178.22154689999297,178.22154689999297,178.22154689999297,178.22154689999297,178.20503589999862,178.22154689999297,178.22154689999297,178.22154689999297,178.22154689999297,178.22154689999297,178.22154689999297,178.22154689999297,180.45308550004847,180.45308550004847,180.45308550004847,180.45308550004847,180.45308550004847,180.45308550004847,180.45308550004847,17,82,50,60,82,70,180.45308550004847,182.40446049999446,,,,,,,,,,,,,,,,,,,006,ｍ,２１,2023-05-13_15h49.41.587,RL,2022.2.5,59.98821833594402,
19,67,78,49,0,26,26,26,,,,,,,,None,182.40446049999446,182.40446049999446,182.40446049999446,182.40446049999446,182.40446049999446,182.40446049999446,r,0.37963299988768995,182.80462890001945,182.80462890001945,182.80462890001945,182.80462890001945,182.80462890001945,182.80462890001945,183.0876056998968,184.3536960000638,184.3536960000638,184.3536960000638,184.3536960000638,184.3536960000638,184.3536960000638,184.33700799988583,184.3536960000638,184.3536960000638,184.3536960000638,184.3536960000638,184.3536960000638,184.3536960000638,184.3536960000638,185.902214899892,185.902214899892,185.902214899892,185.902214899892,185.902214899892,185.902214899892,185.902214899892,19,78,49,67,78,70,185.902214899892,187.7033341000788,,,,,,,,,,,,,,,,,,,006,ｍ,２１,2023-05-13_15h49.41.587,RL,2022.2.5,59.98821833594402,
19,59,68,54,0,27,27,27,,,,,,,,None,187.7033341000788,187.7033341000788,187.7033341000788,187.7033341000788,187.7033341000788,187.7033341000788,r,0.3156239001546055,188.0379703999497,188.0379703999497,188.0379703999497,188.0379703999497,188.0379703999497,188.0379703999497,188.31979149999097,189.65302239987068,189.65302239987068,189.65302239987068,189.65302239987068,189.65302239987068,189.65302239987068,189.63653469993733,189.65302239987068,189.65302239987068,189.65302239987068,189.65302239987068,189.65302239987068,189.65302239987068,189.65302239987068,191.2679041000083,191.2679041000083,191.2679041000083,191.2679041000083,191.2679041000083,191.2679041000083,191.2679041000083,19,68,54,59,68,70,191.2679041000083,193.10226000007242,,,,,,,,,,,,,,,,,,,006,ｍ,２１,2023-05-13_15h49.41.587,RL,2022.2.5,59.98821833594402,
16,56,79,49,0,28,28,28,,,,,,,,None,193.10226000007242,193.10226000007242,193.10226000007242,193.10226000007242,193.10226000007242,193.10226000007242,r,0.37370259989984334,193.5056026999373,193.5056026999373,193.5056026999373,193.5056026999373,193.5056026999373,193.5056026999373,193.80209750006907,195.2524679999333,195.2524679999333,195.2524679999333,195.2524679999333,195.2524679999333,195.2524679999333,195.23557269992307,195.2524679999333,195.2524679999333,195.2524679999333,195.2524679999333,195.2524679999333,195.2524679999333,195.2524679999333,196.98361489991657,196.98361489991657,196.98361489991657,196.98361489991657,196.98361489991657,196.98361489991657,196.98361489991657,16,79,49,56,79,70,196.98361489991657,198.58457419998012,,,,,,,,,,,,,,,,,,,006,ｍ,２１,2023-05-13_15h49.41.587,RL,2022.2.5,59.98821833594402,
27,64,73,44,0,29,29,29,,,,,,,,None,198.58457419998012,198.58457419998012,198.58457419998012,198.58457419998012,198.58457419998012,198.58457419998012,r,0.37889509997330606,198.9857300000731,198.9857300000731,198.9857300000731,198.9857300000731,198.9857300000731,198.9857300000731,199.28464980004355,200.80122460005805,200.80122460005805,200.80122460005805,200.80122460005805,200.80122460005805,200.80122460005805,200.80122460005805,200.80122460005805,200.80122460005805,200.80122460005805,200.80122460005805,200.80122460005805,200.80122460005805,200.80122460005805,202.61586380004883,202.61586380004883,202.61586380004883,202.61586380004883,202.61586380004883,202.61586380004883,202.61586380004883,27,73,44,64,73,70,202.61586380004883,204.48383999988437,,,,,,,,,,,,,,,,,,,006,ｍ,２１,2023-05-13_15h49.41.587,RL,2022.2.5,59.98821833594402,
17,60,82,54,0,30,30,30,,,,,,,,None,204.48383999988437,204.48383999988437,204.48383999988437,204.48383999988437,204.48383999988437,204.48383999988437,r,0.3850535999517888,204.906610700069,204.906610700069,204.906610700069,204.906610700069,204.906610700069,204.906610700069,205.18398849992082,206.45041789999232,206.45041789999232,206.45041789999232,206.45041789999232,206.45041789999232,206.45041789999232,206.4333846999798,206.45041789999232,206.45041789999232,206.45041789999232,206.45041789999232,206.45041789999232,206.45041789999232,206.45041789999232,207.99817149993032,207.99817149993032,207.99817149993032,207.99817149993032,207.99817149993032,207.99817149993032,207.99817149993032,17,82,54,60,82,70,207.99817149993032,209.7656668999698,,,,,,,,,,,,,,,,,,,006,ｍ,２１,2023-05-13_15h49.41.587,RL,2022.2.5,59.98821833594402,
28,60,81,43,0,31,31,31,,,,,,,,None,209.7656668999698,209.7656668999698,209.7656668999698,209.7656668999698,209.7656668999698,209.7656668999698,r,0.4178661999758333,210.23181729996577,210.23181729996577,210.23181729996577,210.23181729996577,210.23181729996577,210.23181729996577,210.516265100101,211.54915590002201,211.54915590002201,211.54915590002201,211.54915590002201,211.54915590002201,211.54915590002201,211.5325909999665,211.54915590002201,211.54915590002201,211.54915590002201,211.54915590002201,211.54915590002201,211.54915590002201,211.54915590002201,212.86391120008193,212.86391120008193,212.86391120008193,212.86391120008193,212.86391120008193,212.86391120008193,212.86391120008193,28,81,43,60,81,70,212.86391120008193,214.71529329987243,,,,,,,,,,,,,,,,,,,006,ｍ,２１,2023-05-13_15h49.41.587,RL,2022.2.5,59.98821833594402,
23,69,76,42,0,32,32,32,,,,,,,,None,214.71529329987243,214.71529329987243,214.71529329987243,214.71529329987243,214.71529329987243,214.71529329987243,f,0.4219102000351995,215.1659776000306,215.1659776000306,215.1659776000306,215.1659776000306,215.1659776000306,215.1659776000306,215.46507570007816,216.69869029987603,216.69869029987603,216.69869029987603,216.69869029987603,216.69869029987603,216.69869029987603,216.69869029987603,216.69869029987603,216.69869029987603,216.69869029987603,216.69869029987603,216.69869029987603,216.69869029987603,216.69869029987603,218.22972430009395,218.22972430009395,218.22972430009395,218.22972430009395,218.22972430009395,218.22972430009395,218.22972430009395,23,76,42,69,23,70,218.22972430009395,219.9977853000164,,,,,,,,,,,,,,,,,,,006,ｍ,２１,2023-05-13_15h49.41.587,RL,2022.2.5,59.98821833594402,
30,66,85,32,0,33,33,33,,,,,,,,None,219.9977853000164,219.9977853000164,219.9977853000164,219.9977853000164,219.9977853000164,219.9977853000164,r,0.2727135999593884,220.30015260004438,220.30015260004438,220.30015260004438,220.30015260004438,220.30015260004438,220.30015260004438,220.5983873999212,222.46383629995398,222.46383629995398,222.46383629995398,222.46383629995398,222.46383629995398,222.46383629995398,222.46383629995398,222.46383629995398,222.46383629995398,222.46383629995398,222.46383629995398,222.46383629995398,222.46383629995398,222.46383629995398,224.62833179999143,224.62833179999143,224.62833179999143,224.62833179999143,224.62833179999143,224.62833179999143,224.62833179999143,30,85,32,66,85,70,224.62833179999143,226.52981620002538,,,,,,,,,,,,,,,,,,,006,ｍ,２１,2023-05-13_15h49.41.587,RL,2022.2.5,59.98821833594402,
30,68,83,35,0,34,34,34,,,,,,,,None,226.52981620002538,226.52981620002538,226.52981620002538,226.52981620002538,226.52981620002538,226.52981620002538,r,0.32301670010201633,226.88116270001046,226.88116270001046,226.88116270001046,226.88116270001046,226.88116270001046,226.88116270001046,227.17971249995753,228.86287549999543,228.86287549999543,228.86287549999543,228.86287549999543,228.86287549999543,228.86287549999543,228.86287549999543,228.86287549999543,228.86287549999543,228.86287549999543,228.86287549999543,228.86287549999543,228.86287549999543,228.86287549999543,230.84441230003722,230.84441230003722,230.84441230003722,230.84441230003722,230.84441230003722,230.84441230003722,230.84441230003722,30,83,35,68,83,70,230.84441230003722,232.37872430006973,,,,,,,,,,,,,,,,,,,006,ｍ,２１,2023-05-13_15h49.41.587,RL,2022.2.5,59.98821833594402,
34,61,83,43,0,35,35,35,,,,,,,,None,232.37872430006973,232.37872430006973,232.37872430006973,232.37872430006973,232.37872430006973,232.37872430006973,r,0.28520090016536415,232.700337999966,232.700337999966,232.700337999966,232.700337999966,232.700337999966,232.700337999966,232.97852450003847,233.8620986000169,233.8620986000169,233.8620986000169,233.8620986000169,233.8620986000169,233.8620986000169,233.82877109991387,233.8620986000169,233.8620986000169,233.8620986000169,233.8620986000169,233.8620986000169,233.8620986000169,233.8620986000169,235.0269998998847,235.0269998998847,235.0269998998847,235.0269998998847,235.0269998998847,235.0269998998847,235.0269998998847,34,83,43,61,83,70,235.0269998998847,236.6279931999743,,,,,,,,,,,,,,,,,,,006,ｍ,２１,2023-05-13_15h49.41.587,RL,2022.2.5,59.98821833594402,
22,58,88,41,0,36,36,36,,,,,,,,None,236.6279931999743,236.6279931999743,236.6279931999743,236.6279931999743,236.6279931999743,236.6279931999743,r,0.43808559980243444,237.09482340002432,237.09482340002432,237.09482340002432,237.09482340002432,237.09482340002432,237.09482340002432,237.37845310010016,238.3445530999452,238.3445530999452,238.3445530999452,238.3445530999452,238.3445530999452,238.3445530999452,238.32810909999534,238.3445530999452,238.3445530999452,238.3445530999452,238.3445530999452,238.3445530999452,238.3445530999452,238.3445530999452,239.59297959995456,239.59297959995456,239.59297959995456,239.59297959995456,239.59297959995456,239.59297959995456,239.59297959995456,22,88,41,58,88,70,239.59297959995456,241.56073880009353,,,,,,,,,,,,,,,,,,,006,ｍ,２１,2023-05-13_15h49.41.587,RL,2022.2.5,59.98821833594402,
34,58,83,32,0,37,37,37,,,,,,,,None,241.56073880009353,241.56073880009353,241.56073880009353,241.56073880009353,241.56073880009353,241.56073880009353,r,0.3864686000160873,241.97860600007698,241.97860600007698,241.97860600007698,241.97860600007698,241.97860600007698,241.97860600007698,242.2774396999739,243.16036490001716,243.16036490001716,243.16036490001716,243.16036490001716,243.16036490001716,243.16036490001716,243.1438124999404,243.16036490001716,243.16036490001716,243.16036490001716,243.16036490001716,243.16036490001716,243.16036490001716,243.16036490001716,244.32517659990117,244.32517659990117,244.32517659990117,244.32517659990117,244.32517659990117,244.32517659990117,244.32517659990117,34,83,32,58,83,70,244.32517659990117,246.1598467999138,,,,,,,,,,,,,,,,,,,006,ｍ,２１,2023-05-13_15h49.41.587,RL,2022.2.5,59.98821833594402,
37,53,78,42,0,38,38,38,,,,,,,,None,246.1598467999138,246.1598467999138,246.1598467999138,246.1598467999138,246.1598467999138,246.1598467999138,r,0.33411110006272793,246.5330209999811,246.5330209999811,246.5330209999811,246.5330209999811,246.5330209999811,246.5330209999811,246.81009300006554,248.42594949994236,248.42594949994236,248.42594949994236,248.42594949994236,248.42594949994236,248.42594949994236,248.40966810006648,248.42594949994236,248.42594949994236,248.42594949994236,248.42594949994236,248.42594949994236,248.42594949994236,248.42594949994236,250.32399639999494,250.32399639999494,250.32399639999494,250.32399639999494,250.32399639999494,250.32399639999494,250.32399639999494,37,78,42,53,78,70,250.32399639999494,252.20861810003407,,,,,,,,,,,,,,,,,,,006,ｍ,２１,2023-05-13_15h49.41.587,RL,2022.2.5,59.98821833594402,
37,52,83,32,0,39,39,39,,,,,,,,None,252.20861810003407,252.20861810003407,252.20861810003407,252.20861810003407,252.20861810003407,252.20861810003407,r,0.3181634999345988,252.56651100004092,252.56651100004092,252.56651100004092,252.56651100004092,252.56651100004092,252.56651100004092,252.84256509994157,254.47486369987018,254.47486369987018,254.47486369987018,254.47486369987018,254.47486369987018,254.47486369987018,254.45850949990563,254.47486369987018,254.47486369987018,254.47486369987018,254.47486369987018,254.47486369987018,254.47486369987018,254.47486369987018,256.38990089995787,256.38990089995787,256.38990089995787,256.38990089995787,256.38990089995787,256.38990089995787,256.38990089995787,37,83,32,52,83,70,256.38990089995787,258.22418210003525,,,,,,,,,,,,,,,,,,,006,ｍ,２１,2023-05-13_15h49.41.587,RL,2022.2.5,59.98821833594402,
34,58,86,42,0,40,40,40,,,,,,,,None,258.22418210003525,258.22418210003525,258.22418210003525,258.22418210003525,258.22418210003525,258.22418210003525,r,0.32011420000344515,258.57447450002655,258.57447450002655,258.57447450002655,258.57447450002655,258.57447450002655,258.57447450002655,258.87425450002775,260.6241339999251,260.6241339999251,260.6241339999251,260.6241339999251,260.6241339999251,260.6241339999251,260.60746160009876,260.6241339999251,260.6241339999251,260.6241339999251,260.6241339999251,260.6241339999251,260.6241339999251,260.6241339999251,262.6553622998763,262.6553622998763,262.6553622998763,262.6553622998763,262.6553622998763,262.6553622998763,262.6553622998763,34,86,42,58,86,70,262.6553622998763,264.65606869990006,,,,,,,,,,,,,,,,,,,006,ｍ,２１,2023-05-13_15h49.41.587,RL,2022.2.5,59.98821833594402,
32,53,83,42,0,41,41,41,,,,,,,,None,264.65606869990006,264.65606869990006,264.65606869990006,264.65606869990006,264.65606869990006,264.65606869990006,r,0.2591664001811296,264.94003619998693,264.94003619998693,264.94003619998693,264.94003619998693,264.94003619998693,264.94003619998693,265.22335699992254,266.22286990005523,266.22286990005523,266.22286990005523,266.22286990005523,266.22286990005523,266.22286990005523,266.20649580005556,266.22286990005523,266.22286990005523,266.22286990005523,266.22286990005523,266.22286990005523,266.22286990005523,266.22286990005523,267.50452469987795,267.50452469987795,267.50452469987795,267.50452469987795,267.50452469987795,267.50452469987795,267.50452469987795,32,83,42,53,83,70,267.50452469987795,269.1059596000705,,,,,,,,,,,,,,,,,,,006,ｍ,２１,2023-05-13_15h49.41.587,RL,2022.2.5,59.98821833594402,
29,55,79,29,0,42,42,42,,,,,,,,None,269.1059596000705,269.1059596000705,269.1059596000705,269.1059596000705,269.1059596000705,269.1059596000705,i,0.39734569983556867,269.5226863999851,269.5226863999851,269.5226863999851,269.5226863999851,269.5226863999851,269.5226863999851,269.80612659989856,270.8556329999119,270.8556329999119,270.8556329999119,270.8556329999119,270.8556329999119,270.8556329999119,270.8391408000607,270.8556329999119,270.8556329999119,270.8556329999119,270.8556329999119,270.8556329999119,270.8556329999119,270.8556329999119,272.18712179991417,272.18712179991417,272.18712179991417,272.18712179991417,272.18712179991417,272.18712179991417,272.18712179991417,29,79,29,55,29,70,272.18712179991417,273.8049631000031,,,,,,,,,,,,,,,,,,,006,ｍ,２１,2023-05-13_15h49.41.587,RL,2022.2.5,59.98821833594402,
31,53,79,25,0,43,43,43,,,,,,,,None,273.8049631000031,273.8049631000031,273.8049631000031,273.8049631000031,273.8049631000031,273.8049631000031,r,0.3125117998570204,274.13915330008604,274.13915330008604,274.13915330008604,274.13915330008604,274.13915330008604,274.13915330008604,274.4219076000154,275.5547116000671,275.5547116000671,275.5547116000671,275.5547116000671,275.5547116000671,275.5547116000671,275.53851670003496,275.5547116000671,275.5547116000671,275.5547116000671,275.5547116000671,275.5547116000671,275.5547116000671,275.5547116000671,276.9693493999075,276.9693493999075,276.9693493999075,276.9693493999075,276.9693493999075,276.9693493999075,276.9693493999075,31,79,25,53,79,70,276.9693493999075,278.9041019999422,,,,,,,,,,,,,,,,,,,006,ｍ,２１,2023-05-13_15h49.41.587,RL,2022.2.5,59.98821833594402,
32,53,73,33,0,44,44,44,,,,,,,,None,278.9041019999422,278.9041019999422,278.9041019999422,278.9041019999422,278.9041019999422,278.9041019999422,f,0.4046528998296708,279.3383406000212,279.3383406000212,279.3383406000212,279.3383406000212,279.3383406000212,279.3383406000212,279.6207874000538,281.503940399969,281.503940399969,281.503940399969,281.503940399969,281.503940399969,281.503940399969,281.4873029999435,281.503940399969,281.503940399969,281.503940399969,281.503940399969,281.503940399969,281.503940399969,281.503940399969,283.6684737999458,283.6684737999458,283.6684737999458,283.6684737999458,283.6684737999458,283.6684737999458,283.6684737999458,32,73,33,53,32,70,283.6684737999458,285.3692350999918,,,,,,,,,,,,,,,,,,,006,ｍ,２１,2023-05-13_15h49.41.587,RL,2022.2.5,59.98821833594402,
34,53,76,33,0,45,45,45,,,,,,,,None,285.3692350999918,285.3692350999918,285.3692350999918,285.3692350999918,285.3692350999918,285.3692350999918,j,0.35629739984869957,285.75313750002533,285.75313750002533,285.75313750002533,285.75313750002533,285.75313750002533,285.75313750002533,286.03665519994684,287.186025199946,287.186025199946,287.186025199946,287.186025199946,287.186025199946,287.186025199946,287.1691057998687,287.186025199946,287.186025199946,287.186025199946,287.186025199946,287.186025199946,287.186025199946,287.186025199946,288.61717469990253,288.61717469990253,288.61717469990253,288.61717469990253,288.61717469990253,288.61717469990253,288.61717469990253,34,76,33,53,53,70,288.61717469990253,290.2018228000961,,,,,,,,,,,,,,,,,,,006,ｍ,２１,2023-05-13_15h49.41.587,RL,2022.2.5,59.98821833594402,
38,54,77,25,0,46,46,46,,,,,,,,None,290.2018228000961,290.2018228000961,290.2018228000961,290.2018228000961,290.2018228000961,290.2018228000961,r,0.3133014999330044,290.5365176999476,290.5365176999476,290.5365176999476,290.5365176999476,290.5365176999476,290.5365176999476,290.8357943999581,291.95194689999335,291.95194689999335,291.95194689999335,291.95194689999335,291.95194689999335,291.95194689999335,291.95194689999335,291.95194689999335,291.95194689999335,291.95194689999335,291.95194689999335,291.95194689999335,291.95194689999335,291.95194689999335,293.36652139993384,293.36652139993384,293.36652139993384,293.36652139993384,293.36652139993384,293.36652139993384,293.36652139993384,38,77,25,54,77,70,293.36652139993384,295.21758639998734,,,,,,,,,,,,,,,,,,,006,ｍ,２１,2023-05-13_15h49.41.587,RL,2022.2.5,59.98821833594402,
31,57,74,35,0,47,47,47,,,,,,,,None,295.21758639998734,295.21758639998734,295.21758639998734,295.21758639998734,295.21758639998734,295.21758639998734,r,0.34144009998999536,295.58601400000043,295.58601400000043,295.58601400000043,295.58601400000043,295.58601400000043,295.58601400000043,295.86814550007693,297.550873799948,297.550873799948,297.550873799948,297.550873799948,297.550873799948,297.550873799948,297.5343921999447,297.550873799948,297.550873799948,297.550873799948,297.550873799948,297.550873799948,297.550873799948,297.550873799948,299.49919079989195,299.49919079989195,299.49919079989195,299.49919079989195,299.49919079989195,299.49919079989195,299.49919079989195,31,74,35,57,74,70,299.49919079989195,301.1835350000765,,,,,,,,,,,,,,,,,,,006,ｍ,２１,2023-05-13_15h49.41.587,RL,2022.2.5,59.98821833594402,
23,49,73,28,0,48,48,48,,,,,,,,None,301.1835350000765,301.1835350000765,301.1835350000765,301.1835350000765,301.1835350000765,301.1835350000765,r,0.3195851999334991,301.53397009987384,301.53397009987384,301.53397009987384,301.53397009987384,301.53397009987384,301.53397009987384,301.83364100009203,303.01643519988284,303.01643519988284,303.01643519988284,303.01643519988284,303.01643519988284,303.01643519988284,303.01643519988284,303.01643519988284,303.01643519988284,303.01643519988284,303.01643519988284,303.01643519988284,303.01643519988284,303.01643519988284,304.49822569987737,304.49822569987737,304.49822569987737,304.49822569987737,304.49822569987737,304.49822569987737,304.49822569987737,23,73,28,49,73,70,304.49822569987737,306.0654817998875,,,,,,,,,,,,,,,,,,,006,ｍ,２１,2023-05-13_15h49.41.587,RL,2022.2.5,59.98821833594402,
34,45,67,29,0,49,49,49,,,,,,,,None,306.0654817998875,306.0654817998875,306.0654817998875,306.0654817998875,306.0654817998875,306.0654817998875,r,0.4956236998550594,306.58297830005176,306.58297830005176,306.58297830005176,306.58297830005176,306.58297830005176,306.58297830005176,306.86581850005314,308.88207189994864,308.88207189994864,308.88207189994864,308.88207189994864,308.88207189994864,308.88207189994864,308.86562639987096,308.88207189994864,308.88207189994864,308.88207189994864,308.88207189994864,308.88207189994864,308.88207189994864,308.88207189994864,311.1801622000057,311.1801622000057,311.1801622000057,311.1801622000057,311.1801622000057,311.1801622000057,311.1801622000057,34,67,29,45,67,70,311.1801622000057,312.8147138999775,,,,,,,,,,,,,,,,,,,006,ｍ,２１,2023-05-13_15h49.41.587,RL,2022.2.5,59.98821833594402,
30,37,69,32,0,50,50,50,,,,,,,,None,312.8147138999775,312.8147138999775,312.8147138999775,312.8147138999775,312.8147138999775,312.8147138999775,j,0.3270250998903066,313.16495699994266,313.16495699994266,313.16495699994266,313.16495699994266,313.16495699994266,313.16495699994266,313.44825919996947,315.36463840003125,315.36463840003125,315.36463840003125,315.36463840003125,315.36463840003125,315.36463840003125,315.3478514000308,315.36463840003125,315.36463840003125,315.36463840003125,315.36463840003125,315.36463840003125,315.36463840003125,315.36463840003125,317.56222709990107,317.56222709990107,317.56222709990107,317.56222709990107,317.56222709990107,317.56222709990107,317.56222709990107,30,69,32,37,37,70,317.56222709990107,319.1632813999895,,,,,,,,,,,,,,,,,,,006,ｍ,２１,2023-05-13_15h49.41.587,RL,2022.2.5,59.98821833594402,
26,46,74,37,0,51,51,51,,,,,,,,None,319.1632813999895,319.1632813999895,319.1632813999895,319.1632813999895,319.1632813999895,319.1632813999895,r,0.3298929000739008,319.515118899988,319.515118899988,319.515118899988,319.515118899988,319.515118899988,319.515118899988,319.7972748999018,321.146808499936,321.146808499936,321.146808499936,321.146808499936,321.146808499936,321.146808499936,321.1304832000751,321.146808499936,321.146808499936,321.146808499936,321.146808499936,321.146808499936,321.146808499936,321.146808499936,322.77844740008004,322.77844740008004,322.77844740008004,322.77844740008004,322.77844740008004,322.77844740008004,322.77844740008004,26,74,37,46,74,70,322.77844740008004,324.37942099990323,,,,,,,,,,,,,,,,,,,006,ｍ,２１,2023-05-13_15h49.41.587,RL,2022.2.5,59.98821833594402,
22,47,74,31,0,52,52,52,,,,,,,,None,324.37942099990323,324.37942099990323,324.37942099990323,324.37942099990323,324.37942099990323,324.37942099990323,r,0.34492609999142587,324.7472252000589,324.7472252000589,324.7472252000589,324.7472252000589,324.7472252000589,324.7472252000589,325.02997100003995,327.0289849000983,327.0289849000983,327.0289849000983,327.0289849000983,327.0289849000983,327.0289849000983,327.0126495999284,327.0289849000983,327.0289849000983,327.0289849000983,327.0289849000983,327.0289849000983,327.0289849000983,327.0289849000983,329.3105818000622,329.3105818000622,329.3105818000622,329.3105818000622,329.3105818000622,329.3105818000622,329.3105818000622,22,74,31,47,74,70,329.3105818000622,330.9948271000758,,,,,,,,,,,,,,,,,,,006,ｍ,２１,2023-05-13_15h49.41.587,RL,2022.2.5,59.98821833594402,
36,58,77,30,0,53,53,53,,,,,,,,None,330.9948271000758,330.9948271000758,330.9948271000758,330.9948271000758,330.9948271000758,330.9948271000758,r,0.359409999800846,331.37866599997506,331.37866599997506,331.37866599997506,331.37866599997506,331.37866599997506,331.37866599997506,331.6620227000676,333.0447170000989,333.0447170000989,333.0447170000989,333.0447170000989,333.0447170000989,333.0447170000989,333.0284287999384,333.0447170000989,333.0447170000989,333.0447170000989,333.0447170000989,333.0447170000989,333.0447170000989,333.0447170000989,334.7097034000326,334.7097034000326,334.7097034000326,334.7097034000326,334.7097034000326,334.7097034000326,334.7097034000326,36,77,30,58,77,70,334.7097034000326,336.510280800052,,,,,,,,,,,,,,,,,,,006,ｍ,２１,2023-05-13_15h49.41.587,RL,2022.2.5,59.98821833594402,
19,52,75,26,0,54,54,54,,,,,,,,None,336.510280800052,336.510280800052,336.510280800052,336.510280800052,336.510280800052,336.510280800052,r,0.3498738999478519,336.87764200009406,336.87764200009406,336.87764200009406,336.87764200009406,336.87764200009406,336.87764200009406,337.16072460007854,338.6937003999483,338.6937003999483,338.6937003999483,338.6937003999483,338.6937003999483,338.6937003999483,338.6775267999619,338.6937003999483,338.6937003999483,338.6937003999483,338.6937003999483,338.6937003999483,338.6937003999483,338.6937003999483,340.50820180005394,340.50820180005394,340.50820180005394,340.50820180005394,340.50820180005394,340.50820180005394,340.50820180005394,19,75,26,52,75,70,340.50820180005394,342.1259327000007,,,,,,,,,,,,,,,,,,,006,ｍ,２１,2023-05-13_15h49.41.587,RL,2022.2.5,59.98821833594402,
24,58,67,25,0,55,55,55,,,,,,,,None,342.1259327000007,342.1259327000007,342.1259327000007,342.1259327000007,342.1259327000007,342.1259327000007,r,0.2964614999946207,342.4449332000222,342.4449332000222,342.4449332000222,342.4449332000222,342.4449332000222,342.4449332000222,342.7269425999839,344.37624750006944,344.37624750006944,344.37624750006944,344.37624750006944,344.37624750006944,344.37624750006944,344.35934949992225,344.37624750006944,344.37624750006944,344.37624750006944,344.37624750006944,344.37624750006944,344.37624750006944,344.37624750006944,346.30769789987244,346.30769789987244,346.30769789987244,346.30769789987244,346.30769789987244,346.30769789987244,346.30769789987244,24,67,25,58,67,70,346.30769789987244,348.05838100006804,,,,,,,,,,,,,,,,,,,006,ｍ,２１,2023-05-13_15h49.41.587,RL,2022.2.5,59.98821833594402,
29,59,67,27,0,56,56,56,,,,,,,,None,348.05838100006804,348.05838100006804,348.05838100006804,348.05838100006804,348.05838100006804,348.05838100006804,r,0.32021150016225874,348.40985940000974,348.40985940000974,348.40985940000974,348.40985940000974,348.40985940000974,348.40985940000974,348.6919772999827,350.30846560001373,350.30846560001373,350.30846560001373,350.30846560001373,350.30846560001373,350.30846560001373,350.2920681000687,350.30846560001373,350.30846560001373,350.30846560001373,350.30846560001373,350.30846560001373,350.30846560001373,350.30846560001373,352.20611079991795,352.20611079991795,352.20611079991795,352.20611079991795,352.20611079991795,352.20611079991795,352.20611079991795,29,67,27,59,67,70,352.20611079991795,353.9577496999409,,,,,,,,,,,,,,,,,,,006,ｍ,２１,2023-05-13_15h49.41.587,RL,2022.2.5,59.98821833594402,
31,54,71,22,0,57,57,57,,,,,,,,None,353.9577496999409,353.9577496999409,353.9577496999409,353.9577496999409,353.9577496999409,353.9577496999409,i,0.352645399980247,354.35053909989074,354.35053909989074,354.35053909989074,354.35053909989074,354.35053909989074,354.35053909989074,354.6244025998749,355.925309299957,355.925309299957,355.925309299957,355.925309299957,355.925309299957,355.925309299957,355.87410210003145,355.925309299957,355.925309299957,355.925309299957,355.925309299957,355.925309299957,355.925309299957,355.925309299957,357.4720848998986,357.4720848998986,357.4720848998986,357.4720848998986,357.4720848998986,357.4720848998986,357.4720848998986,31,71,22,54,22,70,357.4720848998986,359.47293219994754,,,,,,,,,,,,,,,,,,,006,ｍ,２１,2023-05-13_15h49.41.587,RL,2022.2.5,59.98821833594402,
26,50,65,22,0,58,58,58,,,,,,,,None,359.47293219994754,359.47293219994754,359.47293219994754,359.47293219994754,359.47293219994754,359.47293219994754,i,0.3667633000295609,359.86083310004324,359.86083310004324,359.86083310004324,359.86083310004324,359.86083310004324,359.86083310004324,360.15669329999946,361.1569129000418,361.1569129000418,361.1569129000418,361.1569129000418,361.1569129000418,361.1569129000418,361.1569129000418,361.1569129000418,361.1569129000418,361.1569129000418,361.1569129000418,361.1569129000418,361.1569129000418,361.1569129000418,362.45462989993393,362.45462989993393,362.45462989993393,362.45462989993393,362.45462989993393,362.45462989993393,362.45462989993393,26,65,22,50,22,70,362.45462989993393,364.32250629994087,,,,,,,,,,,,,,,,,,,006,ｍ,２１,2023-05-13_15h49.41.587,RL,2022.2.5,59.98821833594402,
28,58,64,25,0,59,59,59,,,,,,,,None,364.32250629994087,364.32250629994087,364.32250629994087,364.32250629994087,364.32250629994087,364.32250629994087,r,0.2880855000112206,364.64404959999956,364.64404959999956,364.64404959999956,364.64404959999956,364.64404959999956,364.64404959999956,364.9392081000842,366.9220426999964,366.9220426999964,366.9220426999964,366.9220426999964,366.9220426999964,366.9220426999964,366.9055200999137,366.9220426999964,366.9220426999964,366.9220426999964,366.9220426999964,366.9220426999964,366.9220426999964,366.9220426999964,369.1870015999302,369.1870015999302,369.1870015999302,369.1870015999302,369.1870015999302,369.1870015999302,369.1870015999302,28,64,25,58,64,70,369.1870015999302,370.8048570000101,,,,,,,,,,,,,,,,,,,006,ｍ,２１,2023-05-13_15h49.41.587,RL,2022.2.5,59.98821833594402,
17,49,68,22,0,60,60,60,,,,,,,,None,370.8048570000101,370.8048570000101,370.8048570000101,370.8048570000101,370.8048570000101,370.8048570000101,r,0.3050186999607831,371.1383994000498,371.1383994000498,371.1383994000498,371.1383994000498,371.1383994000498,371.1383994000498,371.4213304000441,372.3709712999407,372.3709712999407,372.3709712999407,372.3709712999407,372.3709712999407,372.3709712999407,372.354515499901,372.3709712999407,372.3709712999407,372.3709712999407,372.3709712999407,372.3709712999407,372.3709712999407,372.3709712999407,373.6025900999084,373.6025900999084,373.6025900999084,373.6025900999084,373.6025900999084,373.6025900999084,373.6025900999084,17,68,22,49,68,70,373.6025900999084,375.3870707000606,,,,,,,,,,,,,,,,,,,006,ｍ,２１,2023-05-13_15h49.41.587,RL,2022.2.5,59.98821833594402,
24,46,61,28,0,61,61,61,,,,,,,,None,375.3870707000606,375.3870707000606,375.3870707000606,375.3870707000606,375.3870707000606,375.3870707000606,r,0.9232822998892516,376.3402462999802,376.3402462999802,376.3402462999802,376.3402462999802,376.3402462999802,376.3402462999802,376.62082999991253,377.98674419987947,377.98674419987947,377.98674419987947,377.98674419987947,377.98674419987947,377.98674419987947,377.9700448999647,377.98674419987947,377.98674419987947,377.98674419987947,377.98674419987947,377.98674419987947,377.98674419987947,377.98674419987947,379.61814519995824,379.61814519995824,379.61814519995824,379.61814519995824,379.61814519995824,379.61814519995824,379.61814519995824,24,61,28,46,61,70,379.61814519995824,381.4528755999636,,,,,,,,,,,,,,,,,,,006,ｍ,２１,2023-05-13_15h49.41.587,RL,2022.2.5,59.98821833594402,
43,47,54,36,0,62,62,62,,,,,,,,None,381.4528755999636,381.4528755999636,381.4528755999636,381.4528755999636,381.4528755999636,381.4528755999636,r,0.47112359991297126,381.95460220007226,381.95460220007226,381.95460220007226,381.95460220007226,381.95460220007226,381.95460220007226,382.23636680003256,383.16926899994723,383.16926899994723,383.16926899994723,383.16926899994723,383.16926899994723,383.16926899994723,383.15313109988347,383.16926899994723,383.16926899994723,383.16926899994723,383.16926899994723,383.16926899994723,383.16926899994723,383.16926899994723,384.38420949992724,384.38420949992724,384.38420949992724,384.38420949992724,384.38420949992724,384.38420949992724,384.38420949992724,43,54,36,47,54,70,384.38420949992724,385.9356096999254,,,,,,,,,,,,,,,,,,,006,ｍ,２１,2023-05-13_15h49.41.587,RL,2022.2.5,59.98821833594402,
34,52,66,9,0,63,63,63,,,,,,,,None,385.9356096999254,385.9356096999254,385.9356096999254,385.9356096999254,385.9356096999254,385.9356096999254,j,0.6624352999497205,386.6206781999208,386.6206781999208,386.6206781999208,386.6206781999208,386.6206781999208,386.6206781999208,386.9020475000143,388.08505819994025,388.08505819994025,388.08505819994025,388.08505819994025,388.08505819994025,388.08505819994025,388.068383899983,388.08505819994025,388.08505819994025,388.08505819994025,388.08505819994025,388.08505819994025,388.08505819994025,388.08505819994025,389.55012569995597,389.55012569995597,389.55012569995597,389.55012569995597,389.55012569995597,389.55012569995597,389.55012569995597,34,66,9,52,52,70,389.55012569995597,391.1509406999685,,,,,,,,,,,,,,,,,,,006,ｍ,２１,2023-05-13_15h49.41.587,RL,2022.2.5,59.98821833594402,
25,42,59,21,0,64,64,64,,,,,,,,None,391.1509406999685,391.1509406999685,391.1509406999685,391.1509406999685,391.1509406999685,391.1509406999685,j,0.30394480004906654,391.48478979989886,391.48478979989886,391.48478979989886,391.48478979989886,391.48478979989886,391.48478979989886,391.7681553000584,392.9842723000329,392.9842723000329,392.9842723000329,392.9842723000329,392.9842723000329,392.9842723000329,392.9673198000528,392.9842723000329,392.9842723000329,392.9842723000329,392.9842723000329,392.9842723000329,392.9842723000329,392.9842723000329,394.48244479997084,394.48244479997084,394.48244479997084,394.48244479997084,394.48244479997084,394.48244479997084,394.48244479997084,25,59,21,42,42,70,394.48244479997084,396.2331910999492,,,,,,,,,,,,,,,,,,,006,ｍ,２１,2023-05-13_15h49.41.587,RL,2022.2.5,59.98821833594402,
27,52,58,14,0,65,65,65,,,,,,,,None,396.2331910999492,396.2331910999492,396.2331910999492,396.2331910999492,396.2331910999492,396.2331910999492,f,0.3091484000906348,396.5689634999726,396.5689634999726,396.5689634999726,396.5689634999726,396.5689634999726,396.5689634999726,396.8506165998988,398.5666584998835,398.5666584998835,398.5666584998835,398.5666584998835,398.5666584998835,398.5666584998835,398.55011509987526,398.5666584998835,398.5666584998835,398.5666584998835,398.5666584998835,398.5666584998835,398.5666584998835,398.5666584998835,400.5648950000759,400.5648950000759,400.5648950000759,400.5648950000759,400.5648950000759,400.5648950000759,400.5648950000759,27,58,14,52,27,70,400.5648950000759,402.16555109992623,,,,,,,,,,,,,,,,,,,006,ｍ,２１,2023-05-13_15h49.41.587,RL,2022.2.5,59.98821833594402,
26,47,57,17,0,66,66,66,,,,,,,,None,402.16555109992623,402.16555109992623,402.16555109992623,402.16555109992623,402.16555109992623,402.16555109992623,i,0.4071012001950294,402.5996501999907,402.5996501999907,402.5996501999907,402.5996501999907,402.5996501999907,402.5996501999907,402.88288839999586,403.84903789986856,403.84903789986856,403.84903789986856,403.84903789986856,403.84903789986856,403.84903789986856,403.8325348000508,403.84903789986856,403.84903789986856,403.84903789986856,403.84903789986856,403.84903789986856,403.84903789986856,403.84903789986856,405.0972430999391,405.0972430999391,405.0972430999391,405.0972430999391,405.0972430999391,405.0972430999391,405.0972430999391,26,57,17,47,17,70,405.0972430999391,407.03158130007796,,,,,,,,,,,,,,,,,,,006,ｍ,２１,2023-05-13_15h49.41.587,RL,2022.2.5,59.98821833594402,
32,43,56,18,0,67,67,67,,,,,,,,None,407.03158130007796,407.03158130007796,407.03158130007796,407.03158130007796,407.03158130007796,407.03158130007796,r,0.39618149981833994,407.4485303000547,407.4485303000547,407.4485303000547,407.4485303000547,407.4485303000547,407.4485303000547,407.7320407999214,409.34793270006776,409.34793270006776,409.34793270006776,409.34793270006776,409.34793270006776,409.34793270006776,409.3314586998895,409.34793270006776,409.34793270006776,409.34793270006776,409.34793270006776,409.34793270006776,409.34793270006776,409.34793270006776,411.246654599905,411.246654599905,411.246654599905,411.246654599905,411.246654599905,411.246654599905,411.246654599905,32,56,18,43,56,70,411.246654599905,412.9471573000774,,,,,,,,,,,,,,,,,,,006,ｍ,２１,2023-05-13_15h49.41.587,RL,2022.2.5,59.98821833594402,
24,60,53,15,0,68,68,68,,,,,,,,None,412.9471573000774,412.9471573000774,412.9471573000774,412.9471573000774,412.9471573000774,412.9471573000774,r,0.30321729998104274,413.2811435998883,413.2811435998883,413.2811435998883,413.2811435998883,413.2811435998883,413.2811435998883,413.5640608998947,414.8974444998894,414.8974444998894,414.8974444998894,414.8974444998894,414.8974444998894,414.8974444998894,414.88060149992816,414.8974444998894,414.8974444998894,414.8974444998894,414.8974444998894,414.8974444998894,414.8974444998894,414.8974444998894,416.51172659988515,416.51172659988515,416.51172659988515,416.51172659988515,416.51172659988515,416.51172659988515,416.51172659988515,24,53,15,60,53,70,416.51172659988515,418.24646160006523,,,,,,,,,,,,,,,,,,,006,ｍ,２１,2023-05-13_15h49.41.587,RL,2022.2.5,59.98821833594402,
26,61,52,24,0,69,69,69,,,,,,,,None,418.24646160006523,418.24646160006523,418.24646160006523,418.24646160006523,418.24646160006523,418.24646160006523,r,0.3020441997796297,418.5859344000928,418.5859344000928,418.5859344000928,418.5859344000928,418.5859344000928,418.5859344000928,418.88050629990175,420.863146699965,420.863146699965,420.863146699965,420.863146699965,420.863146699965,420.863146699965,420.84652270004153,420.863146699965,420.863146699965,420.863146699965,420.863146699965,420.863146699965,420.863146699965,420.863146699965,423.1272096000612,423.1272096000612,423.1272096000612,423.1272096000612,423.1272096000612,423.1272096000612,423.1272096000612,26,52,24,61,52,70,423.1272096000612,424.9116207999177,,,,,,,,,,,,,,,,,,,006,ｍ,２１,2023-05-13_15h49.41.587,RL,2022.2.5,59.98821833594402,
24,54,55,17,0,70,70,70,,,,,,,,None,424.9116207999177,424.9116207999177,424.9116207999177,424.9116207999177,424.9116207999177,424.9116207999177,i,0.35541750001721084,425.29581460007466,425.29581460007466,425.29581460007466,425.29581460007466,425.29581460007466,425.29581460007466,425.5790452999063,427.14487290009856,427.14487290009856,427.14487290009856,427.14487290009856,427.14487290009856,427.14487290009856,427.1115772998892,427.14487290009856,427.14487290009856,427.14487290009856,427.14487290009856,427.14487290009856,427.14487290009856,427.14487290009856,428.97697090008296,428.97697090008296,428.97697090008296,428.97697090008296,428.97697090008296,428.97697090008296,428.97697090008296,24,55,17,54,17,70,428.97697090008296,430.89402169990353,,,,,,,,,,,,,,,,,,,006,ｍ,２１,2023-05-13_15h49.41.587,RL,2022.2.5,59.98821833594402,
30,60,64,12,0,71,71,71,,,,,,,,None,430.89402169990353,430.89402169990353,430.89402169990353,430.89402169990353,430.89402169990353,430.89402169990353,j,0.3381174001842737,431.26223400002345,431.26223400002345,431.26223400002345,431.26223400002345,431.26223400002345,431.26223400002345,431.54419240006246,432.6773792000022,432.6773792000022,432.6773792000022,432.6773792000022,432.6773792000022,432.6773792000022,432.66066380008124,432.6773792000022,432.6773792000022,432.6773792000022,432.6773792000022,432.6773792000022,432.6773792000022,432.6773792000022,434.09218330006115,434.09218330006115,434.09218330006115,434.09218330006115,434.09218330006115,434.09218330006115,434.09218330006115,30,64,12,60,60,70,434.09218330006115,436.07707179989666,,,,,,,,,,,,,,,,,,,006,ｍ,２１,2023-05-13_15h49.41.587,RL,2022.2.5,59.98821833594402,
27,59,56,20,0,72,72,72,,,,,,,,None,436.07707179989666,436.07707179989666,436.07707179989666,436.07707179989666,436.07707179989666,436.07707179989666,j,0.35281109996140003,436.4602892000694,436.4602892000694,436.4602892000694,436.4602892000694,436.4602892000694,436.4602892000694,436.7597509000916,438.07643979997374,438.07643979997374,438.07643979997374,438.07643979997374,438.07643979997374,438.07643979997374,438.07643979997374,438.07643979997374,438.07643979997374,438.07643979997374,438.07643979997374,438.07643979997374,438.07643979997374,438.07643979997374,439.69129019998945,439.69129019998945,439.69129019998945,439.69129019998945,439.69129019998945,439.69129019998945,439.69129019998945,27,56,20,59,59,70,439.69129019998945,441.62546140002087,,,,,,,,,,,,,,,,,,,006,ｍ,２１,2023-05-13_15h49.41.587,RL,2022.2.5,59.98821833594402,
37,54,65,8,0,73,73,73,,,,,,,,None,441.62546140002087,441.62546140002087,441.62546140002087,441.62546140002087,441.62546140002087,441.62546140002087,j,0.3799779999535531,442.02898809988983,442.02898809988983,442.02898809988983,442.02898809988983,442.02898809988983,442.02898809988983,442.3095136000775,443.8089823999908,443.8089823999908,443.8089823999908,443.8089823999908,443.8089823999908,443.8089823999908,443.792090700008,443.8089823999908,443.8089823999908,443.8089823999908,443.8089823999908,443.8089823999908,443.8089823999908,443.8089823999908,445.5906032999046,445.5906032999046,445.5906032999046,445.5906032999046,445.5906032999046,445.5906032999046,445.5906032999046,37,65,8,54,54,70,445.5906032999046,447.20774309989065,,,,,,,,,,,,,,,,,,,006,ｍ,２１,2023-05-13_15h49.41.587,RL,2022.2.5,59.98821833594402,
38,58,69,18,0,74,74,74,,,,,,,,None,447.20774309989065,447.20774309989065,447.20774309989065,447.20774309989065,447.20774309989065,447.20774309989065,j,0.3697395999915898,447.614458899945,447.614458899945,447.614458899945,447.614458899945,447.614458899945,447.614458899945,447.8916201000102,449.0246564000845,449.0246564000845,449.0246564000845,449.0246564000845,449.0246564000845,449.0246564000845,449.00776170007885,449.0246564000845,449.0246564000845,449.0246564000845,449.0246564000845,449.0246564000845,449.0246564000845,449.0246564000845,450.4399099999573,450.4399099999573,450.4399099999573,450.4399099999573,450.4399099999573,450.4399099999573,450.4399099999573,38,69,18,58,58,70,450.4399099999573,452.0060584999155,,,,,,,,,,,,,,,,,,,006,ｍ,２１,2023-05-13_15h49.41.587,RL,2022.2.5,59.98821833594402,
36,60,64,25,0,75,75,75,,,,,,,,q,481.8185195000842,481.8185195000842,481.8185195000842,481.8185195000842,481.8185195000842,481.8185195000842,r,0.842287499923259,482.6895397999324,482.6895397999324,482.6895397999324,482.6895397999324,482.6895397999324,482.6895397999324,482.985049800016,484.1517028999515,484.1517028999515,484.1517028999515,484.1517028999515,484.1517028999515,484.1517028999515,484.1517028999515,484.1517028999515,484.1517028999515,484.1517028999515,484.1517028999515,484.1517028999515,484.1517028999515,484.1517028999515,485.6165129998699,485.6165129998699,485.6165129998699,485.6165129998699,485.6165129998699,485.6165129998699,485.6165129998699,36,64,25,60,64,70,485.6165129998699,487.5009639998898,452.0060584999155,452.0060584999155,24.765936499927193,476.80334839993156,476.80334839993156,481.8185195000842,481.8185195000842,,,,,,,,,,,,006,ｍ,２１,2023-05-13_15h49.41.587,RL,2022.2.5,59.98821833594402,
38,53,60,12,0,76,76,76,,,,,,,,None,487.5009639998898,487.5009639998898,487.5009639998898,487.5009639998898,487.5009639998898,487.5009639998898,r,0.3750646999105811,487.9013392999768,487.9013392999768,487.9013392999768,487.9013392999768,487.9013392999768,487.9013392999768,488.1843874999322,490.05131229991093,490.05131229991093,490.05131229991093,490.05131229991093,490.05131229991093,490.05131229991093,490.0340203999076,490.05131229991093,490.05131229991093,490.05131229991093,490.05131229991093,490.05131229991093,490.05131229991093,490.05131229991093,492.198650599923,492.198650599923,492.198650599923,492.198650599923,492.198650599923,492.198650599923,492.198650599923,38,60,12,53,60,70,492.198650599923,494.04981609992683,,,,,,,,,,,,,,,,,,,006,ｍ,２１,2023-05-13_15h49.41.587,RL,2022.2.5,59.98821833594402,
42,62,56,12,0,77,77,77,,,,,,,,None,494.04981609992683,494.04981609992683,494.04981609992683,494.04981609992683,494.04981609992683,494.04981609992683,j,0.318821300053969,494.4095497999806,494.4095497999806,494.4095497999806,494.4095497999806,494.4095497999806,494.4095497999806,494.68383059999906,496.18336310004815,496.18336310004815,496.18336310004815,496.18336310004815,496.18336310004815,496.18336310004815,496.150249700062,496.18336310004815,496.18336310004815,496.18336310004815,496.18336310004815,496.18336310004815,496.18336310004815,496.18336310004815,497.94820049987175,497.94820049987175,497.94820049987175,497.94820049987175,497.94820049987175,497.94820049987175,497.94820049987175,42,56,12,62,62,70,497.94820049987175,499.7989687998779,,,,,,,,,,,,,,,,,,,006,ｍ,２１,2023-05-13_15h49.41.587,RL,2022.2.5,59.98821833594402,
44,61,66,8,0,78,78,78,,,,,,,,None,499.7989687998779,499.7989687998779,499.7989687998779,499.7989687998779,499.7989687998779,499.7989687998779,j,0.32431919989176095,500.14940809994005,500.14940809994005,500.14940809994005,500.14940809994005,500.14940809994005,500.14940809994005,500.4320362000726,502.18184279999696,502.18184279999696,502.18184279999696,502.18184279999696,502.18184279999696,502.18184279999696,502.1652939999476,502.18184279999696,502.18184279999696,502.18184279999696,502.18184279999696,502.18184279999696,502.18184279999696,502.18184279999696,504.2132166000083,504.2132166000083,504.2132166000083,504.2132166000083,504.2132166000083,504.2132166000083,504.2132166000083,44,66,8,61,61,70,504.2132166000083,505.9142547000665,,,,,,,,,,,,,,,,,,,006,ｍ,２１,2023-05-13_15h49.41.587,RL,2022.2.5,59.98821833594402,
51,60,65,21,0,79,79,79,,,,,,,,None,505.9142547000665,505.9142547000665,505.9142547000665,505.9142547000665,505.9142547000665,505.9142547000665,r,0.43377400003373623,506.3929876999464,506.3929876999464,506.3929876999464,506.3929876999464,506.3929876999464,506.3929876999464,506.66453319997527,507.681005399907,507.681005399907,507.681005399907,507.681005399907,507.681005399907,507.681005399907,507.64761199988425,507.681005399907,507.681005399907,507.681005399907,507.681005399907,507.681005399907,507.681005399907,507.681005399907,508.96262070001103,508.96262070001103,508.96262070001103,508.96262070001103,508.96262070001103,508.96262070001103,508.96262070001103,51,65,21,60,65,70,508.96262070001103,510.79734889999963,,,,,,,,,,,,,,,,,,,006,ｍ,２１,2023-05-13_15h49.41.587,RL,2022.2.5,59.98821833594402,
35,55,60,15,0,80,80,80,,,,,,,,None,510.79734889999963,510.79734889999963,510.79734889999963,510.79734889999963,510.79734889999963,510.79734889999963,None,,,,,,,,,,,,,,,,,,,,,,,,,,,,,,35,60,15,55,0,70,518.2943470000755,519.8123665999155,,,,,,,,512.2953391000628,512.2953391000628,512.2953391000628,512.2953391000628,512.2953391000628,512.2953391000628,512.2953391000628,518.2943470000755,,,,006,ｍ,２１,2023-05-13_15h49.41.587,RL,2022.2.5,59.98821833594402,
41,59,75,17,0,81,81,81,,,,,,,,None,519.8123665999155,519.8123665999155,519.8123665999155,519.8123665999155,519.8123665999155,519.8123665999155,j,0.43841319996863604,520.2833886998706,520.2833886998706,520.2833886998706,520.2833886998706,520.2833886998706,520.2833886998706,520.5786005000118,522.3116651999298,522.3116651999298,522.3116651999298,522.3116651999298,522.3116651999298,522.3116651999298,522.3116651999298,522.3116651999298,522.3116651999298,522.3116651999298,522.3116651999298,522.3116651999298,522.3116651999298,522.3116651999298,524.3431033000816,524.3431033000816,524.3431033000816,524.3431033000816,524.3431033000816,524.3431033000816,524.3431033000816,41,75,17,59,59,70,524.3431033000816,526.2778179999441,,,,,,,,,,,,,,,,,,,006,ｍ,２１,2023-05-13_15h49.41.587,RL,2022.2.5,59.98821833594402,
39,63,64,14,0,82,82,82,,,,,,,,None,526.2778179999441,526.2778179999441,526.2778179999441,526.2778179999441,526.2778179999441,526.2778179999441,r,0.3604429999832064,526.6615681000985,526.6615681000985,526.6615681000985,526.6615681000985,526.6615681000985,526.6615681000985,526.9443103000522,528.4105869000778,528.4105869000778,528.4105869000778,528.4105869000778,528.4105869000778,528.4105869000778,528.3940973998979,528.4105869000778,528.4105869000778,528.4105869000778,528.4105869000778,528.4105869000778,528.4105869000778,528.4105869000778,530.1587418999989,530.1587418999989,530.1587418999989,530.1587418999989,530.1587418999989,530.1587418999989,530.1587418999989,39,64,14,63,64,70,530.1587418999989,532.0263680999633,,,,,,,,,,,,,,,,,,,006,ｍ,２１,2023-05-13_15h49.41.587,RL,2022.2.5,59.98821833594402,
32,62,63,15,0,83,83,83,,,,,,,,None,532.0263680999633,532.0263680999633,532.0263680999633,532.0263680999633,532.0263680999633,532.0263680999633,r,0.5460111000575125,532.5945154998917,532.5945154998917,532.5945154998917,532.5945154998917,532.5945154998917,532.5945154998917,532.8769064000808,533.7432397000957,533.7432397000957,533.7432397000957,533.7432397000957,533.7432397000957,533.7432397000957,533.7264886999037,533.7432397000957,533.7432397000957,533.7432397000957,533.7432397000957,533.7432397000957,533.7432397000957,533.7432397000957,534.8914854000323,534.8914854000323,534.8914854000323,534.8914854000323,534.8914854000323,534.8914854000323,534.8914854000323,32,63,15,62,63,70,534.8914854000323,536.7921557000373,,,,,,,,,,,,,,,,,,,006,ｍ,２１,2023-05-13_15h49.41.587,RL,2022.2.5,59.98821833594402,
42,63,51,10,0,84,84,84,,,,,,,,None,536.7921557000373,536.7921557000373,536.7921557000373,536.7921557000373,536.7921557000373,536.7921557000373,j,0.4122489998117089,537.2258943000343,537.2258943000343,537.2258943000343,537.2258943000343,537.2258943000343,537.2258943000343,537.5095762000419,539.2421546000987,539.2421546000987,539.2421546000987,539.2421546000987,539.2421546000987,539.2421546000987,539.2256390999537,539.2421546000987,539.2421546000987,539.2421546000987,539.2421546000987,539.2421546000987,539.2421546000987,539.2421546000987,541.2568989000283,541.2568989000283,541.2568989000283,541.2568989000283,541.2568989000283,541.2568989000283,541.2568989000283,42,51,10,63,63,70,541.2568989000283,543.141187600093,,,,,,,,,,,,,,,,,,,006,ｍ,２１,2023-05-13_15h49.41.587,RL,2022.2.5,59.98821833594402,
33,65,54,13,0,85,85,85,,,,,,,,None,543.141187600093,543.141187600093,543.141187600093,543.141187600093,543.141187600093,543.141187600093,j,0.3585909998510033,543.5270299999975,543.5270299999975,543.5270299999975,543.5270299999975,543.5270299999975,543.5270299999975,543.8085805999581,544.7079835000914,544.7079835000914,544.7079835000914,544.7079835000914,544.7079835000914,544.7079835000914,544.691657599993,544.7079835000914,544.7079835000914,544.7079835000914,544.7079835000914,544.7079835000914,544.7079835000914,544.7079835000914,545.8895775000565,545.8895775000565,545.8895775000565,545.8895775000565,545.8895775000565,545.8895775000565,545.8895775000565,33,54,13,65,65,70,545.8895775000565,547.5570445000194,,,,,,,,,,,,,,,,,,,006,ｍ,２１,2023-05-13_15h49.41.587,RL,2022.2.5,59.98821833594402,
41,61,56,12,0,86,86,86,,,,,,,,None,547.5570445000194,547.5570445000194,547.5570445000194,547.5570445000194,547.5570445000194,547.5570445000194,r,0.33241809997707605,547.9076372999698,547.9076372999698,547.9076372999698,547.9076372999698,547.9076372999698,547.9076372999698,548.1909241999965,549.2404597999994,549.2404597999994,549.2404597999994,549.2404597999994,549.2404597999994,549.2404597999994,549.2240232999902,549.2404597999994,549.2404597999994,549.2404597999994,549.2404597999994,549.2404597999994,549.2404597999994,549.2404597999994,550.5719397000503,550.5719397000503,550.5719397000503,550.5719397000503,550.5719397000503,550.5719397000503,550.5719397000503,41,56,12,61,56,70,550.5719397000503,552.1396870999597,,,,,,,,,,,,,,,,,,,006,ｍ,２１,2023-05-13_15h49.41.587,RL,2022.2.5,59.98821833594402,
42,73,48,18,0,87,87,87,,,,,,,,None,552.1396870999597,552.1396870999597,552.1396870999597,552.1396870999597,552.1396870999597,552.1396870999597,j,0.4264305999968201,552.5920726999175,552.5920726999175,552.5920726999175,552.5920726999175,552.5920726999175,552.5920726999175,552.8733441000804,554.8562465000432,554.8562465000432,554.8562465000432,554.8562465000432,554.8562465000432,554.8562465000432,554.8398911999539,554.8562465000432,554.8562465000432,554.8562465000432,554.8562465000432,554.8562465000432,554.8562465000432,554.8562465000432,557.1209430000745,557.1209430000745,557.1209430000745,557.1209430000745,557.1209430000745,557.1209430000745,557.1209430000745,42,48,18,73,73,70,557.1209430000745,558.9220823000651,,,,,,,,,,,,,,,,,,,006,ｍ,２１,2023-05-13_15h49.41.587,RL,2022.2.5,59.98821833594402,
37,61,45,22,0,88,88,88,,,,,,,,None,558.9220823000651,558.9220823000651,558.9220823000651,558.9220823000651,558.9220823000651,558.9220823000651,j,0.32427179999649525,559.2740201000124,559.2740201000124,559.2740201000124,559.2740201000124,559.2740201000124,559.2740201000124,559.5723077000584,560.4050648000557,560.4050648000557,560.4050648000557,560.4050648000557,560.4050648000557,560.4050648000557,560.4050648000557,560.4050648000557,560.4050648000557,560.4050648000557,560.4050648000557,560.4050648000557,560.4050648000557,560.4050648000557,561.5368367000483,561.5368367000483,561.5368367000483,561.5368367000483,561.5368367000483,561.5368367000483,561.5368367000483,37,45,22,61,61,70,561.5368367000483,563.387672000099,,,,,,,,,,,,,,,,,,,006,ｍ,２１,2023-05-13_15h49.41.587,RL,2022.2.5,59.98821833594402,
41,61,47,30,0,89,89,89,,,,,,,,None,563.387672000099,563.387672000099,563.387672000099,563.387672000099,563.387672000099,563.387672000099,j,0.4480609002057463,563.8548449999653,563.8548449999653,563.8548449999653,563.8548449999653,563.8548449999653,563.8548449999653,564.1380854998715,564.9709244999103,564.9709244999103,564.9709244999103,564.9709244999103,564.9709244999103,564.9709244999103,564.9543768998701,564.9709244999103,564.9709244999103,564.9709244999103,564.9709244999103,564.9709244999103,564.9709244999103,564.9709244999103,566.085880599916,566.085880599916,566.085880599916,566.085880599916,566.085880599916,566.085880599916,566.085880599916,41,47,30,61,61,70,566.085880599916,568.053912299918,,,,,,,,,,,,,,,,,,,006,ｍ,２１,2023-05-13_15h49.41.587,RL,2022.2.5,59.98821833594402,
36,65,48,33,0,90,90,90,,,,,,,,None,568.053912299918,568.053912299918,568.053912299918,568.053912299918,568.053912299918,568.053912299918,r,0.46151220006868243,568.5374714999925,568.5374714999925,568.5374714999925,568.5374714999925,568.5374714999925,568.5374714999925,568.8205210999586,570.0366799999028,570.0366799999028,570.0366799999028,570.0366799999028,570.0366799999028,570.0366799999028,570.0205010999925,570.0366799999028,570.0366799999028,570.0366799999028,570.0366799999028,570.0366799999028,570.0366799999028,570.0366799999028,571.5348416999914,571.5348416999914,571.5348416999914,571.5348416999914,571.5348416999914,571.5348416999914,571.5348416999914,36,48,33,65,48,70,571.5348416999914,573.3193969998974,,,,,,,,,,,,,,,,,,,006,ｍ,２１,2023-05-13_15h49.41.587,RL,2022.2.5,59.98821833594402,
33,68,55,31,0,91,91,91,,,,,,,,None,573.3193969998974,573.3193969998974,573.3193969998974,573.3193969998974,573.3193969998974,573.3193969998974,f,0.3626229001674801,573.7041462000925,573.7041462000925,573.7041462000925,573.7041462000925,573.7041462000925,573.7041462000925,573.9864074999932,575.33582259994,575.33582259994,575.33582259994,575.33582259994,575.33582259994,575.33582259994,575.3193306999747,575.33582259994,575.33582259994,575.33582259994,575.33582259994,575.33582259994,575.33582259994,575.33582259994,576.9676020999905,576.9676020999905,576.9676020999905,576.9676020999905,576.9676020999905,576.9676020999905,576.9676020999905,33,55,31,68,33,70,576.9676020999905,578.935006499989,,,,,,,,,,,,,,,,,,,006,ｍ,２１,2023-05-13_15h49.41.587,RL,2022.2.5,59.98821833594402,
45,76,53,34,0,92,92,92,,,,,,,,None,578.935006499989,578.935006499989,578.935006499989,578.935006499989,578.935006499989,578.935006499989,j,0.3825362999923527,579.3356397000607,579.3356397000607,579.3356397000607,579.3356397000607,579.3356397000607,579.3356397000607,579.6189631000161,580.634928500047,580.634928500047,580.634928500047,580.634928500047,580.634928500047,580.634928500047,580.6183883999474,580.634928500047,580.634928500047,580.634928500047,580.634928500047,580.634928500047,580.634928500047,580.634928500047,581.9333963999525,581.9333963999525,581.9333963999525,581.9333963999525,581.9333963999525,581.9333963999525,581.9333963999525,45,53,34,76,76,70,581.9333963999525,583.8510340999346,,,,,,,,,,,,,,,,,,,006,ｍ,２１,2023-05-13_15h49.41.587,RL,2022.2.5,59.98821833594402,
47,60,49,34,0,93,93,93,,,,,,,,None,583.8510340999346,583.8510340999346,583.8510340999346,583.8510340999346,583.8510340999346,583.8510340999346,j,0.3704738998785615,584.2514243000187,584.2514243000187,584.2514243000187,584.2514243000187,584.2514243000187,584.2514243000187,584.5345191000961,586.084018799942,586.084018799942,586.084018799942,586.084018799942,586.084018799942,586.084018799942,586.0676686000079,586.084018799942,586.084018799942,586.084018799942,586.084018799942,586.084018799942,586.084018799942,586.084018799942,587.9155282001011,587.9155282001011,587.9155282001011,587.9155282001011,587.9155282001011,587.9155282001011,587.9155282001011,47,49,34,60,60,70,587.9155282001011,589.4332198998891,,,,,,,,,,,,,,,,,,,006,ｍ,２１,2023-05-13_15h49.41.587,RL,2022.2.5,59.98821833594402,
53,60,52,26,0,94,94,94,,,,,,,,None,589.4332198998891,589.4332198998891,589.4332198998891,589.4332198998891,589.4332198998891,589.4332198998891,j,0.5514982000458986,590.023099699989,590.023099699989,590.023099699989,590.023099699989,590.023099699989,590.023099699989,590.3005329000298,591.3168649999425,591.3168649999425,591.3168649999425,591.3168649999425,591.3168649999425,591.3168649999425,591.2999835999217,591.3168649999425,591.3168649999425,591.3168649999425,591.3168649999425,591.3168649999425,591.3168649999425,591.3168649999425,592.6144717000425,592.6144717000425,592.6144717000425,592.6144717000425,592.6144717000425,592.6144717000425,592.6144717000425,53,52,26,60,60,70,592.6144717000425,594.2324637998827,,,,,,,,,,,,,,,,,,,006,ｍ,２１,2023-05-13_15h49.41.587,RL,2022.2.5,59.98821833594402,
41,68,48,37,0,95,95,95,,,,,,,,None,594.2324637998827,594.2324637998827,594.2324637998827,594.2324637998827,594.2324637998827,594.2324637998827,j,0.45527249993756413,594.717418699991,594.717418699991,594.717418699991,594.717418699991,594.717418699991,594.717418699991,594.9995385000948,596.3323993000668,596.3323993000668,596.3323993000668,596.3323993000668,596.3323993000668,596.3323993000668,596.3162674000487,596.3323993000668,596.3323993000668,596.3323993000668,596.3323993000668,596.3323993000668,596.3323993000668,596.3323993000668,597.9473639000207,597.9473639000207,597.9473639000207,597.9473639000207,597.9473639000207,597.9473639000207,597.9473639000207,41,48,37,68,68,70,597.9473639000207,599.5985020999797,,,,,,,,,,,,,,,,,,,006,ｍ,２１,2023-05-13_15h49.41.587,RL,2022.2.5,59.98821833594402,
40,59,57,31,0,96,96,96,,,,,,,,None,599.5985020999797,599.5985020999797,599.5985020999797,599.5985020999797,599.5985020999797,599.5985020999797,j,0.6099279001355171,600.2318446000572,600.2318446000572,600.2318446000572,600.2318446000572,600.2318446000572,600.2318446000572,600.5151529000141,601.5145843999926,601.5145843999926,601.5145843999926,601.5145843999926,601.5145843999926,601.5145843999926,601.4981362998951,601.5145843999926,601.5145843999926,601.5145843999926,601.5145843999926,601.5145843999926,601.5145843999926,601.5145843999926,602.7962096999399,602.7962096999399,602.7962096999399,602.7962096999399,602.7962096999399,602.7962096999399,602.7962096999399,40,57,31,59,59,70,602.7962096999399,604.7639603998978,,,,,,,,,,,,,,,,,,,006,ｍ,２１,2023-05-13_15h49.41.587,RL,2022.2.5,59.98821833594402,
25,56,54,34,0,97,97,97,,,,,,,,None,604.7639603998978,604.7639603998978,604.7639603998978,604.7639603998978,604.7639603998978,604.7639603998978,j,0.5079153999686241,605.2980184000917,605.2980184000917,605.2980184000917,605.2980184000917,605.2980184000917,605.2980184000917,605.5809605000541,607.5473344000056,607.5473344000056,607.5473344000056,607.5473344000056,607.5473344000056,607.5473344000056,607.5307644000277,607.5473344000056,607.5473344000056,607.5473344000056,607.5473344000056,607.5473344000056,607.5473344000056,607.5473344000056,609.7951072000433,609.7951072000433,609.7951072000433,609.7951072000433,609.7951072000433,609.7951072000433,609.7951072000433,25,54,34,56,56,70,609.7951072000433,611.645958499983,,,,,,,,,,,,,,,,,,,006,ｍ,２１,2023-05-13_15h49.41.587,RL,2022.2.5,59.98821833594402,
38,56,42,31,0,98,98,98,,,,,,,,None,611.645958499983,611.645958499983,611.645958499983,611.645958499983,611.645958499983,611.645958499983,f,0.3114456001203507,611.9802693999372,611.9802693999372,611.9802693999372,611.9802693999372,611.9802693999372,611.9802693999372,612.2795734999236,613.9463470999617,613.9463470999617,613.9463470999617,613.9463470999617,613.9463470999617,613.9463470999617,613.9463470999617,613.9463470999617,613.9463470999617,613.9463470999617,613.9463470999617,613.9463470999617,613.9463470999617,613.9463470999617,615.9110890000593,615.9110890000593,615.9110890000593,615.9110890000593,615.9110890000593,615.9110890000593,615.9110890000593,38,42,31,56,38,70,615.9110890000593,617.5784326998983,,,,,,,,,,,,,,,,,,,006,ｍ,２１,2023-05-13_15h49.41.587,RL,2022.2.5,59.98821833594402,
42,51,56,28,0,99,99,99,,,,,,,,None,617.5784326998983,617.5784326998983,617.5784326998983,617.5784326998983,617.5784326998983,617.5784326998983,f,0.49361540004611015,618.0960230000783,618.0960230000783,618.0960230000783,618.0960230000783,618.0960230000783,618.0960230000783,618.378603399964,620.0450327999424,620.0450327999424,620.0450327999424,620.0450327999424,620.0450327999424,620.0450327999424,620.0282723999117,620.0450327999424,620.0450327999424,620.0450327999424,620.0450327999424,620.0450327999424,620.0450327999424,620.0450327999424,621.992791299941,621.992791299941,621.992791299941,621.992791299941,621.992791299941,621.992791299941,621.992791299941,42,56,28,51,42,70,621.992791299941,623.9773021000437,,,,,,,,,,,,,,,,,,,006,ｍ,２１,2023-05-13_15h49.41.587,RL,2022.2.5,59.98821833594402,
41,48,54,37,0,100,100,100,,,,,,,,None,623.9773021000437,623.9773021000437,623.9773021000437,623.9773021000437,623.9773021000437,623.9773021000437,f,0.3016420998610556,624.3119349000044,624.3119349000044,624.3119349000044,624.3119349000044,624.3119349000044,624.3119349000044,624.6108408998698,625.910504899919,625.910504899919,625.910504899919,625.910504899919,625.910504899919,625.910504899919,625.910504899919,625.910504899919,625.910504899919,625.910504899919,625.910504899919,625.910504899919,625.910504899919,625.910504899919,627.5086904999334,627.5086904999334,627.5086904999334,627.5086904999334,627.5086904999334,627.5086904999334,627.5086904999334,41,54,37,48,41,70,627.5086904999334,629.3429654999636,,,,,,,,,,,,,,,,,,,006,ｍ,２１,2023-05-13_15h49.41.587,RL,2022.2.5,59.98821833594402,
33,45,55,41,0,101,101,101,,,,,,,,None,629.3429654999636,629.3429654999636,629.3429654999636,629.3429654999636,629.3429654999636,629.3429654999636,r,0.6741066002286971,630.044556699926,630.044556699926,630.044556699926,630.044556699926,630.044556699926,630.044556699926,630.3432757998817,631.8431553998962,631.8431553998962,631.8431553998962,631.8431553998962,631.8431553998962,631.8431553998962,631.8431553998962,631.8431553998962,631.8431553998962,631.8431553998962,631.8431553998962,631.8431553998962,631.8431553998962,631.8431553998962,633.6413710999768,633.6413710999768,633.6413710999768,633.6413710999768,633.6413710999768,633.6413710999768,633.6413710999768,33,55,41,45,55,70,633.6413710999768,635.308534400072,,,,,,,,,,,,,,,,,,,006,ｍ,２１,2023-05-13_15h49.41.587,RL,2022.2.5,59.98821833594402,
42,47,56,38,0,102,102,102,,,,,,,,None,635.308534400072,635.308534400072,635.308534400072,635.308534400072,635.308534400072,635.308534400072,i,0.33842100016772747,635.6766774998978,635.6766774998978,635.6766774998978,635.6766774998978,635.6766774998978,635.6766774998978,635.9755058998708,637.1752418999095,637.1752418999095,637.1752418999095,637.1752418999095,637.1752418999095,637.1752418999095,637.1752418999095,637.1752418999095,637.1752418999095,637.1752418999095,637.1752418999095,637.1752418999095,637.1752418999095,637.1752418999095,638.6732526000123,638.6732526000123,638.6732526000123,638.6732526000123,638.6732526000123,638.6732526000123,638.6732526000123,42,56,38,47,38,70,638.6732526000123,640.3408514000475,,,,,,,,,,,,,,,,,,,006,ｍ,２１,2023-05-13_15h49.41.587,RL,2022.2.5,59.98821833594402,
40,53,44,35,0,103,103,103,,,,,,,,None,640.3408514000475,640.3408514000475,640.3408514000475,640.3408514000475,640.3408514000475,640.3408514000475,j,0.30826240009628236,640.6752379999962,640.6752379999962,640.6752379999962,640.6752379999962,640.6752379999962,640.6752379999962,640.9579159000423,642.690803000005,642.690803000005,642.690803000005,642.690803000005,642.690803000005,642.690803000005,642.6741667999886,642.690803000005,642.690803000005,642.690803000005,642.690803000005,642.690803000005,642.690803000005,642.690803000005,644.7056756999809,644.7056756999809,644.7056756999809,644.7056756999809,644.7056756999809,644.7056756999809,644.7056756999809,40,44,35,53,53,70,644.7056756999809,646.656553799985,,,,,,,,,,,,,,,,,,,006,ｍ,２１,2023-05-13_15h49.41.587,RL,2022.2.5,59.98821833594402,
48,48,44,35,0,104,104,104,,,,,,,,None,646.656553799985,646.656553799985,646.656553799985,646.656553799985,646.656553799985,646.656553799985,f,0.3570966001134366,647.0402770999353,647.0402770999353,647.0402770999353,647.0402770999353,647.0402770999353,647.0402770999353,647.3400944999885,648.3401114000008,648.3401114000008,648.3401114000008,648.3401114000008,648.3401114000008,648.3401114000008,648.3401114000008,648.3401114000008,648.3401114000008,648.3401114000008,648.3401114000008,648.3401114000008,648.3401114000008,648.3401114000008,649.6383624000009,649.6383624000009,649.6383624000009,649.6383624000009,649.6383624000009,649.6383624000009,649.6383624000009,48,44,35,48,48,70,649.6383624000009,651.222308000084,,,,,,,,,,,,,,,,,,,006,ｍ,２１,2023-05-13_15h49.41.587,RL,2022.2.5,59.98821833594402,
46,48,44,25,0,105,105,105,,,,,,,,None,651.222308000084,651.222308000084,651.222308000084,651.222308000084,651.222308000084,651.222308000084,f,0.323090200079605,651.5727707000915,651.5727707000915,651.5727707000915,651.5727707000915,651.5727707000915,651.5727707000915,651.8562008999288,653.4247635998763,653.4247635998763,653.4247635998763,653.4247635998763,653.4247635998763,653.4247635998763,653.4056637000758,653.4247635998763,653.4247635998763,653.4247635998763,653.4247635998763,653.4247635998763,653.4247635998763,653.4247635998763,655.2705880999565,655.2705880999565,655.2705880999565,655.2705880999565,655.2705880999565,655.2705880999565,655.2705880999565,46,44,25,48,46,70,655.2705880999565,657.1049681000877,,,,,,,,,,,,,,,,,,,006,ｍ,２１,2023-05-13_15h49.41.587,RL,2022.2.5,59.98821833594402,
43,54,48,37,0,106,106,106,,,,,,,,None,657.1049681000877,657.1049681000877,657.1049681000877,657.1049681000877,657.1049681000877,657.1049681000877,r,0.3606965998187661,657.4895625000354,657.4895625000354,657.4895625000354,657.4895625000354,657.4895625000354,657.4895625000354,657.7717428999022,659.2883550999686,659.2883550999686,659.2883550999686,659.2883550999686,659.2883550999686,659.2883550999686,659.2715851999819,659.2883550999686,659.2883550999686,659.2883550999686,659.2883550999686,659.2883550999686,659.2883550999686,659.2883550999686,661.0859115999192,661.0859115999192,661.0859115999192,661.0859115999192,661.0859115999192,661.0859115999192,661.0859115999192,43,48,37,54,48,70,661.0859115999192,662.620624500094,,,,,,,,,,,,,,,,,,,006,ｍ,２１,2023-05-13_15h49.41.587,RL,2022.2.5,59.98821833594402,
58,36,55,31,0,107,107,107,,,,,,,,None,662.620624500094,662.620624500094,662.620624500094,662.620624500094,662.620624500094,662.620624500094,f,0.24721289984881878,662.8883597999811,662.8883597999811,662.8883597999811,662.8883597999811,662.8883597999811,662.8883597999811,663.1709656000603,665.0036792000756,665.0036792000756,665.0036792000756,665.0036792000756,665.0036792000756,665.0036792000756,664.9873549998738,665.0036792000756,665.0036792000756,665.0036792000756,665.0036792000756,665.0036792000756,665.0036792000756,665.0036792000756,667.1188022000715,667.1188022000715,667.1188022000715,667.1188022000715,667.1188022000715,667.1188022000715,667.1188022000715,58,55,31,36,58,70,667.1188022000715,669.0030000999104,,,,,,,,,,,,,,,,,,,006,ｍ,２１,2023-05-13_15h49.41.587,RL,2022.2.5,59.98821833594402,
42,42,47,35,0,108,108,108,,,,,,,,None,669.0030000999104,669.0030000999104,669.0030000999104,669.0030000999104,669.0030000999104,669.0030000999104,f,0.35542689985595644,669.3883569999598,669.3883569999598,669.3883569999598,669.3883569999598,669.3883569999598,669.3883569999598,669.6869329998735,671.0193699998781,671.0193699998781,671.0193699998781,671.0193699998781,671.0193699998781,671.0193699998781,671.0193699998781,671.0193699998781,671.0193699998781,671.0193699998781,671.0193699998781,671.0193699998781,671.0193699998781,671.0193699998781,672.6506008000579,672.6506008000579,672.6506008000579,672.6506008000579,672.6506008000579,672.6506008000579,672.6506008000579,42,47,35,42,42,70,672.6506008000579,674.5684704000596,,,,,,,,,,,,,,,,,,,006,ｍ,２１,2023-05-13_15h49.41.587,RL,2022.2.5,59.98821833594402,
44,45,39,36,0,109,109,109,,,,,,,,None,674.5684704000596,674.5684704000596,674.5684704000596,674.5684704000596,674.5684704000596,674.5684704000596,f,0.32046030019409955,674.9201114000753,674.9201114000753,674.9201114000753,674.9201114000753,674.9201114000753,674.9201114000753,675.2189352000132,677.035015600035,677.035015600035,677.035015600035,677.035015600035,677.035015600035,677.035015600035,677.035015600035,677.035015600035,677.035015600035,677.035015600035,677.035015600035,677.035015600035,677.035015600035,677.035015600035,679.1499334000982,679.1499334000982,679.1499334000982,679.1499334000982,679.1499334000982,679.1499334000982,679.1499334000982,44,39,36,45,44,70,679.1499334000982,680.8842970000114,,,,,,,,,,,,,,,,,,,006,ｍ,２１,2023-05-13_15h49.41.587,RL,2022.2.5,59.98821833594402,
42,36,49,32,0,110,110,110,,,,,,,,None,680.8842970000114,680.8842970000114,680.8842970000114,680.8842970000114,680.8842970000114,680.8842970000114,j,0.32159950002096593,681.2359579000622,681.2359579000622,681.2359579000622,681.2359579000622,681.2359579000622,681.2359579000622,681.5346762998961,683.3671724998858,683.3671724998858,683.3671724998858,683.3671724998858,683.3671724998858,683.3671724998858,683.3671724998858,683.3671724998858,683.3671724998858,683.3671724998858,683.3671724998858,683.3671724998858,683.3671724998858,683.3671724998858,685.4987005000003,685.4987005000003,685.4987005000003,685.4987005000003,685.4987005000003,685.4987005000003,685.4987005000003,42,49,32,36,36,70,685.4987005000003,687.1329882999416,,,,,,,,,,,,,,,,,,,006,ｍ,２１,2023-05-13_15h49.41.587,RL,2022.2.5,59.98821833594402,
49,36,48,44,0,111,111,111,,,,,,,,None,687.1329882999416,687.1329882999416,687.1329882999416,687.1329882999416,687.1329882999416,687.1329882999416,j,0.770325800171122,687.9350004999433,687.9350004999433,687.9350004999433,687.9350004999433,687.9350004999433,687.9350004999433,688.2166001999285,689.6495457000565,689.6495457000565,689.6495457000565,689.6495457000565,689.6495457000565,689.6495457000565,689.6330997000914,689.6495457000565,689.6495457000565,689.6495457000565,689.6495457000565,689.6495457000565,689.6495457000565,689.6495457000565,691.3474538999144,691.3474538999144,691.3474538999144,691.3474538999144,691.3474538999144,691.3474538999144,691.3474538999144,49,48,44,36,36,70,691.3474538999144,693.1822728998959,,,,,,,,,,,,,,,,,,,006,ｍ,２１,2023-05-13_15h49.41.587,RL,2022.2.5,59.98821833594402,
47,33,55,36,0,112,112,112,,,,,,,,None,693.1822728998959,693.1822728998959,693.1822728998959,693.1822728998959,693.1822728998959,693.1822728998959,f,0.45086389989592135,693.6726593999192,693.6726593999192,693.6726593999192,693.6726593999192,693.6726593999192,693.6726593999192,693.948877699906,695.7648658999242,695.7648658999242,695.7648658999242,695.7648658999242,695.7648658999242,695.7648658999242,695.7320417000446,695.7648658999242,695.7648658999242,695.7648658999242,695.7648658999242,695.7648658999242,695.7648658999242,695.7648658999242,697.8468720999081,697.8468720999081,697.8468720999081,697.8468720999081,697.8468720999081,697.8468720999081,697.8468720999081,47,55,36,33,47,70,697.8468720999081,699.8315224000253,,,,,,,,,,,,,,,,,,,006,ｍ,２１,2023-05-13_15h49.41.587,RL,2022.2.5,59.98821833594402,
47,33,52,31,0,113,113,113,,,,,,,,None,699.8315224000253,699.8315224000253,699.8315224000253,699.8315224000253,699.8315224000253,699.8315224000253,r,0.31520209996961057,700.164464399917,700.164464399917,700.164464399917,700.164464399917,700.164464399917,700.164464399917,700.447844499955,702.2973331999965,702.2973331999965,702.2973331999965,702.2973331999965,702.2973331999965,702.2973331999965,702.2812045998871,702.2973331999965,702.2973331999965,702.2973331999965,702.2973331999965,702.2973331999965,702.2973331999965,702.2973331999965,704.428418800002,704.428418800002,704.428418800002,704.428418800002,704.428418800002,704.428418800002,704.428418800002,47,52,31,33,52,70,704.428418800002,706.2460904000327,,,,,,,,,,,,,,,,,,,006,ｍ,２１,2023-05-13_15h49.41.587,RL,2022.2.5,59.98821833594402,
36,28,57,33,0,114,114,114,,,,,,,,None,706.2460904000327,706.2460904000327,706.2460904000327,706.2460904000327,706.2460904000327,706.2460904000327,r,0.32621129998005927,706.5970393999014,706.5970393999014,706.5970393999014,706.5970393999014,706.5970393999014,706.5970393999014,706.8804353000596,708.5128550000954,708.5128550000954,708.5128550000954,708.5128550000954,708.5128550000954,708.5128550000954,708.4959865999408,708.5128550000954,708.5128550000954,708.5128550000954,708.5128550000954,708.5128550000954,708.5128550000954,708.5128550000954,710.4278056998737,710.4278056998737,710.4278056998737,710.4278056998737,710.4278056998737,710.4278056998737,710.4278056998737,36,57,33,28,57,70,710.4278056998737,712.0120582000818,,,,,,,,,,,,,,,,,,,006,ｍ,２１,2023-05-13_15h49.41.587,RL,2022.2.5,59.98821833594402,
45,25,45,23,0,115,115,115,,,,,,,,None,712.0120582000818,712.0120582000818,712.0120582000818,712.0120582000818,712.0120582000818,712.0120582000818,r,0.3441406001802534,712.3795709998813,712.3795709998813,712.3795709998813,712.3795709998813,712.3795709998813,712.3795709998813,712.662321700016,713.6620851000771,713.6620851000771,713.6620851000771,713.6620851000771,713.6620851000771,713.6620851000771,713.645626799902,713.6620851000771,713.6620851000771,713.6620851000771,713.6620851000771,713.6620851000771,713.6620851000771,713.6620851000771,714.9439117000438,714.9439117000438,714.9439117000438,714.9439117000438,714.9439117000438,714.9439117000438,714.9439117000438,45,45,23,25,45,70,714.9439117000438,716.6443159999326,,,,,,,,,,,,,,,,,,,006,ｍ,２１,2023-05-13_15h49.41.587,RL,2022.2.5,59.98821833594402,
47,21,50,26,0,116,116,116,,,,,,,,None,716.6443159999326,716.6443159999326,716.6443159999326,716.6443159999326,716.6443159999326,716.6443159999326,r,0.37290189997293055,717.0450053999666,717.0450053999666,717.0450053999666,717.0450053999666,717.0450053999666,717.0450053999666,717.3446501998696,719.2610533998813,719.2610533998813,719.2610533998813,719.2610533998813,719.2610533998813,719.2610533998813,719.2610533998813,719.2610533998813,719.2610533998813,719.2610533998813,719.2610533998813,719.2610533998813,719.2610533998813,719.2610533998813,721.4757987000048,721.4757987000048,721.4757987000048,721.4757987000048,721.4757987000048,721.4757987000048,721.4757987000048,47,50,26,21,50,70,721.4757987000048,723.309935099911,,,,,,,,,,,,,,,,,,,006,ｍ,２１,2023-05-13_15h49.41.587,RL,2022.2.5,59.98821833594402,
46,24,48,23,0,117,117,117,,,,,,,,None,723.309935099911,723.309935099911,723.309935099911,723.309935099911,723.309935099911,723.309935099911,r,0.3658902000170201,723.6939860000275,723.6939860000275,723.6939860000275,723.6939860000275,723.6939860000275,723.6939860000275,723.9773113999981,724.8099946998991,724.8099946998991,724.8099946998991,724.8099946998991,724.8099946998991,724.8099946998991,724.7933016000316,724.8099946998991,724.8099946998991,724.8099946998991,724.8099946998991,724.8099946998991,724.8099946998991,724.8099946998991,725.9251651000232,725.9251651000232,725.9251651000232,725.9251651000232,725.9251651000232,725.9251651000232,725.9251651000232,46,48,23,24,48,70,725.9251651000232,727.8429550998844,,,,,,,,,,,,,,,,,,,006,ｍ,２１,2023-05-13_15h49.41.587,RL,2022.2.5,59.98821833594402,
41,31,55,25,0,118,118,118,,,,,,,,None,727.8429550998844,727.8429550998844,727.8429550998844,727.8429550998844,727.8429550998844,727.8429550998844,i,0.5645638999994844,728.4261264998931,728.4261264998931,728.4261264998931,728.4261264998931,728.4261264998931,728.4261264998931,728.7259007999673,730.4923618000466,730.4923618000466,730.4923618000466,730.4923618000466,730.4923618000466,730.4923618000466,730.4923618000466,730.4923618000466,730.4923618000466,730.4923618000466,730.4923618000466,730.4923618000466,730.4923618000466,730.4923618000466,732.5570934999269,732.5570934999269,732.5570934999269,732.5570934999269,732.5570934999269,732.5570934999269,732.5570934999269,41,55,25,31,25,70,732.5570934999269,734.2917466999497,,,,,,,,,,,,,,,,,,,006,ｍ,２１,2023-05-13_15h49.41.587,RL,2022.2.5,59.98821833594402,
43,23,55,19,0,119,119,119,,,,,,,,None,734.2917466999497,734.2917466999497,734.2917466999497,734.2917466999497,734.2917466999497,734.2917466999497,f,0.31759629980660975,734.6489760000259,734.6489760000259,734.6489760000259,734.6489760000259,734.6489760000259,734.6489760000259,734.9416507000569,736.7744736999739,736.7744736999739,736.7744736999739,736.7744736999739,736.7744736999739,736.7744736999739,736.7744736999739,736.7744736999739,736.7744736999739,736.7744736999739,736.7744736999739,736.7744736999739,736.7744736999739,736.7744736999739,738.9061231000815,738.9061231000815,738.9061231000815,738.9061231000815,738.9061231000815,738.9061231000815,738.9061231000815,43,55,19,23,43,70,738.9061231000815,740.5739988998976,,,,,,,,,,,,,,,,,,,006,ｍ,２１,2023-05-13_15h49.41.587,RL,2022.2.5,59.98821833594402,
51,26,52,23,0,120,120,120,,,,,,,,None,740.5739988998976,740.5739988998976,740.5739988998976,740.5739988998976,740.5739988998976,740.5739988998976,f,0.34884769981727004,740.9431582000107,740.9431582000107,740.9431582000107,740.9431582000107,740.9431582000107,740.9431582000107,741.240773400059,742.9402278999332,742.9402278999332,742.9402278999332,742.9402278999332,742.9402278999332,742.9402278999332,742.9402278999332,742.9402278999332,742.9402278999332,742.9402278999332,742.9402278999332,742.9402278999332,742.9402278999332,742.9402278999332,744.9387405999005,744.9387405999005,744.9387405999005,744.9387405999005,744.9387405999005,744.9387405999005,744.9387405999005,51,52,23,26,51,70,744.9387405999005,746.7730155999307,,,,,,,,,,,,,,,,,,,006,ｍ,２１,2023-05-13_15h49.41.587,RL,2022.2.5,59.98821833594402,
