arm1,arm2,arm3,arm4,trials.thisRepN,trials.thisTrialN,trials.thisN,trials.thisIndex,instru_img1.started,instru_resp.started,instru_resp.keys,instru_resp.rt,image_2.started,text_2.started,image_2.stopped,text_2.stopped,fixbefore_2.started,fixbefore_2.stopped,rest_response.keys,red.started,green.started,yellow.started,blue.started,choose_bandit.started,Fixation.started,choose_bandit.keys,choose_bandit.rt,black.started,red_2.started,green_2.started,yellow_2.started,blue_2.started,fixation_2.started,docs.started,black.stopped,red_2.stopped,green_2.stopped,yellow_2.stopped,blue_2.stopped,fixation_2.stopped,docs.stopped,black_com.started,reward_sub.started,reward__sub.started,red_compare.started,green_com.started,yellow_com.started,blue_com.started,black_com.stopped,reward_sub.stopped,reward__sub.stopped,red_compare.stopped,green_com.stopped,yellow_com.stopped,blue_com.stopped,rewardred,rewardyellow,rewardblue,rewardgreen,subchoose,expectation,intertrialfix.started,intertrialfix.stopped,rest_image.started,rest_response.started,rest_response.rt,image_expect_after.started,text_exp_after.started,image_expect_after.stopped,text_exp_after.stopped,image.started,key_resp.started,key_resp.keys,participant,Gender,Age,date,expName,psychopyVersion,frameRate,
,,,,,,,,37.144667899934575,37.144667899934575,space,16.026301000034437,,,,,,,,,,,,,,,,,,,,,,,,,,,,,,,,,,,,,,,,,,,,,,,,,,,,,,,,,,,,,,００７,f,1９,2023-05-13_16h32.35.924,RL,2022.2.5,59.82045484285291,
42,42,58,55,0,0,0,0,,,,,53.190184500068426,53.190184500068426,58.19009799999185,58.19009799999185,58.19009799999185,59.1921369000338,None,59.1921369000338,59.1921369000338,59.1921369000338,59.1921369000338,59.1921369000338,59.1921369000338,r,0.3401830999646336,59.56563049997203,59.56563049997203,59.56563049997203,59.56563049997203,59.56563049997203,59.56563049997203,59.857693900121376,61.85843789996579,61.85843789996579,61.85843789996579,61.85843789996579,61.85843789996579,61.85843789996579,61.85843789996579,61.85843789996579,61.85843789996579,61.85843789996579,61.85843789996579,61.85843789996579,61.85843789996579,61.85843789996579,64.20004160003737,64.20004160003737,64.20004160003737,64.20004160003737,64.20004160003737,64.20004160003737,64.20004160003737,55,58,42,42,58,60,64.20004160003737,65.82287000003271,,,,,,,,,,,００７,f,1９,2023-05-13_16h32.35.924,RL,2022.2.5,59.82045484285291,
36,47,52,54,0,1,1,1,,,,,,,,,,,None,65.82287000003271,65.82287000003271,65.82287000003271,65.82287000003271,65.82287000003271,65.82287000003271,r,0.39344570017419755,66.2402649000287,66.2402649000287,66.2402649000287,66.2402649000287,66.2402649000287,66.2402649000287,66.52283890009858,68.12295260000974,68.12295260000974,68.12295260000974,68.12295260000974,68.12295260000974,68.12295260000974,68.10640359995887,68.12295260000974,68.12295260000974,68.12295260000974,68.12295260000974,68.12295260000974,68.12295260000974,68.12295260000974,70.0043325999286,70.0043325999286,70.0043325999286,70.0043325999286,70.0043325999286,70.0043325999286,70.0043325999286,54,52,36,47,52,60,70.0043325999286,71.73852170002647,,,,,,,,,,,００７,f,1９,2023-05-13_16h32.35.924,RL,2022.2.5,59.82045484285291,
45,50,58,55,0,2,2,2,,,,,,,,,,,None,71.73852170002647,71.73852170002647,71.73852170002647,71.73852170002647,71.73852170002647,71.73852170002647,i,0.41463400004431605,72.17236760002561,72.17236760002561,72.17236760002561,72.17236760002561,72.17236760002561,72.17236760002561,72.45556790009141,73.75517869996838,73.75517869996838,73.75517869996838,73.75517869996838,73.75517869996838,73.75517869996838,73.73874940001406,73.75517869996838,73.75517869996838,73.75517869996838,73.75517869996838,73.75517869996838,73.75517869996838,73.75517869996838,75.3368335000705,75.3368335000705,75.3368335000705,75.3368335000705,75.3368335000705,75.3368335000705,75.3368335000705,55,58,45,50,45,60,75.3368335000705,77.27109230007045,,,,,,,,,,,００７,f,1９,2023-05-13_16h32.35.924,RL,2022.2.5,59.82045484285291,
41,53,62,59,0,3,3,3,,,,,,,,,,,None,77.27109230007045,77.27109230007045,77.27109230007045,77.27109230007045,77.27109230007045,77.27109230007045,j,0.26025310019031167,77.55560640012845,77.55560640012845,77.55560640012845,77.55560640012845,77.55560640012845,77.55560640012845,77.83783670002595,79.55400700005703,79.55400700005703,79.55400700005703,79.55400700005703,79.55400700005703,79.55400700005703,79.53746780008078,79.55400700005703,79.55400700005703,79.55400700005703,79.55400700005703,79.55400700005703,79.55400700005703,79.55400700005703,81.55236480012536,81.55236480012536,81.55236480012536,81.55236480012536,81.55236480012536,81.55236480012536,81.55236480012536,59,62,41,53,53,60,81.55236480012536,83.17027199990116,,,,,,,,,,,００７,f,1９,2023-05-13_16h32.35.924,RL,2022.2.5,59.82045484285291,
44,54,59,55,0,4,4,4,,,,,,,,,,,None,83.17027199990116,83.17027199990116,83.17027199990116,83.17027199990116,83.17027199990116,83.17027199990116,j,0.2728971999604255,83.47502780007198,83.47502780007198,83.47502780007198,83.47502780007198,83.47502780007198,83.47502780007198,83.7706081001088,84.88689620001242,84.88689620001242,84.88689620001242,84.88689620001242,84.88689620001242,84.88689620001242,84.88689620001242,84.88689620001242,84.88689620001242,84.88689620001242,84.88689620001242,84.88689620001242,84.88689620001242,84.88689620001242,86.30146090011112,86.30146090011112,86.30146090011112,86.30146090011112,86.30146090011112,86.30146090011112,86.30146090011112,55,59,44,54,54,60,86.30146090011112,87.93589120008983,,,,,,,,,,,００７,f,1９,2023-05-13_16h32.35.924,RL,2022.2.5,59.82045484285291,
38,50,63,53,0,5,5,5,,,,,,,,,,,None,87.93589120008983,87.93589120008983,87.93589120008983,87.93589120008983,87.93589120008983,87.93589120008983,r,0.29795549996197224,88.25414770003408,88.25414770003408,88.25414770003408,88.25414770003408,88.25414770003408,88.25414770003408,88.55310730007477,90.01895850012079,90.01895850012079,90.01895850012079,90.01895850012079,90.01895850012079,90.01895850012079,90.01895850012079,90.01895850012079,90.01895850012079,90.01895850012079,90.01895850012079,90.01895850012079,90.01895850012079,90.01895850012079,91.78412279998884,91.78412279998884,91.78412279998884,91.78412279998884,91.78412279998884,91.78412279998884,91.78412279998884,53,63,38,50,63,60,91.78412279998884,93.61859380011447,,,,,,,,,,,００７,f,1９,2023-05-13_16h32.35.924,RL,2022.2.5,59.82045484285291,
43,58,67,58,0,6,6,6,,,,,,,,,,,None,93.61859380011447,93.61859380011447,93.61859380011447,93.61859380011447,93.61859380011447,93.61859380011447,j,0.5183327000122517,94.17468339996412,94.17468339996412,94.17468339996412,94.17468339996412,94.17468339996412,94.17468339996412,94.45188229996711,95.91818209993653,95.91818209993653,95.91818209993653,95.91818209993653,95.91818209993653,95.91818209993653,95.88507149997167,95.91818209993653,95.91818209993653,95.91818209993653,95.91818209993653,95.91818209993653,95.91818209993653,95.91818209993653,97.66639730008319,97.66639730008319,97.66639730008319,97.66639730008319,97.66639730008319,97.66639730008319,97.66639730008319,58,67,43,58,58,60,97.66639730008319,99.46725039999001,,,,,,,,,,,００７,f,1９,2023-05-13_16h32.35.924,RL,2022.2.5,59.82045484285291,
44,47,63,53,0,7,7,7,,,,,,,,,,,None,99.46725039999001,99.46725039999001,99.46725039999001,99.46725039999001,99.46725039999001,99.46725039999001,r,0.33286409988068044,99.81774269999005,99.81774269999005,99.81774269999005,99.81774269999005,99.81774269999005,99.81774269999005,100.11743539990857,101.5006872001104,101.5006872001104,101.5006872001104,101.5006872001104,101.5006872001104,101.5006872001104,101.5006872001104,101.5006872001104,101.5006872001104,101.5006872001104,101.5006872001104,101.5006872001104,101.5006872001104,101.5006872001104,103.18184360000305,103.18184360000305,103.18184360000305,103.18184360000305,103.18184360000305,103.18184360000305,103.18184360000305,53,63,44,47,63,60,103.18184360000305,104.69977990002371,,,,,,,,,,,００７,f,1９,2023-05-13_16h32.35.924,RL,2022.2.5,59.82045484285291,
43,50,68,48,0,8,8,8,,,,,,,,,,,None,104.69977990002371,104.69977990002371,104.69977990002371,104.69977990002371,104.69977990002371,104.69977990002371,j,0.2914855000562966,105.01848369999789,105.01848369999789,105.01848369999789,105.01848369999789,105.01848369999789,105.01848369999789,105.29985260008834,106.59924630005844,106.59924630005844,106.59924630005844,106.59924630005844,106.59924630005844,106.59924630005844,106.58306289999746,106.59924630005844,106.59924630005844,106.59924630005844,106.59924630005844,106.59924630005844,106.59924630005844,106.59924630005844,108.18105189991184,108.18105189991184,108.18105189991184,108.18105189991184,108.18105189991184,108.18105189991184,108.18105189991184,48,68,43,50,50,60,108.18105189991184,109.86574909999035,,,,,,,,,,,００７,f,1９,2023-05-13_16h32.35.924,RL,2022.2.5,59.82045484285291,
42,56,66,53,0,9,9,9,,,,,,,,,,,None,109.86574909999035,109.86574909999035,109.86574909999035,109.86574909999035,109.86574909999035,109.86574909999035,f,0.33329609991051257,110.21647830004804,110.21647830004804,110.21647830004804,110.21647830004804,110.21647830004804,110.21647830004804,110.5158863000106,111.64872039994225,111.64872039994225,111.64872039994225,111.64872039994225,111.64872039994225,111.64872039994225,111.64872039994225,111.64872039994225,111.64872039994225,111.64872039994225,111.64872039994225,111.64872039994225,111.64872039994225,111.64872039994225,113.08036400005221,113.08036400005221,113.08036400005221,113.08036400005221,113.08036400005221,113.08036400005221,113.08036400005221,53,66,42,56,53,60,113.08036400005221,115.06434169993736,,,,,,,,,,,００７,f,1９,2023-05-13_16h32.35.924,RL,2022.2.5,59.82045484285291,
45,49,70,50,0,10,10,10,,,,,,,,,,,None,115.06434169993736,115.06434169993736,115.06434169993736,115.06434169993736,115.06434169993736,115.06434169993736,f,0.3647482998203486,115.4527835000772,115.4527835000772,115.4527835000772,115.4527835000772,115.4527835000772,115.4527835000772,115.74834530008957,116.81434769998305,116.81434769998305,116.81434769998305,116.81434769998305,116.81434769998305,116.81434769998305,116.81434769998305,116.81434769998305,116.81434769998305,116.81434769998305,116.81434769998305,116.81434769998305,116.81434769998305,116.81434769998305,118.17944639991038,118.17944639991038,118.17944639991038,118.17944639991038,118.17944639991038,118.17944639991038,118.17944639991038,50,70,45,49,50,60,118.17944639991038,120.11390540003777,,,,,,,,,,,００７,f,1９,2023-05-13_16h32.35.924,RL,2022.2.5,59.82045484285291,
31,48,72,55,0,11,11,11,,,,,,,,,,,None,120.11390540003777,120.11390540003777,120.11390540003777,120.11390540003777,120.11390540003777,120.11390540003777,i,0.36195020005106926,120.497444299981,120.497444299981,120.497444299981,120.497444299981,120.497444299981,120.497444299981,120.78092180006206,121.79685440007597,121.79685440007597,121.79685440007597,121.79685440007597,121.79685440007597,121.79685440007597,121.78027190011926,121.79685440007597,121.79685440007597,121.79685440007597,121.79685440007597,121.79685440007597,121.79685440007597,121.79685440007597,123.09517679992132,123.09517679992132,123.09517679992132,123.09517679992132,123.09517679992132,123.09517679992132,123.09517679992132,55,72,31,48,31,60,123.09517679992132,124.97939840005711,,,,,,,,,,,００７,f,1９,2023-05-13_16h32.35.924,RL,2022.2.5,59.82045484285291,
32,48,60,46,0,12,12,12,,,,,,,,,,,None,124.97939840005711,124.97939840005711,124.97939840005711,124.97939840005711,124.97939840005711,124.97939840005711,r,0.2695303000509739,125.28350979997776,125.28350979997776,125.28350979997776,125.28350979997776,125.28350979997776,125.28350979997776,125.5629837999586,127.02930629998446,127.02930629998446,127.02930629998446,127.02930629998446,127.02930629998446,127.02930629998446,127.01312189991586,127.02930629998446,127.02930629998446,127.02930629998446,127.02930629998446,127.02930629998446,127.02930629998446,127.02930629998446,128.77720150002278,128.77720150002278,128.77720150002278,128.77720150002278,128.77720150002278,128.77720150002278,128.77720150002278,46,60,32,48,60,60,128.77720150002278,130.59503130009398,,,,,,,,,,,００７,f,1９,2023-05-13_16h32.35.924,RL,2022.2.5,59.82045484285291,
34,47,72,49,0,13,13,13,,,,,,,,,,,None,130.59503130009398,130.59503130009398,130.59503130009398,130.59503130009398,130.59503130009398,130.59503130009398,r,0.2599896998144686,130.87986090010963,130.87986090010963,130.87986090010963,130.87986090010963,130.87986090010963,130.87986090010963,131.17876500007696,132.7280779001303,132.7280779001303,132.7280779001303,132.7280779001303,132.7280779001303,132.7280779001303,132.7280779001303,132.7280779001303,132.7280779001303,132.7280779001303,132.7280779001303,132.7280779001303,132.7280779001303,132.7280779001303,134.57636840012856,134.57636840012856,134.57636840012856,134.57636840012856,134.57636840012856,134.57636840012856,134.57636840012856,49,72,34,47,72,60,134.57636840012856,136.22722909995355,,,,,,,,,,,００７,f,1９,2023-05-13_16h32.35.924,RL,2022.2.5,59.82045484285291,
34,53,68,52,0,14,14,14,,,,,,,,,,,None,136.22722909995355,136.22722909995355,136.22722909995355,136.22722909995355,136.22722909995355,136.22722909995355,r,0.22945840004831553,136.4790926000569,136.4790926000569,136.4790926000569,136.4790926000569,136.4790926000569,136.4790926000569,136.77751559996977,138.510565900011,138.510565900011,138.510565900011,138.510565900011,138.510565900011,138.510565900011,138.510565900011,138.510565900011,138.510565900011,138.510565900011,138.510565900011,138.510565900011,138.510565900011,138.510565900011,140.54205849999562,140.54205849999562,140.54205849999562,140.54205849999562,140.54205849999562,140.54205849999562,140.54205849999562,52,68,34,53,68,60,140.54205849999562,142.1601331999991,,,,,,,,,,,００７,f,1９,2023-05-13_16h32.35.924,RL,2022.2.5,59.82045484285291,
25,53,64,43,0,15,15,15,,,,,,,,,,,None,142.1601331999991,142.1601331999991,142.1601331999991,142.1601331999991,142.1601331999991,142.1601331999991,r,0.2923214000184089,142.47785959998146,142.47785959998146,142.47785959998146,142.47785959998146,142.47785959998146,142.47785959998146,142.77683240012266,143.79303000005893,143.79303000005893,143.79303000005893,143.79303000005893,143.79303000005893,143.79303000005893,143.79303000005893,143.79303000005893,143.79303000005893,143.79303000005893,143.79303000005893,143.79303000005893,143.79303000005893,143.79303000005893,145.1077704001218,145.1077704001218,145.1077704001218,145.1077704001218,145.1077704001218,145.1077704001218,145.1077704001218,43,64,25,53,64,60,145.1077704001218,146.97596690012142,,,,,,,,,,,００７,f,1９,2023-05-13_16h32.35.924,RL,2022.2.5,59.82045484285291,
20,51,63,43,0,16,16,16,,,,,,,,,,,None,146.97596690012142,146.97596690012142,146.97596690012142,146.97596690012142,146.97596690012142,146.97596690012142,r,0.2811136001255363,147.2763708999846,147.2763708999846,147.2763708999846,147.2763708999846,147.2763708999846,147.2763708999846,147.57579690008424,148.6925558000803,148.6925558000803,148.6925558000803,148.6925558000803,148.6925558000803,148.6925558000803,148.6925558000803,148.6925558000803,148.6925558000803,148.6925558000803,148.6925558000803,148.6925558000803,148.6925558000803,148.6925558000803,150.1068700000178,150.1068700000178,150.1068700000178,150.1068700000178,150.1068700000178,150.1068700000178,150.1068700000178,43,63,20,51,63,60,150.1068700000178,151.90815129992552,,,,,,,,,,,００７,f,1９,2023-05-13_16h32.35.924,RL,2022.2.5,59.82045484285291,
25,49,68,45,0,17,17,17,,,,,,,,,,,None,151.90815129992552,151.90815129992552,151.90815129992552,151.90815129992552,151.90815129992552,151.90815129992552,r,0.3506436001043767,152.29640089999884,152.29640089999884,152.29640089999884,152.29640089999884,152.29640089999884,152.29640089999884,152.57492549996823,153.89153770008124,153.89153770008124,153.89153770008124,153.89153770008124,153.89153770008124,153.89153770008124,153.87496930011548,153.89153770008124,153.89153770008124,153.89153770008124,153.89153770008124,153.89153770008124,153.89153770008124,153.89153770008124,155.48955529998057,155.48955529998057,155.48955529998057,155.48955529998057,155.48955529998057,155.48955529998057,155.48955529998057,45,68,25,49,68,60,155.48955529998057,157.27368220011704,,,,,,,,,,,００７,f,1９,2023-05-13_16h32.35.924,RL,2022.2.5,59.82045484285291,
26,51,69,46,0,18,18,18,,,,,,,,,,,None,157.27368220011704,157.27368220011704,157.27368220011704,157.27368220011704,157.27368220011704,157.27368220011704,r,0.26314699999056756,157.55834929994307,157.55834929994307,157.55834929994307,157.55834929994307,157.55834929994307,157.55834929994307,157.8574806000106,159.12336160009727,159.12336160009727,159.12336160009727,159.12336160009727,159.12336160009727,159.12336160009727,159.12336160009727,159.12336160009727,159.12336160009727,159.12336160009727,159.12336160009727,159.12336160009727,159.12336160009727,159.12336160009727,160.68849999993108,160.68849999993108,160.68849999993108,160.68849999993108,160.68849999993108,160.68849999993108,160.68849999993108,46,69,26,51,69,60,160.68849999993108,162.6228694000747,,,,,,,,,,,００７,f,1９,2023-05-13_16h32.35.924,RL,2022.2.5,59.82045484285291,
33,46,68,36,0,19,19,19,,,,,,,,,,,None,162.6228694000747,162.6228694000747,162.6228694000747,162.6228694000747,162.6228694000747,162.6228694000747,r,0.22701769997365773,162.8735015001148,162.8735015001148,162.8735015001148,162.8735015001148,162.8735015001148,162.8735015001148,163.15699220006354,163.98999830009416,163.98999830009416,163.98999830009416,163.98999830009416,163.98999830009416,163.98999830009416,163.97332330001518,163.98999830009416,163.98999830009416,163.98999830009416,163.98999830009416,163.98999830009416,163.98999830009416,163.98999830009416,165.10428029997274,165.10428029997274,165.10428029997274,165.10428029997274,165.10428029997274,165.10428029997274,165.10428029997274,36,68,33,46,68,60,165.10428029997274,166.95536320004612,,,,,,,,,,,００７,f,1９,2023-05-13_16h32.35.924,RL,2022.2.5,59.82045484285291,
36,50,65,48,0,20,20,20,,,,,,,,,,,None,166.95536320004612,166.95536320004612,166.95536320004612,166.95536320004612,166.95536320004612,166.95536320004612,r,0.2593687998596579,167.23932279995643,167.23932279995643,167.23932279995643,167.23932279995643,167.23932279995643,167.23932279995643,167.52239810000174,169.3387557999231,169.3387557999231,169.3387557999231,169.3387557999231,169.3387557999231,169.3387557999231,169.32257340010256,169.3387557999231,169.3387557999231,169.3387557999231,169.3387557999231,169.3387557999231,169.3387557999231,169.3387557999231,171.4369423999451,171.4369423999451,171.4369423999451,171.4369423999451,171.4369423999451,171.4369423999451,171.4369423999451,48,65,36,50,65,60,171.4369423999451,173.42109509999864,,,,,,,,,,,００７,f,1９,2023-05-13_16h32.35.924,RL,2022.2.5,59.82045484285291,
30,51,75,46,0,21,21,21,,,,,,,,,,,None,173.42109509999864,173.42109509999864,173.42109509999864,173.42109509999864,173.42109509999864,173.42109509999864,r,0.25082110008224845,173.70974839990959,173.70974839990959,173.70974839990959,173.70974839990959,173.70974839990959,173.70974839990959,173.98800810007378,175.4545144001022,175.4545144001022,175.4545144001022,175.4545144001022,175.4545144001022,175.4545144001022,175.4213145999238,175.4545144001022,175.4545144001022,175.4545144001022,175.4545144001022,175.4545144001022,175.4545144001022,175.4545144001022,177.18556930008344,177.18556930008344,177.18556930008344,177.18556930008344,177.18556930008344,177.18556930008344,177.18556930008344,46,75,30,51,75,60,177.18556930008344,179.02028729999438,,,,,,,,,,,００７,f,1９,2023-05-13_16h32.35.924,RL,2022.2.5,59.82045484285291,
23,55,71,45,0,22,22,22,,,,,,,,,,,None,179.02028729999438,179.02028729999438,179.02028729999438,179.02028729999438,179.02028729999438,179.02028729999438,r,0.5135838999412954,179.55521879997104,179.55521879997104,179.55521879997104,179.55521879997104,179.55521879997104,179.55521879997104,179.83716659992933,181.78655029996298,181.78655029996298,181.78655029996298,181.78655029996298,181.78655029996298,181.78655029996298,181.77004300011322,181.78655029996298,181.78655029996298,181.78655029996298,181.78655029996298,181.78655029996298,181.78655029996298,181.78655029996298,184.01830040011555,184.01830040011555,184.01830040011555,184.01830040011555,184.01830040011555,184.01830040011555,184.01830040011555,45,71,23,55,71,60,184.01830040011555,185.60240980004892,,,,,,,,,,,００７,f,1９,2023-05-13_16h32.35.924,RL,2022.2.5,59.82045484285291,
26,48,62,39,0,23,23,23,,,,,,,,,,,None,185.60240980004892,185.60240980004892,185.60240980004892,185.60240980004892,185.60240980004892,185.60240980004892,r,0.5305467001162469,186.1526607000269,186.1526607000269,186.1526607000269,186.1526607000269,186.1526607000269,186.1526607000269,186.4358043000102,188.45240349997766,188.45240349997766,188.45240349997766,188.45240349997766,188.45240349997766,188.45240349997766,188.43539769994095,188.45240349997766,188.45240349997766,188.45240349997766,188.45240349997766,188.45240349997766,188.45240349997766,188.45240349997766,190.7504877001047,190.7504877001047,190.7504877001047,190.7504877001047,190.7504877001047,190.7504877001047,190.7504877001047,39,62,26,48,62,60,190.7504877001047,192.40092810010538,,,,,,,,,,,００７,f,1９,2023-05-13_16h32.35.924,RL,2022.2.5,59.82045484285291,
38,54,60,45,0,24,24,24,,,,,,,,,,,None,192.40092810010538,192.40092810010538,192.40092810010538,192.40092810010538,192.40092810010538,192.40092810010538,r,0.24002050003036857,192.67063409998082,192.67063409998082,192.67063409998082,192.67063409998082,192.67063409998082,192.67063409998082,192.96798610012047,194.28452150011435,194.28452150011435,194.28452150011435,194.28452150011435,194.28452150011435,194.28452150011435,194.28452150011435,194.28452150011435,194.28452150011435,194.28452150011435,194.28452150011435,194.28452150011435,194.28452150011435,194.28452150011435,195.89910720009357,195.89910720009357,195.89910720009357,195.89910720009357,195.89910720009357,195.89910720009357,195.89910720009357,45,60,38,54,60,60,195.89910720009357,197.8332694999408,,,,,,,,,,,００７,f,1９,2023-05-13_16h32.35.924,RL,2022.2.5,59.82045484285291,
33,48,66,45,0,25,25,25,,,,,,,,,,,None,197.8332694999408,197.8332694999408,197.8332694999408,197.8332694999408,197.8332694999408,197.8332694999408,r,0.8087691001128405,198.6702364999801,198.6702364999801,198.6702364999801,198.6702364999801,198.6702364999801,198.6702364999801,198.95082490006462,199.98353790002875,199.98353790002875,199.98353790002875,199.98353790002875,199.98353790002875,199.98353790002875,199.9671785000246,199.98353790002875,199.98353790002875,199.98353790002875,199.98353790002875,199.98353790002875,199.98353790002875,199.98353790002875,201.2985410001129,201.2985410001129,201.2985410001129,201.2985410001129,201.2985410001129,201.2985410001129,201.2985410001129,45,66,33,48,66,60,201.2985410001129,203.03281050012447,,,,,,,,,,,００７,f,1９,2023-05-13_16h32.35.924,RL,2022.2.5,59.82045484285291,
22,54,63,42,0,26,26,26,,,,,,,,,,,None,203.03281050012447,203.03281050012447,203.03281050012447,203.03281050012447,203.03281050012447,203.03281050012447,r,0.29549259995110333,203.3496584999375,203.3496584999375,203.3496584999375,203.3496584999375,203.3496584999375,203.3496584999375,203.64967410010286,204.7497197999619,204.7497197999619,204.7497197999619,204.7497197999619,204.7497197999619,204.7497197999619,204.7497197999619,204.7497197999619,204.7497197999619,204.7497197999619,204.7497197999619,204.7497197999619,204.7497197999619,204.7497197999619,206.14753159997053,206.14753159997053,206.14753159997053,206.14753159997053,206.14753159997053,206.14753159997053,206.14753159997053,42,63,22,54,63,60,206.14753159997053,207.69892599992454,,,,,,,,,,,００７,f,1９,2023-05-13_16h32.35.924,RL,2022.2.5,59.82045484285291,
21,53,57,37,0,27,27,27,,,,,,,,,,,None,207.69892599992454,207.69892599992454,207.69892599992454,207.69892599992454,207.69892599992454,207.69892599992454,r,0.3388680999632925,208.06709440005943,208.06709440005943,208.06709440005943,208.06709440005943,208.06709440005943,208.06709440005943,208.34866279992275,209.33163419994526,209.33163419994526,209.33163419994526,209.33163419994526,209.33163419994526,209.33163419994526,209.31517790001817,209.33163419994526,209.33163419994526,209.33163419994526,209.33163419994526,209.33163419994526,209.33163419994526,209.33163419994526,210.59693460003473,210.59693460003473,210.59693460003473,210.59693460003473,210.59693460003473,210.59693460003473,210.59693460003473,37,57,21,53,57,60,210.59693460003473,212.4979062001221,,,,,,,,,,,００７,f,1９,2023-05-13_16h32.35.924,RL,2022.2.5,59.82045484285291,
9,54,50,35,0,28,28,28,,,,,,,,,,,None,212.4979062001221,212.4979062001221,212.4979062001221,212.4979062001221,212.4979062001221,212.4979062001221,r,0.2980123001616448,212.81470960006118,212.81470960006118,212.81470960006118,212.81470960006118,212.81470960006118,212.81470960006118,213.11447910009883,214.2312847999856,214.2312847999856,214.2312847999856,214.2312847999856,214.2312847999856,214.2312847999856,214.2312847999856,214.2312847999856,214.2312847999856,214.2312847999856,214.2312847999856,214.2312847999856,214.2312847999856,214.2312847999856,215.64596730004996,215.64596730004996,215.64596730004996,215.64596730004996,215.64596730004996,215.64596730004996,215.64596730004996,35,50,9,54,50,60,215.64596730004996,217.51363850012422,,,,,,,,,,,００７,f,1９,2023-05-13_16h32.35.924,RL,2022.2.5,59.82045484285291,
21,52,45,53,0,29,29,29,,,,,,,,,,,None,217.51363850012422,217.51363850012422,217.51363850012422,217.51363850012422,217.51363850012422,217.51363850012422,i,1.3702750999946147,218.9136799001135,218.9136799001135,218.9136799001135,218.9136799001135,218.9136799001135,218.9136799001135,219.21360130002722,220.86329329991713,220.86329329991713,220.86329329991713,220.86329329991713,220.86329329991713,220.86329329991713,220.86329329991713,220.86329329991713,220.86329329991713,220.86329329991713,220.86329329991713,220.86329329991713,220.86329329991713,220.86329329991713,222.8111412001308,222.8111412001308,222.8111412001308,222.8111412001308,222.8111412001308,222.8111412001308,222.8111412001308,53,45,21,52,21,60,222.8111412001308,224.51246690005064,,,,,,,,,,,００７,f,1９,2023-05-13_16h32.35.924,RL,2022.2.5,59.82045484285291,
27,57,44,42,0,30,30,30,,,,,,,,,,,None,224.51246690005064,224.51246690005064,224.51246690005064,224.51246690005064,224.51246690005064,224.51246690005064,r,0.7147220000624657,225.25048810010776,225.25048810010776,225.25048810010776,225.25048810010776,225.25048810010776,225.25048810010776,225.54589690011926,227.1620809000451,227.1620809000451,227.1620809000451,227.1620809000451,227.1620809000451,227.1620809000451,227.1453148999717,227.1620809000451,227.1620809000451,227.1620809000451,227.1620809000451,227.1620809000451,227.1620809000451,227.1620809000451,229.05995410005562,229.05995410005562,229.05995410005562,229.05995410005562,229.05995410005562,229.05995410005562,229.05995410005562,42,44,27,57,44,60,229.05995410005562,230.6110125000123,,,,,,,,,,,００７,f,1９,2023-05-13_16h32.35.924,RL,2022.2.5,59.82045484285291,
20,66,51,41,0,31,31,31,,,,,,,,,,,None,230.6110125000123,230.6110125000123,230.6110125000123,230.6110125000123,230.6110125000123,230.6110125000123,f,0.27000719984062016,230.9150990000926,230.9150990000926,230.9150990000926,230.9150990000926,230.9150990000926,230.9150990000926,231.1950296999421,233.1608732000459,233.1608732000459,233.1608732000459,233.1608732000459,233.1608732000459,233.1608732000459,233.1442921999842,233.1608732000459,233.1608732000459,233.1608732000459,233.1608732000459,233.1608732000459,233.1608732000459,233.1608732000459,235.4088383000344,235.4088383000344,235.4088383000344,235.4088383000344,235.4088383000344,235.4088383000344,235.4088383000344,41,51,20,66,41,60,235.4088383000344,237.3597879000008,,,,,,,,,,,００７,f,1９,2023-05-13_16h32.35.924,RL,2022.2.5,59.82045484285291,
13,53,51,38,0,32,32,32,,,,,,,,,,,None,237.3597879000008,237.3597879000008,237.3597879000008,237.3597879000008,237.3597879000008,237.3597879000008,j,0.2641510998364538,237.64555520005524,237.64555520005524,237.64555520005524,237.64555520005524,237.64555520005524,237.64555520005524,237.94350880011916,239.10994009999558,239.10994009999558,239.10994009999558,239.10994009999558,239.10994009999558,239.10994009999558,239.10994009999558,239.10994009999558,239.10994009999558,239.10994009999558,239.10994009999558,239.10994009999558,239.10994009999558,239.10994009999558,240.57461840007454,240.57461840007454,240.57461840007454,240.57461840007454,240.57461840007454,240.57461840007454,240.57461840007454,38,51,13,53,53,60,240.57461840007454,242.32594910007901,,,,,,,,,,,００７,f,1９,2023-05-13_16h32.35.924,RL,2022.2.5,59.82045484285291,
22,65,43,46,0,33,33,33,,,,,,,,,,,None,242.32594910007901,242.32594910007901,242.32594910007901,242.32594910007901,242.32594910007901,242.32594910007901,r,0.5517648998647928,242.9094475999009,242.9094475999009,242.9094475999009,242.9094475999009,242.9094475999009,242.9094475999009,243.20919129997492,244.7255237000063,244.7255237000063,244.7255237000063,244.7255237000063,244.7255237000063,244.7255237000063,244.7255237000063,244.7255237000063,244.7255237000063,244.7255237000063,244.7255237000063,244.7255237000063,244.7255237000063,244.7255237000063,246.54011399997398,246.54011399997398,246.54011399997398,246.54011399997398,246.54011399997398,246.54011399997398,246.54011399997398,46,43,22,65,43,60,246.54011399997398,248.17509289993905,,,,,,,,,,,００７,f,1９,2023-05-13_16h32.35.924,RL,2022.2.5,59.82045484285291,
15,65,39,42,0,34,34,34,,,,,,,,,,,None,248.17509289993905,248.17509289993905,248.17509289993905,248.17509289993905,248.17509289993905,248.17509289993905,j,0.3423564999829978,248.54194930009544,248.54194930009544,248.54194930009544,248.54194930009544,248.54194930009544,248.54194930009544,248.82510080002248,249.7412533001043,249.7412533001043,249.7412533001043,249.7412533001043,249.7412533001043,249.7412533001043,249.72493309993297,249.7412533001043,249.7412533001043,249.7412533001043,249.7412533001043,249.7412533001043,249.7412533001043,249.7412533001043,250.93983669998124,250.93983669998124,250.93983669998124,250.93983669998124,250.93983669998124,250.93983669998124,250.93983669998124,42,39,15,65,65,60,250.93983669998124,252.92383889993653,,,,,,,,,,,００７,f,1９,2023-05-13_16h32.35.924,RL,2022.2.5,59.82045484285291,
21,59,34,46,0,35,35,35,,,,,,,,,,,None,252.92383889993653,252.92383889993653,252.92383889993653,252.92383889993653,252.92383889993653,252.92383889993653,j,0.2451764999423176,253.19125090003945,253.19125090003945,253.19125090003945,253.19125090003945,253.19125090003945,253.19125090003945,253.4746358001139,254.72419940005057,254.72419940005057,254.72419940005057,254.72419940005057,254.72419940005057,254.72419940005057,254.70742260012776,254.72419940005057,254.72419940005057,254.72419940005057,254.72419940005057,254.72419940005057,254.72419940005057,254.72419940005057,256.2555633999873,256.2555633999873,256.2555633999873,256.2555633999873,256.2555633999873,256.2555633999873,256.2555633999873,46,34,21,59,59,60,256.2555633999873,258.02297549997456,,,,,,,,,,,００７,f,1９,2023-05-13_16h32.35.924,RL,2022.2.5,59.82045484285291,
17,63,43,40,0,36,36,36,,,,,,,,,,,None,258.02297549997456,258.02297549997456,258.02297549997456,258.02297549997456,258.02297549997456,258.02297549997456,j,0.2129448999185115,258.2567151999101,258.2567151999101,258.2567151999101,258.2567151999101,258.2567151999101,258.2567151999101,258.54042460001074,259.6397363001015,259.6397363001015,259.6397363001015,259.6397363001015,259.6397363001015,259.6397363001015,259.6231235000305,259.6397363001015,259.6397363001015,259.6397363001015,259.6397363001015,259.6397363001015,259.6397363001015,259.6397363001015,261.0214555999264,261.0214555999264,261.0214555999264,261.0214555999264,261.0214555999264,261.0214555999264,261.0214555999264,40,43,17,63,63,60,261.0214555999264,262.7387129999697,,,,,,,,,,,００７,f,1９,2023-05-13_16h32.35.924,RL,2022.2.5,59.82045484285291,
19,57,53,39,0,37,37,37,,,,,,,,,,,None,262.7387129999697,262.7387129999697,262.7387129999697,262.7387129999697,262.7387129999697,262.7387129999697,j,0.35904310015030205,263.1225735999178,263.1225735999178,263.1225735999178,263.1225735999178,263.1225735999178,263.1225735999178,263.42236130009405,264.55533799994737,264.55533799994737,264.55533799994737,264.55533799994737,264.55533799994737,264.55533799994737,264.55533799994737,264.55533799994737,264.55533799994737,264.55533799994737,264.55533799994737,264.55533799994737,264.55533799994737,264.55533799994737,265.9874440000858,265.9874440000858,265.9874440000858,265.9874440000858,265.9874440000858,265.9874440000858,265.9874440000858,39,53,19,57,57,60,265.9874440000858,267.93834310001694,,,,,,,,,,,００７,f,1９,2023-05-13_16h32.35.924,RL,2022.2.5,59.82045484285291,
21,59,45,42,0,38,38,38,,,,,,,,,,,None,267.93834310001694,267.93834310001694,267.93834310001694,267.93834310001694,267.93834310001694,267.93834310001694,j,0.2852328000590205,268.25806390005164,268.25806390005164,268.25806390005164,268.25806390005164,268.25806390005164,268.25806390005164,268.5385291001294,270.0212769000791,270.0212769000791,270.0212769000791,270.0212769000791,270.0212769000791,270.0212769000791,270.00434589991346,270.0212769000791,270.0212769000791,270.0212769000791,270.0212769000791,270.0212769000791,270.0212769000791,270.0212769000791,271.78571929992177,271.78571929992177,271.78571929992177,271.78571929992177,271.78571929992177,271.78571929992177,271.78571929992177,42,45,21,59,59,60,271.78571929992177,273.7038378000725,,,,,,,,,,,００７,f,1９,2023-05-13_16h32.35.924,RL,2022.2.5,59.82045484285291,
22,53,37,43,0,39,39,39,,,,,,,,,,,None,273.7038378000725,273.7038378000725,273.7038378000725,273.7038378000725,273.7038378000725,273.7038378000725,f,0.3919141998048872,274.12087220000103,274.12087220000103,274.12087220000103,274.12087220000103,274.12087220000103,274.12087220000103,274.40415799990296,276.3036307001021,276.3036307001021,276.3036307001021,276.3036307001021,276.3036307001021,276.3036307001021,276.2871926999651,276.3036307001021,276.3036307001021,276.3036307001021,276.3036307001021,276.3036307001021,276.3036307001021,276.3036307001021,278.48471449990757,278.48471449990757,278.48471449990757,278.48471449990757,278.48471449990757,278.48471449990757,278.48471449990757,43,37,22,53,43,60,278.48471449990757,280.1358717000112,,,,,,,,,,,００７,f,1９,2023-05-13_16h32.35.924,RL,2022.2.5,59.82045484285291,
26,56,38,52,0,40,40,40,,,,,,,,,,,None,280.1358717000112,280.1358717000112,280.1358717000112,280.1358717000112,280.1358717000112,280.1358717000112,j,0.29878790001384914,280.45275279995985,280.45275279995985,280.45275279995985,280.45275279995985,280.45275279995985,280.45275279995985,280.7530592000112,282.3523862999864,282.3523862999864,282.3523862999864,282.3523862999864,282.3523862999864,282.3523862999864,282.3523862999864,282.3523862999864,282.3523862999864,282.3523862999864,282.3523862999864,282.3523862999864,282.3523862999864,282.3523862999864,284.2501966001,284.2501966001,284.2501966001,284.2501966001,284.2501966001,284.2501966001,284.2501966001,52,38,26,56,56,60,284.2501966001,285.80122709996067,,,,,,,,,,,００７,f,1９,2023-05-13_16h32.35.924,RL,2022.2.5,59.82045484285291,
16,48,33,48,0,41,41,41,,,,,,,,,,,None,285.80122709996067,285.80122709996067,285.80122709996067,285.80122709996067,285.80122709996067,285.80122709996067,r,0.3365644000004977,286.1686442999635,286.1686442999635,286.1686442999635,286.1686442999635,286.1686442999635,286.1686442999635,286.4523223999422,288.1014725000132,288.1014725000132,288.1014725000132,288.1014725000132,288.1014725000132,288.1014725000132,288.08478270005435,288.1014725000132,288.1014725000132,288.1014725000132,288.1014725000132,288.1014725000132,288.1014725000132,288.1014725000132,290.03284260001965,290.03284260001965,290.03284260001965,290.03284260001965,290.03284260001965,290.03284260001965,290.03284260001965,48,33,16,48,33,60,290.03284260001965,291.63358130003326,,,,,,,,,,,００７,f,1９,2023-05-13_16h32.35.924,RL,2022.2.5,59.82045484285291,
26,55,37,48,0,42,42,42,,,,,,,,,,,None,291.63358130003326,291.63358130003326,291.63358130003326,291.63358130003326,291.63358130003326,291.63358130003326,i,0.2656658000778407,291.9174977000803,291.9174977000803,291.9174977000803,291.9174977000803,291.9174977000803,291.9174977000803,292.20052960002795,293.90035040001385,293.90035040001385,293.90035040001385,293.90035040001385,293.90035040001385,293.90035040001385,293.8837931000162,293.90035040001385,293.90035040001385,293.90035040001385,293.90035040001385,293.90035040001385,293.90035040001385,293.90035040001385,295.8815911000129,295.8815911000129,295.8815911000129,295.8815911000129,295.8815911000129,295.8815911000129,295.8815911000129,48,37,26,55,26,60,295.8815911000129,297.69976889993995,,,,,,,,,,,００７,f,1９,2023-05-13_16h32.35.924,RL,2022.2.5,59.82045484285291,
26,48,45,54,0,43,43,43,,,,,,,,,,,None,297.69976889993995,297.69976889993995,297.69976889993995,297.69976889993995,297.69976889993995,297.69976889993995,j,0.3745158000383526,298.10091480007395,298.10091480007395,298.10091480007395,298.10091480007395,298.10091480007395,298.10091480007395,298.3834299000446,300.0492680000607,300.0492680000607,300.0492680000607,300.0492680000607,300.0492680000607,300.0492680000607,300.03298639995046,300.0492680000607,300.0492680000607,300.0492680000607,300.0492680000607,300.0492680000607,300.0492680000607,300.0492680000607,301.99713109992445,301.99713109992445,301.99713109992445,301.99713109992445,301.99713109992445,301.99713109992445,301.99713109992445,54,45,26,48,48,60,301.99713109992445,303.88172929990105,,,,,,,,,,,００７,f,1９,2023-05-13_16h32.35.924,RL,2022.2.5,59.82045484285291,
27,48,39,44,0,44,44,44,,,,,,,,,,,None,303.88172929990105,303.88172929990105,303.88172929990105,303.88172929990105,303.88172929990105,303.88172929990105,f,0.3121066999156028,304.2160734999925,304.2160734999925,304.2160734999925,304.2160734999925,304.2160734999925,304.2160734999925,304.51529860007577,305.8650605001021,305.8650605001021,305.8650605001021,305.8650605001021,305.8650605001021,305.8650605001021,305.8650605001021,305.8650605001021,305.8650605001021,305.8650605001021,305.8650605001021,305.8650605001021,305.8650605001021,305.8650605001021,307.5131954001263,307.5131954001263,307.5131954001263,307.5131954001263,307.5131954001263,307.5131954001263,307.5131954001263,44,39,27,48,44,60,307.5131954001263,309.3641862999648,,,,,,,,,,,００７,f,1９,2023-05-13_16h32.35.924,RL,2022.2.5,59.82045484285291,
26,52,34,45,0,45,45,45,,,,,,,,,,,None,309.3641862999648,309.3641862999648,309.3641862999648,309.3641862999648,309.3641862999648,309.3641862999648,r,0.24990370008163154,309.63134309998713,309.63134309998713,309.63134309998713,309.63134309998713,309.63134309998713,309.63134309998713,309.9143568999134,311.3144588000141,311.3144588000141,311.3144588000141,311.3144588000141,311.3144588000141,311.3144588000141,311.297656300012,311.3144588000141,311.3144588000141,311.3144588000141,311.3144588000141,311.3144588000141,311.3144588000141,311.3144588000141,312.9957530000247,312.9957530000247,312.9957530000247,312.9957530000247,312.9957530000247,312.9957530000247,312.9957530000247,45,34,26,52,34,60,312.9957530000247,314.7632126000244,,,,,,,,,,,００７,f,1９,2023-05-13_16h32.35.924,RL,2022.2.5,59.82045484285291,
23,42,37,50,0,46,46,46,,,,,,,,,,,None,314.7632126000244,314.7632126000244,314.7632126000244,314.7632126000244,314.7632126000244,314.7632126000244,j,0.3715864000841975,315.1645355001092,315.1645355001092,315.1645355001092,315.1645355001092,315.1645355001092,315.1645355001092,315.4467899000738,316.74646389996633,316.74646389996633,316.74646389996633,316.74646389996633,316.74646389996633,316.74646389996633,316.7302139000967,316.74646389996633,316.74646389996633,316.74646389996633,316.74646389996633,316.74646389996633,316.74646389996633,316.74646389996633,318.3280511999037,318.3280511999037,318.3280511999037,318.3280511999037,318.3280511999037,318.3280511999037,318.3280511999037,50,37,23,42,42,60,318.3280511999037,319.9125679000281,,,,,,,,,,,００７,f,1９,2023-05-13_16h32.35.924,RL,2022.2.5,59.82045484285291,
26,48,39,45,0,47,47,47,,,,,,,,,,,None,319.9125679000281,319.9125679000281,319.9125679000281,319.9125679000281,319.9125679000281,319.9125679000281,i,0.29984600003808737,320.2298773000948,320.2298773000948,320.2298773000948,320.2298773000948,320.2298773000948,320.2298773000948,320.5295740000438,322.0121919999365,322.0121919999365,322.0121919999365,322.0121919999365,322.0121919999365,322.0121919999365,322.0121919999365,322.0121919999365,322.0121919999365,322.0121919999365,322.0121919999365,322.0121919999365,322.0121919999365,322.0121919999365,323.7931770000141,323.7931770000141,323.7931770000141,323.7931770000141,323.7931770000141,323.7931770000141,323.7931770000141,45,39,26,48,26,60,323.7931770000141,325.46149730007164,,,,,,,,,,,００７,f,1９,2023-05-13_16h32.35.924,RL,2022.2.5,59.82045484285291,
23,48,42,45,0,48,48,48,,,,,,,,,,,None,325.46149730007164,325.46149730007164,325.46149730007164,325.46149730007164,325.46149730007164,325.46149730007164,f,0.3132867000531405,325.7950538001023,325.7950538001023,325.7950538001023,325.7950538001023,325.7950538001023,325.7950538001023,326.0785650999751,326.9283054000698,326.9283054000698,326.9283054000698,326.9283054000698,326.9283054000698,326.9283054000698,326.9115136999171,326.9283054000698,326.9283054000698,326.9283054000698,326.9283054000698,326.9283054000698,326.9283054000698,326.9283054000698,328.0597045000177,328.0597045000177,328.0597045000177,328.0597045000177,328.0597045000177,328.0597045000177,328.0597045000177,45,42,23,48,45,60,328.0597045000177,329.7937418001238,,,,,,,,,,,００７,f,1９,2023-05-13_16h32.35.924,RL,2022.2.5,59.82045484285291,
21,48,40,46,0,49,49,49,,,,,,,,,,,None,329.7937418001238,329.7937418001238,329.7937418001238,329.7937418001238,329.7937418001238,329.7937418001238,f,0.26374419988133013,330.07779160002246,330.07779160002246,330.07779160002246,330.07779160002246,330.07779160002246,330.07779160002246,330.3608794999309,331.3605567999184,331.3605567999184,331.3605567999184,331.3605567999184,331.3605567999184,331.3605567999184,331.34406320005655,331.3605567999184,331.3605567999184,331.3605567999184,331.3605567999184,331.3605567999184,331.3605567999184,331.3605567999184,332.64194100000896,332.64194100000896,332.64194100000896,332.64194100000896,332.64194100000896,332.64194100000896,332.64194100000896,46,40,21,48,46,60,332.64194100000896,334.52616100013256,,,,,,,,,,,００７,f,1９,2023-05-13_16h32.35.924,RL,2022.2.5,59.82045484285291,
24,43,48,41,0,50,50,50,,,,,,,,,,,None,334.52616100013256,334.52616100013256,334.52616100013256,334.52616100013256,334.52616100013256,334.52616100013256,j,0.37928710016421974,334.9312803999055,334.9312803999055,334.9312803999055,334.9312803999055,334.9312803999055,334.9312803999055,335.22663430008106,336.46013840008527,336.46013840008527,336.46013840008527,336.46013840008527,336.46013840008527,336.46013840008527,336.44338100007735,336.46013840008527,336.46013840008527,336.46013840008527,336.46013840008527,336.46013840008527,336.46013840008527,336.46013840008527,337.9745793999173,337.9745793999173,337.9745793999173,337.9745793999173,337.9745793999173,337.9745793999173,337.9745793999173,41,48,24,43,43,60,337.9745793999173,339.5089924999047,,,,,,,,,,,００７,f,1９,2023-05-13_16h32.35.924,RL,2022.2.5,59.82045484285291,
35,50,46,43,0,51,51,51,,,,,,,,,,,None,339.5089924999047,339.5089924999047,339.5089924999047,339.5089924999047,339.5089924999047,339.5089924999047,j,0.6232583001255989,340.1606942000799,340.1606942000799,340.1606942000799,340.1606942000799,340.1606942000799,340.1606942000799,340.4424948999658,341.52587720006704,341.52587720006704,341.52587720006704,341.52587720006704,341.52587720006704,341.52587720006704,341.5090729999356,341.52587720006704,341.52587720006704,341.52587720006704,341.52587720006704,341.52587720006704,341.52587720006704,341.52587720006704,342.8906239999924,342.8906239999924,342.8906239999924,342.8906239999924,342.8906239999924,342.8906239999924,342.8906239999924,43,46,35,50,50,60,342.8906239999924,344.5581086999737,,,,,,,,,,,００７,f,1９,2023-05-13_16h32.35.924,RL,2022.2.5,59.82045484285291,
33,51,50,36,0,52,52,52,,,,,,,,,,,None,344.5581086999737,344.5581086999737,344.5581086999737,344.5581086999737,344.5581086999737,344.5581086999737,j,0.3300522000063211,344.9084473999683,344.9084473999683,344.9084473999683,344.9084473999683,344.9084473999683,344.9084473999683,345.1914097000845,346.14119100011885,346.14119100011885,346.14119100011885,346.14119100011885,346.14119100011885,346.14119100011885,346.1247376999818,346.14119100011885,346.14119100011885,346.14119100011885,346.14119100011885,346.14119100011885,346.14119100011885,346.14119100011885,347.37319909990765,347.37319909990765,347.37319909990765,347.37319909990765,347.37319909990765,347.37319909990765,347.37319909990765,36,50,33,51,51,60,347.37319909990765,349.0409935999196,,,,,,,,,,,００７,f,1９,2023-05-13_16h32.35.924,RL,2022.2.5,59.82045484285291,
22,48,53,41,0,53,53,53,,,,,,,,,,,None,349.0409935999196,349.0409935999196,349.0409935999196,349.0409935999196,349.0409935999196,349.0409935999196,j,0.35998410009779036,349.4260056000203,349.4260056000203,349.4260056000203,349.4260056000203,349.4260056000203,349.4260056000203,349.7242247001268,351.0741020999849,351.0741020999849,351.0741020999849,351.0741020999849,351.0741020999849,351.0741020999849,351.0741020999849,351.0741020999849,351.0741020999849,351.0741020999849,351.0741020999849,351.0741020999849,351.0741020999849,351.0741020999849,352.721933899913,352.721933899913,352.721933899913,352.721933899913,352.721933899913,352.721933899913,352.721933899913,41,53,22,48,48,60,352.721933899913,354.3227601000108,,,,,,,,,,,００７,f,1９,2023-05-13_16h32.35.924,RL,2022.2.5,59.82045484285291,
26,41,54,37,0,54,54,54,,,,,,,,,,,None,354.3227601000108,354.3227601000108,354.3227601000108,354.3227601000108,354.3227601000108,354.3227601000108,j,0.3903656001202762,354.7443518000655,354.7443518000655,354.7443518000655,354.7443518000655,354.7443518000655,354.7443518000655,355.0398393999785,356.03991720010526,356.03991720010526,356.03991720010526,356.03991720010526,356.03991720010526,356.03991720010526,356.03991720010526,356.03991720010526,356.03991720010526,356.03991720010526,356.03991720010526,356.03991720010526,356.03991720010526,356.03991720010526,357.33751569991,357.33751569991,357.33751569991,357.33751569991,357.33751569991,357.33751569991,357.33751569991,37,54,26,41,41,60,357.33751569991,359.07181350002065,,,,,,,,,,,００７,f,1９,2023-05-13_16h32.35.924,RL,2022.2.5,59.82045484285291,
23,36,55,43,0,55,55,55,,,,,,,,,,,None,359.07181350002065,359.07181350002065,359.07181350002065,359.07181350002065,359.07181350002065,359.07181350002065,i,0.4233756000176072,359.53256110008806,359.53256110008806,359.53256110008806,359.53256110008806,359.53256110008806,359.53256110008806,359.80571170011535,361.7051907000132,361.7051907000132,361.7051907000132,361.7051907000132,361.7051907000132,361.7051907000132,361.68851440004073,361.7051907000132,361.7051907000132,361.7051907000132,361.7051907000132,361.7051907000132,361.7051907000132,361.7051907000132,363.8867015000433,363.8867015000433,363.8867015000433,363.8867015000433,363.8867015000433,363.8867015000433,363.8867015000433,43,55,23,36,23,60,363.8867015000433,365.85442700004205,,,,,,,,,,,００７,f,1９,2023-05-13_16h32.35.924,RL,2022.2.5,59.82045484285291,
25,36,55,40,0,56,56,56,,,,,,,,,,,None,365.85442700004205,365.85442700004205,365.85442700004205,365.85442700004205,365.85442700004205,365.85442700004205,f,0.4209486998151988,366.3049983000383,366.3049983000383,366.3049983000383,366.3049983000383,366.3049983000383,366.3049983000383,366.5877145000268,368.10415020002984,368.10415020002984,368.10415020002984,368.10415020002984,368.10415020002984,368.10415020002984,368.08745250012726,368.10415020002984,368.10415020002984,368.10415020002984,368.10415020002984,368.10415020002984,368.10415020002984,368.10415020002984,369.90210300008766,369.90210300008766,369.90210300008766,369.90210300008766,369.90210300008766,369.90210300008766,369.90210300008766,40,55,25,36,40,60,369.90210300008766,371.436680899933,,,,,,,,,,,００７,f,1９,2023-05-13_16h32.35.924,RL,2022.2.5,59.82045484285291,
10,41,58,55,0,57,57,57,,,,,,,,,,,None,371.436680899933,371.436680899933,371.436680899933,371.436680899933,371.436680899933,371.436680899933,r,0.3719622998032719,371.83831920009106,371.83831920009106,371.83831920009106,371.83831920009106,371.83831920009106,371.83831920009106,372.12038629991,374.11306299990974,374.11306299990974,374.11306299990974,374.11306299990974,374.11306299990974,374.11306299990974,374.053167300066,374.11306299990974,374.11306299990974,374.11306299990974,374.11306299990974,374.11306299990974,374.11306299990974,374.11306299990974,376.35129670007154,376.35129670007154,376.35129670007154,376.35129670007154,376.35129670007154,376.35129670007154,376.35129670007154,55,58,10,41,58,60,376.35129670007154,378.3021466000937,,,,,,,,,,,００７,f,1９,2023-05-13_16h32.35.924,RL,2022.2.5,59.82045484285291,
13,50,53,46,0,58,58,58,,,,,,,,,,,None,378.3021466000937,378.3021466000937,378.3021466000937,378.3021466000937,378.3021466000937,378.3021466000937,r,0.21757979993708432,378.5531228999607,378.5531228999607,378.5531228999607,378.5531228999607,378.5531228999607,378.5531228999607,378.8358833999373,380.7522100000642,380.7522100000642,380.7522100000642,380.7522100000642,380.7522100000642,380.7522100000642,380.73542369995266,380.7522100000642,380.7522100000642,380.7522100000642,380.7522100000642,380.7522100000642,380.7522100000642,380.7522100000642,382.9498018999584,382.9498018999584,382.9498018999584,382.9498018999584,382.9498018999584,382.9498018999584,382.9498018999584,46,53,13,50,53,60,382.9498018999584,384.71754990005866,,,,,,,,,,,００７,f,1９,2023-05-13_16h32.35.924,RL,2022.2.5,59.82045484285291,
25,50,63,32,0,59,59,59,,,,,,,,,,,None,384.71754990005866,384.71754990005866,384.71754990005866,384.71754990005866,384.71754990005866,384.71754990005866,r,0.20015849987976253,384.95720740011893,384.95720740011893,384.95720740011893,384.95720740011893,384.95720740011893,384.95720740011893,385.23449719999917,387.08425460010767,387.08425460010767,387.08425460010767,387.08425460010767,387.08425460010767,387.08425460010767,387.0678399000317,387.08425460010767,387.08425460010767,387.08425460010767,387.08425460010767,387.08425460010767,387.08425460010767,387.08425460010767,389.21530029992573,389.21530029992573,389.21530029992573,389.21530029992573,389.21530029992573,389.21530029992573,389.21530029992573,32,63,25,50,63,60,389.21530029992573,391.2000110000372,,,,,,,,,,,００７,f,1９,2023-05-13_16h32.35.924,RL,2022.2.5,59.82045484285291,
6,48,71,41,0,60,60,60,,,,,,,,,,,None,391.2000110000372,391.2000110000372,391.2000110000372,391.2000110000372,391.2000110000372,391.2000110000372,r,0.25817400007508695,391.48356280010194,391.48356280010194,391.48356280010194,391.48356280010194,391.48356280010194,391.48356280010194,391.76697520003654,393.6831920000259,393.6831920000259,393.6831920000259,393.6831920000259,393.6831920000259,393.6831920000259,393.6664337001275,393.6831920000259,393.6831920000259,393.6831920000259,393.6831920000259,393.6831920000259,393.6831920000259,393.6831920000259,395.8808303999249,395.8808303999249,395.8808303999249,395.8808303999249,395.8808303999249,395.8808303999249,395.8808303999249,41,71,6,48,71,60,395.8808303999249,397.3990354000125,,,,,,,,,,,００７,f,1９,2023-05-13_16h32.35.924,RL,2022.2.5,59.82045484285291,
19,53,63,39,0,61,61,61,,,,,,,,,,,None,397.3990354000125,397.3990354000125,397.3990354000125,397.3990354000125,397.3990354000125,397.3990354000125,r,0.28800499998033047,397.71604750002734,397.71604750002734,397.71604750002734,397.71604750002734,397.71604750002734,397.71604750002734,397.998947000131,398.9657509000972,398.9657509000972,398.9657509000972,398.9657509000972,398.9657509000972,398.9657509000972,398.9490235999692,398.9657509000972,398.9657509000972,398.9657509000972,398.9657509000972,398.9657509000972,398.9657509000972,398.9657509000972,400.2135525001213,400.2135525001213,400.2135525001213,400.2135525001213,400.2135525001213,400.2135525001213,400.2135525001213,39,63,19,53,63,60,400.2135525001213,402.0146866000723,,,,,,,,,,,００７,f,1９,2023-05-13_16h32.35.924,RL,2022.2.5,59.82045484285291,
14,41,68,32,0,62,62,62,,,,,,,,,,,None,402.0146866000723,402.0146866000723,402.0146866000723,402.0146866000723,402.0146866000723,402.0146866000723,r,0.365322700003162,402.39925389993005,402.39925389993005,402.39925389993005,402.39925389993005,402.39925389993005,402.39925389993005,402.6981810000725,403.69798890012316,403.69798890012316,403.69798890012316,403.69798890012316,403.69798890012316,403.69798890012316,403.69798890012316,403.69798890012316,403.69798890012316,403.69798890012316,403.69798890012316,403.69798890012316,403.69798890012316,403.69798890012316,404.9959766000975,404.9959766000975,404.9959766000975,404.9959766000975,404.9959766000975,404.9959766000975,404.9959766000975,32,68,14,41,68,60,404.9959766000975,406.9637861000374,,,,,,,,,,,００７,f,1９,2023-05-13_16h32.35.924,RL,2022.2.5,59.82045484285291,
19,39,62,41,0,63,63,63,,,,,,,,,,,None,406.9637861000374,406.9637861000374,406.9637861000374,406.9637861000374,406.9637861000374,406.9637861000374,r,0.29846309986896813,407.2813693000935,407.2813693000935,407.2813693000935,407.2813693000935,407.2813693000935,407.2813693000935,407.5806859000586,408.61428970005363,408.61428970005363,408.61428970005363,408.61428970005363,408.61428970005363,408.61428970005363,408.61428970005363,408.61428970005363,408.61428970005363,408.61428970005363,408.61428970005363,408.61428970005363,408.61428970005363,408.61428970005363,409.94534189999104,409.94534189999104,409.94534189999104,409.94534189999104,409.94534189999104,409.94534189999104,409.94534189999104,41,62,19,39,62,60,409.94534189999104,411.94611370004714,,,,,,,,,,,００７,f,1９,2023-05-13_16h32.35.924,RL,2022.2.5,59.82045484285291,
22,36,72,47,0,64,64,64,,,,,,,,,,,None,411.94611370004714,411.94611370004714,411.94611370004714,411.94611370004714,411.94611370004714,411.94611370004714,r,0.3450837000273168,412.3150341999717,412.3150341999717,412.3150341999717,412.3150341999717,412.3150341999717,412.3150341999717,412.6135124999564,413.77947920002043,413.77947920002043,413.77947920002043,413.77947920002043,413.77947920002043,413.77947920002043,413.77947920002043,413.77947920002043,413.77947920002043,413.77947920002043,413.77947920002043,413.77947920002043,413.77947920002043,413.77947920002043,415.24414970004,415.24414970004,415.24414970004,415.24414970004,415.24414970004,415.24414970004,415.24414970004,47,72,22,36,72,60,415.24414970004,417.1951786999125,,,,,,,,,,,００７,f,1９,2023-05-13_16h32.35.924,RL,2022.2.5,59.82045484285291,
21,39,61,48,0,65,65,65,,,,,,,,,,,None,417.1951786999125,417.1951786999125,417.1951786999125,417.1951786999125,417.1951786999125,417.1951786999125,r,0.2726795000489801,417.49723000009544,417.49723000009544,417.49723000009544,417.49723000009544,417.49723000009544,417.49723000009544,417.79566709999926,419.7120713999029,419.7120713999029,419.7120713999029,419.7120713999029,419.7120713999029,419.7120713999029,419.69559730007313,419.7120713999029,419.7120713999029,419.7120713999029,419.7120713999029,419.7120713999029,419.7120713999029,419.7120713999029,421.91000190004706,421.91000190004706,421.91000190004706,421.91000190004706,421.91000190004706,421.91000190004706,421.91000190004706,48,61,21,39,61,60,421.91000190004706,423.7608429000247,,,,,,,,,,,００７,f,1９,2023-05-13_16h32.35.924,RL,2022.2.5,59.82045484285291,
21,43,68,43,0,66,66,66,,,,,,,,,,,None,423.7608429000247,423.7608429000247,423.7608429000247,423.7608429000247,423.7608429000247,423.7608429000247,r,0.3015277001541108,424.098532800097,424.098532800097,424.098532800097,424.098532800097,424.098532800097,424.098532800097,424.37822080007754,425.37752120010555,425.37752120010555,425.37752120010555,425.37752120010555,425.37752120010555,425.37752120010555,425.36089539993554,425.37752120010555,425.37752120010555,425.37752120010555,425.37752120010555,425.37752120010555,425.37752120010555,425.37752120010555,426.6589619999286,426.6589619999286,426.6589619999286,426.6589619999286,426.6589619999286,426.6589619999286,426.6589619999286,43,68,21,43,68,60,426.6589619999286,428.6596731999889,,,,,,,,,,,００７,f,1９,2023-05-13_16h32.35.924,RL,2022.2.5,59.82045484285291,
26,49,81,53,0,67,67,67,,,,,,,,,,,None,428.6596731999889,428.6596731999889,428.6596731999889,428.6596731999889,428.6596731999889,428.6596731999889,r,0.29797389986924827,428.97822890011594,428.97822890011594,428.97822890011594,428.97822890011594,428.97822890011594,428.97822890011594,429.260686499998,430.7938467001077,430.7938467001077,430.7938467001077,430.7938467001077,430.7938467001077,430.7938467001077,430.77708930009976,430.7938467001077,430.7938467001077,430.7938467001077,430.7938467001077,430.7938467001077,430.7938467001077,430.7938467001077,432.60794329992495,432.60794329992495,432.60794329992495,432.60794329992495,432.60794329992495,432.60794329992495,432.60794329992495,53,81,26,49,81,60,432.60794329992495,434.4257624000311,,,,,,,,,,,００７,f,1９,2023-05-13_16h32.35.924,RL,2022.2.5,59.82045484285291,
29,45,66,44,0,68,68,68,,,,,,,,,,,None,434.4257624000311,434.4257624000311,434.4257624000311,434.4257624000311,434.4257624000311,434.4257624000311,r,0.25659299991093576,434.71073940000497,434.71073940000497,434.71073940000497,434.71073940000497,434.71073940000497,434.71073940000497,435.0094089000486,436.90890550008044,436.90890550008044,436.90890550008044,436.90890550008044,436.90890550008044,436.90890550008044,436.90890550008044,436.90890550008044,436.90890550008044,436.90890550008044,436.90890550008044,436.90890550008044,436.90890550008044,436.90890550008044,439.10673430003226,439.10673430003226,439.10673430003226,439.10673430003226,439.10673430003226,439.10673430003226,439.10673430003226,44,66,29,45,66,60,439.10673430003226,440.9912030000705,,,,,,,,,,,００７,f,1９,2023-05-13_16h32.35.924,RL,2022.2.5,59.82045484285291,
25,33,65,45,0,69,69,69,,,,,,,,,,,None,440.9912030000705,440.9912030000705,440.9912030000705,440.9912030000705,440.9912030000705,440.9912030000705,r,0.19601149996742606,441.20980260008946,441.20980260008946,441.20980260008946,441.20980260008946,441.20980260008946,441.20980260008946,441.49149250006303,443.05823790002614,443.05823790002614,443.05823790002614,443.05823790002614,443.05823790002614,443.05823790002614,443.04148150002584,443.05823790002614,443.05823790002614,443.05823790002614,443.05823790002614,443.05823790002614,443.05823790002614,443.05823790002614,444.90579680004157,444.90579680004157,444.90579680004157,444.90579680004157,444.90579680004157,444.90579680004157,444.90579680004157,45,65,25,33,65,60,444.90579680004157,446.4570090000052,,,,,,,,,,,００７,f,1９,2023-05-13_16h32.35.924,RL,2022.2.5,59.82045484285291,
30,41,74,47,0,70,70,70,,,,,,,,,,,None,446.4570090000052,446.4570090000052,446.4570090000052,446.4570090000052,446.4570090000052,446.4570090000052,r,0.29051170009188354,446.7740678000264,446.7740678000264,446.7740678000264,446.7740678000264,446.7740678000264,446.7740678000264,447.07384649990126,448.5738896999974,448.5738896999974,448.5738896999974,448.5738896999974,448.5738896999974,448.5738896999974,448.5738896999974,448.5738896999974,448.5738896999974,448.5738896999974,448.5738896999974,448.5738896999974,448.5738896999974,448.5738896999974,450.37174100009724,450.37174100009724,450.37174100009724,450.37174100009724,450.37174100009724,450.37174100009724,450.37174100009724,47,74,30,41,74,60,450.37174100009724,452.1390899999533,,,,,,,,,,,００７,f,1９,2023-05-13_16h32.35.924,RL,2022.2.5,59.82045484285291,
37,34,56,43,0,71,71,71,,,,,,,,,,,None,452.1390899999533,452.1390899999533,452.1390899999533,452.1390899999533,452.1390899999533,452.1390899999533,r,0.2898442998994142,452.45828619995154,452.45828619995154,452.45828619995154,452.45828619995154,452.45828619995154,452.45828619995154,452.7566637999844,453.83909390005283,453.83909390005283,453.83909390005283,453.83909390005283,453.83909390005283,453.83909390005283,453.83909390005283,453.83909390005283,453.83909390005283,453.83909390005283,453.83909390005283,453.83909390005283,453.83909390005283,453.83909390005283,455.220587000018,455.220587000018,455.220587000018,455.220587000018,455.220587000018,455.220587000018,455.220587000018,43,56,37,34,56,60,455.220587000018,456.7884170000907,,,,,,,,,,,００７,f,1９,2023-05-13_16h32.35.924,RL,2022.2.5,59.82045484285291,
38,39,71,40,0,72,72,72,,,,,,,,,,,None,456.7884170000907,456.7884170000907,456.7884170000907,456.7884170000907,456.7884170000907,456.7884170000907,r,0.26318119978532195,457.0735627999529,457.0735627999529,457.0735627999529,457.0735627999529,457.0735627999529,457.0735627999529,457.37215290009044,458.3719065000769,458.3719065000769,458.3719065000769,458.3719065000769,458.3719065000769,458.3719065000769,458.3719065000769,458.3719065000769,458.3719065000769,458.3719065000769,458.3719065000769,458.3719065000769,458.3719065000769,458.3719065000769,459.67002630000934,459.67002630000934,459.67002630000934,459.67002630000934,459.67002630000934,459.67002630000934,459.67002630000934,40,71,38,39,71,60,459.67002630000934,461.6211953999009,,,,,,,,,,,００７,f,1９,2023-05-13_16h32.35.924,RL,2022.2.5,59.82045484285291,
32,38,81,36,0,73,73,73,,,,,,,,,,,None,461.6211953999009,461.6211953999009,461.6211953999009,461.6211953999009,461.6211953999009,461.6211953999009,r,0.26727209985256195,461.92616200004704,461.92616200004704,461.92616200004704,461.92616200004704,461.92616200004704,461.92616200004704,462.2050214000046,463.32110229996033,463.32110229996033,463.32110229996033,463.32110229996033,463.32110229996033,463.32110229996033,463.30483360006474,463.32110229996033,463.32110229996033,463.32110229996033,463.32110229996033,463.32110229996033,463.32110229996033,463.32110229996033,464.71908630011603,464.71908630011603,464.71908630011603,464.71908630011603,464.71908630011603,464.71908630011603,464.71908630011603,36,81,32,38,81,60,464.71908630011603,466.6371337000746,,,,,,,,,,,００７,f,1９,2023-05-13_16h32.35.924,RL,2022.2.5,59.82045484285291,
29,46,74,38,0,74,74,74,,,,,,,,,,,None,466.6371337000746,466.6371337000746,466.6371337000746,466.6371337000746,466.6371337000746,466.6371337000746,r,0.21834589983336627,466.89507619990036,466.89507619990036,466.89507619990036,466.89507619990036,466.89507619990036,466.89507619990036,467.1707917000167,469.02000100002624,469.02000100002624,469.02000100002624,469.02000100002624,469.02000100002624,469.02000100002624,468.9866122000385,469.02000100002624,469.02000100002624,469.02000100002624,469.02000100002624,469.02000100002624,469.02000100002624,469.02000100002624,471.1348397000693,471.1348397000693,471.1348397000693,471.1348397000693,471.1348397000693,471.1348397000693,471.1348397000693,38,74,29,46,74,60,471.1348397000693,472.7516934000887,,,,,,,,,,,００７,f,1９,2023-05-13_16h32.35.924,RL,2022.2.5,59.82045484285291,
25,44,72,35,0,75,75,75,,,,,,,,,,,q,496.89809269993566,496.89809269993566,496.89809269993566,496.89809269993566,496.89809269993566,496.89809269993566,i,0.9737889000680298,497.8997977001127,497.8997977001127,497.8997977001127,497.8997977001127,497.8997977001127,497.8997977001127,498.1989076999016,499.88122819992714,499.88122819992714,499.88122819992714,499.88122819992714,499.88122819992714,499.88122819992714,499.88122819992714,499.88122819992714,499.88122819992714,499.88122819992714,499.88122819992714,499.88122819992714,499.88122819992714,499.88122819992714,501.8628420000896,501.8628420000896,501.8628420000896,501.8628420000896,501.8628420000896,501.8628420000896,501.8628420000896,35,72,25,44,25,60,501.8628420000896,503.7305517999921,472.7516934000887,472.7516934000887,19.106479099951684,491.88297639996745,491.88297639996745,496.89809269993566,496.89809269993566,,,,００７,f,1９,2023-05-13_16h32.35.924,RL,2022.2.5,59.82045484285291,
30,49,76,44,0,76,76,76,,,,,,,,,,,None,503.7305517999921,503.7305517999921,503.7305517999921,503.7305517999921,503.7305517999921,503.7305517999921,j,0.32739880005829036,504.0806112999562,504.0806112999562,504.0806112999562,504.0806112999562,504.0806112999562,504.0806112999562,504.36456930008717,505.5472532999702,505.5472532999702,505.5472532999702,505.5472532999702,505.5472532999702,505.5472532999702,505.5302299999166,505.5472532999702,505.5472532999702,505.5472532999702,505.5472532999702,505.5472532999702,505.5472532999702,505.5472532999702,507.01198410009965,507.01198410009965,507.01198410009965,507.01198410009965,507.01198410009965,507.01198410009965,507.01198410009965,44,76,30,49,49,60,507.01198410009965,508.9962887999136,,,,,,,,,,,００７,f,1９,2023-05-13_16h32.35.924,RL,2022.2.5,59.82045484285291,
39,49,75,45,0,77,77,77,,,,,,,,,,,None,508.9962887999136,508.9962887999136,508.9962887999136,508.9962887999136,508.9962887999136,508.9962887999136,f,0.36419350001960993,509.3801784000825,509.3801784000825,509.3801784000825,509.3801784000825,509.3801784000825,509.3801784000825,509.67934069992043,511.24598060012795,511.24598060012795,511.24598060012795,511.24598060012795,511.24598060012795,511.24598060012795,511.24598060012795,511.24598060012795,511.24598060012795,511.24598060012795,511.24598060012795,511.24598060012795,511.24598060012795,511.24598060012795,513.1108888001181,513.1108888001181,513.1108888001181,513.1108888001181,513.1108888001181,513.1108888001181,513.1108888001181,45,75,39,49,45,60,513.1108888001181,514.7450371999294,,,,,,,,,,,００７,f,1９,2023-05-13_16h32.35.924,RL,2022.2.5,59.82045484285291,
45,42,70,55,0,78,78,78,,,,,,,,,,,None,514.7450371999294,514.7450371999294,514.7450371999294,514.7450371999294,514.7450371999294,514.7450371999294,r,0.2960092001594603,515.0634886000771,515.0634886000771,515.0634886000771,515.0634886000771,515.0634886000771,515.0634886000771,515.3620086000301,516.4618681001011,516.4618681001011,516.4618681001011,516.4618681001011,516.4618681001011,516.4618681001011,516.4618681001011,516.4618681001011,516.4618681001011,516.4618681001011,516.4618681001011,516.4618681001011,516.4618681001011,516.4618681001011,517.8599048999604,517.8599048999604,517.8599048999604,517.8599048999604,517.8599048999604,517.8599048999604,517.8599048999604,55,70,45,42,70,60,517.8599048999604,519.5776500999928,,,,,,,,,,,００７,f,1９,2023-05-13_16h32.35.924,RL,2022.2.5,59.82045484285291,
42,45,73,50,0,79,79,79,,,,,,,,,,,None,519.5776500999928,519.5776500999928,519.5776500999928,519.5776500999928,519.5776500999928,519.5776500999928,r,0.33718609996140003,519.9447357000317,519.9447357000317,519.9447357000317,519.9447357000317,519.9447357000317,519.9447357000317,520.2447677999735,521.6775911001023,521.6775911001023,521.6775911001023,521.6775911001023,521.6775911001023,521.6775911001023,521.6775911001023,521.6775911001023,521.6775911001023,521.6775911001023,521.6775911001023,521.6775911001023,521.6775911001023,521.6775911001023,523.4088121999521,523.4088121999521,523.4088121999521,523.4088121999521,523.4088121999521,523.4088121999521,523.4088121999521,50,73,42,45,73,60,523.4088121999521,525.1266795000993,,,,,,,,,,,００７,f,1９,2023-05-13_16h32.35.924,RL,2022.2.5,59.82045484285291,
44,42,75,44,0,80,80,80,,,,,,,,,,,None,525.1266795000993,525.1266795000993,525.1266795000993,525.1266795000993,525.1266795000993,525.1266795000993,r,0.27716569998301566,525.4291890999302,525.4291890999302,525.4291890999302,525.4291890999302,525.4291890999302,525.4291890999302,525.7105443000328,526.7268781999592,526.7268781999592,526.7268781999592,526.7268781999592,526.7268781999592,526.7268781999592,526.710675700102,526.7268781999592,526.7268781999592,526.7268781999592,526.7268781999592,526.7268781999592,526.7268781999592,526.7268781999592,528.0247673999984,528.0247673999984,528.0247673999984,528.0247673999984,528.0247673999984,528.0247673999984,528.0247673999984,44,75,44,42,75,60,528.0247673999984,529.5756578000728,,,,,,,,,,,００７,f,1９,2023-05-13_16h32.35.924,RL,2022.2.5,59.82045484285291,
28,41,71,48,0,81,81,81,,,,,,,,,,,None,529.5756578000728,529.5756578000728,529.5756578000728,529.5756578000728,529.5756578000728,529.5756578000728,r,0.2612539001274854,529.8605774999596,529.8605774999596,529.8605774999596,529.8605774999596,529.8605774999596,529.8605774999596,530.1593373999931,531.2759579000995,531.2759579000995,531.2759579000995,531.2759579000995,531.2759579000995,531.2759579000995,531.2759579000995,531.2759579000995,531.2759579000995,531.2759579000995,531.2759579000995,531.2759579000995,531.2759579000995,531.2759579000995,532.6905978999566,532.6905978999566,532.6905978999566,532.6905978999566,532.6905978999566,532.6905978999566,532.6905978999566,48,71,28,41,71,60,532.6905978999566,534.6247354000807,,,,,,,,,,,００７,f,1９,2023-05-13_16h32.35.924,RL,2022.2.5,59.82045484285291,
33,43,66,52,0,82,82,82,,,,,,,,,,,None,534.6247354000807,534.6247354000807,534.6247354000807,534.6247354000807,534.6247354000807,534.6247354000807,r,0.05660140002146363,534.7098898999393,534.7098898999393,534.7098898999393,534.7098898999393,534.7098898999393,534.7098898999393,534.9926913001109,536.9916199001018,536.9916199001018,536.9916199001018,536.9916199001018,536.9916199001018,536.9916199001018,536.9751800000668,536.9916199001018,536.9916199001018,536.9916199001018,536.9916199001018,536.9916199001018,536.9916199001018,536.9916199001018,539.2726988999639,539.2726988999639,539.2726988999639,539.2726988999639,539.2726988999639,539.2726988999639,539.2726988999639,52,66,33,43,66,60,539.2726988999639,541.2572183001321,,,,,,,,,,,００７,f,1９,2023-05-13_16h32.35.924,RL,2022.2.5,59.82045484285291,
34,46,68,54,0,83,83,83,,,,,,,,,,,None,541.2572183001321,541.2572183001321,541.2572183001321,541.2572183001321,541.2572183001321,541.2572183001321,r,0.23422749992460012,541.5319572999142,541.5319572999142,541.5319572999142,541.5319572999142,541.5319572999142,541.5319572999142,541.8243017999921,542.8743688999675,542.8743688999675,542.8743688999675,542.8743688999675,542.8743688999675,542.8743688999675,542.8743688999675,542.8743688999675,542.8743688999675,542.8743688999675,542.8743688999675,542.8743688999675,542.8743688999675,542.8743688999675,544.2223992999643,544.2223992999643,544.2223992999643,544.2223992999643,544.2223992999643,544.2223992999643,544.2223992999643,54,68,34,46,68,60,544.2223992999643,546.2231719999108,,,,,,,,,,,００７,f,1９,2023-05-13_16h32.35.924,RL,2022.2.5,59.82045484285291,
20,38,66,45,0,84,84,84,,,,,,,,,,,None,546.2231719999108,546.2231719999108,546.2231719999108,546.2231719999108,546.2231719999108,546.2231719999108,r,0.2393461000174284,546.4920997999143,546.4920997999143,546.4920997999143,546.4920997999143,546.4920997999143,546.4920997999143,546.7897300999612,548.3396729000378,548.3396729000378,548.3396729000378,548.3396729000378,548.3396729000378,548.3396729000378,548.3231580001302,548.3396729000378,548.3396729000378,548.3396729000378,548.3396729000378,548.3396729000378,548.3396729000378,548.3396729000378,550.1711154999211,550.1711154999211,550.1711154999211,550.1711154999211,550.1711154999211,550.1711154999211,550.1711154999211,45,66,20,38,66,60,550.1711154999211,551.7223638000432,,,,,,,,,,,００７,f,1９,2023-05-13_16h32.35.924,RL,2022.2.5,59.82045484285291,
33,55,61,55,0,85,85,85,,,,,,,,,,,None,551.7223638000432,551.7223638000432,551.7223638000432,551.7223638000432,551.7223638000432,551.7223638000432,r,0.39333190000616014,552.1399026000872,552.1399026000872,552.1399026000872,552.1399026000872,552.1399026000872,552.1399026000872,552.4223498001229,553.6051847999915,553.6051847999915,553.6051847999915,553.6051847999915,553.6051847999915,553.6051847999915,553.5887299000751,553.6051847999915,553.6051847999915,553.6051847999915,553.6051847999915,553.6051847999915,553.6051847999915,553.6051847999915,555.0702875000425,555.0702875000425,555.0702875000425,555.0702875000425,555.0702875000425,555.0702875000425,555.0702875000425,55,61,33,55,61,60,555.0702875000425,556.7379930999596,,,,,,,,,,,００７,f,1９,2023-05-13_16h32.35.924,RL,2022.2.5,59.82045484285291,
33,47,66,52,0,86,86,86,,,,,,,,,,,None,556.7379930999596,556.7379930999596,556.7379930999596,556.7379930999596,556.7379930999596,556.7379930999596,r,0.2439379000570625,557.0050345999189,557.0050345999189,557.0050345999189,557.0050345999189,557.0050345999189,557.0050345999189,557.28805260011,559.3047028000001,559.3047028000001,559.3047028000001,559.3047028000001,559.3047028000001,559.3047028000001,559.2876111001242,559.3047028000001,559.3047028000001,559.3047028000001,559.3047028000001,559.3047028000001,559.3047028000001,559.3047028000001,561.6025680000894,561.6025680000894,561.6025680000894,561.6025680000894,561.6025680000894,561.6025680000894,561.6025680000894,52,66,33,47,66,60,561.6025680000894,563.220212199958,,,,,,,,,,,００７,f,1９,2023-05-13_16h32.35.924,RL,2022.2.5,59.82045484285291,
38,47,67,53,0,87,87,87,,,,,,,,,,,None,563.220212199958,563.220212199958,563.220212199958,563.220212199958,563.220212199958,563.220212199958,r,0.24548219982534647,563.4869860000908,563.4869860000908,563.4869860000908,563.4869860000908,563.4869860000908,563.4869860000908,563.7706162999384,564.8034296999685,564.8034296999685,564.8034296999685,564.8034296999685,564.8034296999685,564.8034296999685,564.7870362999383,564.8034296999685,564.8034296999685,564.8034296999685,564.8034296999685,564.8034296999685,564.8034296999685,564.8034296999685,566.1184928999282,566.1184928999282,566.1184928999282,566.1184928999282,566.1184928999282,566.1184928999282,566.1184928999282,53,67,38,47,67,60,566.1184928999282,567.752619399922,,,,,,,,,,,００７,f,1９,2023-05-13_16h32.35.924,RL,2022.2.5,59.82045484285291,
35,45,67,51,0,88,88,88,,,,,,,,,,,None,567.752619399922,567.752619399922,567.752619399922,567.752619399922,567.752619399922,567.752619399922,r,0.2593075998593122,568.0363018999342,568.0363018999342,568.0363018999342,568.0363018999342,568.0363018999342,568.0363018999342,568.3194903000258,569.7192822999787,569.7192822999787,569.7192822999787,569.7192822999787,569.7192822999787,569.7192822999787,569.7029709001072,569.7192822999787,569.7192822999787,569.7192822999787,569.7192822999787,569.7192822999787,569.7192822999787,569.7192822999787,571.4004287999123,571.4004287999123,571.4004287999123,571.4004287999123,571.4004287999123,571.4004287999123,571.4004287999123,51,67,35,45,67,60,571.4004287999123,573.2351635000668,,,,,,,,,,,００７,f,1９,2023-05-13_16h32.35.924,RL,2022.2.5,59.82045484285291,
39,55,60,50,0,89,89,89,,,,,,,,,,,None,573.2351635000668,573.2351635000668,573.2351635000668,573.2351635000668,573.2351635000668,573.2351635000668,r,0.270449599949643,573.535526300082,573.535526300082,573.535526300082,573.535526300082,573.535526300082,573.535526300082,573.8189111000393,574.6854375000112,574.6854375000112,574.6854375000112,574.6854375000112,574.6854375000112,574.6854375000112,574.6686239999253,574.6854375000112,574.6854375000112,574.6854375000112,574.6854375000112,574.6854375000112,574.6854375000112,574.6854375000112,575.8331697001122,575.8331697001122,575.8331697001122,575.8331697001122,575.8331697001122,575.8331697001122,575.8331697001122,50,60,39,55,60,60,575.8331697001122,577.8177738001104,,,,,,,,,,,００７,f,1９,2023-05-13_16h32.35.924,RL,2022.2.5,59.82045484285291,
38,52,67,44,0,90,90,90,,,,,,,,,,,None,577.8177738001104,577.8177738001104,577.8177738001104,577.8177738001104,577.8177738001104,577.8177738001104,r,0.2388613000512123,578.0850001000799,578.0850001000799,578.0850001000799,578.0850001000799,578.0850001000799,578.0850001000799,578.3845683999825,579.5177788999863,579.5177788999863,579.5177788999863,579.5177788999863,579.5177788999863,579.5177788999863,579.5177788999863,579.5177788999863,579.5177788999863,579.5177788999863,579.5177788999863,579.5177788999863,579.5177788999863,579.5177788999863,580.9493810001295,580.9493810001295,580.9493810001295,580.9493810001295,580.9493810001295,580.9493810001295,580.9493810001295,44,67,38,52,67,60,580.9493810001295,582.6671263999306,,,,,,,,,,,００７,f,1９,2023-05-13_16h32.35.924,RL,2022.2.5,59.82045484285291,
39,47,62,43,0,91,91,91,,,,,,,,,,,None,582.6671263999306,582.6671263999306,582.6671263999306,582.6671263999306,582.6671263999306,582.6671263999306,r,0.2546259998343885,582.9503504000604,582.9503504000604,582.9503504000604,582.9503504000604,582.9503504000604,582.9503504000604,583.233980699908,585.2503492999822,585.2503492999822,585.2503492999822,585.2503492999822,585.2503492999822,585.2503492999822,585.2335508000106,585.2503492999822,585.2503492999822,585.2503492999822,585.2503492999822,585.2503492999822,585.2503492999822,585.2503492999822,587.5479288999923,587.5479288999923,587.5479288999923,587.5479288999923,587.5479288999923,587.5479288999923,587.5479288999923,43,62,39,47,62,60,587.5479288999923,589.2322217000183,,,,,,,,,,,００７,f,1９,2023-05-13_16h32.35.924,RL,2022.2.5,59.82045484285291,
38,51,62,51,0,92,92,92,,,,,,,,,,,None,589.2322217000183,589.2322217000183,589.2322217000183,589.2322217000183,589.2322217000183,589.2322217000183,r,0.25553489988669753,589.5163263999857,589.5163263999857,589.5163263999857,589.5163263999857,589.5163263999857,589.5163263999857,589.7994987000711,591.8155125000048,591.8155125000048,591.8155125000048,591.8155125000048,591.8155125000048,591.8155125000048,591.798727999907,591.8155125000048,591.8155125000048,591.8155125000048,591.8155125000048,591.8155125000048,591.8155125000048,591.8155125000048,594.1132034000475,594.1132034000475,594.1132034000475,594.1132034000475,594.1132034000475,594.1132034000475,594.1132034000475,51,62,38,51,62,60,594.1132034000475,596.0811644999776,,,,,,,,,,,００７,f,1９,2023-05-13_16h32.35.924,RL,2022.2.5,59.82045484285291,
43,48,55,47,0,93,93,93,,,,,,,,,,,None,596.0811644999776,596.0811644999776,596.0811644999776,596.0811644999776,596.0811644999776,596.0811644999776,j,0.2199011999182403,596.3314078999683,596.3314078999683,596.3314078999683,596.3314078999683,596.3314078999683,596.3314078999683,596.6144761999603,597.5145044000819,597.5145044000819,597.5145044000819,597.5145044000819,597.5145044000819,597.5145044000819,597.4981062000152,597.5145044000819,597.5145044000819,597.5145044000819,597.5145044000819,597.5145044000819,597.5145044000819,597.5145044000819,598.6961221999954,598.6961221999954,598.6961221999954,598.6961221999954,598.6961221999954,598.6961221999954,598.6961221999954,47,55,43,48,48,60,598.6961221999954,600.3467447999865,,,,,,,,,,,００７,f,1９,2023-05-13_16h32.35.924,RL,2022.2.5,59.82045484285291,
49,41,61,54,0,94,94,94,,,,,,,,,,,None,600.3467447999865,600.3467447999865,600.3467447999865,600.3467447999865,600.3467447999865,600.3467447999865,r,0.7523471999447793,601.1358310000505,601.1358310000505,601.1358310000505,601.1358310000505,601.1358310000505,601.1358310000505,601.4137764000334,602.3470982001163,602.3470982001163,602.3470982001163,602.3470982001163,602.3470982001163,602.3470982001163,602.3134189001285,602.3470982001163,602.3470982001163,602.3470982001163,602.3470982001163,602.3470982001163,602.3470982001163,602.3470982001163,603.5451329001226,603.5451329001226,603.5451329001226,603.5451329001226,603.5451329001226,603.5451329001226,603.5451329001226,54,61,49,41,61,60,603.5451329001226,605.4795476999134,,,,,,,,,,,００７,f,1９,2023-05-13_16h32.35.924,RL,2022.2.5,59.82045484285291,
38,47,66,45,0,95,95,95,,,,,,,,,,,None,605.4795476999134,605.4795476999134,605.4795476999134,605.4795476999134,605.4795476999134,605.4795476999134,f,0.29179869988001883,605.7963002999313,605.7963002999313,605.7963002999313,605.7963002999313,605.7963002999313,605.7963002999313,606.096498100087,607.4295560999308,607.4295560999308,607.4295560999308,607.4295560999308,607.4295560999308,607.4295560999308,607.4295560999308,607.4295560999308,607.4295560999308,607.4295560999308,607.4295560999308,607.4295560999308,607.4295560999308,607.4295560999308,609.0604725000449,609.0604725000449,609.0604725000449,609.0604725000449,609.0604725000449,609.0604725000449,609.0604725000449,45,66,38,47,45,60,609.0604725000449,611.011554799974,,,,,,,,,,,００７,f,1９,2023-05-13_16h32.35.924,RL,2022.2.5,59.82045484285291,
45,48,57,45,0,96,96,96,,,,,,,,,,,None,611.011554799974,611.011554799974,611.011554799974,611.011554799974,611.011554799974,611.011554799974,r,0.3643998000770807,611.3972106999718,611.3972106999718,611.3972106999718,611.3972106999718,611.3972106999718,611.3972106999718,611.6953388000838,613.345032799989,613.345032799989,613.345032799989,613.345032799989,613.345032799989,613.345032799989,613.345032799989,613.345032799989,613.345032799989,613.345032799989,613.345032799989,613.345032799989,613.345032799989,613.345032799989,615.2929006000049,615.2929006000049,615.2929006000049,615.2929006000049,615.2929006000049,615.2929006000049,615.2929006000049,45,57,45,48,57,60,615.2929006000049,617.0276965000667,,,,,,,,,,,００７,f,1９,2023-05-13_16h32.35.924,RL,2022.2.5,59.82045484285291,
43,50,62,55,0,97,97,97,,,,,,,,,,,None,617.0276965000667,617.0276965000667,617.0276965000667,617.0276965000667,617.0276965000667,617.0276965000667,j,0.5682701000478119,617.631963999942,617.631963999942,617.631963999942,617.631963999942,617.631963999942,617.631963999942,617.9111814999487,619.2273816999514,619.2273816999514,619.2273816999514,619.2273816999514,619.2273816999514,619.2273816999514,619.2108875999693,619.2273816999514,619.2273816999514,619.2273816999514,619.2273816999514,619.2273816999514,619.2273816999514,619.2273816999514,620.8259614000563,620.8259614000563,620.8259614000563,620.8259614000563,620.8259614000563,620.8259614000563,620.8259614000563,55,62,43,50,50,60,620.8259614000563,622.4594193999656,,,,,,,,,,,００７,f,1９,2023-05-13_16h32.35.924,RL,2022.2.5,59.82045484285291,
34,53,63,60,0,98,98,98,,,,,,,,,,,None,622.4594193999656,622.4594193999656,622.4594193999656,622.4594193999656,622.4594193999656,622.4594193999656,r,0.6450086999684572,623.1267675999552,623.1267675999552,623.1267675999552,623.1267675999552,623.1267675999552,623.1267675999552,623.4098354999442,624.6763204999734,624.6763204999734,624.6763204999734,624.6763204999734,624.6763204999734,624.6763204999734,624.6595149000641,624.6763204999734,624.6763204999734,624.6763204999734,624.6763204999734,624.6763204999734,624.6763204999734,624.6763204999734,626.2243657000363,626.2243657000363,626.2243657000363,626.2243657000363,626.2243657000363,626.2243657000363,626.2243657000363,60,63,34,53,63,60,626.2243657000363,628.1089828999247,,,,,,,,,,,００７,f,1９,2023-05-13_16h32.35.924,RL,2022.2.5,59.82045484285291,
41,54,55,59,0,99,99,99,,,,,,,,,,,None,628.1089828999247,628.1089828999247,628.1089828999247,628.1089828999247,628.1089828999247,628.1089828999247,i,0.2590421000495553,628.3933109999634,628.3933109999634,628.3933109999634,628.3933109999634,628.3933109999634,628.3933109999634,628.676214999985,629.7753886000719,629.7753886000719,629.7753886000719,629.7753886000719,629.7753886000719,629.7753886000719,629.7587550000753,629.7753886000719,629.7753886000719,629.7753886000719,629.7753886000719,629.7753886000719,629.7753886000719,629.7753886000719,631.1571488999762,631.1571488999762,631.1571488999762,631.1571488999762,631.1571488999762,631.1571488999762,631.1571488999762,59,55,41,54,41,60,631.1571488999762,632.8577386999968,,,,,,,,,,,００７,f,1９,2023-05-13_16h32.35.924,RL,2022.2.5,59.82045484285291,
35,58,64,68,0,100,100,100,,,,,,,,,,,None,632.8577386999968,632.8577386999968,632.8577386999968,632.8577386999968,632.8577386999968,632.8577386999968,i,0.7228091999422759,633.6095662000589,633.6095662000589,633.6095662000589,633.6095662000589,633.6095662000589,633.6095662000589,633.908314100001,634.9745815000497,634.9745815000497,634.9745815000497,634.9745815000497,634.9745815000497,634.9745815000497,634.9745815000497,634.9745815000497,634.9745815000497,634.9745815000497,634.9745815000497,634.9745815000497,634.9745815000497,634.9745815000497,636.3394148000516,636.3394148000516,636.3394148000516,636.3394148000516,636.3394148000516,636.3394148000516,636.3394148000516,68,64,35,58,35,60,636.3394148000516,638.0740612000227,,,,,,,,,,,００７,f,1９,2023-05-13_16h32.35.924,RL,2022.2.5,59.82045484285291,
39,60,65,64,0,101,101,101,,,,,,,,,,,None,638.0740612000227,638.0740612000227,638.0740612000227,638.0740612000227,638.0740612000227,638.0740612000227,r,0.479354300070554,638.5753927999176,638.5753927999176,638.5753927999176,638.5753927999176,638.5753927999176,638.5753927999176,638.8742700000294,640.4902492000256,640.4902492000256,640.4902492000256,640.4902492000256,640.4902492000256,640.4902492000256,640.4902492000256,640.4902492000256,640.4902492000256,640.4902492000256,640.4902492000256,640.4902492000256,640.4902492000256,640.4902492000256,642.4053940000013,642.4053940000013,642.4053940000013,642.4053940000013,642.4053940000013,642.4053940000013,642.4053940000013,64,65,39,60,65,60,642.4053940000013,643.9892985001206,,,,,,,,,,,００７,f,1９,2023-05-13_16h32.35.924,RL,2022.2.5,59.82045484285291,
34,51,66,70,0,102,102,102,,,,,,,,,,,None,643.9892985001206,643.9892985001206,643.9892985001206,643.9892985001206,643.9892985001206,643.9892985001206,r,0.5899501000531018,644.6064462000504,644.6064462000504,644.6064462000504,644.6064462000504,644.6064462000504,644.6064462000504,644.889708200004,646.7726072999649,646.7726072999649,646.7726072999649,646.7726072999649,646.7726072999649,646.7726072999649,646.7561624001246,646.7726072999649,646.7726072999649,646.7726072999649,646.7726072999649,646.7726072999649,646.7726072999649,646.7726072999649,648.937546200119,648.937546200119,648.937546200119,648.937546200119,648.937546200119,648.937546200119,648.937546200119,70,66,34,51,66,60,648.937546200119,650.5382844000123,,,,,,,,,,,００７,f,1９,2023-05-13_16h32.35.924,RL,2022.2.5,59.82045484285291,
26,48,67,64,0,103,103,103,,,,,,,,,,,None,650.5382844000123,650.5382844000123,650.5382844000123,650.5382844000123,650.5382844000123,650.5382844000123,r,0.5415608999319375,651.1053057000972,651.1053057000972,651.1053057000972,651.1053057000972,651.1053057000972,651.1053057000972,651.3884660999756,652.2217228999361,652.2217228999361,652.2217228999361,652.2217228999361,652.2217228999361,652.2217228999361,652.2052263000514,652.2217228999361,652.2217228999361,652.2217228999361,652.2217228999361,652.2217228999361,652.2217228999361,652.2217228999361,653.3365005999804,653.3365005999804,653.3365005999804,653.3365005999804,653.3365005999804,653.3365005999804,653.3365005999804,64,67,26,48,67,60,653.3365005999804,654.9542586999014,,,,,,,,,,,００７,f,1９,2023-05-13_16h32.35.924,RL,2022.2.5,59.82045484285291,
33,45,63,68,0,104,104,104,,,,,,,,,,,None,654.9542586999014,654.9542586999014,654.9542586999014,654.9542586999014,654.9542586999014,654.9542586999014,r,0.32659299997612834,655.3046599000227,655.3046599000227,655.3046599000227,655.3046599000227,655.3046599000227,655.3046599000227,655.5880038000178,656.5708784000017,656.5708784000017,656.5708784000017,656.5708784000017,656.5708784000017,656.5708784000017,656.5543853999116,656.5708784000017,656.5708784000017,656.5708784000017,656.5708784000017,656.5708784000017,656.5708784000017,656.5708784000017,657.8359596000519,657.8359596000519,657.8359596000519,657.8359596000519,657.8359596000519,657.8359596000519,657.8359596000519,68,63,33,45,63,60,657.8359596000519,659.6201236001216,,,,,,,,,,,００７,f,1９,2023-05-13_16h32.35.924,RL,2022.2.5,59.82045484285291,
30,33,66,74,0,105,105,105,,,,,,,,,,,None,659.6201236001216,659.6201236001216,659.6201236001216,659.6201236001216,659.6201236001216,659.6201236001216,f,0.2564169999677688,659.9036828000098,659.9036828000098,659.9036828000098,659.9036828000098,659.9036828000098,659.9036828000098,660.1866846999619,661.3032358000055,661.3032358000055,661.3032358000055,661.3032358000055,661.3032358000055,661.3032358000055,661.2871741000563,661.3032358000055,661.3032358000055,661.3032358000055,661.3032358000055,661.3032358000055,661.3032358000055,661.3032358000055,662.7014901000075,662.7014901000075,662.7014901000075,662.7014901000075,662.7014901000075,662.7014901000075,662.7014901000075,74,66,30,33,74,60,662.7014901000075,664.4188753000926,,,,,,,,,,,００７,f,1９,2023-05-13_16h32.35.924,RL,2022.2.5,59.82045484285291,
42,39,66,69,0,106,106,106,,,,,,,,,,,None,664.4188753000926,664.4188753000926,664.4188753000926,664.4188753000926,664.4188753000926,664.4188753000926,r,0.2682484998367727,664.7248329999857,664.7248329999857,664.7248329999857,664.7248329999857,664.7248329999857,664.7248329999857,665.0025450999383,666.3523651000578,666.3523651000578,666.3523651000578,666.3523651000578,666.3523651000578,666.3523651000578,666.3190721999854,666.3523651000578,666.3523651000578,666.3523651000578,666.3523651000578,666.3523651000578,666.3523651000578,666.3523651000578,667.9673808000516,667.9673808000516,667.9673808000516,667.9673808000516,667.9673808000516,667.9673808000516,667.9673808000516,69,66,42,39,66,60,667.9673808000516,669.6848252001218,,,,,,,,,,,００７,f,1９,2023-05-13_16h32.35.924,RL,2022.2.5,59.82045484285291,
45,44,69,64,0,107,107,107,,,,,,,,,,,None,669.6848252001218,669.6848252001218,669.6848252001218,669.6848252001218,669.6848252001218,669.6848252001218,f,0.26229529990814626,669.9695234000683,669.9695234000683,669.9695234000683,669.9695234000683,669.9695234000683,669.9695234000683,670.2517409999855,671.3182286999654,671.3182286999654,671.3182286999654,671.3182286999654,671.3182286999654,671.3182286999654,671.3015467999503,671.3182286999654,671.3182286999654,671.3182286999654,671.3182286999654,671.3182286999654,671.3182286999654,671.3182286999654,672.6662137999665,672.6662137999665,672.6662137999665,672.6662137999665,672.6662137999665,672.6662137999665,672.6662137999665,64,69,45,44,64,60,672.6662137999665,674.4006022999529,,,,,,,,,,,００７,f,1９,2023-05-13_16h32.35.924,RL,2022.2.5,59.82045484285291,
37,38,69,57,0,108,108,108,,,,,,,,,,,None,674.4006022999529,674.4006022999529,674.4006022999529,674.4006022999529,674.4006022999529,674.4006022999529,f,0.2622697001788765,674.6844917999115,674.6844917999115,674.6844917999115,674.6844917999115,674.6844917999115,674.6844917999115,674.9679759999271,676.9506310999859,676.9506310999859,676.9506310999859,676.9506310999859,676.9506310999859,676.9506310999859,676.9341690000147,676.9506310999859,676.9506310999859,676.9506310999859,676.9506310999859,676.9506310999859,676.9506310999859,676.9506310999859,679.2150236000307,679.2150236000307,679.2150236000307,679.2150236000307,679.2150236000307,679.2150236000307,679.2150236000307,57,69,37,38,57,60,679.2150236000307,680.783149200026,,,,,,,,,,,００７,f,1９,2023-05-13_16h32.35.924,RL,2022.2.5,59.82045484285291,
45,48,73,72,0,109,109,109,,,,,,,,,,,None,680.783149200026,680.783149200026,680.783149200026,680.783149200026,680.783149200026,680.783149200026,r,0.24989440012723207,681.0511934999377,681.0511934999377,681.0511934999377,681.0511934999377,681.0511934999377,681.0511934999377,681.3499177999329,682.3996607000008,682.3996607000008,682.3996607000008,682.3996607000008,682.3996607000008,682.3996607000008,682.3996607000008,682.3996607000008,682.3996607000008,682.3996607000008,682.3996607000008,682.3996607000008,682.3996607000008,682.3996607000008,683.7480860999785,683.7480860999785,683.7480860999785,683.7480860999785,683.7480860999785,683.7480860999785,683.7480860999785,72,73,45,48,73,60,683.7480860999785,685.7489499000367,,,,,,,,,,,００７,f,1９,2023-05-13_16h32.35.924,RL,2022.2.5,59.82045484285291,
44,52,63,59,0,110,110,110,,,,,,,,,,,None,685.7489499000367,685.7489499000367,685.7489499000367,685.7489499000367,685.7489499000367,685.7489499000367,r,0.39676099992357194,686.166778499959,686.166778499959,686.166778499959,686.166778499959,686.166778499959,686.166778499959,686.4656231000554,687.6991369999014,687.6991369999014,687.6991369999014,687.6991369999014,687.6991369999014,687.6991369999014,687.6991369999014,687.6991369999014,687.6991369999014,687.6991369999014,687.6991369999014,687.6991369999014,687.6991369999014,687.6991369999014,689.2300408999436,689.2300408999436,689.2300408999436,689.2300408999436,689.2300408999436,689.2300408999436,689.2300408999436,59,63,44,52,63,60,689.2300408999436,691.0811264999211,,,,,,,,,,,００７,f,1９,2023-05-13_16h32.35.924,RL,2022.2.5,59.82045484285291,
46,40,69,65,0,111,111,111,,,,,,,,,,,None,691.0811264999211,691.0811264999211,691.0811264999211,691.0811264999211,691.0811264999211,691.0811264999211,r,0.3387479998636991,691.4494783000555,691.4494783000555,691.4494783000555,691.4494783000555,691.4494783000555,691.4494783000555,691.7480021999218,692.9810395999812,692.9810395999812,692.9810395999812,692.9810395999812,692.9810395999812,692.9810395999812,692.9644528001081,692.9810395999812,692.9810395999812,692.9810395999812,692.9810395999812,692.9810395999812,692.9810395999812,692.9810395999812,694.4956968999468,694.4956968999468,694.4956968999468,694.4956968999468,694.4956968999468,694.4956968999468,694.4956968999468,65,69,46,40,69,60,694.4956968999468,696.4302095000166,,,,,,,,,,,００７,f,1９,2023-05-13_16h32.35.924,RL,2022.2.5,59.82045484285291,
51,51,68,57,0,112,112,112,,,,,,,,,,,None,696.4302095000166,696.4302095000166,696.4302095000166,696.4302095000166,696.4302095000166,696.4302095000166,f,0.4788583000190556,696.9325484000146,696.9325484000146,696.9325484000146,696.9325484000146,696.9325484000146,696.9325484000146,697.2303190999664,699.1638863999397,699.1638863999397,699.1638863999397,699.1638863999397,699.1638863999397,699.1638863999397,699.1638863999397,699.1638863999397,699.1638863999397,699.1638863999397,699.1638863999397,699.1638863999397,699.1638863999397,699.1638863999397,701.3946611001156,701.3946611001156,701.3946611001156,701.3946611001156,701.3946611001156,701.3946611001156,701.3946611001156,57,68,51,51,57,60,701.3946611001156,703.362182599958,,,,,,,,,,,００７,f,1９,2023-05-13_16h32.35.924,RL,2022.2.5,59.82045484285291,
39,44,60,69,0,113,113,113,,,,,,,,,,,None,703.362182599958,703.362182599958,703.362182599958,703.362182599958,703.362182599958,703.362182599958,f,0.33494380000047386,703.736323100049,703.736323100049,703.736323100049,703.736323100049,703.736323100049,703.736323100049,704.0293666000944,705.845644300105,705.845644300105,705.845644300105,705.845644300105,705.845644300105,705.845644300105,705.8293906000908,705.845644300105,705.845644300105,705.845644300105,705.845644300105,705.845644300105,705.845644300105,705.845644300105,707.9434170001186,707.9434170001186,707.9434170001186,707.9434170001186,707.9434170001186,707.9434170001186,707.9434170001186,69,60,39,44,69,60,707.9434170001186,709.544294900028,,,,,,,,,,,００７,f,1９,2023-05-13_16h32.35.924,RL,2022.2.5,59.82045484285291,
46,45,68,59,0,114,114,114,,,,,,,,,,,None,709.544294900028,709.544294900028,709.544294900028,709.544294900028,709.544294900028,709.544294900028,f,0.5398886001203209,710.1130496999249,710.1130496999249,710.1130496999249,710.1130496999249,710.1130496999249,710.1130496999249,710.4113829999696,711.9776588000823,711.9776588000823,711.9776588000823,711.9776588000823,711.9776588000823,711.9776588000823,711.9776588000823,711.9776588000823,711.9776588000823,711.9776588000823,711.9776588000823,711.9776588000823,711.9776588000823,711.9776588000823,713.842364900047,713.842364900047,713.842364900047,713.842364900047,713.842364900047,713.842364900047,713.842364900047,59,68,46,45,59,60,713.842364900047,715.7768433999736,,,,,,,,,,,００７,f,1９,2023-05-13_16h32.35.924,RL,2022.2.5,59.82045484285291,
46,49,76,65,0,115,115,115,,,,,,,,,,,None,715.7768433999736,715.7768433999736,715.7768433999736,715.7768433999736,715.7768433999736,715.7768433999736,r,0.2407334002200514,716.0439401001204,716.0439401001204,716.0439401001204,716.0439401001204,716.0439401001204,716.0439401001204,716.3435845000204,717.9600033001043,717.9600033001043,717.9600033001043,717.9600033001043,717.9600033001043,717.9600033001043,717.9600033001043,717.9600033001043,717.9600033001043,717.9600033001043,717.9600033001043,717.9600033001043,717.9600033001043,717.9600033001043,719.8748345000204,719.8748345000204,719.8748345000204,719.8748345000204,719.8748345000204,719.8748345000204,719.8748345000204,65,76,46,49,76,60,719.8748345000204,721.8095042000059,,,,,,,,,,,００７,f,1９,2023-05-13_16h32.35.924,RL,2022.2.5,59.82045484285291,
54,44,67,80,0,116,116,116,,,,,,,,,,,None,721.8095042000059,721.8095042000059,721.8095042000059,721.8095042000059,721.8095042000059,721.8095042000059,r,0.5369810000993311,722.3762252999004,722.3762252999004,722.3762252999004,722.3762252999004,722.3762252999004,722.3762252999004,722.676037899917,723.8592054999899,723.8592054999899,723.8592054999899,723.8592054999899,723.8592054999899,723.8592054999899,723.8592054999899,723.8592054999899,723.8592054999899,723.8592054999899,723.8592054999899,723.8592054999899,723.8592054999899,723.8592054999899,725.340547000058,725.340547000058,725.340547000058,725.340547000058,725.340547000058,725.340547000058,725.340547000058,80,67,54,44,67,60,725.340547000058,727.1413942999206,,,,,,,,,,,００７,f,1９,2023-05-13_16h32.35.924,RL,2022.2.5,59.82045484285291,
51,43,73,75,0,117,117,117,,,,,,,,,,,None,727.1413942999206,727.1413942999206,727.1413942999206,727.1413942999206,727.1413942999206,727.1413942999206,r,0.6189470000099391,727.795981500065,727.795981500065,727.795981500065,727.795981500065,727.795981500065,727.795981500065,728.075559000019,729.2582632999402,729.2582632999402,729.2582632999402,729.2582632999402,729.2582632999402,729.2582632999402,729.2415444999933,729.2582632999402,729.2582632999402,729.2582632999402,729.2582632999402,729.2582632999402,729.2582632999402,729.2582632999402,730.7233245000243,730.7233245000243,730.7233245000243,730.7233245000243,730.7233245000243,730.7233245000243,730.7233245000243,75,73,51,43,73,60,730.7233245000243,732.3076502000913,,,,,,,,,,,００７,f,1９,2023-05-13_16h32.35.924,RL,2022.2.5,59.82045484285291,
52,43,73,74,0,118,118,118,,,,,,,,,,,None,732.3076502000913,732.3076502000913,732.3076502000913,732.3076502000913,732.3076502000913,732.3076502000913,f,0.33932969998568296,732.6755957000423,732.6755957000423,732.6755957000423,732.6755957000423,732.6755957000423,732.6755957000423,732.9742548000067,734.7075151000172,734.7075151000172,734.7075151000172,734.7075151000172,734.7075151000172,734.7075151000172,734.7075151000172,734.7075151000172,734.7075151000172,734.7075151000172,734.7075151000172,734.7075151000172,734.7075151000172,734.7075151000172,736.7383886999451,736.7383886999451,736.7383886999451,736.7383886999451,736.7383886999451,736.7383886999451,736.7383886999451,74,73,52,43,74,60,736.7383886999451,738.3565334999003,,,,,,,,,,,００７,f,1９,2023-05-13_16h32.35.924,RL,2022.2.5,59.82045484285291,
67,37,75,76,0,119,119,119,,,,,,,,,,,None,738.3565334999003,738.3565334999003,738.3565334999003,738.3565334999003,738.3565334999003,738.3565334999003,f,0.301919300109148,738.693396900082,738.693396900082,738.693396900082,738.693396900082,738.693396900082,738.693396900082,738.9735268000513,740.0899835999589,740.0899835999589,740.0899835999589,740.0899835999589,740.0899835999589,740.0899835999589,740.073374300031,740.0899835999589,740.0899835999589,740.0899835999589,740.0899835999589,740.0899835999589,740.0899835999589,740.0899835999589,741.488028400112,741.488028400112,741.488028400112,741.488028400112,741.488028400112,741.488028400112,741.488028400112,76,75,67,37,76,60,741.488028400112,743.0055726000573,,,,,,,,,,,００７,f,1９,2023-05-13_16h32.35.924,RL,2022.2.5,59.82045484285291,
60,35,67,67,0,120,120,120,,,,,,,,,,,None,743.0055726000573,743.0055726000573,743.0055726000573,743.0055726000573,743.0055726000573,743.0055726000573,r,0.7362269998993725,743.7768006999977,743.7768006999977,743.7768006999977,743.7768006999977,743.7768006999977,743.7768006999977,744.0554414000362,745.4718353999779,745.4718353999779,745.4718353999779,745.4718353999779,745.4718353999779,745.4718353999779,745.4553052000701,745.4718353999779,745.4718353999779,745.4718353999779,745.4718353999779,745.4718353999779,745.4718353999779,745.4718353999779,747.1698932000436,747.1698932000436,747.1698932000436,747.1698932000436,747.1698932000436,747.1698932000436,747.1698932000436,67,67,60,35,67,60,747.1698932000436,748.8710912999231,,,,,,,,,,,００７,f,1９,2023-05-13_16h32.35.924,RL,2022.2.5,59.82045484285291,
