arm1,arm2,arm3,arm4,trials.thisRepN,trials.thisTrialN,trials.thisN,trials.thisIndex,instru_img1.started,instru_resp.started,instru_resp.keys,instru_resp.rt,image_2.started,text_2.started,image_2.stopped,text_2.stopped,fixbefore_2.started,fixbefore_2.stopped,rest_response.keys,red.started,green.started,yellow.started,blue.started,choose_bandit.started,Fixation.started,choose_bandit.keys,choose_bandit.rt,black.started,red_2.started,green_2.started,yellow_2.started,blue_2.started,fixation_2.started,docs.started,black.stopped,red_2.stopped,green_2.stopped,yellow_2.stopped,blue_2.stopped,fixation_2.stopped,docs.stopped,black_com.started,reward_sub.started,reward__sub.started,red_compare.started,green_com.started,yellow_com.started,blue_com.started,black_com.stopped,reward_sub.stopped,reward__sub.stopped,red_compare.stopped,green_com.stopped,yellow_com.stopped,blue_com.stopped,rewardred,rewardyellow,rewardblue,rewardgreen,subchoose,expectation,intertrialfix.started,intertrialfix.stopped,red.stopped,green.stopped,yellow.stopped,blue.stopped,choose_bandit.stopped,Fixation.stopped,bigx.started,bigx.stopped,rest_image.started,rest_response.started,rest_response.rt,image_expect_after.started,text_exp_after.started,image_expect_after.stopped,text_exp_after.stopped,image.started,key_resp.started,key_resp.keys,participant,Gender,Age,date,expName,psychopyVersion,frameRate,
,,,,,,,,35.28870570007712,35.28870570007712,space,4.711976599879563,,,,,,,,,,,,,,,,,,,,,,,,,,,,,,,,,,,,,,,,,,,,,,,,,,,,,,,,,,,,,,,,,,,,,,008,ｍ,２０,2023-05-13_17h17.52.046,RL,2022.2.5,60.05446938503099,
42,42,58,55,0,0,0,0,,,,,40.0144983001519,40.0144983001519,45.01408009999432,45.01408009999432,45.01408009999432,46.0155760999769,None,46.0155760999769,46.0155760999769,46.0155760999769,46.0155760999769,46.0155760999769,46.0155760999769,r,0.3800259998533875,46.4215902001597,46.4215902001597,46.4215902001597,46.4215902001597,46.4215902001597,46.4215902001597,46.715522000100464,48.032920700032264,48.032920700032264,48.032920700032264,48.032920700032264,48.032920700032264,48.032920700032264,48.032920700032264,48.032920700032264,48.032920700032264,48.032920700032264,48.032920700032264,48.032920700032264,48.032920700032264,48.032920700032264,49.695603100117296,49.695603100117296,49.695603100117296,49.695603100117296,49.695603100117296,49.695603100117296,49.695603100117296,42,42,55,58,42,70,49.695603100117296,51.48069680016488,,,,,,,,,,,,,,,,,,,008,ｍ,２０,2023-05-13_17h17.52.046,RL,2022.2.5,60.05446938503099,
36,47,52,54,0,1,1,1,,,,,,,,,,,None,51.48069680016488,51.48069680016488,51.48069680016488,51.48069680016488,51.48069680016488,51.48069680016488,f,0.42740099993534386,51.93114860006608,51.93114860006608,51.93114860006608,51.93114860006608,51.93114860006608,51.93114860006608,52.21455450006761,53.64711769996211,53.64711769996211,53.64711769996211,53.64711769996211,53.64711769996211,53.64711769996211,53.63104990008287,53.64711769996211,53.64711769996211,53.64711769996211,53.64711769996211,53.64711769996211,53.64711769996211,53.64711769996211,55.361946400022134,55.361946400022134,55.361946400022134,55.361946400022134,55.361946400022134,55.361946400022134,55.361946400022134,36,47,54,52,36,70,55.361946400022134,57.04651410016231,,,,,,,,,,,,,,,,,,,008,ｍ,２０,2023-05-13_17h17.52.046,RL,2022.2.5,60.05446938503099,
45,50,58,55,0,2,2,2,,,,,,,,,,,None,57.04651410016231,57.04651410016231,57.04651410016231,57.04651410016231,57.04651410016231,57.04651410016231,i,0.37275530002079904,57.449946200009435,57.449946200009435,57.449946200009435,57.449946200009435,57.449946200009435,57.449946200009435,57.72989140008576,59.412787000183016,59.412787000183016,59.412787000183016,59.412787000183016,59.412787000183016,59.412787000183016,59.379764300072566,59.412787000183016,59.412787000183016,59.412787000183016,59.412787000183016,59.412787000183016,59.412787000183016,59.412787000183016,61.360863300040364,61.360863300040364,61.360863300040364,61.360863300040364,61.360863300040364,61.360863300040364,61.360863300040364,45,50,55,58,55,70,61.360863300040364,63.21183679997921,,,,,,,,,,,,,,,,,,,008,ｍ,２０,2023-05-13_17h17.52.046,RL,2022.2.5,60.05446938503099,
41,53,62,59,0,3,3,3,,,,,,,,,,,None,63.21183679997921,63.21183679997921,63.21183679997921,63.21183679997921,63.21183679997921,63.21183679997921,j,0.4502877998165786,63.69548080000095,63.69548080000095,63.69548080000095,63.69548080000095,63.69548080000095,63.69548080000095,63.97924689995125,65.66159810009412,65.66159810009412,65.66159810009412,65.66159810009412,65.66159810009412,65.66159810009412,65.64525509998202,65.66159810009412,65.66159810009412,65.66159810009412,65.66159810009412,65.66159810009412,65.66159810009412,65.66159810009412,67.6264595000539,67.6264595000539,67.6264595000539,67.6264595000539,67.6264595000539,67.6264595000539,67.6264595000539,41,53,59,62,62,70,67.6264595000539,69.26070570014417,,,,,,,,,,,,,,,,,,,008,ｍ,２０,2023-05-13_17h17.52.046,RL,2022.2.5,60.05446938503099,
44,54,59,55,0,4,4,4,,,,,,,,,,,None,69.26070570014417,69.26070570014417,69.26070570014417,69.26070570014417,69.26070570014417,69.26070570014417,j,0.2963511999696493,69.57793340017088,69.57793340017088,69.57793340017088,69.57793340017088,69.57793340017088,69.57793340017088,69.87792460015044,71.5103778000921,71.5103778000921,71.5103778000921,71.5103778000921,71.5103778000921,71.5103778000921,71.5103778000921,71.5103778000921,71.5103778000921,71.5103778000921,71.5103778000921,71.5103778000921,71.5103778000921,71.5103778000921,73.44231429998763,73.44231429998763,73.44231429998763,73.44231429998763,73.44231429998763,73.44231429998763,73.44231429998763,44,54,55,59,59,70,73.44231429998763,75.00975660001859,,,,,,,,,,,,,,,,,,,008,ｍ,２０,2023-05-13_17h17.52.046,RL,2022.2.5,60.05446938503099,
38,50,63,53,0,5,5,5,,,,,,,,,,,None,75.00975660001859,75.00975660001859,75.00975660001859,75.00975660001859,75.00975660001859,75.00975660001859,i,0.44514790014363825,75.47745060012676,75.47745060012676,75.47745060012676,75.47745060012676,75.47745060012676,75.47745060012676,75.76049880008213,77.27672470011748,77.27672470011748,77.27672470011748,77.27672470011748,77.27672470011748,77.27672470011748,77.26027560001239,77.27672470011748,77.27672470011748,77.27672470011748,77.27672470011748,77.27672470011748,77.27672470011748,77.27672470011748,79.07452620007098,79.07452620007098,79.07452620007098,79.07452620007098,79.07452620007098,79.07452620007098,79.07452620007098,38,50,53,63,53,70,79.07452620007098,80.69243280007504,,,,,,,,,,,,,,,,,,,008,ｍ,２０,2023-05-13_17h17.52.046,RL,2022.2.5,60.05446938503099,
43,58,67,58,0,6,6,6,,,,,,,,,,,None,80.69243280007504,80.69243280007504,80.69243280007504,80.69243280007504,80.69243280007504,80.69243280007504,f,0.3035650998353958,81.02589100017212,81.02589100017212,81.02589100017212,81.02589100017212,81.02589100017212,81.02589100017212,81.3261023000814,83.15863410010934,83.15863410010934,83.15863410010934,83.15863410010934,83.15863410010934,83.15863410010934,83.15863410010934,83.15863410010934,83.15863410010934,83.15863410010934,83.15863410010934,83.15863410010934,83.15863410010934,83.15863410010934,85.29052709997632,85.29052709997632,85.29052709997632,85.29052709997632,85.29052709997632,85.29052709997632,85.29052709997632,43,58,58,67,43,70,85.29052709997632,87.0415233001113,,,,,,,,,,,,,,,,,,,008,ｍ,２０,2023-05-13_17h17.52.046,RL,2022.2.5,60.05446938503099,
44,47,63,53,0,7,7,7,,,,,,,,,,,None,87.0415233001113,87.0415233001113,87.0415233001113,87.0415233001113,87.0415233001113,87.0415233001113,r,0.35311320004984736,87.42595149995759,87.42595149995759,87.42595149995759,87.42595149995759,87.42595149995759,87.42595149995759,87.70852370001376,89.25763680017553,89.25763680017553,89.25763680017553,89.25763680017553,89.25763680017553,89.25763680017553,89.24102750001475,89.25763680017553,89.25763680017553,89.25763680017553,89.25763680017553,89.25763680017553,89.25763680017553,89.25763680017553,91.08929080003873,91.08929080003873,91.08929080003873,91.08929080003873,91.08929080003873,91.08929080003873,91.08929080003873,44,47,53,63,47,70,91.08929080003873,92.74060480017215,,,,,,,,,,,,,,,,,,,008,ｍ,２０,2023-05-13_17h17.52.046,RL,2022.2.5,60.05446938503099,
43,50,68,48,0,8,8,8,,,,,,,,,,,None,92.74060480017215,92.74060480017215,92.74060480017215,92.74060480017215,92.74060480017215,92.74060480017215,j,0.30767840007320046,93.07599789998494,93.07599789998494,93.07599789998494,93.07599789998494,93.07599789998494,93.07599789998494,93.37394970003515,94.95657110004686,94.95657110004686,94.95657110004686,94.95657110004686,94.95657110004686,94.95657110004686,94.95657110004686,94.95657110004686,94.95657110004686,94.95657110004686,94.95657110004686,94.95657110004686,94.95657110004686,94.95657110004686,96.83833830012009,96.83833830012009,96.83833830012009,96.83833830012009,96.83833830012009,96.83833830012009,96.83833830012009,43,50,48,68,68,70,96.83833830012009,98.60562380007468,,,,,,,,,,,,,,,,,,,008,ｍ,２０,2023-05-13_17h17.52.046,RL,2022.2.5,60.05446938503099,
42,56,66,53,0,9,9,9,,,,,,,,,,,None,98.60562380007468,98.60562380007468,98.60562380007468,98.60562380007468,98.60562380007468,98.60562380007468,j,0.4649849000852555,99.09122940013185,99.09122940013185,99.09122940013185,99.09122940013185,99.09122940013185,99.09122940013185,99.37266780016944,100.83907460002229,100.83907460002229,100.83907460002229,100.83907460002229,100.83907460002229,100.83907460002229,100.82243860000744,100.83907460002229,100.83907460002229,100.83907460002229,100.83907460002229,100.83907460002229,100.83907460002229,100.83907460002229,102.58727110014297,102.58727110014297,102.58727110014297,102.58727110014297,102.58727110014297,102.58727110014297,102.58727110014297,42,56,53,66,66,70,102.58727110014297,104.23803440015763,,,,,,,,,,,,,,,,,,,008,ｍ,２０,2023-05-13_17h17.52.046,RL,2022.2.5,60.05446938503099,
45,49,70,50,0,10,10,10,,,,,,,,,,,None,104.23803440015763,104.23803440015763,104.23803440015763,104.23803440015763,104.23803440015763,104.23803440015763,j,0.42267620004713535,104.68979790015146,104.68979790015146,104.68979790015146,104.68979790015146,104.68979790015146,104.68979790015146,104.97168079996482,106.55458550015464,106.55458550015464,106.55458550015464,106.55458550015464,106.55458550015464,106.55458550015464,106.53848200011998,106.55458550015464,106.55458550015464,106.55458550015464,106.55458550015464,106.55458550015464,106.55458550015464,106.55458550015464,108.41934120003134,108.41934120003134,108.41934120003134,108.41934120003134,108.41934120003134,108.41934120003134,108.41934120003134,45,49,50,70,70,70,108.41934120003134,110.02084959996864,,,,,,,,,,,,,,,,,,,008,ｍ,２０,2023-05-13_17h17.52.046,RL,2022.2.5,60.05446938503099,
31,48,72,55,0,11,11,11,,,,,,,,,,,None,110.02084959996864,110.02084959996864,110.02084959996864,110.02084959996864,110.02084959996864,110.02084959996864,j,0.8338160999119282,110.88742720009759,110.88742720009759,110.88742720009759,110.88742720009759,110.88742720009759,110.88742720009759,111.17073739995249,112.25379110011272,112.25379110011272,112.25379110011272,112.25379110011272,112.25379110011272,112.25379110011272,112.23705160012469,112.25379110011272,112.25379110011272,112.25379110011272,112.25379110011272,112.25379110011272,112.25379110011272,112.25379110011272,113.61848740000278,113.61848740000278,113.61848740000278,113.61848740000278,113.61848740000278,113.61848740000278,113.61848740000278,31,48,55,72,72,70,113.61848740000278,115.16986520006321,,,,,,,,,,,,,,,,,,,008,ｍ,２０,2023-05-13_17h17.52.046,RL,2022.2.5,60.05446938503099,
32,48,60,46,0,12,12,12,,,,,,,,,,,None,115.16986520006321,115.16986520006321,115.16986520006321,115.16986520006321,115.16986520006321,115.16986520006321,j,0.32074779993854463,115.52143239998259,115.52143239998259,115.52143239998259,115.52143239998259,115.52143239998259,115.52143239998259,115.82019210001454,117.4193900001701,117.4193900001701,117.4193900001701,117.4193900001701,117.4193900001701,117.4193900001701,117.40306160016917,117.4193900001701,117.4193900001701,117.4193900001701,117.4193900001701,117.4193900001701,117.4193900001701,117.4193900001701,119.30077830003574,119.30077830003574,119.30077830003574,119.30077830003574,119.30077830003574,119.30077830003574,119.30077830003574,32,48,46,60,60,70,119.30077830003574,120.9350336000789,,,,,,,,,,,,,,,,,,,008,ｍ,２０,2023-05-13_17h17.52.046,RL,2022.2.5,60.05446938503099,
34,47,72,49,0,13,13,13,,,,,,,,,,,None,120.9350336000789,120.9350336000789,120.9350336000789,120.9350336000789,120.9350336000789,120.9350336000789,j,0.44392500002868474,121.40263240016066,121.40263240016066,121.40263240016066,121.40263240016066,121.40263240016066,121.40263240016066,121.70205610012636,123.10194840002805,123.10194840002805,123.10194840002805,123.10194840002805,123.10194840002805,123.10194840002805,123.10194840002805,123.10194840002805,123.10194840002805,123.10194840002805,123.10194840002805,123.10194840002805,123.10194840002805,123.10194840002805,124.80019189999439,124.80019189999439,124.80019189999439,124.80019189999439,124.80019189999439,124.80019189999439,124.80019189999439,34,47,49,72,72,70,124.80019189999439,126.55120540014468,,,,,,,,,,,,,,,,,,,008,ｍ,２０,2023-05-13_17h17.52.046,RL,2022.2.5,60.05446938503099,
34,53,68,52,0,14,14,14,,,,,,,,,,,None,126.55120540014468,126.55120540014468,126.55120540014468,126.55120540014468,126.55120540014468,126.55120540014468,j,0.3365001000929624,126.91827700007707,126.91827700007707,126.91827700007707,126.91827700007707,126.91827700007707,126.91827700007707,127.20183420018293,128.35135410004295,128.35135410004295,128.35135410004295,128.35135410004295,128.35135410004295,128.35135410004295,128.35135410004295,128.35135410004295,128.35135410004295,128.35135410004295,128.35135410004295,128.35135410004295,128.35135410004295,128.35135410004295,129.78250130009837,129.78250130009837,129.78250130009837,129.78250130009837,129.78250130009837,129.78250130009837,129.78250130009837,34,53,52,68,68,70,129.78250130009837,131.60018280008808,,,,,,,,,,,,,,,,,,,008,ｍ,２０,2023-05-13_17h17.52.046,RL,2022.2.5,60.05446938503099,
25,53,64,43,0,15,15,15,,,,,,,,,,,None,131.60018280008808,131.60018280008808,131.60018280008808,131.60018280008808,131.60018280008808,131.60018280008808,j,0.4238433998543769,132.0515505000949,132.0515505000949,132.0515505000949,132.0515505000949,132.0515505000949,132.0515505000949,132.33355690003373,133.88389639998786,133.88389639998786,133.88389639998786,133.88389639998786,133.88389639998786,133.88389639998786,133.86697670002468,133.88389639998786,133.88389639998786,133.88389639998786,133.88389639998786,133.88389639998786,133.88389639998786,133.88389639998786,135.71460700011812,135.71460700011812,135.71460700011812,135.71460700011812,135.71460700011812,135.71460700011812,135.71460700011812,25,53,43,64,64,70,135.71460700011812,137.299174600048,,,,,,,,,,,,,,,,,,,008,ｍ,２０,2023-05-13_17h17.52.046,RL,2022.2.5,60.05446938503099,
20,51,63,43,0,16,16,16,,,,,,,,,,,None,137.299174600048,137.299174600048,137.299174600048,137.299174600048,137.299174600048,137.299174600048,j,0.4128330999519676,137.7339660001453,137.7339660001453,137.7339660001453,137.7339660001453,137.7339660001453,137.7339660001453,138.01593059999868,138.86554530006833,138.86554530006833,138.86554530006833,138.86554530006833,138.86554530006833,138.86554530006833,138.84906439995393,138.86554530006833,138.86554530006833,138.86554530006833,138.86554530006833,138.86554530006833,138.86554530006833,138.86554530006833,139.99749510013498,139.99749510013498,139.99749510013498,139.99749510013498,139.99749510013498,139.99749510013498,139.99749510013498,20,51,43,63,63,70,139.99749510013498,141.99814230017364,,,,,,,,,,,,,,,,,,,008,ｍ,２０,2023-05-13_17h17.52.046,RL,2022.2.5,60.05446938503099,
25,49,68,45,0,17,17,17,,,,,,,,,,,None,141.99814230017364,141.99814230017364,141.99814230017364,141.99814230017364,141.99814230017364,141.99814230017364,j,0.37010499997995794,142.40110570006073,142.40110570006073,142.40110570006073,142.40110570006073,142.40110570006073,142.40110570006073,142.68157640006393,143.8647897001356,143.8647897001356,143.8647897001356,143.8647897001356,143.8647897001356,143.8647897001356,143.84791220002808,143.8647897001356,143.8647897001356,143.8647897001356,143.8647897001356,143.8647897001356,143.8647897001356,143.8647897001356,145.32999920006841,145.32999920006841,145.32999920006841,145.32999920006841,145.32999920006841,145.32999920006841,145.32999920006841,25,49,45,68,68,70,145.32999920006841,147.0476090000011,,,,,,,,,,,,,,,,,,,008,ｍ,２０,2023-05-13_17h17.52.046,RL,2022.2.5,60.05446938503099,
26,51,69,46,0,18,18,18,,,,,,,,,,,None,147.0476090000011,147.0476090000011,147.0476090000011,147.0476090000011,147.0476090000011,147.0476090000011,j,0.372993600089103,147.44899319997057,147.44899319997057,147.44899319997057,147.44899319997057,147.44899319997057,147.44899319997057,147.73105750000104,149.59719720017165,149.59719720017165,149.59719720017165,149.59719720017165,149.59719720017165,149.59719720017165,149.58062630007043,149.59719720017165,149.59719720017165,149.59719720017165,149.59719720017165,149.59719720017165,149.59719720017165,149.59719720017165,151.74538170010783,151.74538170010783,151.74538170010783,151.74538170010783,151.74538170010783,151.74538170010783,151.74538170010783,26,51,46,69,69,70,151.74538170010783,153.5628202999942,,,,,,,,,,,,,,,,,,,008,ｍ,２０,2023-05-13_17h17.52.046,RL,2022.2.5,60.05446938503099,
33,46,68,36,0,19,19,19,,,,,,,,,,,None,153.5628202999942,153.5628202999942,153.5628202999942,153.5628202999942,153.5628202999942,153.5628202999942,j,0.39564869995228946,153.98184540006332,153.98184540006332,153.98184540006332,153.98184540006332,153.98184540006332,153.98184540006332,154.2798093999736,155.81264630006626,155.81264630006626,155.81264630006626,155.81264630006626,155.81264630006626,155.81264630006626,155.81264630006626,155.81264630006626,155.81264630006626,155.81264630006626,155.81264630006626,155.81264630006626,155.81264630006626,155.81264630006626,157.644626500085,157.644626500085,157.644626500085,157.644626500085,157.644626500085,157.644626500085,157.644626500085,33,46,36,68,68,70,157.644626500085,159.44542650016956,,,,,,,,,,,,,,,,,,,008,ｍ,２０,2023-05-13_17h17.52.046,RL,2022.2.5,60.05446938503099,
36,50,65,48,0,20,20,20,,,,,,,,,,,None,159.44542650016956,159.44542650016956,159.44542650016956,159.44542650016956,159.44542650016956,159.44542650016956,j,0.3922774998936802,159.86223009997047,159.86223009997047,159.86223009997047,159.86223009997047,159.86223009997047,159.86223009997047,160.14541340013966,161.51172560011037,161.51172560011037,161.51172560011037,161.51172560011037,161.51172560011037,161.51172560011037,161.495306200115,161.51172560011037,161.51172560011037,161.51172560011037,161.51172560011037,161.51172560011037,161.51172560011037,161.51172560011037,163.16016010008752,163.16016010008752,163.16016010008752,163.16016010008752,163.16016010008752,163.16016010008752,163.16016010008752,36,50,48,65,65,70,163.16016010008752,164.89445969997905,,,,,,,,,,,,,,,,,,,008,ｍ,２０,2023-05-13_17h17.52.046,RL,2022.2.5,60.05446938503099,
30,51,75,46,0,21,21,21,,,,,,,,,,,None,164.89445969997905,164.89445969997905,164.89445969997905,164.89445969997905,164.89445969997905,164.89445969997905,j,0.3865569999907166,165.31141760013998,165.31141760013998,165.31141760013998,165.31141760013998,165.31141760013998,165.31141760013998,165.5942284001503,166.76098929997534,166.76098929997534,166.76098929997534,166.76098929997534,166.76098929997534,166.76098929997534,166.74434019997716,166.76098929997534,166.76098929997534,166.76098929997534,166.76098929997534,166.76098929997534,166.76098929997534,166.76098929997534,168.20896870014258,168.20896870014258,168.20896870014258,168.20896870014258,168.20896870014258,168.20896870014258,168.20896870014258,30,51,46,75,75,70,168.20896870014258,170.1933294001501,,,,,,,,,,,,,,,,,,,008,ｍ,２０,2023-05-13_17h17.52.046,RL,2022.2.5,60.05446938503099,
23,55,71,45,0,22,22,22,,,,,,,,,,,None,170.1933294001501,170.1933294001501,170.1933294001501,170.1933294001501,170.1933294001501,170.1933294001501,j,0.3534168000333011,170.57811270002276,170.57811270002276,170.57811270002276,170.57811270002276,170.57811270002276,170.57811270002276,170.87668059999123,171.693149600178,171.693149600178,171.693149600178,171.693149600178,171.693149600178,171.693149600178,171.693149600178,171.693149600178,171.693149600178,171.693149600178,171.693149600178,171.693149600178,171.693149600178,171.693149600178,172.8086476000026,172.8086476000026,172.8086476000026,172.8086476000026,172.8086476000026,172.8086476000026,172.8086476000026,23,55,45,71,71,70,172.8086476000026,174.49261060007848,,,,,,,,,,,,,,,,,,,008,ｍ,２０,2023-05-13_17h17.52.046,RL,2022.2.5,60.05446938503099,
26,48,62,39,0,23,23,23,,,,,,,,,,,None,174.49261060007848,174.49261060007848,174.49261060007848,174.49261060007848,174.49261060007848,174.49261060007848,j,0.5517712999135256,175.07911050016992,175.07911050016992,175.07911050016992,175.07911050016992,175.07911050016992,175.07911050016992,175.35986640001647,177.17596260015853,177.17596260015853,177.17596260015853,177.17596260015853,177.17596260015853,177.17596260015853,177.1426065999549,177.17596260015853,177.17596260015853,177.17596260015853,177.17596260015853,177.17596260015853,177.17596260015853,177.17596260015853,179.25703520001844,179.25703520001844,179.25703520001844,179.25703520001844,179.25703520001844,179.25703520001844,179.25703520001844,26,48,39,62,62,70,179.25703520001844,181.20802940009162,,,,,,,,,,,,,,,,,,,008,ｍ,２０,2023-05-13_17h17.52.046,RL,2022.2.5,60.05446938503099,
38,54,60,45,0,24,24,24,,,,,,,,,,,None,181.20802940009162,181.20802940009162,181.20802940009162,181.20802940009162,181.20802940009162,181.20802940009162,j,0.2725325000938028,181.50959859997965,181.50959859997965,181.50959859997965,181.50959859997965,181.50959859997965,181.50959859997965,181.80832640011795,182.84151510009542,182.84151510009542,182.84151510009542,182.84151510009542,182.84151510009542,182.84151510009542,182.84151510009542,182.84151510009542,182.84151510009542,182.84151510009542,182.84151510009542,182.84151510009542,182.84151510009542,182.84151510009542,184.17275610007346,184.17275610007346,184.17275610007346,184.17275610007346,184.17275610007346,184.17275610007346,184.17275610007346,38,54,45,60,60,70,184.17275610007346,185.70744980010204,,,,,,,,,,,,,,,,,,,008,ｍ,２０,2023-05-13_17h17.52.046,RL,2022.2.5,60.05446938503099,
33,48,66,45,0,25,25,25,,,,,,,,,,,None,185.70744980010204,185.70744980010204,185.70744980010204,185.70744980010204,185.70744980010204,185.70744980010204,None,,,,,,,,,,,,,,,,,,,,,,,,,,,,,,33,48,45,66,0,70,193.22146790008992,194.93919480009936,187.2073684001807,187.2073684001807,187.2073684001807,187.2073684001807,187.2073684001807,187.2073684001807,187.2073684001807,193.22146790008992,,,,,,,,,,,008,ｍ,２０,2023-05-13_17h17.52.046,RL,2022.2.5,60.05446938503099,
22,54,63,42,0,26,26,26,,,,,,,,,,,None,194.93919480009936,194.93919480009936,194.93919480009936,194.93919480009936,194.93919480009936,194.93919480009936,j,0.28519910015165806,195.25635630008765,195.25635630008765,195.25635630008765,195.25635630008765,195.25635630008765,195.25635630008765,195.539641499985,196.85605380008928,196.85605380008928,196.85605380008928,196.85605380008928,196.85605380008928,196.85605380008928,196.83979270001873,196.85605380008928,196.85605380008928,196.85605380008928,196.85605380008928,196.85605380008928,196.85605380008928,196.85605380008928,198.45359829999506,198.45359829999506,198.45359829999506,198.45359829999506,198.45359829999506,198.45359829999506,198.45359829999506,22,54,42,63,63,70,198.45359829999506,200.188262199983,,,,,,,,,,,,,,,,,,,008,ｍ,２０,2023-05-13_17h17.52.046,RL,2022.2.5,60.05446938503099,
21,53,57,37,0,27,27,27,,,,,,,,,,,None,200.188262199983,200.188262199983,200.188262199983,200.188262199983,200.188262199983,200.188262199983,j,0.33877830021083355,200.5573022000026,200.5573022000026,200.5573022000026,200.5573022000026,200.5573022000026,200.5573022000026,200.83852150011808,201.7049069001805,201.7049069001805,201.7049069001805,201.7049069001805,201.7049069001805,201.7049069001805,201.67200560006313,201.7049069001805,201.7049069001805,201.7049069001805,201.7049069001805,201.7049069001805,201.7049069001805,201.7049069001805,202.8368312001694,202.8368312001694,202.8368312001694,202.8368312001694,202.8368312001694,202.8368312001694,202.8368312001694,21,53,37,57,57,70,202.8368312001694,204.5709557000082,,,,,,,,,,,,,,,,,,,008,ｍ,２０,2023-05-13_17h17.52.046,RL,2022.2.5,60.05446938503099,
9,54,50,35,0,28,28,28,,,,,,,,,,,None,204.5709557000082,204.5709557000082,204.5709557000082,204.5709557000082,204.5709557000082,204.5709557000082,i,0.4363785998430103,205.0378457000479,205.0378457000479,205.0378457000479,205.0378457000479,205.0378457000479,205.0378457000479,205.32133870013058,207.17048660013825,207.17048660013825,207.17048660013825,207.17048660013825,207.17048660013825,207.17048660013825,207.1540312001016,207.17048660013825,207.17048660013825,207.17048660013825,207.17048660013825,207.17048660013825,207.17048660013825,207.17048660013825,209.30237930011936,209.30237930011936,209.30237930011936,209.30237930011936,209.30237930011936,209.30237930011936,209.30237930011936,9,54,35,50,35,70,209.30237930011936,211.0693898999598,,,,,,,,,,,,,,,,,,,008,ｍ,２０,2023-05-13_17h17.52.046,RL,2022.2.5,60.05446938503099,
21,52,45,53,0,29,29,29,,,,,,,,,,,None,211.0693898999598,211.0693898999598,211.0693898999598,211.0693898999598,211.0693898999598,211.0693898999598,j,0.33965909993276,211.43740130006336,211.43740130006336,211.43740130006336,211.43740130006336,211.43740130006336,211.43740130006336,211.71975270006806,213.6193828000687,213.6193828000687,213.6193828000687,213.6193828000687,213.6193828000687,213.6193828000687,213.60287349997088,213.6193828000687,213.6193828000687,213.6193828000687,213.6193828000687,213.6193828000687,213.6193828000687,213.6193828000687,215.8006385001354,215.8006385001354,215.8006385001354,215.8006385001354,215.8006385001354,215.8006385001354,215.8006385001354,21,52,53,45,45,70,215.8006385001354,217.65197270014323,,,,,,,,,,,,,,,,,,,008,ｍ,２０,2023-05-13_17h17.52.046,RL,2022.2.5,60.05446938503099,
27,57,44,42,0,30,30,30,,,,,,,,,,,None,217.65197270014323,217.65197270014323,217.65197270014323,217.65197270014323,217.65197270014323,217.65197270014323,f,0.3498962000012398,218.02002960001118,218.02002960001118,218.02002960001118,218.02002960001118,218.02002960001118,218.02002960001118,218.3190417001024,219.26850410015322,219.26850410015322,219.26850410015322,219.26850410015322,219.26850410015322,219.26850410015322,219.26850410015322,219.26850410015322,219.26850410015322,219.26850410015322,219.26850410015322,219.26850410015322,219.26850410015322,219.26850410015322,220.51649650000036,220.51649650000036,220.51649650000036,220.51649650000036,220.51649650000036,220.51649650000036,220.51649650000036,27,57,42,44,27,70,220.51649650000036,222.41807530005462,,,,,,,,,,,,,,,,,,,008,ｍ,２０,2023-05-13_17h17.52.046,RL,2022.2.5,60.05446938503099,
20,66,51,41,0,31,31,31,,,,,,,,,,,None,222.41807530005462,222.41807530005462,222.41807530005462,222.41807530005462,222.41807530005462,222.41807530005462,r,0.4502150001935661,222.8849848001264,222.8849848001264,222.8849848001264,222.8849848001264,222.8849848001264,222.8849848001264,223.18474730011076,224.184358100174,224.184358100174,224.184358100174,224.184358100174,224.184358100174,224.184358100174,224.184358100174,224.184358100174,224.184358100174,224.184358100174,224.184358100174,224.184358100174,224.184358100174,224.184358100174,225.48237440013327,225.48237440013327,225.48237440013327,225.48237440013327,225.48237440013327,225.48237440013327,225.48237440013327,20,66,41,51,66,70,225.48237440013327,227.1335883999709,,,,,,,,,,,,,,,,,,,008,ｍ,２０,2023-05-13_17h17.52.046,RL,2022.2.5,60.05446938503099,
13,53,51,38,0,32,32,32,,,,,,,,,,,None,227.1335883999709,227.1335883999709,227.1335883999709,227.1335883999709,227.1335883999709,227.1335883999709,r,0.4178314001765102,227.58394600008614,227.58394600008614,227.58394600008614,227.58394600008614,227.58394600008614,227.58394600008614,227.86738159996457,229.8667748000007,229.8667748000007,229.8667748000007,229.8667748000007,229.8667748000007,229.8667748000007,229.84991710004397,229.8667748000007,229.8667748000007,229.8667748000007,229.8667748000007,229.8667748000007,229.8667748000007,229.8667748000007,232.14777950011194,232.14777950011194,232.14777950011194,232.14777950011194,232.14777950011194,232.14777950011194,232.14777950011194,13,53,38,51,53,70,232.14777950011194,233.79865470016375,,,,,,,,,,,,,,,,,,,008,ｍ,２０,2023-05-13_17h17.52.046,RL,2022.2.5,60.05446938503099,
22,65,43,46,0,33,33,33,,,,,,,,,,,None,233.79865470016375,233.79865470016375,233.79865470016375,233.79865470016375,233.79865470016375,233.79865470016375,r,0.7097459000069648,234.53297880012542,234.53297880012542,234.53297880012542,234.53297880012542,234.53297880012542,234.53297880012542,234.81629300001077,235.96536320005544,235.96536320005544,235.96536320005544,235.96536320005544,235.96536320005544,235.96536320005544,235.94884660001844,235.96536320005544,235.96536320005544,235.96536320005544,235.96536320005544,235.96536320005544,235.96536320005544,235.96536320005544,237.39737100014463,237.39737100014463,237.39737100014463,237.39737100014463,237.39737100014463,237.39737100014463,237.39737100014463,22,65,46,43,65,70,237.39737100014463,239.0816081999801,,,,,,,,,,,,,,,,,,,008,ｍ,２０,2023-05-13_17h17.52.046,RL,2022.2.5,60.05446938503099,
15,65,39,42,0,34,34,34,,,,,,,,,,,None,239.0816081999801,239.0816081999801,239.0816081999801,239.0816081999801,239.0816081999801,239.0816081999801,r,0.27862400002777576,239.3818618999794,239.3818618999794,239.3818618999794,239.3818618999794,239.3818618999794,239.3818618999794,239.66482890001498,240.54826950002462,240.54826950002462,240.54826950002462,240.54826950002462,240.54826950002462,240.54826950002462,240.53195179998875,240.54826950002462,240.54826950002462,240.54826950002462,240.54826950002462,240.54826950002462,240.54826950002462,240.54826950002462,241.7127442001365,241.7127442001365,241.7127442001365,241.7127442001365,241.7127442001365,241.7127442001365,241.7127442001365,15,65,42,39,65,70,241.7127442001365,243.28081110003404,,,,,,,,,,,,,,,,,,,008,ｍ,２０,2023-05-13_17h17.52.046,RL,2022.2.5,60.05446938503099,
21,59,34,46,0,35,35,35,,,,,,,,,,,None,243.28081110003404,243.28081110003404,243.28081110003404,243.28081110003404,243.28081110003404,243.28081110003404,r,0.28499870002269745,243.59862329997122,243.59862329997122,243.59862329997122,243.59862329997122,243.59862329997122,243.59862329997122,243.8976037001703,245.84740080009215,245.84740080009215,245.84740080009215,245.84740080009215,245.84740080009215,245.84740080009215,245.84740080009215,245.84740080009215,245.84740080009215,245.84740080009215,245.84740080009215,245.84740080009215,245.84740080009215,245.84740080009215,248.09497050009668,248.09497050009668,248.09497050009668,248.09497050009668,248.09497050009668,248.09497050009668,248.09497050009668,21,59,46,34,59,70,248.09497050009668,249.69646610016935,,,,,,,,,,,,,,,,,,,008,ｍ,２０,2023-05-13_17h17.52.046,RL,2022.2.5,60.05446938503099,
17,63,43,40,0,36,36,36,,,,,,,,,,,None,249.69646610016935,249.69646610016935,249.69646610016935,249.69646610016935,249.69646610016935,249.69646610016935,r,0.3462938000448048,250.06435310002416,250.06435310002416,250.06435310002416,250.06435310002416,250.06435310002416,250.06435310002416,250.36316910013556,252.32974079996347,252.32974079996347,252.32974079996347,252.32974079996347,252.32974079996347,252.32974079996347,252.32974079996347,252.32974079996347,252.32974079996347,252.32974079996347,252.32974079996347,252.32974079996347,252.32974079996347,252.32974079996347,254.5938874001149,254.5938874001149,254.5938874001149,254.5938874001149,254.5938874001149,254.5938874001149,254.5938874001149,17,63,40,43,63,70,254.5938874001149,256.361596000148,,,,,,,,,,,,,,,,,,,008,ｍ,２０,2023-05-13_17h17.52.046,RL,2022.2.5,60.05446938503099,
19,57,53,39,0,37,37,37,,,,,,,,,,,None,256.361596000148,256.361596000148,256.361596000148,256.361596000148,256.361596000148,256.361596000148,r,0.3014760999940336,256.696595299989,256.696595299989,256.696595299989,256.696595299989,256.696595299989,256.696595299989,256.99555780016817,258.3949470000807,258.3949470000807,258.3949470000807,258.3949470000807,258.3949470000807,258.3949470000807,258.3949470000807,258.3949470000807,258.3949470000807,258.3949470000807,258.3949470000807,258.3949470000807,258.3949470000807,258.3949470000807,260.0933891001623,260.0933891001623,260.0933891001623,260.0933891001623,260.0933891001623,260.0933891001623,260.0933891001623,19,57,39,53,57,70,260.0933891001623,261.694333499996,,,,,,,,,,,,,,,,,,,008,ｍ,２０,2023-05-13_17h17.52.046,RL,2022.2.5,60.05446938503099,
21,59,45,42,0,38,38,38,,,,,,,,,,,None,261.694333499996,261.694333499996,261.694333499996,261.694333499996,261.694333499996,261.694333499996,j,0.43566960003226995,262.16144279995933,262.16144279995933,262.16144279995933,262.16144279995933,262.16144279995933,262.16144279995933,262.44465810013935,264.3939949001651,264.3939949001651,264.3939949001651,264.3939949001651,264.3939949001651,264.3939949001651,264.3779413001612,264.3939949001651,264.3939949001651,264.3939949001651,264.3939949001651,264.3939949001651,264.3939949001651,264.3939949001651,266.6255855001509,266.6255855001509,266.6255855001509,266.6255855001509,266.6255855001509,266.6255855001509,266.6255855001509,21,59,42,45,45,70,266.6255855001509,268.409778600093,,,,,,,,,,,,,,,,,,,008,ｍ,２０,2023-05-13_17h17.52.046,RL,2022.2.5,60.05446938503099,
22,53,37,43,0,39,39,39,,,,,,,,,,,None,268.409778600093,268.409778600093,268.409778600093,268.409778600093,268.409778600093,268.409778600093,r,0.2906976998783648,268.72806999995373,268.72806999995373,268.72806999995373,268.72806999995373,268.72806999995373,268.72806999995373,269.0099985001143,270.376243500039,270.376243500039,270.376243500039,270.376243500039,270.376243500039,270.376243500039,270.3601844001096,270.376243500039,270.376243500039,270.376243500039,270.376243500039,270.376243500039,270.376243500039,270.376243500039,272.0238988001365,272.0238988001365,272.0238988001365,272.0238988001365,272.0238988001365,272.0238988001365,272.0238988001365,22,53,43,37,53,70,272.0238988001365,273.69226200017147,,,,,,,,,,,,,,,,,,,008,ｍ,２０,2023-05-13_17h17.52.046,RL,2022.2.5,60.05446938503099,
26,56,38,52,0,40,40,40,,,,,,,,,,,None,273.69226200017147,273.69226200017147,273.69226200017147,273.69226200017147,273.69226200017147,273.69226200017147,r,0.5571850000414997,274.27574990014546,274.27574990014546,274.27574990014546,274.27574990014546,274.27574990014546,274.27574990014546,274.5592349001672,275.87520540016703,275.87520540016703,275.87520540016703,275.87520540016703,275.87520540016703,275.87520540016703,275.8591963001527,275.87520540016703,275.87520540016703,275.87520540016703,275.87520540016703,275.87520540016703,275.87520540016703,275.87520540016703,277.47313449997455,277.47313449997455,277.47313449997455,277.47313449997455,277.47313449997455,277.47313449997455,277.47313449997455,26,56,52,38,56,70,277.47313449997455,279.0078561999835,,,,,,,,,,,,,,,,,,,008,ｍ,２０,2023-05-13_17h17.52.046,RL,2022.2.5,60.05446938503099,
16,48,33,48,0,41,41,41,,,,,,,,,,,None,279.0078561999835,279.0078561999835,279.0078561999835,279.0078561999835,279.0078561999835,279.0078561999835,i,0.3394037999678403,279.37516469997354,279.37516469997354,279.37516469997354,279.37516469997354,279.37516469997354,279.37516469997354,279.6576906000264,281.17462470009923,281.17462470009923,281.17462470009923,281.17462470009923,281.17462470009923,281.17462470009923,281.1581328001339,281.17462470009923,281.17462470009923,281.17462470009923,281.17462470009923,281.17462470009923,281.17462470009923,281.17462470009923,282.97207350004464,282.97207350004464,282.97207350004464,282.97207350004464,282.97207350004464,282.97207350004464,282.97207350004464,16,48,48,33,48,70,282.97207350004464,284.92331390012987,,,,,,,,,,,,,,,,,,,008,ｍ,２０,2023-05-13_17h17.52.046,RL,2022.2.5,60.05446938503099,
26,55,37,48,0,42,42,42,,,,,,,,,,,None,284.92331390012987,284.92331390012987,284.92331390012987,284.92331390012987,284.92331390012987,284.92331390012987,r,0.3717259999830276,285.3239833000116,285.3239833000116,285.3239833000116,285.3239833000116,285.3239833000116,285.3239833000116,285.6068591000512,287.223368300125,287.223368300125,287.223368300125,287.223368300125,287.223368300125,287.223368300125,287.2068130001426,287.223368300125,287.223368300125,287.223368300125,287.223368300125,287.223368300125,287.223368300125,287.223368300125,289.1212858001236,289.1212858001236,289.1212858001236,289.1212858001236,289.1212858001236,289.1212858001236,289.1212858001236,26,55,48,37,55,70,289.1212858001236,291.02229980006814,,,,,,,,,,,,,,,,,,,008,ｍ,２０,2023-05-13_17h17.52.046,RL,2022.2.5,60.05446938503099,
26,48,45,54,0,43,43,43,,,,,,,,,,,None,291.02229980006814,291.02229980006814,291.02229980006814,291.02229980006814,291.02229980006814,291.02229980006814,r,0.2877042999025434,291.3395670000464,291.3395670000464,291.3395670000464,291.3395670000464,291.3395670000464,291.3395670000464,291.62235750001855,292.85593360010535,292.85593360010535,292.85593360010535,292.85593360010535,292.85593360010535,292.85593360010535,292.8395314000081,292.85593360010535,292.85593360010535,292.85593360010535,292.85593360010535,292.85593360010535,292.85593360010535,292.85593360010535,294.37051980011165,294.37051980011165,294.37051980011165,294.37051980011165,294.37051980011165,294.37051980011165,294.37051980011165,26,48,54,45,48,70,294.37051980011165,296.05466050002724,,,,,,,,,,,,,,,,,,,008,ｍ,２０,2023-05-13_17h17.52.046,RL,2022.2.5,60.05446938503099,
27,48,39,44,0,44,44,44,,,,,,,,,,,None,296.05466050002724,296.05466050002724,296.05466050002724,296.05466050002724,296.05466050002724,296.05466050002724,j,0.4123434000648558,296.488612000132,296.488612000132,296.488612000132,296.488612000132,296.488612000132,296.488612000132,296.77190940012224,298.22152810008265,298.22152810008265,298.22152810008265,298.22152810008265,298.22152810008265,298.22152810008265,298.2049090000801,298.22152810008265,298.22152810008265,298.22152810008265,298.22152810008265,298.22152810008265,298.22152810008265,298.22152810008265,299.9525952001568,299.9525952001568,299.9525952001568,299.9525952001568,299.9525952001568,299.9525952001568,299.9525952001568,27,48,44,39,39,70,299.9525952001568,301.8368170000613,,,,,,,,,,,,,,,,,,,008,ｍ,２０,2023-05-13_17h17.52.046,RL,2022.2.5,60.05446938503099,
26,52,34,45,0,45,45,45,,,,,,,,,,,None,301.8368170000613,301.8368170000613,301.8368170000613,301.8368170000613,301.8368170000613,301.8368170000613,i,0.3441689000464976,302.2042068000883,302.2042068000883,302.2042068000883,302.2042068000883,302.2042068000883,302.2042068000883,302.4877856001258,303.553751999978,303.553751999978,303.553751999978,303.553751999978,303.553751999978,303.553751999978,303.5372270999942,303.553751999978,303.553751999978,303.553751999978,303.553751999978,303.553751999978,303.553751999978,303.553751999978,304.9018957000226,304.9018957000226,304.9018957000226,304.9018957000226,304.9018957000226,304.9018957000226,304.9018957000226,26,52,45,34,45,70,304.9018957000226,306.55284989997745,,,,,,,,,,,,,,,,,,,008,ｍ,２０,2023-05-13_17h17.52.046,RL,2022.2.5,60.05446938503099,
23,42,37,50,0,46,46,46,,,,,,,,,,,None,306.55284989997745,306.55284989997745,306.55284989997745,306.55284989997745,306.55284989997745,306.55284989997745,f,0.42697120015509427,307.00460520014167,307.00460520014167,307.00460520014167,307.00460520014167,307.00460520014167,307.00460520014167,307.2866623001173,308.3862664999906,308.3862664999906,308.3862664999906,308.3862664999906,308.3862664999906,308.3862664999906,308.3697961999569,308.3862664999906,308.3862664999906,308.3862664999906,308.3862664999906,308.3862664999906,308.3862664999906,308.3862664999906,309.76748490007594,309.76748490007594,309.76748490007594,309.76748490007594,309.76748490007594,309.76748490007594,309.76748490007594,23,42,50,37,23,70,309.76748490007594,311.31919030006975,,,,,,,,,,,,,,,,,,,008,ｍ,２０,2023-05-13_17h17.52.046,RL,2022.2.5,60.05446938503099,
26,48,39,45,0,47,47,47,,,,,,,,,,,None,311.31919030006975,311.31919030006975,311.31919030006975,311.31919030006975,311.31919030006975,311.31919030006975,r,0.3368030998390168,311.68609010009095,311.68609010009095,311.68609010009095,311.68609010009095,311.68609010009095,311.68609010009095,311.9690166001674,313.90210509998724,313.90210509998724,313.90210509998724,313.90210509998724,313.90210509998724,313.90210509998724,313.8859092001803,313.90210509998724,313.90210509998724,313.90210509998724,313.90210509998724,313.90210509998724,313.90210509998724,313.90210509998724,316.11670919996686,316.11670919996686,316.11670919996686,316.11670919996686,316.11670919996686,316.11670919996686,316.11670919996686,26,48,45,39,48,70,316.11670919996686,317.7845175000839,,,,,,,,,,,,,,,,,,,008,ｍ,２０,2023-05-13_17h17.52.046,RL,2022.2.5,60.05446938503099,
23,48,42,45,0,48,48,48,,,,,,,,,,,None,317.7845175000839,317.7845175000839,317.7845175000839,317.7845175000839,317.7845175000839,317.7845175000839,r,0.2770124999806285,318.08790320018306,318.08790320018306,318.08790320018306,318.08790320018306,318.08790320018306,318.08790320018306,318.3681363000069,319.5510772999842,319.5510772999842,319.5510772999842,319.5510772999842,319.5510772999842,319.5510772999842,319.5350097999908,319.5510772999842,319.5510772999842,319.5510772999842,319.5510772999842,319.5510772999842,319.5510772999842,319.5510772999842,321.0164030001033,321.0164030001033,321.0164030001033,321.0164030001033,321.0164030001033,321.0164030001033,321.0164030001033,23,48,45,42,48,70,321.0164030001033,322.68344849999994,,,,,,,,,,,,,,,,,,,008,ｍ,２０,2023-05-13_17h17.52.046,RL,2022.2.5,60.05446938503099,
21,48,40,46,0,49,49,49,,,,,,,,,,,None,322.68344849999994,322.68344849999994,322.68344849999994,322.68344849999994,322.68344849999994,322.68344849999994,r,0.571389899821952,323.2854401001241,323.2854401001241,323.2854401001241,323.2854401001241,323.2854401001241,323.2854401001241,323.5840954000596,324.98321340000257,324.98321340000257,324.98321340000257,324.98321340000257,324.98321340000257,324.98321340000257,324.98321340000257,324.98321340000257,324.98321340000257,324.98321340000257,324.98321340000257,324.98321340000257,324.98321340000257,324.98321340000257,326.6809658999555,326.6809658999555,326.6809658999555,326.6809658999555,326.6809658999555,326.6809658999555,326.6809658999555,21,48,46,40,48,70,326.6809658999555,328.48284219997004,,,,,,,,,,,,,,,,,,,008,ｍ,２０,2023-05-13_17h17.52.046,RL,2022.2.5,60.05446938503099,
24,43,48,41,0,50,50,50,,,,,,,,,,,None,328.48284219997004,328.48284219997004,328.48284219997004,328.48284219997004,328.48284219997004,328.48284219997004,r,0.28542119986377656,328.7998375999741,328.7998375999741,328.7998375999741,328.7998375999741,328.7998375999741,328.7998375999741,329.08281740010716,330.0990602001548,330.0990602001548,330.0990602001548,330.0990602001548,330.0990602001548,330.0990602001548,330.06563980015926,330.0990602001548,330.0990602001548,330.0990602001548,330.0990602001548,330.0990602001548,330.0990602001548,330.0990602001548,331.38060569996014,331.38060569996014,331.38060569996014,331.38060569996014,331.38060569996014,331.38060569996014,331.38060569996014,24,43,41,48,43,70,331.38060569996014,332.948611299973,,,,,,,,,,,,,,,,,,,008,ｍ,２０,2023-05-13_17h17.52.046,RL,2022.2.5,60.05446938503099,
35,50,46,43,0,51,51,51,,,,,,,,,,,None,332.948611299973,332.948611299973,332.948611299973,332.948611299973,332.948611299973,332.948611299973,i,0.5892483999487013,333.5689123000484,333.5689123000484,333.5689123000484,333.5689123000484,333.5689123000484,333.5689123000484,333.84878959995694,335.5316653000191,335.5316653000191,335.5316653000191,335.5316653000191,335.5316653000191,335.5316653000191,335.5151236001402,335.5316653000191,335.5316653000191,335.5316653000191,335.5316653000191,335.5316653000191,335.5316653000191,335.5316653000191,337.47950620017946,337.47950620017946,337.47950620017946,337.47950620017946,337.47950620017946,337.47950620017946,337.47950620017946,35,50,43,46,43,70,337.47950620017946,339.4141329000704,,,,,,,,,,,,,,,,,,,008,ｍ,２０,2023-05-13_17h17.52.046,RL,2022.2.5,60.05446938503099,
33,51,50,36,0,52,52,52,,,,,,,,,,,None,339.4141329000704,339.4141329000704,339.4141329000704,339.4141329000704,339.4141329000704,339.4141329000704,j,0.40153610007837415,339.84808230004273,339.84808230004273,339.84808230004273,339.84808230004273,339.84808230004273,339.84808230004273,340.13104550004937,341.53043509996496,341.53043509996496,341.53043509996496,341.53043509996496,341.53043509996496,341.53043509996496,341.496956899995,341.53043509996496,341.53043509996496,341.53043509996496,341.53043509996496,341.53043509996496,341.53043509996496,341.53043509996496,343.21201959997416,343.21201959997416,343.21201959997416,343.21201959997416,343.21201959997416,343.21201959997416,343.21201959997416,33,51,36,50,50,70,343.21201959997416,345.0965362000279,,,,,,,,,,,,,,,,,,,008,ｍ,２０,2023-05-13_17h17.52.046,RL,2022.2.5,60.05446938503099,
22,48,53,41,0,53,53,53,,,,,,,,,,,None,345.0965362000279,345.0965362000279,345.0965362000279,345.0965362000279,345.0965362000279,345.0965362000279,j,0.5372581998817623,345.6643857001327,345.6643857001327,345.6643857001327,345.6643857001327,345.6643857001327,345.6643857001327,345.94655660004355,347.3296199000906,347.3296199000906,347.3296199000906,347.3296199000906,347.3296199000906,347.3296199000906,347.31349910004064,347.3296199000906,347.3296199000906,347.3296199000906,347.3296199000906,347.3296199000906,347.3296199000906,347.3296199000906,348.9945984000806,348.9945984000806,348.9945984000806,348.9945984000806,348.9945984000806,348.9945984000806,348.9945984000806,22,48,41,53,53,70,348.9945984000806,350.54539550002664,,,,,,,,,,,,,,,,,,,008,ｍ,２０,2023-05-13_17h17.52.046,RL,2022.2.5,60.05446938503099,
26,41,54,37,0,54,54,54,,,,,,,,,,,None,350.54539550002664,350.54539550002664,350.54539550002664,350.54539550002664,350.54539550002664,350.54539550002664,j,0.6694815999362618,351.24593190010637,351.24593190010637,351.24593190010637,351.24593190010637,351.24593190010637,351.24593190010637,351.530083599966,352.8286071000621,352.8286071000621,352.8286071000621,352.8286071000621,352.8286071000621,352.8286071000621,352.81168050016277,352.8286071000621,352.8286071000621,352.8286071000621,352.8286071000621,352.8286071000621,352.8286071000621,352.8286071000621,354.410097300075,354.410097300075,354.410097300075,354.410097300075,354.410097300075,354.410097300075,354.410097300075,26,41,37,54,54,70,354.410097300075,355.94436930003576,,,,,,,,,,,,,,,,,,,008,ｍ,２０,2023-05-13_17h17.52.046,RL,2022.2.5,60.05446938503099,
23,36,55,43,0,55,55,55,,,,,,,,,,,None,355.94436930003576,355.94436930003576,355.94436930003576,355.94436930003576,355.94436930003576,355.94436930003576,j,0.2925150999799371,356.2625829000026,356.2625829000026,356.2625829000026,356.2625829000026,356.2625829000026,356.2625829000026,356.544665500056,357.4277176000178,357.4277176000178,357.4277176000178,357.4277176000178,357.4277176000178,357.4277176000178,357.41158770001493,357.4277176000178,357.4277176000178,357.4277176000178,357.4277176000178,357.4277176000178,357.4277176000178,357.4277176000178,358.5929901001509,358.5929901001509,358.5929901001509,358.5929901001509,358.5929901001509,358.5929901001509,358.5929901001509,23,36,43,55,55,70,358.5929901001509,360.51018830016255,,,,,,,,,,,,,,,,,,,008,ｍ,２０,2023-05-13_17h17.52.046,RL,2022.2.5,60.05446938503099,
25,36,55,40,0,56,56,56,,,,,,,,,,,None,360.51018830016255,360.51018830016255,360.51018830016255,360.51018830016255,360.51018830016255,360.51018830016255,j,0.34371719998307526,360.8783410000615,360.8783410000615,360.8783410000615,360.8783410000615,360.8783410000615,360.8783410000615,361.16058819997124,362.44338670000434,362.44338670000434,362.44338670000434,362.44338670000434,362.44338670000434,362.44338670000434,362.427028400125,362.44338670000434,362.44338670000434,362.44338670000434,362.44338670000434,362.44338670000434,362.44338670000434,362.44338670000434,364.00833040010184,364.00833040010184,364.00833040010184,364.00833040010184,364.00833040010184,364.00833040010184,364.00833040010184,25,36,40,55,55,70,364.00833040010184,365.7428041000385,,,,,,,,,,,,,,,,,,,008,ｍ,２０,2023-05-13_17h17.52.046,RL,2022.2.5,60.05446938503099,
10,41,58,55,0,57,57,57,,,,,,,,,,,None,365.7428041000385,365.7428041000385,365.7428041000385,365.7428041000385,365.7428041000385,365.7428041000385,j,0.37356070009991527,366.14299800014123,366.14299800014123,366.14299800014123,366.14299800014123,366.14299800014123,366.14299800014123,366.4265656999778,367.5425511000212,367.5425511000212,367.5425511000212,367.5425511000212,367.5425511000212,367.5425511000212,367.52604639995843,367.5425511000212,367.5425511000212,367.5425511000212,367.5425511000212,367.5425511000212,367.5425511000212,367.5425511000212,368.9405781000387,368.9405781000387,368.9405781000387,368.9405781000387,368.9405781000387,368.9405781000387,368.9405781000387,10,41,55,58,58,70,368.9405781000387,370.4755174999591,,,,,,,,,,,,,,,,,,,008,ｍ,２０,2023-05-13_17h17.52.046,RL,2022.2.5,60.05446938503099,
13,50,53,46,0,58,58,58,,,,,,,,,,,None,370.4755174999591,370.4755174999591,370.4755174999591,370.4755174999591,370.4755174999591,370.4755174999591,j,0.39585980004630983,370.8924390000757,370.8924390000757,370.8924390000757,370.8924390000757,370.8924390000757,370.8924390000757,371.17577229999006,373.0999378000852,373.0999378000852,373.0999378000852,373.0999378000852,373.0999378000852,373.0999378000852,373.0419267001562,373.0999378000852,373.0999378000852,373.0999378000852,373.0999378000852,373.0999378000852,373.0999378000852,373.0999378000852,375.25614390010014,375.25614390010014,375.25614390010014,375.25614390010014,375.25614390010014,375.25614390010014,375.25614390010014,13,50,46,53,53,70,375.25614390010014,376.8407209001016,,,,,,,,,,,,,,,,,,,008,ｍ,２０,2023-05-13_17h17.52.046,RL,2022.2.5,60.05446938503099,
25,50,63,32,0,59,59,59,,,,,,,,,,,None,376.8407209001016,376.8407209001016,376.8407209001016,376.8407209001016,376.8407209001016,376.8407209001016,j,0.33277170010842383,377.1914550999645,377.1914550999645,377.1914550999645,377.1914550999645,377.1914550999645,377.1914550999645,377.4914421001449,378.3241777999792,378.3241777999792,378.3241777999792,378.3241777999792,378.3241777999792,378.3241777999792,378.3241777999792,378.3241777999792,378.3241777999792,378.3241777999792,378.3241777999792,378.3241777999792,378.3241777999792,378.3241777999792,379.4556396000553,379.4556396000553,379.4556396000553,379.4556396000553,379.4556396000553,379.4556396000553,379.4556396000553,25,50,32,63,63,70,379.4556396000553,381.15665989997797,,,,,,,,,,,,,,,,,,,008,ｍ,２０,2023-05-13_17h17.52.046,RL,2022.2.5,60.05446938503099,
6,48,71,41,0,60,60,60,,,,,,,,,,,None,381.15665989997797,381.15665989997797,381.15665989997797,381.15665989997797,381.15665989997797,381.15665989997797,j,0.5516121000982821,381.74038880015723,381.74038880015723,381.74038880015723,381.74038880015723,381.74038880015723,381.74038880015723,382.0236264001578,383.6237908999901,383.6237908999901,383.6237908999901,383.6237908999901,383.6237908999901,383.6237908999901,383.60677800001577,383.6237908999901,383.6237908999901,383.6237908999901,383.6237908999901,383.6237908999901,383.6237908999901,383.6237908999901,385.50437780003995,385.50437780003995,385.50437780003995,385.50437780003995,385.50437780003995,385.50437780003995,385.50437780003995,6,48,41,71,71,70,385.50437780003995,387.23929920000955,,,,,,,,,,,,,,,,,,,008,ｍ,２０,2023-05-13_17h17.52.046,RL,2022.2.5,60.05446938503099,
19,53,63,39,0,61,61,61,,,,,,,,,,,None,387.23929920000955,387.23929920000955,387.23929920000955,387.23929920000955,387.23929920000955,387.23929920000955,j,0.2959856998641044,387.5579811001662,387.5579811001662,387.5579811001662,387.5579811001662,387.5579811001662,387.5579811001662,387.8396746001672,389.25550840003416,389.25550840003416,389.25550840003416,389.25550840003416,389.25550840003416,389.25550840003416,389.2390080001205,389.25550840003416,389.25550840003416,389.25550840003416,389.25550840003416,389.25550840003416,389.25550840003416,389.25550840003416,390.95415430003777,390.95415430003777,390.95415430003777,390.95415430003777,390.95415430003777,390.95415430003777,390.95415430003777,19,53,39,63,63,70,390.95415430003777,392.60479310015216,,,,,,,,,,,,,,,,,,,008,ｍ,２０,2023-05-13_17h17.52.046,RL,2022.2.5,60.05446938503099,
14,41,68,32,0,62,62,62,,,,,,,,,,,None,392.60479310015216,392.60479310015216,392.60479310015216,392.60479310015216,392.60479310015216,392.60479310015216,j,0.45947900018654764,393.09227410005406,393.09227410005406,393.09227410005406,393.09227410005406,393.09227410005406,393.09227410005406,393.3721163000446,394.70449170004576,394.70449170004576,394.70449170004576,394.70449170004576,394.70449170004576,394.70449170004576,394.6715220999904,394.70449170004576,394.70449170004576,394.70449170004576,394.70449170004576,394.70449170004576,394.70449170004576,394.70449170004576,396.302950900048,396.302950900048,396.302950900048,396.302950900048,396.302950900048,396.302950900048,396.302950900048,14,41,32,68,68,70,396.302950900048,398.13744540000334,,,,,,,,,,,,,,,,,,,008,ｍ,２０,2023-05-13_17h17.52.046,RL,2022.2.5,60.05446938503099,
19,39,62,41,0,63,63,63,,,,,,,,,,,None,398.13744540000334,398.13744540000334,398.13744540000334,398.13744540000334,398.13744540000334,398.13744540000334,j,0.3997478000819683,398.57097160001285,398.57097160001285,398.57097160001285,398.57097160001285,398.57097160001285,398.57097160001285,398.85427720006555,400.87032960006036,400.87032960006036,400.87032960006036,400.87032960006036,400.87032960006036,400.87032960006036,400.85330129996873,400.87032960006036,400.87032960006036,400.87032960006036,400.87032960006036,400.87032960006036,400.87032960006036,400.87032960006036,403.1681874000933,403.1681874000933,403.1681874000933,403.1681874000933,403.1681874000933,403.1681874000933,403.1681874000933,19,39,41,62,62,70,403.1681874000933,404.7193974000402,,,,,,,,,,,,,,,,,,,008,ｍ,２０,2023-05-13_17h17.52.046,RL,2022.2.5,60.05446938503099,
22,36,72,47,0,64,64,64,,,,,,,,,,,None,404.7193974000402,404.7193974000402,404.7193974000402,404.7193974000402,404.7193974000402,404.7193974000402,j,0.34942310000769794,405.0874948001001,405.0874948001001,405.0874948001001,405.0874948001001,405.0874948001001,405.0874948001001,405.36991330003366,406.536386199994,406.536386199994,406.536386199994,406.536386199994,406.536386199994,406.536386199994,406.5195579000283,406.536386199994,406.536386199994,406.536386199994,406.536386199994,406.536386199994,406.536386199994,406.536386199994,407.9840985001065,407.9840985001065,407.9840985001065,407.9840985001065,407.9840985001065,407.9840985001065,407.9840985001065,22,36,47,72,72,70,407.9840985001065,409.885458300123,,,,,,,,,,,,,,,,,,,008,ｍ,２０,2023-05-13_17h17.52.046,RL,2022.2.5,60.05446938503099,
21,39,61,48,0,65,65,65,,,,,,,,,,,None,409.885458300123,409.885458300123,409.885458300123,409.885458300123,409.885458300123,409.885458300123,j,0.42499090009368956,410.33556429995224,410.33556429995224,410.33556429995224,410.33556429995224,410.33556429995224,410.33556429995224,410.63557350006886,412.45195799996145,412.45195799996145,412.45195799996145,412.45195799996145,412.45195799996145,412.45195799996145,412.45195799996145,412.45195799996145,412.45195799996145,412.45195799996145,412.45195799996145,412.45195799996145,412.45195799996145,412.45195799996145,414.5661953999661,414.5661953999661,414.5661953999661,414.5661953999661,414.5661953999661,414.5661953999661,414.5661953999661,21,39,48,61,61,70,414.5661953999661,416.1007020000834,,,,,,,,,,,,,,,,,,,008,ｍ,２０,2023-05-13_17h17.52.046,RL,2022.2.5,60.05446938503099,
21,43,68,43,0,66,66,66,,,,,,,,,,,None,416.1007020000834,416.1007020000834,416.1007020000834,416.1007020000834,416.1007020000834,416.1007020000834,j,0.38967030006460845,416.51904190005735,416.51904190005735,416.51904190005735,416.51904190005735,416.51904190005735,416.51904190005735,416.8009816000704,417.6343231999781,417.6343231999781,417.6343231999781,417.6343231999781,417.6343231999781,417.6343231999781,417.6177862000186,417.6343231999781,417.6343231999781,417.6343231999781,417.6343231999781,417.6343231999781,417.6343231999781,417.6343231999781,418.74892670009285,418.74892670009285,418.74892670009285,418.74892670009285,418.74892670009285,418.74892670009285,418.74892670009285,21,43,43,68,68,70,418.74892670009285,420.35025540017523,,,,,,,,,,,,,,,,,,,008,ｍ,２０,2023-05-13_17h17.52.046,RL,2022.2.5,60.05446938503099,
26,49,81,53,0,67,67,67,,,,,,,,,,,None,420.35025540017523,420.35025540017523,420.35025540017523,420.35025540017523,420.35025540017523,420.35025540017523,j,0.4468887001276016,420.81730860006064,420.81730860006064,420.81730860006064,420.81730860006064,420.81730860006064,420.81730860006064,421.1000855001621,422.04990380001254,422.04990380001254,422.04990380001254,422.04990380001254,422.04990380001254,422.04990380001254,422.0335701000877,422.04990380001254,422.04990380001254,422.04990380001254,422.04990380001254,422.04990380001254,422.04990380001254,422.04990380001254,423.2813453001436,423.2813453001436,423.2813453001436,423.2813453001436,423.2813453001436,423.2813453001436,423.2813453001436,26,49,53,81,81,70,423.2813453001436,424.8156203001272,,,,,,,,,,,,,,,,,,,008,ｍ,２０,2023-05-13_17h17.52.046,RL,2022.2.5,60.05446938503099,
29,45,66,44,0,68,68,68,,,,,,,,,,,None,424.8156203001272,424.8156203001272,424.8156203001272,424.8156203001272,424.8156203001272,424.8156203001272,j,0.42237089993432164,425.2700004000217,425.2700004000217,425.2700004000217,425.2700004000217,425.2700004000217,425.2700004000217,425.5496529000811,426.43283429997973,426.43283429997973,426.43283429997973,426.43283429997973,426.43283429997973,426.43283429997973,426.41650040005334,426.43283429997973,426.43283429997973,426.43283429997973,426.43283429997973,426.43283429997973,426.43283429997973,426.43283429997973,427.59729860001244,427.59729860001244,427.59729860001244,427.59729860001244,427.59729860001244,427.59729860001244,427.59729860001244,29,45,44,66,66,70,427.59729860001244,429.34805350005627,,,,,,,,,,,,,,,,,,,008,ｍ,２０,2023-05-13_17h17.52.046,RL,2022.2.5,60.05446938503099,
25,33,65,45,0,69,69,69,,,,,,,,,,,None,429.34805350005627,429.34805350005627,429.34805350005627,429.34805350005627,429.34805350005627,429.34805350005627,j,0.2735783001407981,429.64925030013546,429.64925030013546,429.64925030013546,429.64925030013546,429.64925030013546,429.64925030013546,429.93212510016747,431.1816458001267,431.1816458001267,431.1816458001267,431.1816458001267,431.1816458001267,431.1816458001267,431.16525640012696,431.1816458001267,431.1816458001267,431.1816458001267,431.1816458001267,431.1816458001267,431.1816458001267,431.1816458001267,432.71301930001937,432.71301930001937,432.71301930001937,432.71301930001937,432.71301930001937,432.71301930001937,432.71301930001937,25,33,45,65,65,70,432.71301930001937,434.6971577000804,,,,,,,,,,,,,,,,,,,008,ｍ,２０,2023-05-13_17h17.52.046,RL,2022.2.5,60.05446938503099,
30,41,74,47,0,70,70,70,,,,,,,,,,,None,434.6971577000804,434.6971577000804,434.6971577000804,434.6971577000804,434.6971577000804,434.6971577000804,j,0.2799261000473052,435.0006132000126,435.0006132000126,435.0006132000126,435.0006132000126,435.0006132000126,435.0006132000126,435.29775480018,436.5305341000203,436.5305341000203,436.5305341000203,436.5305341000203,436.5305341000203,436.5305341000203,436.5305341000203,436.5305341000203,436.5305341000203,436.5305341000203,436.5305341000203,436.5305341000203,436.5305341000203,436.5305341000203,438.0627878999803,438.0627878999803,438.0627878999803,438.0627878999803,438.0627878999803,438.0627878999803,438.0627878999803,30,41,47,74,74,70,438.0627878999803,439.59634650009684,,,,,,,,,,,,,,,,,,,008,ｍ,２０,2023-05-13_17h17.52.046,RL,2022.2.5,60.05446938503099,
37,34,56,43,0,71,71,71,,,,,,,,,,,None,439.59634650009684,439.59634650009684,439.59634650009684,439.59634650009684,439.59634650009684,439.59634650009684,j,0.346129700075835,439.96725240000524,439.96725240000524,439.96725240000524,439.96725240000524,439.96725240000524,439.96725240000524,440.24713090015575,442.14632149995305,442.14632149995305,442.14632149995305,442.14632149995305,442.14632149995305,442.14632149995305,442.12971620005555,442.14632149995305,442.14632149995305,442.14632149995305,442.14632149995305,442.14632149995305,442.14632149995305,442.14632149995305,444.3280027001165,444.3280027001165,444.3280027001165,444.3280027001165,444.3280027001165,444.3280027001165,444.3280027001165,37,34,43,56,56,70,444.3280027001165,445.89558290014975,,,,,,,,,,,,,,,,,,,008,ｍ,２０,2023-05-13_17h17.52.046,RL,2022.2.5,60.05446938503099,
38,39,71,40,0,72,72,72,,,,,,,,,,,None,445.89558290014975,445.89558290014975,445.89558290014975,445.89558290014975,445.89558290014975,445.89558290014975,j,0.34979770006611943,446.2675825001206,446.2675825001206,446.2675825001206,446.2675825001206,446.2675825001206,446.2675825001206,446.5627652001567,447.4956650000531,447.4956650000531,447.4956650000531,447.4956650000531,447.4956650000531,447.4956650000531,447.4793030000292,447.4956650000531,447.4956650000531,447.4956650000531,447.4956650000531,447.4956650000531,447.4956650000531,447.4956650000531,448.7103156000376,448.7103156000376,448.7103156000376,448.7103156000376,448.7103156000376,448.7103156000376,448.7103156000376,38,39,40,71,71,70,448.7103156000376,450.5285143000074,,,,,,,,,,,,,,,,,,,008,ｍ,２０,2023-05-13_17h17.52.046,RL,2022.2.5,60.05446938503099,
32,38,81,36,0,73,73,73,,,,,,,,,,,None,450.5285143000074,450.5285143000074,450.5285143000074,450.5285143000074,450.5285143000074,450.5285143000074,j,0.4296327999327332,450.9828971000388,450.9828971000388,450.9828971000388,450.9828971000388,450.9828971000388,450.9828971000388,451.27858610008843,452.37861740007065,452.37861740007065,452.37861740007065,452.37861740007065,452.37861740007065,452.37861740007065,452.3617688000668,452.37861740007065,452.37861740007065,452.37861740007065,452.37861740007065,452.37861740007065,452.37861740007065,452.37861740007065,453.7592559000477,453.7592559000477,453.7592559000477,453.7592559000477,453.7592559000477,453.7592559000477,453.7592559000477,32,38,36,81,81,70,453.7592559000477,455.7271338000428,,,,,,,,,,,,,,,,,,,008,ｍ,２０,2023-05-13_17h17.52.046,RL,2022.2.5,60.05446938503099,
29,46,74,38,0,74,74,74,,,,,,,,,,,None,455.7271338000428,455.7271338000428,455.7271338000428,455.7271338000428,455.7271338000428,455.7271338000428,j,0.3771756000351161,456.1274846000597,456.1274846000597,456.1274846000597,456.1274846000597,456.1274846000597,456.1274846000597,456.42769700009376,458.1605646000244,458.1605646000244,458.1605646000244,458.1605646000244,458.1605646000244,458.1605646000244,458.1605646000244,458.1605646000244,458.1605646000244,458.1605646000244,458.1605646000244,458.1605646000244,458.1605646000244,458.1605646000244,460.19171970011666,460.19171970011666,460.19171970011666,460.19171970011666,460.19171970011666,460.19171970011666,460.19171970011666,29,46,38,74,74,70,460.19171970011666,462.1248476000037,,,,,,,,,,,,,,,,,,,008,ｍ,２０,2023-05-13_17h17.52.046,RL,2022.2.5,60.05446938503099,
25,44,72,35,0,75,75,75,,,,,,,,,,,q,493.88737859996036,493.88737859996036,493.88737859996036,493.88737859996036,493.88737859996036,493.88737859996036,j,0.47214420000091195,494.39281140011735,494.39281140011735,494.39281140011735,494.39281140011735,494.39281140011735,494.39281140011735,494.68748870003037,495.62073460011743,495.62073460011743,495.62073460011743,495.62073460011743,495.62073460011743,495.62073460011743,495.62073460011743,495.62073460011743,495.62073460011743,495.62073460011743,495.62073460011743,495.62073460011743,495.62073460011743,495.62073460011743,496.85152620007284,496.85152620007284,496.85152620007284,496.85152620007284,496.85152620007284,496.85152620007284,496.85152620007284,25,44,35,72,72,70,496.85152620007284,498.81996700004674,,,,,,,,,462.1248476000037,462.1248476000037,26.71925160009414,488.8721394999884,488.8721394999884,493.88737859996036,493.88737859996036,,,,008,ｍ,２０,2023-05-13_17h17.52.046,RL,2022.2.5,60.05446938503099,
30,49,76,44,0,76,76,76,,,,,,,,,,,None,498.81996700004674,498.81996700004674,498.81996700004674,498.81996700004674,498.81996700004674,498.81996700004674,j,0.27108830003999174,499.12437630002387,499.12437630002387,499.12437630002387,499.12437630002387,499.12437630002387,499.12437630002387,499.42013600002974,501.3695342000574,501.3695342000574,501.3695342000574,501.3695342000574,501.3695342000574,501.3695342000574,501.3695342000574,501.3695342000574,501.3695342000574,501.3695342000574,501.3695342000574,501.3695342000574,501.3695342000574,501.3695342000574,503.61719750007614,503.61719750007614,503.61719750007614,503.61719750007614,503.61719750007614,503.61719750007614,503.61719750007614,30,49,44,76,76,70,503.61719750007614,505.2855845000595,,,,,,,,,,,,,,,,,,,008,ｍ,２０,2023-05-13_17h17.52.046,RL,2022.2.5,60.05446938503099,
39,49,75,45,0,77,77,77,,,,,,,,,,,None,505.2855845000595,505.2855845000595,505.2855845000595,505.2855845000595,505.2855845000595,505.2855845000595,j,0.2504608000162989,505.5751947001554,505.5751947001554,505.5751947001554,505.5751947001554,505.5751947001554,505.5751947001554,505.8686129001435,506.8852844000794,506.8852844000794,506.8852844000794,506.8852844000794,506.8852844000794,506.8852844000794,506.8688841999974,506.8852844000794,506.8852844000794,506.8852844000794,506.8852844000794,506.8852844000794,506.8852844000794,506.8852844000794,508.1835744001437,508.1835744001437,508.1835744001437,508.1835744001437,508.1835744001437,508.1835744001437,508.1835744001437,39,49,45,75,75,70,508.1835744001437,510.1841486999765,,,,,,,,,,,,,,,,,,,008,ｍ,２０,2023-05-13_17h17.52.046,RL,2022.2.5,60.05446938503099,
45,42,70,55,0,78,78,78,,,,,,,,,,,None,510.1841486999765,510.1841486999765,510.1841486999765,510.1841486999765,510.1841486999765,510.1841486999765,j,0.3050290001556277,510.52263250015676,510.52263250015676,510.52263250015676,510.52263250015676,510.52263250015676,510.52263250015676,510.81796190002933,511.7677635999862,511.7677635999862,511.7677635999862,511.7677635999862,511.7677635999862,511.7677635999862,511.75099730002694,511.7677635999862,511.7677635999862,511.7677635999862,511.7677635999862,511.7677635999862,511.7677635999862,511.7677635999862,512.9993217999581,512.9993217999581,512.9993217999581,512.9993217999581,512.9993217999581,512.9993217999581,512.9993217999581,45,42,55,70,70,70,512.9993217999581,514.7171768001281,,,,,,,,,,,,,,,,,,,008,ｍ,２０,2023-05-13_17h17.52.046,RL,2022.2.5,60.05446938503099,
42,45,73,50,0,79,79,79,,,,,,,,,,,None,514.7171768001281,514.7171768001281,514.7171768001281,514.7171768001281,514.7171768001281,514.7171768001281,j,0.2829554001800716,515.0171158001758,515.0171158001758,515.0171158001758,515.0171158001758,515.0171158001758,515.0171158001758,515.3173301999923,516.30038530007,516.30038530007,516.30038530007,516.30038530007,516.30038530007,516.30038530007,516.30038530007,516.30038530007,516.30038530007,516.30038530007,516.30038530007,516.30038530007,516.30038530007,516.30038530007,517.5818879001308,517.5818879001308,517.5818879001308,517.5818879001308,517.5818879001308,517.5818879001308,517.5818879001308,42,45,50,73,73,70,517.5818879001308,519.5825686999597,,,,,,,,,,,,,,,,,,,008,ｍ,２０,2023-05-13_17h17.52.046,RL,2022.2.5,60.05446938503099,
44,42,75,44,0,80,80,80,,,,,,,,,,,None,519.5825686999597,519.5825686999597,519.5825686999597,519.5825686999597,519.5825686999597,519.5825686999597,j,0.261085000121966,519.8672707001679,519.8672707001679,519.8672707001679,519.8672707001679,519.8672707001679,519.8672707001679,520.1501931000967,521.6825656001456,521.6825656001456,521.6825656001456,521.6825656001456,521.6825656001456,521.6825656001456,521.6660883000586,521.6825656001456,521.6825656001456,521.6825656001456,521.6825656001456,521.6825656001456,521.6825656001456,521.6825656001456,523.4972602999769,523.4972602999769,523.4972602999769,523.4972602999769,523.4972602999769,523.4972602999769,523.4972602999769,44,42,44,75,75,70,523.4972602999769,525.1150666000322,,,,,,,,,,,,,,,,,,,008,ｍ,２０,2023-05-13_17h17.52.046,RL,2022.2.5,60.05446938503099,
28,41,71,48,0,81,81,81,,,,,,,,,,,None,525.1150666000322,525.1150666000322,525.1150666000322,525.1150666000322,525.1150666000322,525.1150666000322,j,0.3789888999890536,525.5168771001045,525.5168771001045,525.5168771001045,525.5168771001045,525.5168771001045,525.5168771001045,525.8156547001563,527.3151013001334,527.3151013001334,527.3151013001334,527.3151013001334,527.3151013001334,527.3151013001334,527.3151013001334,527.3151013001334,527.3151013001334,527.3151013001334,527.3151013001334,527.3151013001334,527.3151013001334,527.3151013001334,529.1133034999948,529.1133034999948,529.1133034999948,529.1133034999948,529.1133034999948,529.1133034999948,529.1133034999948,28,41,48,71,71,70,529.1133034999948,531.0643136000726,,,,,,,,,,,,,,,,,,,008,ｍ,２０,2023-05-13_17h17.52.046,RL,2022.2.5,60.05446938503099,
33,43,66,52,0,82,82,82,,,,,,,,,,,None,531.0643136000726,531.0643136000726,531.0643136000726,531.0643136000726,531.0643136000726,531.0643136000726,j,0.29885800019837916,531.3861486001406,531.3861486001406,531.3861486001406,531.3861486001406,531.3861486001406,531.3861486001406,531.6807756000198,533.0140003000852,533.0140003000852,533.0140003000852,533.0140003000852,533.0140003000852,533.0140003000852,533.0140003000852,533.0140003000852,533.0140003000852,533.0140003000852,533.0140003000852,533.0140003000852,533.0140003000852,533.0140003000852,534.645818799967,534.645818799967,534.645818799967,534.645818799967,534.645818799967,534.645818799967,534.645818799967,33,43,52,66,66,70,534.645818799967,536.4967476001475,,,,,,,,,,,,,,,,,,,008,ｍ,２０,2023-05-13_17h17.52.046,RL,2022.2.5,60.05446938503099,
34,46,68,54,0,83,83,83,,,,,,,,,,,None,536.4967476001475,536.4967476001475,536.4967476001475,536.4967476001475,536.4967476001475,536.4967476001475,j,0.31175710004754364,536.8321790001355,536.8321790001355,536.8321790001355,536.8321790001355,536.8321790001355,536.8321790001355,537.1137604999822,539.0466148999985,539.0466148999985,539.0466148999985,539.0466148999985,539.0466148999985,539.0466148999985,539.0301143999677,539.0466148999985,539.0466148999985,539.0466148999985,539.0466148999985,539.0466148999985,539.0466148999985,539.0466148999985,541.2605360001326,541.2605360001326,541.2605360001326,541.2605360001326,541.2605360001326,541.2605360001326,541.2605360001326,34,46,54,68,68,70,541.2605360001326,542.9956619001459,,,,,,,,,,,,,,,,,,,008,ｍ,２０,2023-05-13_17h17.52.046,RL,2022.2.5,60.05446938503099,
20,38,66,45,0,84,84,84,,,,,,,,,,,None,542.9956619001459,542.9956619001459,542.9956619001459,542.9956619001459,542.9956619001459,542.9956619001459,j,0.3850365001708269,543.4144894999918,543.4144894999918,543.4144894999918,543.4144894999918,543.4144894999918,543.4144894999918,543.712252400117,545.6282709001098,545.6282709001098,545.6282709001098,545.6282709001098,545.6282709001098,545.6282709001098,545.6282709001098,545.6282709001098,545.6282709001098,545.6282709001098,545.6282709001098,545.6282709001098,545.6282709001098,545.6282709001098,547.8265739001799,547.8265739001799,547.8265739001799,547.8265739001799,547.8265739001799,547.8265739001799,547.8265739001799,20,38,45,66,66,70,547.8265739001799,549.4611069001257,,,,,,,,,,,,,,,,,,,008,ｍ,２０,2023-05-13_17h17.52.046,RL,2022.2.5,60.05446938503099,
33,55,61,55,0,85,85,85,,,,,,,,,,,None,549.4611069001257,549.4611069001257,549.4611069001257,549.4611069001257,549.4611069001257,549.4611069001257,j,0.25617059995420277,549.744536299957,549.744536299957,549.744536299957,549.744536299957,549.744536299957,549.744536299957,550.0281701001804,550.9779595001601,550.9779595001601,550.9779595001601,550.9779595001601,550.9779595001601,550.9779595001601,550.9608465000056,550.9779595001601,550.9779595001601,550.9779595001601,550.9779595001601,550.9779595001601,550.9779595001601,550.9779595001601,552.2091534000356,552.2091534000356,552.2091534000356,552.2091534000356,552.2091534000356,552.2091534000356,552.2091534000356,33,55,55,61,61,70,552.2091534000356,553.7430493000429,,,,,,,,,,,,,,,,,,,008,ｍ,２０,2023-05-13_17h17.52.046,RL,2022.2.5,60.05446938503099,
33,47,66,52,0,86,86,86,,,,,,,,,,,None,553.7430493000429,553.7430493000429,553.7430493000429,553.7430493000429,553.7430493000429,553.7430493000429,j,0.4257600998971611,554.1957940000575,554.1957940000575,554.1957940000575,554.1957940000575,554.1957940000575,554.1957940000575,554.4938515000977,556.0269079999998,556.0269079999998,556.0269079999998,556.0269079999998,556.0269079999998,556.0269079999998,556.0269079999998,556.0269079999998,556.0269079999998,556.0269079999998,556.0269079999998,556.0269079999998,556.0269079999998,556.0269079999998,557.8584334000479,557.8584334000479,557.8584334000479,557.8584334000479,557.8584334000479,557.8584334000479,557.8584334000479,33,47,52,66,66,70,557.8584334000479,559.8258174001239,,,,,,,,,,,,,,,,,,,008,ｍ,２０,2023-05-13_17h17.52.046,RL,2022.2.5,60.05446938503099,
38,47,67,53,0,87,87,87,,,,,,,,,,,None,559.8258174001239,559.8258174001239,559.8258174001239,559.8258174001239,559.8258174001239,559.8258174001239,j,0.3139678998850286,560.160655700136,560.160655700136,560.160655700136,560.160655700136,560.160655700136,560.160655700136,560.4426963001024,562.3587248001713,562.3587248001713,562.3587248001713,562.3587248001713,562.3587248001713,562.3587248001713,562.3423789001536,562.3587248001713,562.3587248001713,562.3587248001713,562.3587248001713,562.3587248001713,562.3587248001713,562.3587248001713,564.5570062999614,564.5570062999614,564.5570062999614,564.5570062999614,564.5570062999614,564.5570062999614,564.5570062999614,38,47,53,67,67,70,564.5570062999614,566.141090300167,,,,,,,,,,,,,,,,,,,008,ｍ,２０,2023-05-13_17h17.52.046,RL,2022.2.5,60.05446938503099,
35,45,67,51,0,88,88,88,,,,,,,,,,,None,566.141090300167,566.141090300167,566.141090300167,566.141090300167,566.141090300167,566.141090300167,j,0.31904430012218654,566.4922861000523,566.4922861000523,566.4922861000523,566.4922861000523,566.4922861000523,566.4922861000523,566.7749604999553,568.5911883001681,568.5911883001681,568.5911883001681,568.5911883001681,568.5911883001681,568.5911883001681,568.5749753001146,568.5911883001681,568.5911883001681,568.5911883001681,568.5911883001681,568.5911883001681,568.5911883001681,568.5911883001681,570.6891517001204,570.6891517001204,570.6891517001204,570.6891517001204,570.6891517001204,570.6891517001204,570.6891517001204,35,45,51,67,67,70,570.6891517001204,572.5901526000816,,,,,,,,,,,,,,,,,,,008,ｍ,２０,2023-05-13_17h17.52.046,RL,2022.2.5,60.05446938503099,
39,55,60,50,0,89,89,89,,,,,,,,,,,None,572.5901526000816,572.5901526000816,572.5901526000816,572.5901526000816,572.5901526000816,572.5901526000816,j,0.38572579994797707,573.0076166000217,573.0076166000217,573.0076166000217,573.0076166000217,573.0076166000217,573.0076166000217,573.2907408999745,574.9733635999728,574.9733635999728,574.9733635999728,574.9733635999728,574.9733635999728,574.9733635999728,574.9567446000874,574.9733635999728,574.9733635999728,574.9733635999728,574.9733635999728,574.9733635999728,574.9733635999728,574.9733635999728,576.9382690000348,576.9382690000348,576.9382690000348,576.9382690000348,576.9382690000348,576.9382690000348,576.9382690000348,39,55,50,60,60,70,576.9382690000348,578.556158100022,,,,,,,,,,,,,,,,,,,008,ｍ,２０,2023-05-13_17h17.52.046,RL,2022.2.5,60.05446938503099,
38,52,67,44,0,90,90,90,,,,,,,,,,,None,578.556158100022,578.556158100022,578.556158100022,578.556158100022,578.556158100022,578.556158100022,j,0.3773781000636518,578.9574631000869,578.9574631000869,578.9574631000869,578.9574631000869,578.9574631000869,578.9574631000869,579.2398033000063,580.7557165999897,580.7557165999897,580.7557165999897,580.7557165999897,580.7557165999897,580.7557165999897,580.7395054001827,580.7557165999897,580.7557165999897,580.7557165999897,580.7557165999897,580.7557165999897,580.7557165999897,580.7557165999897,582.5542823001742,582.5542823001742,582.5542823001742,582.5542823001742,582.5542823001742,582.5542823001742,582.5542823001742,38,52,44,67,67,70,582.5542823001742,584.1211916999891,,,,,,,,,,,,,,,,,,,008,ｍ,２０,2023-05-13_17h17.52.046,RL,2022.2.5,60.05446938503099,
39,47,62,43,0,91,91,91,,,,,,,,,,,None,584.1211916999891,584.1211916999891,584.1211916999891,584.1211916999891,584.1211916999891,584.1211916999891,j,0.2756479000672698,584.4219909000676,584.4219909000676,584.4219909000676,584.4219909000676,584.4219909000676,584.4219909000676,584.7051631000359,586.5879045999609,586.5879045999609,586.5879045999609,586.5879045999609,586.5879045999609,586.5879045999609,586.5717059001327,586.5879045999609,586.5879045999609,586.5879045999609,586.5879045999609,586.5879045999609,586.5879045999609,586.5879045999609,588.7530357001815,588.7530357001815,588.7530357001815,588.7530357001815,588.7530357001815,588.7530357001815,588.7530357001815,39,47,43,62,62,70,588.7530357001815,590.7039359000046,,,,,,,,,,,,,,,,,,,008,ｍ,２０,2023-05-13_17h17.52.046,RL,2022.2.5,60.05446938503099,
38,51,62,51,0,92,92,92,,,,,,,,,,,None,590.7039359000046,590.7039359000046,590.7039359000046,590.7039359000046,590.7039359000046,590.7039359000046,j,0.34931010007858276,591.0731160000432,591.0731160000432,591.0731160000432,591.0731160000432,591.0731160000432,591.0731160000432,591.3710801000707,592.870181400096,592.870181400096,592.870181400096,592.870181400096,592.870181400096,592.870181400096,592.870181400096,592.870181400096,592.870181400096,592.870181400096,592.870181400096,592.870181400096,592.870181400096,592.870181400096,594.6686134999618,594.6686134999618,594.6686134999618,594.6686134999618,594.6686134999618,594.6686134999618,594.6686134999618,38,51,51,62,62,70,594.6686134999618,596.6524655001704,,,,,,,,,,,,,,,,,,,008,ｍ,２０,2023-05-13_17h17.52.046,RL,2022.2.5,60.05446938503099,
43,48,55,47,0,93,93,93,,,,,,,,,,,None,596.6524655001704,596.6524655001704,596.6524655001704,596.6524655001704,596.6524655001704,596.6524655001704,j,0.34904669993557036,597.0207593999803,597.0207593999803,597.0207593999803,597.0207593999803,597.0207593999803,597.0207593999803,597.3030471999664,599.2026081001386,599.2026081001386,599.2026081001386,599.2026081001386,599.2026081001386,599.2026081001386,599.1860720999539,599.2026081001386,599.2026081001386,599.2026081001386,599.2026081001386,599.2026081001386,599.2026081001386,599.2026081001386,601.383723200066,601.383723200066,601.383723200066,601.383723200066,601.383723200066,601.383723200066,601.383723200066,43,48,47,55,55,70,601.383723200066,602.9019484000746,,,,,,,,,,,,,,,,,,,008,ｍ,２０,2023-05-13_17h17.52.046,RL,2022.2.5,60.05446938503099,
49,41,61,54,0,94,94,94,,,,,,,,,,,None,602.9019484000746,602.9019484000746,602.9019484000746,602.9019484000746,602.9019484000746,602.9019484000746,j,0.35800640005618334,603.289577400079,603.289577400079,603.289577400079,603.289577400079,603.289577400079,603.289577400079,603.5850717001595,605.5683061999734,605.5683061999734,605.5683061999734,605.5683061999734,605.5683061999734,605.5683061999734,605.5683061999734,605.5683061999734,605.5683061999734,605.5683061999734,605.5683061999734,605.5683061999734,605.5683061999734,605.5683061999734,607.8492950999644,607.8492950999644,607.8492950999644,607.8492950999644,607.8492950999644,607.8492950999644,607.8492950999644,49,41,54,61,61,70,607.8492950999644,609.684079100145,,,,,,,,,,,,,,,,,,,008,ｍ,２０,2023-05-13_17h17.52.046,RL,2022.2.5,60.05446938503099,
38,47,66,45,0,95,95,95,,,,,,,,,,,None,609.684079100145,609.684079100145,609.684079100145,609.684079100145,609.684079100145,609.684079100145,j,0.5547135998494923,610.2674681001808,610.2674681001808,610.2674681001808,610.2674681001808,610.2674681001808,610.2674681001808,610.5672665999737,611.6340022999793,611.6340022999793,611.6340022999793,611.6340022999793,611.6340022999793,611.6340022999793,611.6340022999793,611.6340022999793,611.6340022999793,611.6340022999793,611.6340022999793,611.6340022999793,611.6340022999793,611.6340022999793,612.9988647000864,612.9988647000864,612.9988647000864,612.9988647000864,612.9988647000864,612.9988647000864,612.9988647000864,38,47,45,66,66,70,612.9988647000864,614.6328447000124,,,,,,,,,,,,,,,,,,,008,ｍ,２０,2023-05-13_17h17.52.046,RL,2022.2.5,60.05446938503099,
45,48,57,45,0,96,96,96,,,,,,,,,,,None,614.6328447000124,614.6328447000124,614.6328447000124,614.6328447000124,614.6328447000124,614.6328447000124,j,0.3332448999863118,614.9883781000972,614.9883781000972,614.9883781000972,614.9883781000972,614.9883781000972,614.9883781000972,615.2669476000592,616.949401000049,616.949401000049,616.949401000049,616.949401000049,616.949401000049,616.949401000049,616.9328095000237,616.949401000049,616.949401000049,616.949401000049,616.949401000049,616.949401000049,616.949401000049,616.949401000049,618.9138067001477,618.9138067001477,618.9138067001477,618.9138067001477,618.9138067001477,618.9138067001477,618.9138067001477,45,48,45,57,57,70,618.9138067001477,620.8647835999727,,,,,,,,,,,,,,,,,,,008,ｍ,２０,2023-05-13_17h17.52.046,RL,2022.2.5,60.05446938503099,
43,50,62,55,0,97,97,97,,,,,,,,,,,None,620.8647835999727,620.8647835999727,620.8647835999727,620.8647835999727,620.8647835999727,620.8647835999727,j,0.5037523000501096,621.4002680000849,621.4002680000849,621.4002680000849,621.4002680000849,621.4002680000849,621.4002680000849,621.6986257000826,623.048216599971,623.048216599971,623.048216599971,623.048216599971,623.048216599971,623.048216599971,623.0316473999992,623.048216599971,623.048216599971,623.048216599971,623.048216599971,623.048216599971,623.048216599971,623.048216599971,624.6797224001493,624.6797224001493,624.6797224001493,624.6797224001493,624.6797224001493,624.6797224001493,624.6797224001493,43,50,55,62,62,70,624.6797224001493,626.3308943000156,,,,,,,,,,,,,,,,,,,008,ｍ,２０,2023-05-13_17h17.52.046,RL,2022.2.5,60.05446938503099,
34,53,63,60,0,98,98,98,,,,,,,,,,,None,626.3308943000156,626.3308943000156,626.3308943000156,626.3308943000156,626.3308943000156,626.3308943000156,j,0.45342819998040795,626.8146669999696,626.8146669999696,626.8146669999696,626.8146669999696,626.8146669999696,626.8146669999696,627.0975657999516,628.7973273999523,628.7973273999523,628.7973273999523,628.7973273999523,628.7973273999523,628.7973273999523,628.7806015999522,628.7973273999523,628.7973273999523,628.7973273999523,628.7973273999523,628.7973273999523,628.7973273999523,628.7973273999523,630.7792027001269,630.7792027001269,630.7792027001269,630.7792027001269,630.7792027001269,630.7792027001269,630.7792027001269,34,53,60,63,63,70,630.7792027001269,632.4964543001261,,,,,,,,,,,,,,,,,,,008,ｍ,２０,2023-05-13_17h17.52.046,RL,2022.2.5,60.05446938503099,
41,54,55,59,0,99,99,99,,,,,,,,,,,None,632.4964543001261,632.4964543001261,632.4964543001261,632.4964543001261,632.4964543001261,632.4964543001261,j,0.4879008000716567,633.0155415001791,633.0155415001791,633.0155415001791,633.0155415001791,633.0155415001791,633.0155415001791,633.3136879999656,634.2302304001059,634.2302304001059,634.2302304001059,634.2302304001059,634.2302304001059,634.2302304001059,634.2302304001059,634.2302304001059,634.2302304001059,634.2302304001059,634.2302304001059,634.2302304001059,634.2302304001059,634.2302304001059,635.4443094001617,635.4443094001617,635.4443094001617,635.4443094001617,635.4443094001617,635.4443094001617,635.4443094001617,41,54,59,55,55,70,635.4443094001617,637.1793275000528,,,,,,,,,,,,,,,,,,,008,ｍ,２０,2023-05-13_17h17.52.046,RL,2022.2.5,60.05446938503099,
35,58,64,68,0,100,100,100,,,,,,,,,,,None,637.1793275000528,637.1793275000528,637.1793275000528,637.1793275000528,637.1793275000528,637.1793275000528,j,0.5207467000000179,637.7295922001358,637.7295922001358,637.7295922001358,637.7295922001358,637.7295922001358,637.7295922001358,638.012570500141,639.4621429000981,639.4621429000981,639.4621429000981,639.4621429000981,639.4621429000981,639.4621429000981,639.4459212999791,639.4621429000981,639.4621429000981,639.4621429000981,639.4621429000981,639.4621429000981,639.4621429000981,639.4621429000981,641.1931762001477,641.1931762001477,641.1931762001477,641.1931762001477,641.1931762001477,641.1931762001477,641.1931762001477,35,58,68,64,64,70,641.1931762001477,643.1280418999959,,,,,,,,,,,,,,,,,,,008,ｍ,２０,2023-05-13_17h17.52.046,RL,2022.2.5,60.05446938503099,
39,60,65,64,0,101,101,101,,,,,,,,,,,None,643.1280418999959,643.1280418999959,643.1280418999959,643.1280418999959,643.1280418999959,643.1280418999959,j,0.37452500010840595,643.5291603000369,643.5291603000369,643.5291603000369,643.5291603000369,643.5291603000369,643.5291603000369,643.8280579000711,645.3277447000146,645.3277447000146,645.3277447000146,645.3277447000146,645.3277447000146,645.3277447000146,645.3277447000146,645.3277447000146,645.3277447000146,645.3277447000146,645.3277447000146,645.3277447000146,645.3277447000146,645.3277447000146,647.1258179000579,647.1258179000579,647.1258179000579,647.1258179000579,647.1258179000579,647.1258179000579,647.1258179000579,39,60,64,65,65,70,647.1258179000579,648.9604331001174,,,,,,,,,,,,,,,,,,,008,ｍ,２０,2023-05-13_17h17.52.046,RL,2022.2.5,60.05446938503099,
34,51,66,70,0,102,102,102,,,,,,,,,,,None,648.9604331001174,648.9604331001174,648.9604331001174,648.9604331001174,648.9604331001174,648.9604331001174,j,0.3462338000535965,649.3274993000086,649.3274993000086,649.3274993000086,649.3274993000086,649.3274993000086,649.3274993000086,649.6103081000037,650.8767773001455,650.8767773001455,650.8767773001455,650.8767773001455,650.8767773001455,650.8767773001455,650.8603082001209,650.8767773001455,650.8767773001455,650.8767773001455,650.8767773001455,650.8767773001455,650.8767773001455,650.8767773001455,652.4249261000659,652.4249261000659,652.4249261000659,652.4249261000659,652.4249261000659,652.4249261000659,652.4249261000659,34,51,70,66,66,70,652.4249261000659,654.425955499988,,,,,,,,,,,,,,,,,,,008,ｍ,２０,2023-05-13_17h17.52.046,RL,2022.2.5,60.05446938503099,
26,48,67,64,0,103,103,103,,,,,,,,,,,None,654.425955499988,654.425955499988,654.425955499988,654.425955499988,654.425955499988,654.425955499988,j,0.3621694000903517,654.8095350000076,654.8095350000076,654.8095350000076,654.8095350000076,654.8095350000076,654.8095350000076,655.0929308000486,656.7255931000691,656.7255931000691,656.7255931000691,656.7255931000691,656.7255931000691,656.7255931000691,656.7091481001116,656.7255931000691,656.7255931000691,656.7255931000691,656.7255931000691,656.7255931000691,656.7255931000691,656.7255931000691,658.640584200155,658.640584200155,658.640584200155,658.640584200155,658.640584200155,658.640584200155,658.640584200155,26,48,64,67,67,70,658.640584200155,660.2249640000518,,,,,,,,,,,,,,,,,,,008,ｍ,２０,2023-05-13_17h17.52.046,RL,2022.2.5,60.05446938503099,
33,45,63,68,0,104,104,104,,,,,,,,,,,None,660.2249640000518,660.2249640000518,660.2249640000518,660.2249640000518,660.2249640000518,660.2249640000518,j,0.5446964001748711,660.7919515001122,660.7919515001122,660.7919515001122,660.7919515001122,660.7919515001122,660.7919515001122,661.0918813999742,662.1747934999876,662.1747934999876,662.1747934999876,662.1747934999876,662.1747934999876,662.1747934999876,662.1747934999876,662.1747934999876,662.1747934999876,662.1747934999876,662.1747934999876,662.1747934999876,662.1747934999876,662.1747934999876,663.5566969001666,663.5566969001666,663.5566969001666,663.5566969001666,663.5566969001666,663.5566969001666,663.5566969001666,33,45,68,63,63,70,663.5566969001666,665.4409346000757,,,,,,,,,,,,,,,,,,,008,ｍ,２０,2023-05-13_17h17.52.046,RL,2022.2.5,60.05446938503099,
30,33,66,74,0,105,105,105,,,,,,,,,,,None,665.4409346000757,665.4409346000757,665.4409346000757,665.4409346000757,665.4409346000757,665.4409346000757,j,0.4438352999277413,665.9079965001438,665.9079965001438,665.9079965001438,665.9079965001438,665.9079965001438,665.9079965001438,666.1913288000505,667.1906171999872,667.1906171999872,667.1906171999872,667.1906171999872,667.1906171999872,667.1906171999872,667.1741302001756,667.1906171999872,667.1906171999872,667.1906171999872,667.1906171999872,667.1906171999872,667.1906171999872,667.1906171999872,668.4718741001561,668.4718741001561,668.4718741001561,668.4718741001561,668.4718741001561,668.4718741001561,668.4718741001561,30,33,74,66,66,70,668.4718741001561,670.1064777001739,,,,,,,,,,,,,,,,,,,008,ｍ,２０,2023-05-13_17h17.52.046,RL,2022.2.5,60.05446938503099,
42,39,66,69,0,106,106,106,,,,,,,,,,,None,670.1064777001739,670.1064777001739,670.1064777001739,670.1064777001739,670.1064777001739,670.1064777001739,j,0.5202289998997003,670.6588090001605,670.6588090001605,670.6588090001605,670.6588090001605,670.6588090001605,670.6588090001605,670.940388499992,672.1729113999754,672.1729113999754,672.1729113999754,672.1729113999754,672.1729113999754,672.1729113999754,672.1562630999833,672.1729113999754,672.1729113999754,672.1729113999754,672.1729113999754,672.1729113999754,672.1729113999754,672.1729113999754,673.6878236001357,673.6878236001357,673.6878236001357,673.6878236001357,673.6878236001357,673.6878236001357,673.6878236001357,42,39,69,66,66,70,673.6878236001357,675.5557903000154,,,,,,,,,,,,,,,,,,,008,ｍ,２０,2023-05-13_17h17.52.046,RL,2022.2.5,60.05446938503099,
45,44,69,64,0,107,107,107,,,,,,,,,,,None,675.5557903000154,675.5557903000154,675.5557903000154,675.5557903000154,675.5557903000154,675.5557903000154,j,0.27965589985251427,675.8569463000167,675.8569463000167,675.8569463000167,675.8569463000167,675.8569463000167,675.8569463000167,676.155795100145,678.0053501001094,678.0053501001094,678.0053501001094,678.0053501001094,678.0053501001094,678.0053501001094,678.0053501001094,678.0053501001094,678.0053501001094,678.0053501001094,678.0053501001094,678.0053501001094,678.0053501001094,678.0053501001094,680.1533200000413,680.1533200000413,680.1533200000413,680.1533200000413,680.1533200000413,680.1533200000413,680.1533200000413,45,44,64,69,69,70,680.1533200000413,681.9881649999879,,,,,,,,,,,,,,,,,,,008,ｍ,２０,2023-05-13_17h17.52.046,RL,2022.2.5,60.05446938503099,
37,38,69,57,0,108,108,108,,,,,,,,,,,None,681.9881649999879,681.9881649999879,681.9881649999879,681.9881649999879,681.9881649999879,681.9881649999879,j,0.43688769987784326,682.4566081000958,682.4566081000958,682.4566081000958,682.4566081000958,682.4566081000958,682.4566081000958,682.7547673999798,683.9042932000011,683.9042932000011,683.9042932000011,683.9042932000011,683.9042932000011,683.9042932000011,683.9042932000011,683.9042932000011,683.9042932000011,683.9042932000011,683.9042932000011,683.9042932000011,683.9042932000011,683.9042932000011,685.352717900183,685.352717900183,685.352717900183,685.352717900183,685.352717900183,685.352717900183,685.352717900183,37,38,57,69,69,70,685.352717900183,687.1201685999986,,,,,,,,,,,,,,,,,,,008,ｍ,２０,2023-05-13_17h17.52.046,RL,2022.2.5,60.05446938503099,
45,48,73,72,0,109,109,109,,,,,,,,,,,None,687.1201685999986,687.1201685999986,687.1201685999986,687.1201685999986,687.1201685999986,687.1201685999986,j,0.2838275998365134,687.4206214000005,687.4206214000005,687.4206214000005,687.4206214000005,687.4206214000005,687.4206214000005,687.7041619000956,689.4535724001471,689.4535724001471,689.4535724001471,689.4535724001471,689.4535724001471,689.4535724001471,689.4369642999955,689.4535724001471,689.4535724001471,689.4535724001471,689.4535724001471,689.4535724001471,689.4535724001471,689.4535724001471,691.4848359001335,691.4848359001335,691.4848359001335,691.4848359001335,691.4848359001335,691.4848359001335,691.4848359001335,45,48,72,73,73,70,691.4848359001335,693.0693068001419,,,,,,,,,,,,,,,,,,,008,ｍ,２０,2023-05-13_17h17.52.046,RL,2022.2.5,60.05446938503099,
44,52,63,59,0,110,110,110,,,,,,,,,,,None,693.0693068001419,693.0693068001419,693.0693068001419,693.0693068001419,693.0693068001419,693.0693068001419,j,0.3403868000023067,693.440830900101,693.440830900101,693.440830900101,693.440830900101,693.440830900101,693.440830900101,693.7362349999603,694.5692184001673,694.5692184001673,694.5692184001673,694.5692184001673,694.5692184001673,694.5692184001673,694.5692184001673,694.5692184001673,694.5692184001673,694.5692184001673,694.5692184001673,694.5692184001673,694.5692184001673,694.5692184001673,695.7005900000222,695.7005900000222,695.7005900000222,695.7005900000222,695.7005900000222,695.7005900000222,695.7005900000222,44,52,59,63,63,70,695.7005900000222,697.5184404000174,,,,,,,,,,,,,,,,,,,008,ｍ,２０,2023-05-13_17h17.52.046,RL,2022.2.5,60.05446938503099,
46,40,69,65,0,111,111,111,,,,,,,,,,,None,697.5184404000174,697.5184404000174,697.5184404000174,697.5184404000174,697.5184404000174,697.5184404000174,j,0.4377278999891132,697.9871225000825,697.9871225000825,697.9871225000825,697.9871225000825,697.9871225000825,697.9871225000825,698.2854928001761,699.6518541001715,699.6518541001715,699.6518541001715,699.6518541001715,699.6518541001715,699.6518541001715,699.6518541001715,699.6518541001715,699.6518541001715,699.6518541001715,699.6518541001715,699.6518541001715,699.6518541001715,699.6518541001715,701.316240800079,701.316240800079,701.316240800079,701.316240800079,701.316240800079,701.316240800079,701.316240800079,46,40,65,69,69,70,701.316240800079,703.2511079001706,,,,,,,,,,,,,,,,,,,008,ｍ,２０,2023-05-13_17h17.52.046,RL,2022.2.5,60.05446938503099,
51,51,68,57,0,112,112,112,,,,,,,,,,,None,703.2511079001706,703.2511079001706,703.2511079001706,703.2511079001706,703.2511079001706,703.2511079001706,j,0.3786806999705732,703.6533690001816,703.6533690001816,703.6533690001816,703.6533690001816,703.6533690001816,703.6533690001816,703.9344065999612,705.2673202999867,705.2673202999867,705.2673202999867,705.2673202999867,705.2673202999867,705.2673202999867,705.251184000168,705.2673202999867,705.2673202999867,705.2673202999867,705.2673202999867,705.2673202999867,705.2673202999867,705.2673202999867,706.8820875999518,706.8820875999518,706.8820875999518,706.8820875999518,706.8820875999518,706.8820875999518,706.8820875999518,51,51,57,68,68,70,706.8820875999518,708.7000657999888,,,,,,,,,,,,,,,,,,,008,ｍ,２０,2023-05-13_17h17.52.046,RL,2022.2.5,60.05446938503099,
39,44,60,69,0,113,113,113,,,,,,,,,,,None,708.7000657999888,708.7000657999888,708.7000657999888,708.7000657999888,708.7000657999888,708.7000657999888,j,0.31742340000346303,709.051827999996,709.051827999996,709.051827999996,709.051827999996,709.051827999996,709.051827999996,709.3335506999865,710.3497779001482,710.3497779001482,710.3497779001482,710.3497779001482,710.3497779001482,710.3497779001482,710.3336214001756,710.3497779001482,710.3497779001482,710.3497779001482,710.3497779001482,710.3497779001482,710.3497779001482,710.3497779001482,711.6484560000245,711.6484560000245,711.6484560000245,711.6484560000245,711.6484560000245,711.6484560000245,711.6484560000245,39,44,69,60,60,70,711.6484560000245,713.3487979001366,,,,,,,,,,,,,,,,,,,008,ｍ,２０,2023-05-13_17h17.52.046,RL,2022.2.5,60.05446938503099,
46,45,68,59,0,114,114,114,,,,,,,,,,,None,713.3487979001366,713.3487979001366,713.3487979001366,713.3487979001366,713.3487979001366,713.3487979001366,j,0.31001409981399775,713.6835485000629,713.6835485000629,713.6835485000629,713.6835485000629,713.6835485000629,713.6835485000629,713.982542600017,715.3824420000892,715.3824420000892,715.3824420000892,715.3824420000892,715.3824420000892,715.3824420000892,715.3824420000892,715.3824420000892,715.3824420000892,715.3824420000892,715.3824420000892,715.3824420000892,715.3824420000892,715.3824420000892,717.0804584000725,717.0804584000725,717.0804584000725,717.0804584000725,717.0804584000725,717.0804584000725,717.0804584000725,46,45,59,68,68,70,717.0804584000725,718.765224999981,,,,,,,,,,,,,,,,,,,008,ｍ,２０,2023-05-13_17h17.52.046,RL,2022.2.5,60.05446938503099,
46,49,76,65,0,115,115,115,,,,,,,,,,,None,718.765224999981,718.765224999981,718.765224999981,718.765224999981,718.765224999981,718.765224999981,j,0.35337010002695024,719.1487732001115,719.1487732001115,719.1487732001115,719.1487732001115,719.1487732001115,719.1487732001115,719.4318168000318,720.4148006001487,720.4148006001487,720.4148006001487,720.4148006001487,720.4148006001487,720.4148006001487,720.3980305001605,720.4148006001487,720.4148006001487,720.4148006001487,720.4148006001487,720.4148006001487,720.4148006001487,720.4148006001487,721.6798427000176,721.6798427000176,721.6798427000176,721.6798427000176,721.6798427000176,721.6798427000176,721.6798427000176,46,49,65,76,76,70,721.6798427000176,723.4805952000897,,,,,,,,,,,,,,,,,,,008,ｍ,２０,2023-05-13_17h17.52.046,RL,2022.2.5,60.05446938503099,
54,44,67,80,0,116,116,116,,,,,,,,,,,None,723.4805952000897,723.4805952000897,723.4805952000897,723.4805952000897,723.4805952000897,723.4805952000897,j,0.35894920001737773,723.8654585001059,723.8654585001059,723.8654585001059,723.8654585001059,723.8654585001059,723.8654585001059,724.1648187001701,725.7473412000109,725.7473412000109,725.7473412000109,725.7473412000109,725.7473412000109,725.7473412000109,725.7473412000109,725.7473412000109,725.7473412000109,725.7473412000109,725.7473412000109,725.7473412000109,725.7473412000109,725.7473412000109,727.6282715999987,727.6282715999987,727.6282715999987,727.6282715999987,727.6282715999987,727.6282715999987,727.6282715999987,54,44,80,67,67,70,727.6282715999987,729.1629198000301,,,,,,,,,,,,,,,,,,,008,ｍ,２０,2023-05-13_17h17.52.046,RL,2022.2.5,60.05446938503099,
51,43,73,75,0,117,117,117,,,,,,,,,,,None,729.1629198000301,729.1629198000301,729.1629198000301,729.1629198000301,729.1629198000301,729.1629198000301,j,0.39372320007532835,729.5810444001108,729.5810444001108,729.5810444001108,729.5810444001108,729.5810444001108,729.5810444001108,729.8634311000351,731.8296034999657,731.8296034999657,731.8296034999657,731.8296034999657,731.8296034999657,731.8296034999657,731.8127814000472,731.8296034999657,731.8296034999657,731.8296034999657,731.8296034999657,731.8296034999657,731.8296034999657,731.8296034999657,734.0775607000105,734.0775607000105,734.0775607000105,734.0775607000105,734.0775607000105,734.0775607000105,734.0775607000105,51,43,75,73,73,70,734.0775607000105,735.9949858000036,,,,,,,,,,,,,,,,,,,008,ｍ,２０,2023-05-13_17h17.52.046,RL,2022.2.5,60.05446938503099,
52,43,73,74,0,118,118,118,,,,,,,,,,,None,735.9949858000036,735.9949858000036,735.9949858000036,735.9949858000036,735.9949858000036,735.9949858000036,j,0.27267530001699924,736.2955237999558,736.2955237999558,736.2955237999558,736.2955237999558,736.2955237999558,736.2955237999558,736.5952902999707,737.4785209000111,737.4785209000111,737.4785209000111,737.4785209000111,737.4785209000111,737.4785209000111,737.4785209000111,737.4785209000111,737.4785209000111,737.4785209000111,737.4785209000111,737.4785209000111,737.4785209000111,737.4785209000111,738.6601134999655,738.6601134999655,738.6601134999655,738.6601134999655,738.6601134999655,738.6601134999655,738.6601134999655,52,43,74,73,73,70,738.6601134999655,740.3611687000375,,,,,,,,,,,,,,,,,,,008,ｍ,２０,2023-05-13_17h17.52.046,RL,2022.2.5,60.05446938503099,
67,37,75,76,0,119,119,119,,,,,,,,,,,None,740.3611687000375,740.3611687000375,740.3611687000375,740.3611687000375,740.3611687000375,740.3611687000375,j,0.440172600094229,740.828033400001,740.828033400001,740.828033400001,740.828033400001,740.828033400001,740.828033400001,741.1114360999782,742.8611481999978,742.8611481999978,742.8611481999978,742.8611481999978,742.8611481999978,742.8611481999978,742.8444250000175,742.8611481999978,742.8611481999978,742.8611481999978,742.8611481999978,742.8611481999978,742.8611481999978,742.8611481999978,744.8926186000463,744.8926186000463,744.8926186000463,744.8926186000463,744.8926186000463,744.8926186000463,744.8926186000463,67,37,76,75,75,70,744.8926186000463,746.7596704000607,,,,,,,,,,,,,,,,,,,008,ｍ,２０,2023-05-13_17h17.52.046,RL,2022.2.5,60.05446938503099,
