arm1,arm2,arm3,arm4,trials.thisRepN,trials.thisTrialN,trials.thisN,trials.thisIndex,instru_img1.started,instru_resp.started,instru_resp.keys,instru_resp.rt,image_2.started,text_2.started,image_2.stopped,text_2.stopped,fixbefore_2.started,fixbefore_2.stopped,rest_response.keys,red.started,green.started,yellow.started,blue.started,choose_bandit.started,Fixation.started,choose_bandit.keys,choose_bandit.rt,black.started,red_2.started,green_2.started,yellow_2.started,blue_2.started,fixation_2.started,docs.started,black.stopped,red_2.stopped,green_2.stopped,yellow_2.stopped,blue_2.stopped,fixation_2.stopped,docs.stopped,black_com.started,reward_sub.started,reward__sub.started,red_compare.started,green_com.started,yellow_com.started,blue_com.started,black_com.stopped,reward_sub.stopped,reward__sub.stopped,red_compare.stopped,green_com.stopped,yellow_com.stopped,blue_com.stopped,rewardred,rewardyellow,rewardblue,rewardgreen,subchoose,expectation,intertrialfix.started,intertrialfix.stopped,rest_image.started,rest_response.started,rest_response.rt,image_expect_after.started,text_exp_after.started,image_expect_after.stopped,text_exp_after.stopped,image.started,key_resp.started,key_resp.keys,participant,Gender,Age,date,expName,psychopyVersion,frameRate,
,,,,,,,,16.210895200027153,16.210895200027153,space,2.216132099973038,,,,,,,,,,,,,,,,,,,,,,,,,,,,,,,,,,,,,,,,,,,,,,,,,,,,,,,,,,,,,,009,f,25,2023-05-13_18h14.16.751,RL,2022.2.5,60.24205258699676,
30,27,51,62,0,0,0,0,,,,,18.453489899868146,18.453489899868146,23.45315909991041,23.45315909991041,23.45315909991041,24.455337999854237,None,24.455337999854237,24.455337999854237,24.455337999854237,24.455337999854237,24.455337999854237,24.455337999854237,r,0.5626299998257309,25.04411319992505,25.04411319992505,25.04411319992505,25.04411319992505,25.04411319992505,25.04411319992505,25.337856400059536,26.238077800022438,26.238077800022438,26.238077800022438,26.238077800022438,26.238077800022438,26.238077800022438,26.238077800022438,26.238077800022438,26.238077800022438,26.238077800022438,26.238077800022438,26.238077800022438,26.238077800022438,26.238077800022438,27.478358200052753,27.478358200052753,27.478358200052753,27.478358200052753,27.478358200052753,27.478358200052753,27.478358200052753,51,27,30,62,27,60,27.478358200052753,29.403354299953207,,,,,,,,,,,009,f,25,2023-05-13_18h14.16.751,RL,2022.2.5,60.24205258699676,
39,46,54,58,0,1,1,1,,,,,,,,,,,None,29.403354299953207,29.403354299953207,29.403354299953207,29.403354299953207,29.403354299953207,29.403354299953207,f,0.3019570999313146,29.738331399857998,29.738331399857998,29.738331399857998,29.738331399857998,29.738331399857998,29.738331399857998,30.0366799000185,31.15289819985628,31.15289819985628,31.15289819985628,31.15289819985628,31.15289819985628,31.15289819985628,31.15289819985628,31.15289819985628,31.15289819985628,31.15289819985628,31.15289819985628,31.15289819985628,31.15289819985628,31.15289819985628,32.56830649985932,32.56830649985932,32.56830649985932,32.56830649985932,32.56830649985932,32.56830649985932,32.56830649985932,54,46,39,58,54,60,32.56830649985932,34.452833799878135,,,,,,,,,,,009,f,25,2023-05-13_18h14.16.751,RL,2022.2.5,60.24205258699676,
35,44,53,55,0,2,2,2,,,,,,,,,,,None,34.452833799878135,34.452833799878135,34.452833799878135,34.452833799878135,34.452833799878135,34.452833799878135,i,0.3504194999113679,34.81939830002375,34.81939830002375,34.81939830002375,34.81939830002375,34.81939830002375,34.81939830002375,35.11926419986412,36.95200299983844,36.95200299983844,36.95200299983844,36.95200299983844,36.95200299983844,36.95200299983844,36.95200299983844,36.95200299983844,36.95200299983844,36.95200299983844,36.95200299983844,36.95200299983844,36.95200299983844,36.95200299983844,39.08348779985681,39.08348779985681,39.08348779985681,39.08348779985681,39.08348779985681,39.08348779985681,39.08348779985681,53,44,35,55,35,60,39.08348779985681,40.917810099897906,,,,,,,,,,,009,f,25,2023-05-13_18h14.16.751,RL,2022.2.5,60.24205258699676,
39,37,60,57,0,3,3,3,,,,,,,,,,,None,40.917810099897906,40.917810099897906,40.917810099897906,40.917810099897906,40.917810099897906,40.917810099897906,j,0.261849399888888,41.20187469990924,41.20187469990924,41.20187469990924,41.20187469990924,41.20187469990924,41.20187469990924,41.485323099885136,43.05138730001636,43.05138730001636,43.05138730001636,43.05138730001636,43.05138730001636,43.05138730001636,43.03473039995879,43.05138730001636,43.05138730001636,43.05138730001636,43.05138730001636,43.05138730001636,43.05138730001636,43.05138730001636,44.89897649991326,44.89897649991326,44.89897649991326,44.89897649991326,44.89897649991326,44.89897649991326,44.89897649991326,60,37,39,57,57,60,44.89897649991326,46.684170299908146,,,,,,,,,,,009,f,25,2023-05-13_18h14.16.751,RL,2022.2.5,60.24205258699676,
48,44,51,58,0,4,4,4,,,,,,,,,,,None,46.684170299908146,46.684170299908146,46.684170299908146,46.684170299908146,46.684170299908146,46.684170299908146,j,0.30935560003854334,47.01773489988409,47.01773489988409,47.01773489988409,47.01773489988409,47.01773489988409,47.01773489988409,47.30104489997029,48.267114999936894,48.267114999936894,48.267114999936894,48.267114999936894,48.267114999936894,48.267114999936894,48.250453599961475,48.267114999936894,48.267114999936894,48.267114999936894,48.267114999936894,48.267114999936894,48.267114999936894,48.267114999936894,49.51526489993557,49.51526489993557,49.51526489993557,49.51526489993557,49.51526489993557,49.51526489993557,49.51526489993557,51,44,48,58,58,60,49.51526489993557,51.08277169987559,,,,,,,,,,,009,f,25,2023-05-13_18h14.16.751,RL,2022.2.5,60.24205258699676,
30,34,62,54,0,5,5,5,,,,,,,,,,,None,51.08277169987559,51.08277169987559,51.08277169987559,51.08277169987559,51.08277169987559,51.08277169987559,j,0.39338800008408725,51.5004040999338,51.5004040999338,51.5004040999338,51.5004040999338,51.5004040999338,51.5004040999338,51.78341609984636,53.69954359997064,53.69954359997064,53.69954359997064,53.69954359997064,53.69954359997064,53.69954359997064,53.68319329991937,53.69954359997064,53.69954359997064,53.69954359997064,53.69954359997064,53.69954359997064,53.69954359997064,53.69954359997064,55.897492199903354,55.897492199903354,55.897492199903354,55.897492199903354,55.897492199903354,55.897492199903354,55.897492199903354,62,34,30,54,54,60,55.897492199903354,57.84873239998706,,,,,,,,,,,009,f,25,2023-05-13_18h14.16.751,RL,2022.2.5,60.24205258699676,
32,38,53,59,0,6,6,6,,,,,,,,,,,None,57.84873239998706,57.84873239998706,57.84873239998706,57.84873239998706,57.84873239998706,57.84873239998706,f,0.3833273001946509,58.26544109988026,58.26544109988026,58.26544109988026,58.26544109988026,58.26544109988026,58.26544109988026,58.548811399843544,59.865004299907014,59.865004299907014,59.865004299907014,59.865004299907014,59.865004299907014,59.865004299907014,59.84823559992947,59.865004299907014,59.865004299907014,59.865004299907014,59.865004299907014,59.865004299907014,59.865004299907014,59.865004299907014,61.46357799996622,61.46357799996622,61.46357799996622,61.46357799996622,61.46357799996622,61.46357799996622,61.46357799996622,53,38,32,59,53,60,61.46357799996622,63.36479140003212,,,,,,,,,,,009,f,25,2023-05-13_18h14.16.751,RL,2022.2.5,60.24205258699676,
31,42,63,58,0,7,7,7,,,,,,,,,,,None,63.36479140003212,63.36479140003212,63.36479140003212,63.36479140003212,63.36479140003212,63.36479140003212,j,0.23808830021880567,63.632699199952185,63.632699199952185,63.632699199952185,63.632699199952185,63.632699199952185,63.632699199952185,63.914596599992365,65.01389339985326,65.01389339985326,65.01389339985326,65.01389339985326,65.01389339985326,65.01389339985326,64.99751090002246,65.01389339985326,65.01389339985326,65.01389339985326,65.01389339985326,65.01389339985326,65.01389339985326,65.01389339985326,66.39525369997136,66.39525369997136,66.39525369997136,66.39525369997136,66.39525369997136,66.39525369997136,66.39525369997136,63,42,31,58,58,60,66.39525369997136,68.26327460003085,,,,,,,,,,,009,f,25,2023-05-13_18h14.16.751,RL,2022.2.5,60.24205258699676,
32,47,58,60,0,8,8,8,,,,,,,,,,,None,68.26327460003085,68.26327460003085,68.26327460003085,68.26327460003085,68.26327460003085,68.26327460003085,f,0.2932969001121819,68.58084949990734,68.58084949990734,68.58084949990734,68.58084949990734,68.58084949990734,68.58084949990734,68.86390569992363,70.63003370002843,70.63003370002843,70.63003370002843,70.63003370002843,70.63003370002843,70.63003370002843,70.61306119989604,70.63003370002843,70.63003370002843,70.63003370002843,70.63003370002843,70.63003370002843,70.63003370002843,70.63003370002843,72.67794899991713,72.67794899991713,72.67794899991713,72.67794899991713,72.67794899991713,72.67794899991713,72.67794899991713,58,47,32,60,58,60,72.67794899991713,74.26187129993923,,,,,,,,,,,009,f,25,2023-05-13_18h14.16.751,RL,2022.2.5,60.24205258699676,
29,42,55,70,0,9,9,9,,,,,,,,,,,None,74.26187129993923,74.26187129993923,74.26187129993923,74.26187129993923,74.26187129993923,74.26187129993923,j,0.2651129001751542,74.5489506998565,74.5489506998565,74.5489506998565,74.5489506998565,74.5489506998565,74.5489506998565,74.8458497999236,76.52860129997134,76.52860129997134,76.52860129997134,76.52860129997134,76.52860129997134,76.52860129997134,76.52860129997134,76.52860129997134,76.52860129997134,76.52860129997134,76.52860129997134,76.52860129997134,76.52860129997134,76.52860129997134,78.51002629986033,78.51002629986033,78.51002629986033,78.51002629986033,78.51002629986033,78.51002629986033,78.51002629986033,55,42,29,70,70,60,78.51002629986033,80.16105899983086,,,,,,,,,,,009,f,25,2023-05-13_18h14.16.751,RL,2022.2.5,60.24205258699676,
33,37,57,75,0,10,10,10,,,,,,,,,,,None,80.16105899983086,80.16105899983086,80.16105899983086,80.16105899983086,80.16105899983086,80.16105899983086,j,0.27013049996457994,80.46164550003596,80.46164550003596,80.46164550003596,80.46164550003596,80.46164550003596,80.46164550003596,80.74468540004455,82.37750299996696,82.37750299996696,82.37750299996696,82.37750299996696,82.37750299996696,82.37750299996696,82.36129859997891,82.37750299996696,82.37750299996696,82.37750299996696,82.37750299996696,82.37750299996696,82.37750299996696,82.37750299996696,84.29226080002263,84.29226080002263,84.29226080002263,84.29226080002263,84.29226080002263,84.29226080002263,84.29226080002263,57,37,33,75,75,60,84.29226080002263,85.9773409999907,,,,,,,,,,,009,f,25,2023-05-13_18h14.16.751,RL,2022.2.5,60.24205258699676,
37,42,48,78,0,11,11,11,,,,,,,,,,,None,85.9773409999907,85.9773409999907,85.9773409999907,85.9773409999907,85.9773409999907,85.9773409999907,j,1.2691210999619216,87.27692129998468,87.27692129998468,87.27692129998468,87.27692129998468,87.27692129998468,87.27692129998468,87.56023489986546,89.20975629985332,89.20975629985332,89.20975629985332,89.20975629985332,89.20975629985332,89.20975629985332,89.19312019995414,89.20975629985332,89.20975629985332,89.20975629985332,89.20975629985332,89.20975629985332,89.20975629985332,89.20975629985332,91.1411351999268,91.1411351999268,91.1411351999268,91.1411351999268,91.1411351999268,91.1411351999268,91.1411351999268,48,42,37,78,78,60,91.1411351999268,92.95905179996043,,,,,,,,,,,009,f,25,2023-05-13_18h14.16.751,RL,2022.2.5,60.24205258699676,
28,42,48,75,0,12,12,12,,,,,,,,,,,None,92.95905179996043,92.95905179996043,92.95905179996043,92.95905179996043,92.95905179996043,92.95905179996043,j,0.3041437000501901,93.29376629996113,93.29376629996113,93.29376629996113,93.29376629996113,93.29376629996113,93.29376629996113,93.57604399998672,94.87570019997656,94.87570019997656,94.87570019997656,94.87570019997656,94.87570019997656,94.87570019997656,94.85940159996971,94.87570019997656,94.87570019997656,94.87570019997656,94.87570019997656,94.87570019997656,94.87570019997656,94.87570019997656,96.45688459998928,96.45688459998928,96.45688459998928,96.45688459998928,96.45688459998928,96.45688459998928,96.45688459998928,48,42,28,75,75,60,96.45688459998928,98.44152790005319,,,,,,,,,,,009,f,25,2023-05-13_18h14.16.751,RL,2022.2.5,60.24205258699676,
28,32,43,74,0,13,13,13,,,,,,,,,,,None,98.44152790005319,98.44152790005319,98.44152790005319,98.44152790005319,98.44152790005319,98.44152790005319,j,0.3640637001954019,98.82502339989878,98.82502339989878,98.82502339989878,98.82502339989878,98.82502339989878,98.82502339989878,99.12500800006092,100.97456420003437,100.97456420003437,100.97456420003437,100.97456420003437,100.97456420003437,100.97456420003437,100.97456420003437,100.97456420003437,100.97456420003437,100.97456420003437,100.97456420003437,100.97456420003437,100.97456420003437,100.97456420003437,103.12272250000387,103.12272250000387,103.12272250000387,103.12272250000387,103.12272250000387,103.12272250000387,103.12272250000387,43,32,28,74,74,60,103.12272250000387,105.00673209992237,,,,,,,,,,,009,f,25,2023-05-13_18h14.16.751,RL,2022.2.5,60.24205258699676,
30,41,54,82,0,14,14,14,,,,,,,,,,,None,105.00673209992237,105.00673209992237,105.00673209992237,105.00673209992237,105.00673209992237,105.00673209992237,j,0.2733360999263823,105.30730469990522,105.30730469990522,105.30730469990522,105.30730469990522,105.30730469990522,105.30730469990522,105.59032669989392,107.38983780005947,107.38983780005947,107.38983780005947,107.38983780005947,107.38983780005947,107.38983780005947,107.37338779983111,107.38983780005947,107.38983780005947,107.38983780005947,107.38983780005947,107.38983780005947,107.38983780005947,107.38983780005947,109.47141760005616,109.47141760005616,109.47141760005616,109.47141760005616,109.47141760005616,109.47141760005616,109.47141760005616,54,41,30,82,82,60,109.47141760005616,111.07273869984783,,,,,,,,,,,009,f,25,2023-05-13_18h14.16.751,RL,2022.2.5,60.24205258699676,
37,32,50,83,0,15,15,15,,,,,,,,,,,None,111.07273869984783,111.07273869984783,111.07273869984783,111.07273869984783,111.07273869984783,111.07273869984783,j,0.5463288000319153,111.64082259987481,111.64082259987481,111.64082259987481,111.64082259987481,111.64082259987481,111.64082259987481,111.93925890000537,113.57235220004804,113.57235220004804,113.57235220004804,113.57235220004804,113.57235220004804,113.57235220004804,113.57235220004804,113.57235220004804,113.57235220004804,113.57235220004804,113.57235220004804,113.57235220004804,113.57235220004804,113.57235220004804,115.5040100000333,115.5040100000333,115.5040100000333,115.5040100000333,115.5040100000333,115.5040100000333,115.5040100000333,50,32,37,83,83,60,115.5040100000333,117.23753089993261,,,,,,,,,,,009,f,25,2023-05-13_18h14.16.751,RL,2022.2.5,60.24205258699676,
41,41,56,71,0,16,16,16,,,,,,,,,,,None,117.23753089993261,117.23753089993261,117.23753089993261,117.23753089993261,117.23753089993261,117.23753089993261,j,0.47380009992048144,117.73854919988662,117.73854919988662,117.73854919988662,117.73854919988662,117.73854919988662,117.73854919988662,118.02177869994193,119.23778899991885,119.23778899991885,119.23778899991885,119.23778899991885,119.23778899991885,119.23778899991885,119.22192809986882,119.23778899991885,119.23778899991885,119.23778899991885,119.23778899991885,119.23778899991885,119.23778899991885,119.23778899991885,120.73590789991431,120.73590789991431,120.73590789991431,120.73590789991431,120.73590789991431,120.73590789991431,120.73590789991431,56,41,41,71,71,60,120.73590789991431,122.55386879993603,,,,,,,,,,,009,f,25,2023-05-13_18h14.16.751,RL,2022.2.5,60.24205258699676,
28,41,48,63,0,17,17,17,,,,,,,,,,,None,122.55386879993603,122.55386879993603,122.55386879993603,122.55386879993603,122.55386879993603,122.55386879993603,j,0.36312799993902445,122.93805409991182,122.93805409991182,122.93805409991182,122.93805409991182,122.93805409991182,122.93805409991182,123.2374100999441,124.8536455000285,124.8536455000285,124.8536455000285,124.8536455000285,124.8536455000285,124.8536455000285,124.8536455000285,124.8536455000285,124.8536455000285,124.8536455000285,124.8536455000285,124.8536455000285,124.8536455000285,124.8536455000285,126.76815010001883,126.76815010001883,126.76815010001883,126.76815010001883,126.76815010001883,126.76815010001883,126.76815010001883,48,41,28,63,63,60,126.76815010001883,128.56927259988151,,,,,,,,,,,009,f,25,2023-05-13_18h14.16.751,RL,2022.2.5,60.24205258699676,
36,50,50,74,0,18,18,18,,,,,,,,,,,None,128.56927259988151,128.56927259988151,128.56927259988151,128.56927259988151,128.56927259988151,128.56927259988151,f,0.3496421000454575,128.93864169996232,128.93864169996232,128.93864169996232,128.93864169996232,128.93864169996232,128.93864169996232,129.2362700998783,130.18620310002007,130.18620310002007,130.18620310002007,130.18620310002007,130.18620310002007,130.18620310002007,130.18620310002007,130.18620310002007,130.18620310002007,130.18620310002007,130.18620310002007,130.18620310002007,130.18620310002007,130.18620310002007,131.4343351998832,131.4343351998832,131.4343351998832,131.4343351998832,131.4343351998832,131.4343351998832,131.4343351998832,50,50,36,74,50,60,131.4343351998832,133.2524923000019,,,,,,,,,,,009,f,25,2023-05-13_18h14.16.751,RL,2022.2.5,60.24205258699676,
37,43,43,72,0,19,19,19,,,,,,,,,,,None,133.2524923000019,133.2524923000019,133.2524923000019,133.2524923000019,133.2524923000019,133.2524923000019,j,0.19650119985453784,133.46941190003417,133.46941190003417,133.46941190003417,133.46941190003417,133.46941190003417,133.46941190003417,133.75280859996565,135.71880759997293,135.71880759997293,135.71880759997293,135.71880759997293,135.71880759997293,135.71880759997293,135.70205820002593,135.71880759997293,135.71880759997293,135.71880759997293,135.71880759997293,135.71880759997293,135.71880759997293,135.71880759997293,137.96628140006214,137.96628140006214,137.96628140006214,137.96628140006214,137.96628140006214,137.96628140006214,137.96628140006214,43,43,37,72,72,60,137.96628140006214,139.634515899932,,,,,,,,,,,009,f,25,2023-05-13_18h14.16.751,RL,2022.2.5,60.24205258699676,
28,40,51,74,0,20,20,20,,,,,,,,,,,None,139.634515899932,139.634515899932,139.634515899932,139.634515899932,139.634515899932,139.634515899932,j,0.3362736999988556,140.00372210005298,140.00372210005298,140.00372210005298,140.00372210005298,140.00372210005298,140.00372210005298,140.30102399992757,141.13406839990057,141.13406839990057,141.13406839990057,141.13406839990057,141.13406839990057,141.13406839990057,141.11766589991748,141.13406839990057,141.13406839990057,141.13406839990057,141.13406839990057,141.13406839990057,141.13406839990057,141.13406839990057,142.24940759991296,142.24940759991296,142.24940759991296,142.24940759991296,142.24940759991296,142.24940759991296,142.24940759991296,51,40,28,74,74,60,142.24940759991296,144.09994759992696,,,,,,,,,,,009,f,25,2023-05-13_18h14.16.751,RL,2022.2.5,60.24205258699676,
32,32,38,71,0,21,21,21,,,,,,,,,,,None,144.09994759992696,144.09994759992696,144.09994759992696,144.09994759992696,144.09994759992696,144.09994759992696,j,0.2731240999419242,144.40156279993244,144.40156279993244,144.40156279993244,144.40156279993244,144.40156279993244,144.40156279993244,144.70016889995895,146.54990789992735,146.54990789992735,146.54990789992735,146.54990789992735,146.54990789992735,146.54990789992735,146.54990789992735,146.54990789992735,146.54990789992735,146.54990789992735,146.54990789992735,146.54990789992735,146.54990789992735,146.54990789992735,148.69829889992252,148.69829889992252,148.69829889992252,148.69829889992252,148.69829889992252,148.69829889992252,148.69829889992252,38,32,32,71,71,60,148.69829889992252,150.39910100004636,,,,,,,,,,,009,f,25,2023-05-13_18h14.16.751,RL,2022.2.5,60.24205258699676,
41,32,51,70,0,22,22,22,,,,,,,,,,,None,150.39910100004636,150.39910100004636,150.39910100004636,150.39910100004636,150.39910100004636,150.39910100004636,j,0.280767299933359,150.69961629994214,150.69961629994214,150.69961629994214,150.69961629994214,150.69961629994214,150.69961629994214,150.9826630000025,152.28222399996594,152.28222399996594,152.28222399996594,152.28222399996594,152.28222399996594,152.28222399996594,152.26617359998636,152.28222399996594,152.28222399996594,152.28222399996594,152.28222399996594,152.28222399996594,152.28222399996594,152.28222399996594,153.86380709987134,153.86380709987134,153.86380709987134,153.86380709987134,153.86380709987134,153.86380709987134,153.86380709987134,51,32,41,70,70,60,153.86380709987134,155.71453500003554,,,,,,,,,,,009,f,25,2023-05-13_18h14.16.751,RL,2022.2.5,60.24205258699676,
33,28,54,68,0,23,23,23,,,,,,,,,,,None,155.71453500003554,155.71453500003554,155.71453500003554,155.71453500003554,155.71453500003554,155.71453500003554,j,0.24695830000564456,155.9835530000273,155.9835530000273,155.9835530000273,155.9835530000273,155.9835530000273,155.9835530000273,156.28154770005494,157.86482069990598,157.86482069990598,157.86482069990598,157.86482069990598,157.86482069990598,157.86482069990598,157.86482069990598,157.86482069990598,157.86482069990598,157.86482069990598,157.86482069990598,157.86482069990598,157.86482069990598,157.86482069990598,159.74620559997857,159.74620559997857,159.74620559997857,159.74620559997857,159.74620559997857,159.74620559997857,159.74620559997857,54,28,33,68,68,60,159.74620559997857,161.74669689987786,,,,,,,,,,,009,f,25,2023-05-13_18h14.16.751,RL,2022.2.5,60.24205258699676,
30,41,51,65,0,24,24,24,,,,,,,,,,,None,161.74669689987786,161.74669689987786,161.74669689987786,161.74669689987786,161.74669689987786,161.74669689987786,j,0.23194409999996424,162.0003507998772,162.0003507998772,162.0003507998772,162.0003507998772,162.0003507998772,162.0003507998772,162.29735079989769,163.19698369991966,163.19698369991966,163.19698369991966,163.19698369991966,163.19698369991966,163.19698369991966,163.19698369991966,163.19698369991966,163.19698369991966,163.19698369991966,163.19698369991966,163.19698369991966,163.19698369991966,163.19698369991966,164.39518240001053,164.39518240001053,164.39518240001053,164.39518240001053,164.39518240001053,164.39518240001053,164.39518240001053,51,41,30,65,65,60,164.39518240001053,165.97957749990746,,,,,,,,,,,009,f,25,2023-05-13_18h14.16.751,RL,2022.2.5,60.24205258699676,
33,36,44,64,0,25,25,25,,,,,,,,,,,None,165.97957749990746,165.97957749990746,165.97957749990746,165.97957749990746,165.97957749990746,165.97957749990746,j,0.8918713999446481,166.89830999984406,166.89830999984406,166.89830999984406,166.89830999984406,166.89830999984406,166.89830999984406,167.1798324000556,168.1128392999526,168.1128392999526,168.1128392999526,168.1128392999526,168.1128392999526,168.1128392999526,168.09607019997202,168.1128392999526,168.1128392999526,168.1128392999526,168.1128392999526,168.1128392999526,168.1128392999526,168.1128392999526,169.32753290003166,169.32753290003166,169.32753290003166,169.32753290003166,169.32753290003166,169.32753290003166,169.32753290003166,44,36,33,64,64,60,169.32753290003166,171.0626505999826,,,,,,,,,,,009,f,25,2023-05-13_18h14.16.751,RL,2022.2.5,60.24205258699676,
37,39,45,65,0,26,26,26,,,,,,,,,,,None,171.0626505999826,171.0626505999826,171.0626505999826,171.0626505999826,171.0626505999826,171.0626505999826,j,0.49921489995904267,171.5791875999421,171.5791875999421,171.5791875999421,171.5791875999421,171.5791875999421,171.5791875999421,171.86278019985184,173.69545520003885,173.69545520003885,173.69545520003885,173.69545520003885,173.69545520003885,173.69545520003885,173.67847519996576,173.69545520003885,173.69545520003885,173.69545520003885,173.69545520003885,173.69545520003885,173.69545520003885,173.69545520003885,175.81025339988992,175.81025339988992,175.81025339988992,175.81025339988992,175.81025339988992,175.81025339988992,175.81025339988992,45,39,37,65,65,60,175.81025339988992,177.32741099991836,,,,,,,,,,,009,f,25,2023-05-13_18h14.16.751,RL,2022.2.5,60.24205258699676,
28,41,45,68,0,27,27,27,,,,,,,,,,,None,177.32741099991836,177.32741099991836,177.32741099991836,177.32741099991836,177.32741099991836,177.32741099991836,j,0.3878689999692142,177.74576179985888,177.74576179985888,177.74576179985888,177.74576179985888,177.74576179985888,177.74576179985888,178.04461540002376,179.4442837999668,179.4442837999668,179.4442837999668,179.4442837999668,179.4442837999668,179.4442837999668,179.4442837999668,179.4442837999668,179.4442837999668,179.4442837999668,179.4442837999668,179.4442837999668,179.4442837999668,179.4442837999668,181.14251039992087,181.14251039992087,181.14251039992087,181.14251039992087,181.14251039992087,181.14251039992087,181.14251039992087,45,41,28,68,68,60,181.14251039992087,183.1100393999368,,,,,,,,,,,009,f,25,2023-05-13_18h14.16.751,RL,2022.2.5,60.24205258699676,
25,40,51,71,0,28,28,28,,,,,,,,,,,None,183.1100393999368,183.1100393999368,183.1100393999368,183.1100393999368,183.1100393999368,183.1100393999368,j,0.19797110022045672,183.32896459987387,183.32896459987387,183.32896459987387,183.32896459987387,183.32896459987387,183.32896459987387,183.62706249998882,184.92645330005325,184.92645330005325,184.92645330005325,184.92645330005325,184.92645330005325,184.92645330005325,184.92645330005325,184.92645330005325,184.92645330005325,184.92645330005325,184.92645330005325,184.92645330005325,184.92645330005325,184.92645330005325,186.5245125000365,186.5245125000365,186.5245125000365,186.5245125000365,186.5245125000365,186.5245125000365,186.5245125000365,51,40,25,71,71,60,186.5245125000365,188.05893539986573,,,,,,,,,,,009,f,25,2023-05-13_18h14.16.751,RL,2022.2.5,60.24205258699676,
28,37,44,71,0,29,29,29,,,,,,,,,,,None,188.05893539986573,188.05893539986573,188.05893539986573,188.05893539986573,188.05893539986573,188.05893539986573,j,0.3398257000371814,188.42758719995618,188.42758719995618,188.42758719995618,188.42758719995618,188.42758719995618,188.42758719995618,188.72632539994083,190.3258177000098,190.3258177000098,190.3258177000098,190.3258177000098,190.3258177000098,190.3258177000098,190.30955450003967,190.3258177000098,190.3258177000098,190.3258177000098,190.3258177000098,190.3258177000098,190.3258177000098,190.3258177000098,192.20715709985234,192.20715709985234,192.20715709985234,192.20715709985234,192.20715709985234,192.20715709985234,192.20715709985234,44,37,28,71,71,60,192.20715709985234,194.14130480005406,,,,,,,,,,,009,f,25,2023-05-13_18h14.16.751,RL,2022.2.5,60.24205258699676,
38,42,57,79,0,30,30,30,,,,,,,,,,,None,194.14130480005406,194.14130480005406,194.14130480005406,194.14130480005406,194.14130480005406,194.14130480005406,j,0.2598584999796003,194.42894089990295,194.42894089990295,194.42894089990295,194.42894089990295,194.42894089990295,194.42894089990295,194.70867109997198,196.0910753000062,196.0910753000062,196.0910753000062,196.0910753000062,196.0910753000062,196.0910753000062,196.05848050001077,196.0910753000062,196.0910753000062,196.0910753000062,196.0910753000062,196.0910753000062,196.0910753000062,196.0910753000062,197.7398720998317,197.7398720998317,197.7398720998317,197.7398720998317,197.7398720998317,197.7398720998317,197.7398720998317,57,42,38,79,79,60,197.7398720998317,199.54056850005873,,,,,,,,,,,009,f,25,2023-05-13_18h14.16.751,RL,2022.2.5,60.24205258699676,
40,37,46,69,0,31,31,31,,,,,,,,,,,None,199.54056850005873,199.54056850005873,199.54056850005873,199.54056850005873,199.54056850005873,199.54056850005873,j,0.24953410006128252,199.8086385000497,199.8086385000497,199.8086385000497,199.8086385000497,199.8086385000497,199.8086385000497,200.10787549987435,201.5571854999289,201.5571854999289,201.5571854999289,201.5571854999289,201.5571854999289,201.5571854999289,201.54066719999537,201.5571854999289,201.5571854999289,201.5571854999289,201.5571854999289,201.5571854999289,201.5571854999289,201.5571854999289,203.2887033999432,203.2887033999432,203.2887033999432,203.2887033999432,203.2887033999432,203.2887033999432,203.2887033999432,46,37,40,69,69,60,203.2887033999432,205.00664449995384,,,,,,,,,,,009,f,25,2023-05-13_18h14.16.751,RL,2022.2.5,60.24205258699676,
30,34,49,65,0,32,32,32,,,,,,,,,,,None,205.00664449995384,205.00664449995384,205.00664449995384,205.00664449995384,205.00664449995384,205.00664449995384,j,0.7476083999499679,205.77316639991477,205.77316639991477,205.77316639991477,205.77316639991477,205.77316639991477,205.77316639991477,206.07285119988956,207.52309400006197,207.52309400006197,207.52309400006197,207.52309400006197,207.52309400006197,207.52309400006197,207.52309400006197,207.52309400006197,207.52309400006197,207.52309400006197,207.52309400006197,207.52309400006197,207.52309400006197,207.52309400006197,209.2707928000018,209.2707928000018,209.2707928000018,209.2707928000018,209.2707928000018,209.2707928000018,209.2707928000018,49,34,30,65,65,60,209.2707928000018,211.10517519991845,,,,,,,,,,,009,f,25,2023-05-13_18h14.16.751,RL,2022.2.5,60.24205258699676,
31,33,55,67,0,33,33,33,,,,,,,,,,,None,211.10517519991845,211.10517519991845,211.10517519991845,211.10517519991845,211.10517519991845,211.10517519991845,j,0.2681683001574129,211.4056287999265,211.4056287999265,211.4056287999265,211.4056287999265,211.4056287999265,211.4056287999265,211.7057385998778,213.43835059995763,213.43835059995763,213.43835059995763,213.43835059995763,213.43835059995763,213.43835059995763,213.43835059995763,213.43835059995763,213.43835059995763,213.43835059995763,213.43835059995763,213.43835059995763,213.43835059995763,213.43835059995763,215.46954900003038,215.46954900003038,215.46954900003038,215.46954900003038,215.46954900003038,215.46954900003038,215.46954900003038,55,33,31,67,67,60,215.46954900003038,217.35423759999685,,,,,,,,,,,009,f,25,2023-05-13_18h14.16.751,RL,2022.2.5,60.24205258699676,
17,36,48,70,0,34,34,34,,,,,,,,,,,None,217.35423759999685,217.35423759999685,217.35423759999685,217.35423759999685,217.35423759999685,217.35423759999685,j,0.2566424000542611,217.63813570002094,217.63813570002094,217.63813570002094,217.63813570002094,217.63813570002094,217.63813570002094,217.92100239987485,219.83757149986923,219.83757149986923,219.83757149986923,219.83757149986923,219.83757149986923,219.83757149986923,219.82093399995938,219.83757149986923,219.83757149986923,219.83757149986923,219.83757149986923,219.83757149986923,219.83757149986923,219.83757149986923,222.03496339987032,222.03496339987032,222.03496339987032,222.03496339987032,222.03496339987032,222.03496339987032,222.03496339987032,48,36,17,70,70,60,222.03496339987032,223.7029363999609,,,,,,,,,,,009,f,25,2023-05-13_18h14.16.751,RL,2022.2.5,60.24205258699676,
25,39,50,52,0,35,35,35,,,,,,,,,,,None,223.7029363999609,223.7029363999609,223.7029363999609,223.7029363999609,223.7029363999609,223.7029363999609,j,0.29822349990718067,224.0199213998858,224.0199213998858,224.0199213998858,224.0199213998858,224.0199213998858,224.0199213998858,224.30362939997576,225.93619100004435,225.93619100004435,225.93619100004435,225.93619100004435,225.93619100004435,225.93619100004435,225.91966239991598,225.93619100004435,225.93619100004435,225.93619100004435,225.93619100004435,225.93619100004435,225.93619100004435,225.93619100004435,227.85068919998594,227.85068919998594,227.85068919998594,227.85068919998594,227.85068919998594,227.85068919998594,227.85068919998594,50,39,25,52,52,60,227.85068919998594,229.80173980002292,,,,,,,,,,,009,f,25,2023-05-13_18h14.16.751,RL,2022.2.5,60.24205258699676,
34,46,59,61,0,36,36,36,,,,,,,,,,,None,229.80173980002292,229.80173980002292,229.80173980002292,229.80173980002292,229.80173980002292,229.80173980002292,f,0.7537621001247317,230.58571280003525,230.58571280003525,230.58571280003525,230.58571280003525,230.58571280003525,230.58571280003525,230.88538919994608,232.71834539994597,232.71834539994597,232.71834539994597,232.71834539994597,232.71834539994597,232.71834539994597,232.71834539994597,232.71834539994597,232.71834539994597,232.71834539994597,232.71834539994597,232.71834539994597,232.71834539994597,232.71834539994597,234.84952709986828,234.84952709986828,234.84952709986828,234.84952709986828,234.84952709986828,234.84952709986828,234.84952709986828,59,46,34,61,59,60,234.84952709986828,236.70122309983708,,,,,,,,,,,009,f,25,2023-05-13_18h14.16.751,RL,2022.2.5,60.24205258699676,
25,44,54,55,0,37,37,37,,,,,,,,,,,None,236.70122309983708,236.70122309983708,236.70122309983708,236.70122309983708,236.70122309983708,236.70122309983708,f,0.34064690000377595,237.06840269989334,237.06840269989334,237.06840269989334,237.06840269989334,237.06840269989334,237.06840269989334,237.35098559991457,238.5841273998376,238.5841273998376,238.5841273998376,238.5841273998376,238.5841273998376,238.5841273998376,238.56725209997967,238.5841273998376,238.5841273998376,238.5841273998376,238.5841273998376,238.5841273998376,238.5841273998376,238.5841273998376,240.09922009985894,240.09922009985894,240.09922009985894,240.09922009985894,240.09922009985894,240.09922009985894,240.09922009985894,54,44,25,55,54,60,240.09922009985894,241.66677689994685,,,,,,,,,,,009,f,25,2023-05-13_18h14.16.751,RL,2022.2.5,60.24205258699676,
35,53,62,60,0,38,38,38,,,,,,,,,,,None,241.66677689994685,241.66677689994685,241.66677689994685,241.66677689994685,241.66677689994685,241.66677689994685,j,0.43495530006475747,242.1345500999596,242.1345500999596,242.1345500999596,242.1345500999596,242.1345500999596,242.1345500999596,242.41698460001498,244.43333150004037,244.43333150004037,244.43333150004037,244.43333150004037,244.43333150004037,244.43333150004037,244.41647759987973,244.43333150004037,244.43333150004037,244.43333150004037,244.43333150004037,244.43333150004037,244.43333150004037,244.43333150004037,246.7305923998356,246.7305923998356,246.7305923998356,246.7305923998356,246.7305923998356,246.7305923998356,246.7305923998356,62,53,35,60,60,60,246.7305923998356,248.58251239988022,,,,,,,,,,,009,f,25,2023-05-13_18h14.16.751,RL,2022.2.5,60.24205258699676,
28,53,62,61,0,39,39,39,,,,,,,,,,,None,248.58251239988022,248.58251239988022,248.58251239988022,248.58251239988022,248.58251239988022,248.58251239988022,j,0.24905059998854995,248.84926309995353,248.84926309995353,248.84926309995353,248.84926309995353,248.84926309995353,248.84926309995353,249.1327042998746,249.9986832998693,249.9986832998693,249.9986832998693,249.9986832998693,249.9986832998693,249.9986832998693,249.98197550000623,249.9986832998693,249.9986832998693,249.9986832998693,249.9986832998693,249.9986832998693,249.9986832998693,249.9986832998693,251.1468789000064,251.1468789000064,251.1468789000064,251.1468789000064,251.1468789000064,251.1468789000064,251.1468789000064,62,53,28,61,61,60,251.1468789000064,252.81503429985605,,,,,,,,,,,009,f,25,2023-05-13_18h14.16.751,RL,2022.2.5,60.24205258699676,
37,55,69,61,0,40,40,40,,,,,,,,,,,None,252.81503429985605,252.81503429985605,252.81503429985605,252.81503429985605,252.81503429985605,252.81503429985605,j,0.316065700026229,253.14839980006218,253.14839980006218,253.14839980006218,253.14839980006218,253.14839980006218,253.14839980006218,253.44873730000108,255.0147817998659,255.0147817998659,255.0147817998659,255.0147817998659,255.0147817998659,255.0147817998659,255.0147817998659,255.0147817998659,255.0147817998659,255.0147817998659,255.0147817998659,255.0147817998659,255.0147817998659,255.0147817998659,256.87897680001333,256.87897680001333,256.87897680001333,256.87897680001333,256.87897680001333,256.87897680001333,256.87897680001333,69,55,37,61,61,60,256.87897680001333,258.7801596999634,,,,,,,,,,,009,f,25,2023-05-13_18h14.16.751,RL,2022.2.5,60.24205258699676,
29,58,64,52,0,41,41,41,,,,,,,,,,,None,258.7801596999634,258.7801596999634,258.7801596999634,258.7801596999634,258.7801596999634,258.7801596999634,j,0.2657802999019623,259.06613409984857,259.06613409984857,259.06613409984857,259.06613409984857,259.06613409984857,259.06613409984857,259.3475140000228,260.73012389987707,260.73012389987707,260.73012389987707,260.73012389987707,260.73012389987707,260.73012389987707,260.7134068000596,260.73012389987707,260.73012389987707,260.73012389987707,260.73012389987707,260.73012389987707,260.73012389987707,260.73012389987707,262.3780143999029,262.3780143999029,262.3780143999029,262.3780143999029,262.3780143999029,262.3780143999029,262.3780143999029,64,58,29,52,52,60,262.3780143999029,263.94641759991646,,,,,,,,,,,009,f,25,2023-05-13_18h14.16.751,RL,2022.2.5,60.24205258699676,
33,51,70,57,0,42,42,42,,,,,,,,,,,None,263.94641759991646,263.94641759991646,263.94641759991646,263.94641759991646,263.94641759991646,263.94641759991646,f,0.3575950001832098,264.33145489986055,264.33145489986055,264.33145489986055,264.33145489986055,264.33145489986055,264.33145489986055,264.6127192999702,266.5961223000195,266.5961223000195,266.5961223000195,266.5961223000195,266.5961223000195,266.5961223000195,266.5796509999782,266.5961223000195,266.5961223000195,266.5961223000195,266.5961223000195,266.5961223000195,266.5961223000195,266.5961223000195,268.86066669994034,268.86066669994034,268.86066669994034,268.86066669994034,268.86066669994034,268.86066669994034,268.86066669994034,70,51,33,57,70,60,268.86066669994034,270.56146989995614,,,,,,,,,,,009,f,25,2023-05-13_18h14.16.751,RL,2022.2.5,60.24205258699676,
45,51,68,52,0,43,43,43,,,,,,,,,,,None,270.56146989995614,270.56146989995614,270.56146989995614,270.56146989995614,270.56146989995614,270.56146989995614,f,0.5930198000278324,271.18107259995304,271.18107259995304,271.18107259995304,271.18107259995304,271.18107259995304,271.18107259995304,271.4616369998548,272.81155809992924,272.81155809992924,272.81155809992924,272.81155809992924,272.81155809992924,272.81155809992924,272.79530030000024,272.81155809992924,272.81155809992924,272.81155809992924,272.81155809992924,272.81155809992924,272.81155809992924,272.81155809992924,274.4428109000437,274.4428109000437,274.4428109000437,274.4428109000437,274.4428109000437,274.4428109000437,274.4428109000437,68,51,45,52,68,60,274.4428109000437,276.3271317000035,,,,,,,,,,,009,f,25,2023-05-13_18h14.16.751,RL,2022.2.5,60.24205258699676,
34,54,68,52,0,44,44,44,,,,,,,,,,,None,276.3271317000035,276.3271317000035,276.3271317000035,276.3271317000035,276.3271317000035,276.3271317000035,f,0.35593959991820157,276.7121349000372,276.7121349000372,276.7121349000372,276.7121349000372,276.7121349000372,276.7121349000372,276.99398060003296,278.4774909999687,278.4774909999687,278.4774909999687,278.4774909999687,278.4774909999687,278.4774909999687,278.46049079997465,278.4774909999687,278.4774909999687,278.4774909999687,278.4774909999687,278.4774909999687,278.4774909999687,278.4774909999687,280.24171780003235,280.24171780003235,280.24171780003235,280.24171780003235,280.24171780003235,280.24171780003235,280.24171780003235,68,54,34,52,68,60,280.24171780003235,282.1431906998623,,,,,,,,,,,009,f,25,2023-05-13_18h14.16.751,RL,2022.2.5,60.24205258699676,
42,49,68,53,0,45,45,45,,,,,,,,,,,None,282.1431906998623,282.1431906998623,282.1431906998623,282.1431906998623,282.1431906998623,282.1431906998623,f,0.30024700006470084,282.47882979991846,282.47882979991846,282.47882979991846,282.47882979991846,282.47882979991846,282.47882979991846,282.7601409999188,284.70961220003664,284.70961220003664,284.70961220003664,284.70961220003664,284.70961220003664,284.70961220003664,284.6932138998527,284.70961220003664,284.70961220003664,284.70961220003664,284.70961220003664,284.70961220003664,284.70961220003664,284.70961220003664,286.94060039985925,286.94060039985925,286.94060039985925,286.94060039985925,286.94060039985925,286.94060039985925,286.94060039985925,68,49,42,53,68,60,286.94060039985925,288.7418666998856,,,,,,,,,,,009,f,25,2023-05-13_18h14.16.751,RL,2022.2.5,60.24205258699676,
46,55,66,53,0,46,46,46,,,,,,,,,,,None,288.7418666998856,288.7418666998856,288.7418666998856,288.7418666998856,288.7418666998856,288.7418666998856,f,0.3531782999634743,289.1298523999285,289.1298523999285,289.1298523999285,289.1298523999285,289.1298523999285,289.1298523999285,289.40871339989826,290.47522110003047,290.47522110003047,290.47522110003047,290.47522110003047,290.47522110003047,290.47522110003047,290.4585674998816,290.47522110003047,290.47522110003047,290.47522110003047,290.47522110003047,290.47522110003047,290.47522110003047,290.47522110003047,291.82339869998395,291.82339869998395,291.82339869998395,291.82339869998395,291.82339869998395,291.82339869998395,291.82339869998395,66,55,46,53,66,60,291.82339869998395,293.5745681000408,,,,,,,,,,,009,f,25,2023-05-13_18h14.16.751,RL,2022.2.5,60.24205258699676,
42,57,59,52,0,47,47,47,,,,,,,,,,,None,293.5745681000408,293.5745681000408,293.5745681000408,293.5745681000408,293.5745681000408,293.5745681000408,f,0.3811790000181645,293.9786590000149,293.9786590000149,293.9786590000149,293.9786590000149,293.9786590000149,293.9786590000149,294.27451099990867,296.24093069997616,296.24093069997616,296.24093069997616,296.24093069997616,296.24093069997616,296.24093069997616,296.24093069997616,296.24093069997616,296.24093069997616,296.24093069997616,296.24093069997616,296.24093069997616,296.24093069997616,296.24093069997616,298.5052763998974,298.5052763998974,298.5052763998974,298.5052763998974,298.5052763998974,298.5052763998974,298.5052763998974,59,57,42,52,59,60,298.5052763998974,300.1564853999298,,,,,,,,,,,009,f,25,2023-05-13_18h14.16.751,RL,2022.2.5,60.24205258699676,
48,51,58,57,0,48,48,48,,,,,,,,,,,None,300.1564853999298,300.1564853999298,300.1564853999298,300.1564853999298,300.1564853999298,300.1564853999298,f,0.2645096001215279,300.4402616999578,300.4402616999578,300.4402616999578,300.4402616999578,300.4402616999578,300.4402616999578,300.72370139998384,302.539609399857,302.539609399857,302.539609399857,302.539609399857,302.539609399857,302.539609399857,302.52314549987204,302.539609399857,302.539609399857,302.539609399857,302.539609399857,302.539609399857,302.539609399857,302.539609399857,304.6375531000085,304.6375531000085,304.6375531000085,304.6375531000085,304.6375531000085,304.6375531000085,304.6375531000085,58,51,48,57,58,60,304.6375531000085,306.50535780005157,,,,,,,,,,,009,f,25,2023-05-13_18h14.16.751,RL,2022.2.5,60.24205258699676,
44,52,59,62,0,49,49,49,,,,,,,,,,,None,306.50535780005157,306.50535780005157,306.50535780005157,306.50535780005157,306.50535780005157,306.50535780005157,j,0.23736120015382767,306.7725229000207,306.7725229000207,306.7725229000207,306.7725229000207,306.7725229000207,306.7725229000207,307.0554452999495,308.47216419992037,308.47216419992037,308.47216419992037,308.47216419992037,308.47216419992037,308.47216419992037,308.45542029989883,308.47216419992037,308.47216419992037,308.47216419992037,308.47216419992037,308.47216419992037,308.47216419992037,308.47216419992037,310.16999539989047,310.16999539989047,310.16999539989047,310.16999539989047,310.16999539989047,310.16999539989047,310.16999539989047,59,52,44,62,62,60,310.16999539989047,312.0876533999108,,,,,,,,,,,009,f,25,2023-05-13_18h14.16.751,RL,2022.2.5,60.24205258699676,
49,47,59,49,0,50,50,50,,,,,,,,,,,None,312.0876533999108,312.0876533999108,312.0876533999108,312.0876533999108,312.0876533999108,312.0876533999108,j,0.2830837999936193,312.3915868999902,312.3915868999902,312.3915868999902,312.3915868999902,312.3915868999902,312.3915868999902,312.68820620002225,314.6206722999923,314.6206722999923,314.6206722999923,314.6206722999923,314.6206722999923,314.6206722999923,314.6206722999923,314.6206722999923,314.6206722999923,314.6206722999923,314.6206722999923,314.6206722999923,314.6206722999923,314.6206722999923,316.852450999897,316.852450999897,316.852450999897,316.852450999897,316.852450999897,316.852450999897,316.852450999897,59,47,49,49,49,60,316.852450999897,318.63650929997675,,,,,,,,,,,009,f,25,2023-05-13_18h14.16.751,RL,2022.2.5,60.24205258699676,
50,55,57,57,0,51,51,51,,,,,,,,,,,None,318.63650929997675,318.63650929997675,318.63650929997675,318.63650929997675,318.63650929997675,318.63650929997675,f,0.2781677001621574,318.9383783999365,318.9383783999365,318.9383783999365,318.9383783999365,318.9383783999365,318.9383783999365,319.23665079986677,321.0864430000074,321.0864430000074,321.0864430000074,321.0864430000074,321.0864430000074,321.0864430000074,321.0864430000074,321.0864430000074,321.0864430000074,321.0864430000074,321.0864430000074,321.0864430000074,321.0864430000074,321.0864430000074,323.23447160003707,323.23447160003707,323.23447160003707,323.23447160003707,323.23447160003707,323.23447160003707,323.23447160003707,57,55,50,57,57,60,323.23447160003707,325.2021029999014,,,,,,,,,,,009,f,25,2023-05-13_18h14.16.751,RL,2022.2.5,60.24205258699676,
53,47,67,49,0,52,52,52,,,,,,,,,,,None,325.2021029999014,325.2021029999014,325.2021029999014,325.2021029999014,325.2021029999014,325.2021029999014,f,0.352142000105232,325.5856323998887,325.5856323998887,325.5856323998887,325.5856323998887,325.5856323998887,325.5856323998887,325.86932049994357,327.8185749000404,327.8185749000404,327.8185749000404,327.8185749000404,327.8185749000404,327.8185749000404,327.8018240998499,327.8185749000404,327.8185749000404,327.8185749000404,327.8185749000404,327.8185749000404,327.8185749000404,327.8185749000404,330.0498110000044,330.0498110000044,330.0498110000044,330.0498110000044,330.0498110000044,330.0498110000044,330.0498110000044,67,47,53,49,67,60,330.0498110000044,332.0337900999002,,,,,,,,,,,009,f,25,2023-05-13_18h14.16.751,RL,2022.2.5,60.24205258699676,
53,55,69,61,0,53,53,53,,,,,,,,,,,None,332.0337900999002,332.0337900999002,332.0337900999002,332.0337900999002,332.0337900999002,332.0337900999002,f,0.27539229998365045,332.33524729986675,332.33524729986675,332.33524729986675,332.33524729986675,332.33524729986675,332.33524729986675,332.634371999884,334.3342724998947,334.3342724998947,334.3342724998947,334.3342724998947,334.3342724998947,334.3342724998947,334.3342724998947,334.3342724998947,334.3342724998947,334.3342724998947,334.3342724998947,334.3342724998947,334.3342724998947,334.3342724998947,336.3324883999303,336.3324883999303,336.3324883999303,336.3324883999303,336.3324883999303,336.3324883999303,336.3324883999303,69,55,53,61,69,60,336.3324883999303,338.1500013000332,,,,,,,,,,,009,f,25,2023-05-13_18h14.16.751,RL,2022.2.5,60.24205258699676,
48,56,71,51,0,54,54,54,,,,,,,,,,,None,338.1500013000332,338.1500013000332,338.1500013000332,338.1500013000332,338.1500013000332,338.1500013000332,f,0.31252200016751885,338.48551200004295,338.48551200004295,338.48551200004295,338.48551200004295,338.48551200004295,338.48551200004295,338.78332150005735,340.39968749997206,340.39968749997206,340.39968749997206,340.39968749997206,340.39968749997206,340.39968749997206,340.39968749997206,340.39968749997206,340.39968749997206,340.39968749997206,340.39968749997206,340.39968749997206,340.39968749997206,340.39968749997206,342.31494459998794,342.31494459998794,342.31494459998794,342.31494459998794,342.31494459998794,342.31494459998794,342.31494459998794,71,56,48,51,71,60,342.31494459998794,344.21535529987887,,,,,,,,,,,009,f,25,2023-05-13_18h14.16.751,RL,2022.2.5,60.24205258699676,
51,56,65,51,0,55,55,55,,,,,,,,,,,None,344.21535529987887,344.21535529987887,344.21535529987887,344.21535529987887,344.21535529987887,344.21535529987887,f,0.36498189996927977,344.6007155999541,344.6007155999541,344.6007155999541,344.6007155999541,344.6007155999541,344.6007155999541,344.8989440998994,346.0819403999485,346.0819403999485,346.0819403999485,346.0819403999485,346.0819403999485,346.0819403999485,346.0819403999485,346.0819403999485,346.0819403999485,346.0819403999485,346.0819403999485,346.0819403999485,346.0819403999485,346.0819403999485,347.56347829988226,347.56347829988226,347.56347829988226,347.56347829988226,347.56347829988226,347.56347829988226,347.56347829988226,65,56,51,51,65,60,347.56347829988226,349.2481700000353,,,,,,,,,,,009,f,25,2023-05-13_18h14.16.751,RL,2022.2.5,60.24205258699676,
53,60,64,51,0,56,56,56,,,,,,,,,,,None,349.2481700000353,349.2481700000353,349.2481700000353,349.2481700000353,349.2481700000353,349.2481700000353,f,0.3194298997987062,349.59866390004754,349.59866390004754,349.59866390004754,349.59866390004754,349.59866390004754,349.59866390004754,349.8813145000022,351.71458619995974,351.71458619995974,351.71458619995974,351.71458619995974,351.71458619995974,351.71458619995974,351.698147600051,351.71458619995974,351.71458619995974,351.71458619995974,351.71458619995974,351.71458619995974,351.71458619995974,351.71458619995974,353.8290368998423,353.8290368998423,353.8290368998423,353.8290368998423,353.8290368998423,353.8290368998423,353.8290368998423,64,60,53,51,64,60,353.8290368998423,355.5805311999284,,,,,,,,,,,009,f,25,2023-05-13_18h14.16.751,RL,2022.2.5,60.24205258699676,
54,56,67,43,0,57,57,57,,,,,,,,,,,None,355.5805311999284,355.5805311999284,355.5805311999284,355.5805311999284,355.5805311999284,355.5805311999284,f,0.4643866999540478,356.06416289997287,356.06416289997287,356.06416289997287,356.06416289997287,356.06416289997287,356.06416289997287,356.3473785999231,357.59329809993505,357.59329809993505,357.59329809993505,357.59329809993505,357.59329809993505,357.59329809993505,357.5466537999455,357.59329809993505,357.59329809993505,357.59329809993505,357.59329809993505,357.59329809993505,357.59329809993505,357.59329809993505,359.0781854998786,359.0781854998786,359.0781854998786,359.0781854998786,359.0781854998786,359.0781854998786,359.0781854998786,67,56,54,43,67,60,359.0781854998786,360.8124392000027,,,,,,,,,,,009,f,25,2023-05-13_18h14.16.751,RL,2022.2.5,60.24205258699676,
59,65,67,46,0,58,58,58,,,,,,,,,,,None,360.8124392000027,360.8124392000027,360.8124392000027,360.8124392000027,360.8124392000027,360.8124392000027,f,0.35747620020993054,361.19668229995295,361.19668229995295,361.19668229995295,361.19668229995295,361.19668229995295,361.19668229995295,361.49619339988567,363.17893549986184,363.17893549986184,363.17893549986184,363.17893549986184,363.17893549986184,363.17893549986184,363.17893549986184,363.17893549986184,363.17893549986184,363.17893549986184,363.17893549986184,363.17893549986184,363.17893549986184,363.17893549986184,365.1606321998406,365.1606321998406,365.1606321998406,365.1606321998406,365.1606321998406,365.1606321998406,365.1606321998406,67,65,59,46,67,60,365.1606321998406,366.6948188999668,,,,,,,,,,,009,f,25,2023-05-13_18h14.16.751,RL,2022.2.5,60.24205258699676,
53,55,67,36,0,59,59,59,,,,,,,,,,,None,366.6948188999668,366.6948188999668,366.6948188999668,366.6948188999668,366.6948188999668,366.6948188999668,f,0.39547200012020767,367.11337739997543,367.11337739997543,367.11337739997543,367.11337739997543,367.11337739997543,367.11337739997543,367.39548449986614,368.92784109991044,368.92784109991044,368.92784109991044,368.92784109991044,368.92784109991044,368.92784109991044,368.9114312999882,368.92784109991044,368.92784109991044,368.92784109991044,368.92784109991044,368.92784109991044,368.92784109991044,368.92784109991044,370.742724099895,370.742724099895,370.742724099895,370.742724099895,370.742724099895,370.742724099895,370.742724099895,67,55,53,36,67,60,370.742724099895,372.62693479983136,,,,,,,,,,,009,f,25,2023-05-13_18h14.16.751,RL,2022.2.5,60.24205258699676,
54,68,56,42,0,60,60,60,,,,,,,,,,,None,372.62693479983136,372.62693479983136,372.62693479983136,372.62693479983136,372.62693479983136,372.62693479983136,f,0.6637329000514001,373.3141810998786,373.3141810998786,373.3141810998786,373.3141810998786,373.3141810998786,373.3141810998786,373.61101519991644,375.2102343000006,375.2102343000006,375.2102343000006,375.2102343000006,375.2102343000006,375.2102343000006,375.2102343000006,375.2102343000006,375.2102343000006,375.2102343000006,375.2102343000006,375.2102343000006,375.2102343000006,375.2102343000006,377.1082462000195,377.1082462000195,377.1082462000195,377.1082462000195,377.1082462000195,377.1082462000195,377.1082462000195,56,68,54,42,56,60,377.1082462000195,378.7592243999243,,,,,,,,,,,009,f,25,2023-05-13_18h14.16.751,RL,2022.2.5,60.24205258699676,
56,54,58,42,0,61,61,61,,,,,,,,,,,None,378.7592243999243,378.7592243999243,378.7592243999243,378.7592243999243,378.7592243999243,378.7592243999243,j,0.858209399972111,379.64319039997645,379.64319039997645,379.64319039997645,379.64319039997645,379.64319039997645,379.64319039997645,379.9264900998678,381.4094348999206,381.4094348999206,381.4094348999206,381.4094348999206,381.4094348999206,381.4094348999206,381.39295229990967,381.4094348999206,381.4094348999206,381.4094348999206,381.4094348999206,381.4094348999206,381.4094348999206,381.4094348999206,383.17380129988305,383.17380129988305,383.17380129988305,383.17380129988305,383.17380129988305,383.17380129988305,383.17380129988305,58,54,56,42,42,60,383.17380129988305,384.89202479994856,,,,,,,,,,,009,f,25,2023-05-13_18h14.16.751,RL,2022.2.5,60.24205258699676,
54,50,58,44,0,62,62,62,,,,,,,,,,,None,384.89202479994856,384.89202479994856,384.89202479994856,384.89202479994856,384.89202479994856,384.89202479994856,f,0.35857190005481243,385.27645540004596,385.27645540004596,385.27645540004596,385.27645540004596,385.27645540004596,385.27645540004596,385.55884659988806,386.62489350000396,386.62489350000396,386.62489350000396,386.62489350000396,386.62489350000396,386.62489350000396,386.60833269986324,386.62489350000396,386.62489350000396,386.62489350000396,386.62489350000396,386.62489350000396,386.62489350000396,386.62489350000396,387.9728202999104,387.9728202999104,387.9728202999104,387.9728202999104,387.9728202999104,387.9728202999104,387.9728202999104,58,50,54,44,58,60,387.9728202999104,389.4907658000011,,,,,,,,,,,009,f,25,2023-05-13_18h14.16.751,RL,2022.2.5,60.24205258699676,
45,59,51,44,0,63,63,63,,,,,,,,,,,None,389.4907658000011,389.4907658000011,389.4907658000011,389.4907658000011,389.4907658000011,389.4907658000011,f,0.41238210001029074,389.92611949983984,389.92611949983984,389.92611949983984,389.92611949983984,389.92611949983984,389.92611949983984,390.2076731000561,391.8074395998847,391.8074395998847,391.8074395998847,391.8074395998847,391.8074395998847,391.8074395998847,391.790918600047,391.8074395998847,391.8074395998847,391.8074395998847,391.8074395998847,391.8074395998847,391.8074395998847,391.8074395998847,393.6891520000063,393.6891520000063,393.6891520000063,393.6891520000063,393.6891520000063,393.6891520000063,393.6891520000063,51,59,45,44,51,60,393.6891520000063,395.2731657999102,,,,,,,,,,,009,f,25,2023-05-13_18h14.16.751,RL,2022.2.5,60.24205258699676,
50,54,50,44,0,64,64,64,,,,,,,,,,,None,395.2731657999102,395.2731657999102,395.2731657999102,395.2731657999102,395.2731657999102,395.2731657999102,i,0.5027435999363661,395.80826919991523,395.80826919991523,395.80826919991523,395.80826919991523,395.80826919991523,395.80826919991523,396.090336299967,397.6733502999414,397.6733502999414,397.6733502999414,397.6733502999414,397.6733502999414,397.6733502999414,397.6568161000032,397.6733502999414,397.6733502999414,397.6733502999414,397.6733502999414,397.6733502999414,397.6733502999414,397.6733502999414,399.5379675999284,399.5379675999284,399.5379675999284,399.5379675999284,399.5379675999284,399.5379675999284,399.5379675999284,50,54,50,44,50,60,399.5379675999284,401.05544000002556,,,,,,,,,,,009,f,25,2023-05-13_18h14.16.751,RL,2022.2.5,60.24205258699676,
52,53,50,44,0,65,65,65,,,,,,,,,,,None,401.05544000002556,401.05544000002556,401.05544000002556,401.05544000002556,401.05544000002556,401.05544000002556,f,0.3465556998271495,401.42512240004726,401.42512240004726,401.42512240004726,401.42512240004726,401.42512240004726,401.42512240004726,401.7224868000485,403.089059199905,403.089059199905,403.089059199905,403.089059199905,403.089059199905,403.089059199905,403.089059199905,403.089059199905,403.089059199905,403.089059199905,403.089059199905,403.089059199905,403.089059199905,403.089059199905,404.7537084999494,404.7537084999494,404.7537084999494,404.7537084999494,404.7537084999494,404.7537084999494,404.7537084999494,50,53,52,44,50,60,404.7537084999494,406.5381831000559,,,,,,,,,,,009,f,25,2023-05-13_18h14.16.751,RL,2022.2.5,60.24205258699676,
42,55,65,49,0,66,66,66,,,,,,,,,,,None,406.5381831000559,406.5381831000559,406.5381831000559,406.5381831000559,406.5381831000559,406.5381831000559,j,0.24219639995135367,406.8061124999076,406.8061124999076,406.8061124999076,406.8061124999076,406.8061124999076,406.8061124999076,407.0884230998345,407.9213896000292,407.9213896000292,407.9213896000292,407.9213896000292,407.9213896000292,407.9213896000292,407.904779399978,407.9213896000292,407.9213896000292,407.9213896000292,407.9213896000292,407.9213896000292,407.9213896000292,407.9213896000292,409.0360822000075,409.0360822000075,409.0360822000075,409.0360822000075,409.0360822000075,409.0360822000075,409.0360822000075,65,55,42,49,49,60,409.0360822000075,410.5870628999546,,,,,,,,,,,009,f,25,2023-05-13_18h14.16.751,RL,2022.2.5,60.24205258699676,
46,55,53,54,0,67,67,67,,,,,,,,,,,None,410.5870628999546,410.5870628999546,410.5870628999546,410.5870628999546,410.5870628999546,410.5870628999546,i,0.28082050010561943,410.88770439988,410.88770439988,410.88770439988,410.88770439988,410.88770439988,410.88770439988,411.17093260004185,412.9035087998491,412.9035087998491,412.9035087998491,412.9035087998491,412.9035087998491,412.9035087998491,412.88700530002825,412.9035087998491,412.9035087998491,412.9035087998491,412.9035087998491,412.9035087998491,412.9035087998491,412.9035087998491,414.91838439996354,414.91838439996354,414.91838439996354,414.91838439996354,414.91838439996354,414.91838439996354,414.91838439996354,53,55,46,54,46,60,414.91838439996354,416.68608559994027,,,,,,,,,,,009,f,25,2023-05-13_18h14.16.751,RL,2022.2.5,60.24205258699676,
51,56,45,50,0,68,68,68,,,,,,,,,,,None,416.68608559994027,416.68608559994027,416.68608559994027,416.68608559994027,416.68608559994027,416.68608559994027,r,0.23183029983192682,416.93733559991233,416.93733559991233,416.93733559991233,416.93733559991233,416.93733559991233,416.93733559991233,417.23618739983067,418.71940129995346,418.71940129995346,418.71940129995346,418.71940129995346,418.71940129995346,418.71940129995346,418.71940129995346,418.71940129995346,418.71940129995346,418.71940129995346,418.71940129995346,418.71940129995346,418.71940129995346,418.71940129995346,420.5008810998406,420.5008810998406,420.5008810998406,420.5008810998406,420.5008810998406,420.5008810998406,420.5008810998406,45,56,51,50,56,60,420.5008810998406,422.2853272999637,,,,,,,,,,,009,f,25,2023-05-13_18h14.16.751,RL,2022.2.5,60.24205258699676,
40,51,48,54,0,69,69,69,,,,,,,,,,,None,422.2853272999637,422.2853272999637,422.2853272999637,422.2853272999637,422.2853272999637,422.2853272999637,f,0.5763276000507176,422.88555409992114,422.88555409992114,422.88555409992114,422.88555409992114,422.88555409992114,422.88555409992114,423.16887329984456,424.3519341999199,424.3519341999199,424.3519341999199,424.3519341999199,424.3519341999199,424.3519341999199,424.3355934000574,424.3519341999199,424.3519341999199,424.3519341999199,424.3519341999199,424.3519341999199,424.3519341999199,424.3519341999199,425.8167637998704,425.8167637998704,425.8167637998704,425.8167637998704,425.8167637998704,425.8167637998704,425.8167637998704,48,51,40,54,48,60,425.8167637998704,427.4679031998385,,,,,,,,,,,009,f,25,2023-05-13_18h14.16.751,RL,2022.2.5,60.24205258699676,
44,55,51,57,0,70,70,70,,,,,,,,,,,None,427.4679031998385,427.4679031998385,427.4679031998385,427.4679031998385,427.4679031998385,427.4679031998385,r,0.2677962000016123,427.7680398998782,427.7680398998782,427.7680398998782,427.7680398998782,427.7680398998782,427.7680398998782,428.0676641999744,429.41741340002045,429.41741340002045,429.41741340002045,429.41741340002045,429.41741340002045,429.41741340002045,429.41741340002045,429.41741340002045,429.41741340002045,429.41741340002045,429.41741340002045,429.41741340002045,429.41741340002045,429.41741340002045,431.0658503000159,431.0658503000159,431.0658503000159,431.0658503000159,431.0658503000159,431.0658503000159,431.0658503000159,51,55,44,57,55,60,431.0658503000159,432.8998374999501,,,,,,,,,,,009,f,25,2023-05-13_18h14.16.751,RL,2022.2.5,60.24205258699676,
52,61,51,53,0,71,71,71,,,,,,,,,,,None,432.8998374999501,432.8998374999501,432.8998374999501,432.8998374999501,432.8998374999501,432.8998374999501,i,0.25439280015416443,433.18486489984207,433.18486489984207,433.18486489984207,433.18486489984207,433.18486489984207,433.18486489984207,433.48364940006286,435.03342289989814,435.03342289989814,435.03342289989814,435.03342289989814,435.03342289989814,435.03342289989814,435.03342289989814,435.03342289989814,435.03342289989814,435.03342289989814,435.03342289989814,435.03342289989814,435.03342289989814,435.03342289989814,436.88174750003964,436.88174750003964,436.88174750003964,436.88174750003964,436.88174750003964,436.88174750003964,436.88174750003964,51,61,52,53,52,60,436.88174750003964,438.4657940999605,,,,,,,,,,,009,f,25,2023-05-13_18h14.16.751,RL,2022.2.5,60.24205258699676,
52,55,49,60,0,72,72,72,,,,,,,,,,,None,438.4657940999605,438.4657940999605,438.4657940999605,438.4657940999605,438.4657940999605,438.4657940999605,r,0.3171157999895513,438.81607209984213,438.81607209984213,438.81607209984213,438.81607209984213,438.81607209984213,438.81607209984213,439.0990919000469,440.2822151998989,440.2822151998989,440.2822151998989,440.2822151998989,440.2822151998989,440.2822151998989,440.2657240999397,440.2822151998989,440.2822151998989,440.2822151998989,440.2822151998989,440.2822151998989,440.2822151998989,440.2822151998989,441.7467241999693,441.7467241999693,441.7467241999693,441.7467241999693,441.7467241999693,441.7467241999693,441.7467241999693,49,55,52,60,55,60,441.7467241999693,443.61495329998434,,,,,,,,,,,009,f,25,2023-05-13_18h14.16.751,RL,2022.2.5,60.24205258699676,
54,48,49,60,0,73,73,73,,,,,,,,,,,None,443.61495329998434,443.61495329998434,443.61495329998434,443.61495329998434,443.61495329998434,443.61495329998434,r,0.2627707999199629,443.898418399971,443.898418399971,443.898418399971,443.898418399971,443.898418399971,443.898418399971,444.18172800005414,445.73143190005794,445.73143190005794,445.73143190005794,445.73143190005794,445.73143190005794,445.73143190005794,445.71511240000837,445.73143190005794,445.73143190005794,445.73143190005794,445.73143190005794,445.73143190005794,445.73143190005794,445.73143190005794,447.56293859984726,447.56293859984726,447.56293859984726,447.56293859984726,447.56293859984726,447.56293859984726,447.56293859984726,49,48,54,60,48,60,447.56293859984726,449.2306496000383,,,,,,,,,,,009,f,25,2023-05-13_18h14.16.751,RL,2022.2.5,60.24205258699676,
47,48,54,47,0,74,74,74,,,,,,,,,,,None,449.2306496000383,449.2306496000383,449.2306496000383,449.2306496000383,449.2306496000383,449.2306496000383,i,0.388576400000602,449.647330599837,449.647330599837,449.647330599837,449.647330599837,449.647330599837,449.647330599837,449.93083969992585,451.4805978999939,451.4805978999939,451.4805978999939,451.4805978999939,451.4805978999939,451.4805978999939,451.4638819999527,451.4805978999939,451.4805978999939,451.4805978999939,451.4805978999939,451.4805978999939,451.4805978999939,451.4805978999939,453.3116569998674,453.3116569998674,453.3116569998674,453.3116569998674,453.3116569998674,453.3116569998674,453.3116569998674,54,48,47,47,47,60,453.3116569998674,454.99539689999074,,,,,,,,,,,009,f,25,2023-05-13_18h14.16.751,RL,2022.2.5,60.24205258699676,
51,49,44,54,0,75,75,75,,,,,,,,,,,q,472.44291029986925,472.44291029986925,472.44291029986925,472.44291029986925,472.44291029986925,472.44291029986925,r,0.900207299971953,473.36016909987666,473.36016909987666,473.36016909987666,473.36016909987666,473.36016909987666,473.36016909987666,473.66001149988733,475.1265683998354,475.1265683998354,475.1265683998354,475.1265683998354,475.1265683998354,475.1265683998354,475.1265683998354,475.1265683998354,475.1265683998354,475.1265683998354,475.1265683998354,475.1265683998354,475.1265683998354,475.1265683998354,476.8909340999089,476.8909340999089,476.8909340999089,476.8909340999089,476.8909340999089,476.8909340999089,476.8909340999089,44,49,51,54,49,60,476.8909340999089,478.7752425998915,454.99539689999074,454.99539689999074,12.399004700127989,467.4281102998648,467.4281102998648,472.44291029986925,472.44291029986925,,,,009,f,25,2023-05-13_18h14.16.751,RL,2022.2.5,60.24205258699676,
47,62,50,61,0,76,76,76,,,,,,,,,,,None,478.7752425998915,478.7752425998915,478.7752425998915,478.7752425998915,478.7752425998915,478.7752425998915,f,0.2593652999494225,479.05909939995036,479.05909939995036,479.05909939995036,479.05909939995036,479.05909939995036,479.05909939995036,479.342270599911,480.50872769998387,480.50872769998387,480.50872769998387,480.50872769998387,480.50872769998387,480.50872769998387,480.4924104998354,480.50872769998387,480.50872769998387,480.50872769998387,480.50872769998387,480.50872769998387,480.50872769998387,480.50872769998387,481.95691409986466,481.95691409986466,481.95691409986466,481.95691409986466,481.95691409986466,481.95691409986466,481.95691409986466,50,62,47,61,50,60,481.95691409986466,483.47463609999977,,,,,,,,,,,009,f,25,2023-05-13_18h14.16.751,RL,2022.2.5,60.24205258699676,
50,53,49,62,0,77,77,77,,,,,,,,,,,None,483.47463609999977,483.47463609999977,483.47463609999977,483.47463609999977,483.47463609999977,483.47463609999977,i,0.3434119001030922,483.8421893999912,483.8421893999912,483.8421893999912,483.8421893999912,483.8421893999912,483.8421893999912,484.12482779985294,485.74101740005426,485.74101740005426,485.74101740005426,485.74101740005426,485.74101740005426,485.74101740005426,485.72462480003014,485.74101740005426,485.74101740005426,485.74101740005426,485.74101740005426,485.74101740005426,485.74101740005426,485.74101740005426,487.63896199990995,487.63896199990995,487.63896199990995,487.63896199990995,487.63896199990995,487.63896199990995,487.63896199990995,49,53,50,62,50,60,487.63896199990995,489.2734443999361,,,,,,,,,,,009,f,25,2023-05-13_18h14.16.751,RL,2022.2.5,60.24205258699676,
48,61,54,71,0,78,78,78,,,,,,,,,,,None,489.2734443999361,489.2734443999361,489.2734443999361,489.2734443999361,489.2734443999361,489.2734443999361,j,0.20244450005702674,489.5085843000561,489.5085843000561,489.5085843000561,489.5085843000561,489.5085843000561,489.5085843000561,489.79080539988354,491.2067183998879,491.2067183998879,491.2067183998879,491.2067183998879,491.2067183998879,491.2067183998879,491.1900452999398,491.2067183998879,491.2067183998879,491.2067183998879,491.2067183998879,491.2067183998879,491.2067183998879,491.2067183998879,492.90516189998016,492.90516189998016,492.90516189998016,492.90516189998016,492.90516189998016,492.90516189998016,492.90516189998016,54,61,48,71,71,60,492.90516189998016,494.43935130001046,,,,,,,,,,,009,f,25,2023-05-13_18h14.16.751,RL,2022.2.5,60.24205258699676,
58,53,51,68,0,79,79,79,,,,,,,,,,,None,494.43935130001046,494.43935130001046,494.43935130001046,494.43935130001046,494.43935130001046,494.43935130001046,j,0.3341911998577416,494.7896214998327,494.7896214998327,494.7896214998327,494.7896214998327,494.7896214998327,494.7896214998327,495.08923280006275,496.2893680999987,496.2893680999987,496.2893680999987,496.2893680999987,496.2893680999987,496.2893680999987,496.2893680999987,496.2893680999987,496.2893680999987,496.2893680999987,496.2893680999987,496.2893680999987,496.2893680999987,496.2893680999987,497.7875365000218,497.7875365000218,497.7875365000218,497.7875365000218,497.7875365000218,497.7875365000218,497.7875365000218,51,53,58,68,68,60,497.7875365000218,499.65565139986575,,,,,,,,,,,009,f,25,2023-05-13_18h14.16.751,RL,2022.2.5,60.24205258699676,
63,51,61,65,0,80,80,80,,,,,,,,,,,None,499.65565139986575,499.65565139986575,499.65565139986575,499.65565139986575,499.65565139986575,499.65565139986575,j,0.26248919987119734,499.93998409993947,499.93998409993947,499.93998409993947,499.93998409993947,499.93998409993947,499.93998409993947,500.2385173998773,501.63885940006,501.63885940006,501.63885940006,501.63885940006,501.63885940006,501.63885940006,501.63885940006,501.63885940006,501.63885940006,501.63885940006,501.63885940006,501.63885940006,501.63885940006,501.63885940006,503.3361650998704,503.3361650998704,503.3361650998704,503.3361650998704,503.3361650998704,503.3361650998704,503.3361650998704,61,51,63,65,65,60,503.3361650998704,505.05437120003626,,,,,,,,,,,009,f,25,2023-05-13_18h14.16.751,RL,2022.2.5,60.24205258699676,
49,56,61,56,0,81,81,81,,,,,,,,,,,None,505.05437120003626,505.05437120003626,505.05437120003626,505.05437120003626,505.05437120003626,505.05437120003626,j,0.2338960999622941,505.30443839984946,505.30443839984946,505.30443839984946,505.30443839984946,505.30443839984946,505.30443839984946,505.6052412998397,506.8877180998679,506.8877180998679,506.8877180998679,506.8877180998679,506.8877180998679,506.8877180998679,506.8877180998679,506.8877180998679,506.8877180998679,506.8877180998679,506.8877180998679,506.8877180998679,506.8877180998679,506.8877180998679,508.4686267999932,508.4686267999932,508.4686267999932,508.4686267999932,508.4686267999932,508.4686267999932,508.4686267999932,61,56,49,56,56,60,508.4686267999932,510.16997549985535,,,,,,,,,,,009,f,25,2023-05-13_18h14.16.751,RL,2022.2.5,60.24205258699676,
60,55,57,49,0,82,82,82,,,,,,,,,,,None,510.16997549985535,510.16997549985535,510.16997549985535,510.16997549985535,510.16997549985535,510.16997549985535,f,0.2766309999860823,510.4722853000276,510.4722853000276,510.4722853000276,510.4722853000276,510.4722853000276,510.4722853000276,510.7534435999114,511.8864382999018,511.8864382999018,511.8864382999018,511.8864382999018,511.8864382999018,511.8864382999018,511.8702197999228,511.8864382999018,511.8864382999018,511.8864382999018,511.8864382999018,511.8864382999018,511.8864382999018,511.8864382999018,513.3011958999559,513.3011958999559,513.3011958999559,513.3011958999559,513.3011958999559,513.3011958999559,513.3011958999559,57,55,60,49,57,60,513.3011958999559,515.0355718999635,,,,,,,,,,,009,f,25,2023-05-13_18h14.16.751,RL,2022.2.5,60.24205258699676,
58,56,64,52,0,83,83,83,,,,,,,,,,,None,515.0355718999635,515.0355718999635,515.0355718999635,515.0355718999635,515.0355718999635,515.0355718999635,j,0.2113165999762714,515.2706279999111,515.2706279999111,515.2706279999111,515.2706279999111,515.2706279999111,515.2706279999111,515.5524999999907,516.7355342998635,516.7355342998635,516.7355342998635,516.7355342998635,516.7355342998635,516.7355342998635,516.7187204000074,516.7355342998635,516.7355342998635,516.7355342998635,516.7355342998635,516.7355342998635,516.7355342998635,516.7355342998635,518.1841390000191,518.1841390000191,518.1841390000191,518.1841390000191,518.1841390000191,518.1841390000191,518.1841390000191,64,56,58,52,52,60,518.1841390000191,519.9351369000506,,,,,,,,,,,009,f,25,2023-05-13_18h14.16.751,RL,2022.2.5,60.24205258699676,
45,44,56,56,0,84,84,84,,,,,,,,,,,None,519.9351369000506,519.9351369000506,519.9351369000506,519.9351369000506,519.9351369000506,519.9351369000506,f,0.3201431999914348,520.2864802998956,520.2864802998956,520.2864802998956,520.2864802998956,520.2864802998956,520.2864802998956,520.5854666999076,521.5181009999942,521.5181009999942,521.5181009999942,521.5181009999942,521.5181009999942,521.5181009999942,521.5181009999942,521.5181009999942,521.5181009999942,521.5181009999942,521.5181009999942,521.5181009999942,521.5181009999942,521.5181009999942,522.7491442998871,522.7491442998871,522.7491442998871,522.7491442998871,522.7491442998871,522.7491442998871,522.7491442998871,56,44,45,56,56,60,522.7491442998871,524.6339861999732,,,,,,,,,,,009,f,25,2023-05-13_18h14.16.751,RL,2022.2.5,60.24205258699676,
46,50,59,57,0,85,85,85,,,,,,,,,,,None,524.6339861999732,524.6339861999732,524.6339861999732,524.6339861999732,524.6339861999732,524.6339861999732,f,0.562142999842763,525.2178525000345,525.2178525000345,525.2178525000345,525.2178525000345,525.2178525000345,525.2178525000345,525.500801499933,526.8169644000009,526.8169644000009,526.8169644000009,526.8169644000009,526.8169644000009,526.8169644000009,526.8003960999195,526.8169644000009,526.8169644000009,526.8169644000009,526.8169644000009,526.8169644000009,526.8169644000009,526.8169644000009,528.4156730999239,528.4156730999239,528.4156730999239,528.4156730999239,528.4156730999239,528.4156730999239,528.4156730999239,59,50,46,57,59,60,528.4156730999239,530.2161663000006,,,,,,,,,,,009,f,25,2023-05-13_18h14.16.751,RL,2022.2.5,60.24205258699676,
41,36,62,48,0,86,86,86,,,,,,,,,,,None,530.2161663000006,530.2161663000006,530.2161663000006,530.2161663000006,530.2161663000006,530.2161663000006,f,0.24994829995557666,530.4867648000363,530.4867648000363,530.4867648000363,530.4867648000363,530.4867648000363,530.4867648000363,530.7667549999896,531.8331466000527,531.8331466000527,531.8331466000527,531.8331466000527,531.8331466000527,531.8331466000527,531.7997357000131,531.8331466000527,531.8331466000527,531.8331466000527,531.8331466000527,531.8331466000527,531.8331466000527,531.8331466000527,533.1648309999146,533.1648309999146,533.1648309999146,533.1648309999146,533.1648309999146,533.1648309999146,533.1648309999146,62,36,41,48,62,60,533.1648309999146,534.7486902000383,,,,,,,,,,,009,f,25,2023-05-13_18h14.16.751,RL,2022.2.5,60.24205258699676,
48,44,72,55,0,87,87,87,,,,,,,,,,,None,534.7486902000383,534.7486902000383,534.7486902000383,534.7486902000383,534.7486902000383,534.7486902000383,f,0.28420859994366765,535.0659988999832,535.0659988999832,535.0659988999832,535.0659988999832,535.0659988999832,535.0659988999832,535.3494951999746,536.8487525000237,536.8487525000237,536.8487525000237,536.8487525000237,536.8487525000237,536.8487525000237,536.8321272998583,536.8487525000237,536.8487525000237,536.8487525000237,536.8487525000237,536.8487525000237,536.8487525000237,536.8487525000237,538.6307936999947,538.6307936999947,538.6307936999947,538.6307936999947,538.6307936999947,538.6307936999947,538.6307936999947,72,44,48,55,72,60,538.6307936999947,540.5810680999421,,,,,,,,,,,009,f,25,2023-05-13_18h14.16.751,RL,2022.2.5,60.24205258699676,
36,33,64,51,0,88,88,88,,,,,,,,,,,None,540.5810680999421,540.5810680999421,540.5810680999421,540.5810680999421,540.5810680999421,540.5810680999421,f,0.2439495997969061,540.8492354999762,540.8492354999762,540.8492354999762,540.8492354999762,540.8492354999762,540.8492354999762,541.131810199935,543.1479722999502,543.1479722999502,543.1479722999502,543.1479722999502,543.1479722999502,543.1479722999502,543.1310778998304,543.1479722999502,543.1479722999502,543.1479722999502,543.1479722999502,543.1479722999502,543.1479722999502,543.1479722999502,545.4460215000436,545.4460215000436,545.4460215000436,545.4460215000436,545.4460215000436,545.4460215000436,545.4460215000436,64,33,36,51,64,60,545.4460215000436,547.24727599998,,,,,,,,,,,009,f,25,2023-05-13_18h14.16.751,RL,2022.2.5,60.24205258699676,
43,36,65,59,0,89,89,89,,,,,,,,,,,None,547.24727599998,547.24727599998,547.24727599998,547.24727599998,547.24727599998,547.24727599998,f,0.3057699000928551,547.5823005000129,547.5823005000129,547.5823005000129,547.5823005000129,547.5823005000129,547.5823005000129,547.8634358998388,548.7967125000432,548.7967125000432,548.7967125000432,548.7967125000432,548.7967125000432,548.7967125000432,548.7803931999952,548.7967125000432,548.7967125000432,548.7967125000432,548.7967125000432,548.7967125000432,548.7967125000432,548.7967125000432,550.0117039999459,550.0117039999459,550.0117039999459,550.0117039999459,550.0117039999459,550.0117039999459,550.0117039999459,65,36,43,59,65,60,550.0117039999459,551.9290904998779,,,,,,,,,,,009,f,25,2023-05-13_18h14.16.751,RL,2022.2.5,60.24205258699676,
46,43,61,54,0,90,90,90,,,,,,,,,,,None,551.9290904998779,551.9290904998779,551.9290904998779,551.9290904998779,551.9290904998779,551.9290904998779,f,0.28834339999593794,552.246408399893,552.246408399893,552.246408399893,552.246408399893,552.246408399893,552.246408399893,552.5462525999174,553.6126151999924,553.6126151999924,553.6126151999924,553.6126151999924,553.6126151999924,553.6126151999924,553.6126151999924,553.6126151999924,553.6126151999924,553.6126151999924,553.6126151999924,553.6126151999924,553.6126151999924,553.6126151999924,554.9771509999409,554.9771509999409,554.9771509999409,554.9771509999409,554.9771509999409,554.9771509999409,554.9771509999409,61,43,46,54,61,60,554.9771509999409,556.7951819999143,,,,,,,,,,,009,f,25,2023-05-13_18h14.16.751,RL,2022.2.5,60.24205258699676,
47,37,60,53,0,91,91,91,,,,,,,,,,,None,556.7951819999143,556.7951819999143,556.7951819999143,556.7951819999143,556.7951819999143,556.7951819999143,f,0.26526249991729856,557.0788644000422,557.0788644000422,557.0788644000422,557.0788644000422,557.0788644000422,557.0788644000422,557.3618900999427,558.4116235000547,558.4116235000547,558.4116235000547,558.4116235000547,558.4116235000547,558.4116235000547,558.3950577999931,558.4116235000547,558.4116235000547,558.4116235000547,558.4116235000547,558.4116235000547,558.4116235000547,558.4116235000547,559.7431474998593,559.7431474998593,559.7431474998593,559.7431474998593,559.7431474998593,559.7431474998593,559.7431474998593,60,37,47,53,60,60,559.7431474998593,561.2607017999981,,,,,,,,,,,009,f,25,2023-05-13_18h14.16.751,RL,2022.2.5,60.24205258699676,
47,41,68,44,0,92,92,92,,,,,,,,,,,None,561.2607017999981,561.2607017999981,561.2607017999981,561.2607017999981,561.2607017999981,561.2607017999981,j,0.24633220001123846,561.5279200000223,561.5279200000223,561.5279200000223,561.5279200000223,561.5279200000223,561.5279200000223,561.82782269991,563.2941796998493,563.2941796998493,563.2941796998493,563.2941796998493,563.2941796998493,563.2941796998493,563.2941796998493,563.2941796998493,563.2941796998493,563.2941796998493,563.2941796998493,563.2941796998493,563.2941796998493,563.2941796998493,565.0588586998638,565.0588586998638,565.0588586998638,565.0588586998638,565.0588586998638,565.0588586998638,565.0588586998638,68,41,47,44,44,60,565.0588586998638,566.5939330998808,,,,,,,,,,,009,f,25,2023-05-13_18h14.16.751,RL,2022.2.5,60.24205258699676,
51,30,68,39,0,93,93,93,,,,,,,,,,,None,566.5939330998808,566.5939330998808,566.5939330998808,566.5939330998808,566.5939330998808,566.5939330998808,f,0.2886313998606056,566.9104778999463,566.9104778999463,566.9104778999463,566.9104778999463,566.9104778999463,566.9104778999463,567.1937043999787,569.0097846998833,569.0097846998833,569.0097846998833,569.0097846998833,569.0097846998833,569.0097846998833,568.9938219999894,569.0097846998833,569.0097846998833,569.0097846998833,569.0097846998833,569.0097846998833,569.0097846998833,569.0097846998833,571.108088699868,571.108088699868,571.108088699868,571.108088699868,571.108088699868,571.108088699868,571.108088699868,68,30,51,39,68,60,571.108088699868,573.0753213998396,,,,,,,,,,,009,f,25,2023-05-13_18h14.16.751,RL,2022.2.5,60.24205258699676,
37,37,71,45,0,94,94,94,,,,,,,,,,,None,573.0753213998396,573.0753213998396,573.0753213998396,573.0753213998396,573.0753213998396,573.0753213998396,f,0.3155104999896139,573.4096444000024,573.4096444000024,573.4096444000024,573.4096444000024,573.4096444000024,573.4096444000024,573.7090816998389,575.2255684998818,575.2255684998818,575.2255684998818,575.2255684998818,575.2255684998818,575.2255684998818,575.2255684998818,575.2255684998818,575.2255684998818,575.2255684998818,575.2255684998818,575.2255684998818,575.2255684998818,575.2255684998818,577.0399245000444,577.0399245000444,577.0399245000444,577.0399245000444,577.0399245000444,577.0399245000444,577.0399245000444,71,37,37,45,71,60,577.0399245000444,579.0246069000568,,,,,,,,,,,009,f,25,2023-05-13_18h14.16.751,RL,2022.2.5,60.24205258699676,
43,31,69,43,0,95,95,95,,,,,,,,,,,None,579.0246069000568,579.0246069000568,579.0246069000568,579.0246069000568,579.0246069000568,579.0246069000568,f,0.2688892998266965,579.3260543998331,579.3260543998331,579.3260543998331,579.3260543998331,579.3260543998331,579.3260543998331,579.6251087998971,580.8244970999658,580.8244970999658,580.8244970999658,580.8244970999658,580.8244970999658,580.8244970999658,580.8244970999658,580.8244970999658,580.8244970999658,580.8244970999658,580.8244970999658,580.8244970999658,580.8244970999658,580.8244970999658,582.3223484999035,582.3223484999035,582.3223484999035,582.3223484999035,582.3223484999035,582.3223484999035,582.3223484999035,69,31,43,43,69,60,582.3223484999035,583.8902461000253,,,,,,,,,,,009,f,25,2023-05-13_18h14.16.751,RL,2022.2.5,60.24205258699676,
37,35,72,42,0,96,96,96,,,,,,,,,,,None,583.8902461000253,583.8902461000253,583.8902461000253,583.8902461000253,583.8902461000253,583.8902461000253,f,0.38901479984633625,584.3074327998329,584.3074327998329,584.3074327998329,584.3074327998329,584.3074327998329,584.3074327998329,584.590562599944,586.073490699986,586.073490699986,586.073490699986,586.073490699986,586.073490699986,586.073490699986,586.0570560998749,586.073490699986,586.073490699986,586.073490699986,586.073490699986,586.073490699986,586.073490699986,586.073490699986,587.8381131999195,587.8381131999195,587.8381131999195,587.8381131999195,587.8381131999195,587.8381131999195,587.8381131999195,72,35,37,42,72,60,587.8381131999195,589.5397932999767,,,,,,,,,,,009,f,25,2023-05-13_18h14.16.751,RL,2022.2.5,60.24205258699676,
32,28,73,40,0,97,97,97,,,,,,,,,,,None,589.5397932999767,589.5397932999767,589.5397932999767,589.5397932999767,589.5397932999767,589.5397932999767,f,0.24635699996724725,589.8063503999729,589.8063503999729,589.8063503999729,589.8063503999729,589.8063503999729,589.8063503999729,590.1066513999831,591.1560843000188,591.1560843000188,591.1560843000188,591.1560843000188,591.1560843000188,591.1560843000188,591.1560843000188,591.1560843000188,591.1560843000188,591.1560843000188,591.1560843000188,591.1560843000188,591.1560843000188,591.1560843000188,592.5040412999224,592.5040412999224,592.5040412999224,592.5040412999224,592.5040412999224,592.5040412999224,592.5040412999224,73,28,32,40,73,60,592.5040412999224,594.0384239999112,,,,,,,,,,,009,f,25,2023-05-13_18h14.16.751,RL,2022.2.5,60.24205258699676,
42,39,71,46,0,98,98,98,,,,,,,,,,,None,594.0384239999112,594.0384239999112,594.0384239999112,594.0384239999112,594.0384239999112,594.0384239999112,f,0.2213181999977678,594.2898871998768,594.2898871998768,594.2898871998768,594.2898871998768,594.2898871998768,594.2898871998768,594.5889907998499,595.6725169999991,595.6725169999991,595.6725169999991,595.6725169999991,595.6725169999991,595.6725169999991,595.6725169999991,595.6725169999991,595.6725169999991,595.6725169999991,595.6725169999991,595.6725169999991,595.6725169999991,595.6725169999991,597.0534838000312,597.0534838000312,597.0534838000312,597.0534838000312,597.0534838000312,597.0534838000312,597.0534838000312,71,39,42,46,71,60,597.0534838000312,598.8208631998859,,,,,,,,,,,009,f,25,2023-05-13_18h14.16.751,RL,2022.2.5,60.24205258699676,
54,33,73,47,0,99,99,99,,,,,,,,,,,None,598.8208631998859,598.8208631998859,598.8208631998859,598.8208631998859,598.8208631998859,598.8208631998859,f,0.2981744999997318,599.1383648999035,599.1383648999035,599.1383648999035,599.1383648999035,599.1383648999035,599.1383648999035,599.4216552998405,600.4709341998678,600.4709341998678,600.4709341998678,600.4709341998678,600.4709341998678,600.4709341998678,600.4546101999003,600.4709341998678,600.4709341998678,600.4709341998678,600.4709341998678,600.4709341998678,600.4709341998678,600.4709341998678,601.802430999931,601.802430999931,601.802430999931,601.802430999931,601.802430999931,601.802430999931,601.802430999931,73,33,54,47,73,60,601.802430999931,603.7538395000156,,,,,,,,,,,009,f,25,2023-05-13_18h14.16.751,RL,2022.2.5,60.24205258699676,
45,43,66,49,0,100,100,100,,,,,,,,,,,None,603.7538395000156,603.7538395000156,603.7538395000156,603.7538395000156,603.7538395000156,603.7538395000156,f,0.26482259994372725,604.0389824998565,604.0389824998565,604.0389824998565,604.0389824998565,604.0389824998565,604.0389824998565,604.3205128998961,606.0533566998783,606.0533566998783,606.0533566998783,606.0533566998783,606.0533566998783,606.0533566998783,606.0367463000584,606.0533566998783,606.0533566998783,606.0533566998783,606.0533566998783,606.0533566998783,606.0533566998783,606.0533566998783,608.0679909000173,608.0679909000173,608.0679909000173,608.0679909000173,608.0679909000173,608.0679909000173,608.0679909000173,66,43,45,49,66,60,608.0679909000173,609.7688823000062,,,,,,,,,,,009,f,25,2023-05-13_18h14.16.751,RL,2022.2.5,60.24205258699676,
40,36,61,50,0,101,101,101,,,,,,,,,,,None,609.7688823000062,609.7688823000062,609.7688823000062,609.7688823000062,609.7688823000062,609.7688823000062,f,0.21616630000062287,610.0030632000417,610.0030632000417,610.0030632000417,610.0030632000417,610.0030632000417,610.0030632000417,610.2862551999278,611.7188108998816,611.7188108998816,611.7188108998816,611.7188108998816,611.7188108998816,611.7188108998816,611.7024616999552,611.7188108998816,611.7188108998816,611.7188108998816,611.7188108998816,611.7188108998816,611.7188108998816,611.7188108998816,613.4342181999236,613.4342181999236,613.4342181999236,613.4342181999236,613.4342181999236,613.4342181999236,613.4342181999236,61,36,40,50,61,60,613.4342181999236,614.951390999835,,,,,,,,,,,009,f,25,2023-05-13_18h14.16.751,RL,2022.2.5,60.24205258699676,
35,34,65,55,0,102,102,102,,,,,,,,,,,None,614.951390999835,614.951390999835,614.951390999835,614.951390999835,614.951390999835,614.951390999835,i,0.3224452999420464,615.30346309999,615.30346309999,615.30346309999,615.30346309999,615.30346309999,615.30346309999,615.5855211999733,616.802045499906,616.802045499906,616.802045499906,616.802045499906,616.802045499906,616.802045499906,616.7853125999682,616.802045499906,616.802045499906,616.802045499906,616.802045499906,616.802045499906,616.802045499906,616.802045499906,618.2995843999088,618.2995843999088,618.2995843999088,618.2995843999088,618.2995843999088,618.2995843999088,618.2995843999088,65,34,35,55,35,60,618.2995843999088,619.900959999999,,,,,,,,,,,009,f,25,2023-05-13_18h14.16.751,RL,2022.2.5,60.24205258699676,
39,37,61,52,0,103,103,103,,,,,,,,,,,None,619.900959999999,619.900959999999,619.900959999999,619.900959999999,619.900959999999,619.900959999999,f,0.27514589997008443,620.2027663998306,620.2027663998306,620.2027663998306,620.2027663998306,620.2027663998306,620.2027663998306,620.4850170998834,622.4838902000338,622.4838902000338,622.4838902000338,622.4838902000338,622.4838902000338,622.4838902000338,622.4677068998571,622.4838902000338,622.4838902000338,622.4838902000338,622.4838902000338,622.4838902000338,622.4838902000338,622.4838902000338,624.7652273999993,624.7652273999993,624.7652273999993,624.7652273999993,624.7652273999993,624.7652273999993,624.7652273999993,61,37,39,52,61,60,624.7652273999993,626.4166762998793,,,,,,,,,,,009,f,25,2023-05-13_18h14.16.751,RL,2022.2.5,60.24205258699676,
44,41,50,44,0,104,104,104,,,,,,,,,,,None,626.4166762998793,626.4166762998793,626.4166762998793,626.4166762998793,626.4166762998793,626.4166762998793,f,0.23566049989312887,626.6844531998504,626.6844531998504,626.6844531998504,626.6844531998504,626.6844531998504,626.6844531998504,626.9669573998544,628.933296199888,628.933296199888,628.933296199888,628.933296199888,628.933296199888,628.933296199888,628.9166077999398,628.933296199888,628.933296199888,628.933296199888,628.933296199888,628.933296199888,628.933296199888,628.933296199888,631.1813457999378,631.1813457999378,631.1813457999378,631.1813457999378,631.1813457999378,631.1813457999378,631.1813457999378,50,41,44,44,50,60,631.1813457999378,633.0821537999436,,,,,,,,,,,009,f,25,2023-05-13_18h14.16.751,RL,2022.2.5,60.24205258699676,
43,42,54,51,0,105,105,105,,,,,,,,,,,None,633.0821537999436,633.0821537999436,633.0821537999436,633.0821537999436,633.0821537999436,633.0821537999436,j,0.28704020008444786,633.4019166999497,633.4019166999497,633.4019166999497,633.4019166999497,633.4019166999497,633.4019166999497,633.6819672000129,635.0483698998578,635.0483698998578,635.0483698998578,635.0483698998578,635.0483698998578,635.0483698998578,635.0316699999385,635.0483698998578,635.0483698998578,635.0483698998578,635.0483698998578,635.0483698998578,635.0483698998578,635.0483698998578,636.6964912000112,636.6964912000112,636.6964912000112,636.6964912000112,636.6964912000112,636.6964912000112,636.6964912000112,54,42,43,51,51,60,636.6964912000112,638.3811900999863,,,,,,,,,,,009,f,25,2023-05-13_18h14.16.751,RL,2022.2.5,60.24205258699676,
51,35,44,53,0,106,106,106,,,,,,,,,,,None,638.3811900999863,638.3811900999863,638.3811900999863,638.3811900999863,638.3811900999863,638.3811900999863,r,0.24555759993381798,638.6522939000279,638.6522939000279,638.6522939000279,638.6522939000279,638.6522939000279,638.6522939000279,638.947806000011,640.4141390998848,640.4141390998848,640.4141390998848,640.4141390998848,640.4141390998848,640.4141390998848,640.4141390998848,640.4141390998848,640.4141390998848,640.4141390998848,640.4141390998848,640.4141390998848,640.4141390998848,640.4141390998848,642.1789744000416,642.1789744000416,642.1789744000416,642.1789744000416,642.1789744000416,642.1789744000416,642.1789744000416,44,35,51,53,35,60,642.1789744000416,643.7634622000623,,,,,,,,,,,009,f,25,2023-05-13_18h14.16.751,RL,2022.2.5,60.24205258699676,
44,30,51,60,0,107,107,107,,,,,,,,,,,None,643.7634622000623,643.7634622000623,643.7634622000623,643.7634622000623,643.7634622000623,643.7634622000623,f,0.3350390000268817,644.1311302999966,644.1311302999966,644.1311302999966,644.1311302999966,644.1311302999966,644.1311302999966,644.4135300999042,646.0796916999388,646.0796916999388,646.0796916999388,646.0796916999388,646.0796916999388,646.0796916999388,646.0631110998802,646.0796916999388,646.0796916999388,646.0796916999388,646.0796916999388,646.0796916999388,646.0796916999388,646.0796916999388,648.028193899896,648.028193899896,648.028193899896,648.028193899896,648.028193899896,648.028193899896,648.028193899896,51,30,44,60,51,60,648.028193899896,649.7123863999732,,,,,,,,,,,009,f,25,2023-05-13_18h14.16.751,RL,2022.2.5,60.24205258699676,
40,29,60,48,0,108,108,108,,,,,,,,,,,None,649.7123863999732,649.7123863999732,649.7123863999732,649.7123863999732,649.7123863999732,649.7123863999732,f,0.26007530000060797,649.9973203998525,649.9973203998525,649.9973203998525,649.9973203998525,649.9973203998525,649.9973203998525,650.2958539000247,651.5957343999762,651.5957343999762,651.5957343999762,651.5957343999762,651.5957343999762,651.5957343999762,651.5957343999762,651.5957343999762,651.5957343999762,651.5957343999762,651.5957343999762,651.5957343999762,651.5957343999762,651.5957343999762,653.193789599929,653.193789599929,653.193789599929,653.193789599929,653.193789599929,653.193789599929,653.193789599929,60,29,40,48,60,60,653.193789599929,655.0283677000552,,,,,,,,,,,009,f,25,2023-05-13_18h14.16.751,RL,2022.2.5,60.24205258699676,
51,42,51,55,0,109,109,109,,,,,,,,,,,None,655.0283677000552,655.0283677000552,655.0283677000552,655.0283677000552,655.0283677000552,655.0283677000552,f,0.26285280007869005,655.3131829998456,655.3131829998456,655.3131829998456,655.3131829998456,655.3131829998456,655.3131829998456,655.5954607999884,657.3778438998852,657.3778438998852,657.3778438998852,657.3778438998852,657.3778438998852,657.3778438998852,657.3613126999699,657.3778438998852,657.3778438998852,657.3778438998852,657.3778438998852,657.3778438998852,657.3778438998852,657.3778438998852,659.4427393998485,659.4427393998485,659.4427393998485,659.4427393998485,659.4427393998485,659.4427393998485,659.4427393998485,51,42,51,55,51,60,659.4427393998485,661.110643299995,,,,,,,,,,,009,f,25,2023-05-13_18h14.16.751,RL,2022.2.5,60.24205258699676,
45,36,55,56,0,110,110,110,,,,,,,,,,,None,661.110643299995,661.110643299995,661.110643299995,661.110643299995,661.110643299995,661.110643299995,f,0.319880299968645,661.4645076000597,661.4645076000597,661.4645076000597,661.4645076000597,661.4645076000597,661.4645076000597,661.7436003999319,663.1435098999646,663.1435098999646,663.1435098999646,663.1435098999646,663.1435098999646,663.1435098999646,663.1270900999662,663.1435098999646,663.1435098999646,663.1435098999646,663.1435098999646,663.1435098999646,663.1435098999646,663.1435098999646,664.8252409999259,664.8252409999259,664.8252409999259,664.8252409999259,664.8252409999259,664.8252409999259,664.8252409999259,55,36,45,56,55,60,664.8252409999259,666.7257093999069,,,,,,,,,,,009,f,25,2023-05-13_18h14.16.751,RL,2022.2.5,60.24205258699676,
45,35,48,47,0,111,111,111,,,,,,,,,,,None,666.7257093999069,666.7257093999069,666.7257093999069,666.7257093999069,666.7257093999069,666.7257093999069,f,0.24428749992512167,666.9946267998312,666.9946267998312,666.9946267998312,666.9946267998312,666.9946267998312,666.9946267998312,667.292785699945,668.9258522999007,668.9258522999007,668.9258522999007,668.9258522999007,668.9258522999007,668.9258522999007,668.9258522999007,668.9258522999007,668.9258522999007,668.9258522999007,668.9258522999007,668.9258522999007,668.9258522999007,668.9258522999007,670.8574293998536,670.8574293998536,670.8574293998536,670.8574293998536,670.8574293998536,670.8574293998536,670.8574293998536,48,35,45,47,48,60,670.8574293998536,672.6752052998636,,,,,,,,,,,009,f,25,2023-05-13_18h14.16.751,RL,2022.2.5,60.24205258699676,
42,33,57,50,0,112,112,112,,,,,,,,,,,None,672.6752052998636,672.6752052998636,672.6752052998636,672.6752052998636,672.6752052998636,672.6752052998636,j,0.28778350003995,672.9927493999712,672.9927493999712,672.9927493999712,672.9927493999712,672.9927493999712,672.9927493999712,673.2917859998997,675.2417472000234,675.2417472000234,675.2417472000234,675.2417472000234,675.2417472000234,675.2417472000234,675.2417472000234,675.2417472000234,675.2417472000234,675.2417472000234,675.2417472000234,675.2417472000234,675.2417472000234,675.2417472000234,677.4899177998304,677.4899177998304,677.4899177998304,677.4899177998304,677.4899177998304,677.4899177998304,677.4899177998304,57,33,42,50,50,60,677.4899177998304,679.4406002999749,,,,,,,,,,,009,f,25,2023-05-13_18h14.16.751,RL,2022.2.5,60.24205258699676,
44,44,58,43,0,113,113,113,,,,,,,,,,,None,679.4406002999749,679.4406002999749,679.4406002999749,679.4406002999749,679.4406002999749,679.4406002999749,f,0.24327099998481572,679.7108672000468,679.7108672000468,679.7108672000468,679.7108672000468,679.7108672000468,679.7108672000468,679.9910513998475,681.5402950998396,681.5402950998396,681.5402950998396,681.5402950998396,681.5402950998396,681.5402950998396,681.5071693998761,681.5402950998396,681.5402950998396,681.5402950998396,681.5402950998396,681.5402950998396,681.5402950998396,681.5402950998396,683.3554612998851,683.3554612998851,683.3554612998851,683.3554612998851,683.3554612998851,683.3554612998851,683.3554612998851,58,44,44,43,58,60,683.3554612998851,685.0898204999976,,,,,,,,,,,009,f,25,2023-05-13_18h14.16.751,RL,2022.2.5,60.24205258699676,
37,45,44,48,0,114,114,114,,,,,,,,,,,None,685.0898204999976,685.0898204999976,685.0898204999976,685.0898204999976,685.0898204999976,685.0898204999976,f,0.2571807000786066,685.37434079987,685.37434079987,685.37434079987,685.37434079987,685.37434079987,685.37434079987,685.6732220998965,687.1726528999861,687.1726528999861,687.1726528999861,687.1726528999861,687.1726528999861,687.1726528999861,687.1726528999861,687.1726528999861,687.1726528999861,687.1726528999861,687.1726528999861,687.1726528999861,687.1726528999861,687.1726528999861,688.9707873000298,688.9707873000298,688.9707873000298,688.9707873000298,688.9707873000298,688.9707873000298,688.9707873000298,44,45,37,48,44,60,688.9707873000298,690.7555823998991,,,,,,,,,,,009,f,25,2023-05-13_18h14.16.751,RL,2022.2.5,60.24205258699676,
47,44,51,46,0,115,115,115,,,,,,,,,,,None,690.7555823998991,690.7555823998991,690.7555823998991,690.7555823998991,690.7555823998991,690.7555823998991,j,0.21922430000267923,691.0054823998362,691.0054823998362,691.0054823998362,691.0054823998362,691.0054823998362,691.0054823998362,691.2889330000617,692.9049183998723,692.9049183998723,692.9049183998723,692.9049183998723,692.9049183998723,692.9049183998723,692.8888681000099,692.9049183998723,692.9049183998723,692.9049183998723,692.9049183998723,692.9049183998723,692.9049183998723,692.9049183998723,694.8031058998313,694.8031058998313,694.8031058998313,694.8031058998313,694.8031058998313,694.8031058998313,694.8031058998313,51,44,47,46,46,60,694.8031058998313,696.5207662999164,,,,,,,,,,,009,f,25,2023-05-13_18h14.16.751,RL,2022.2.5,60.24205258699676,
30,44,56,61,0,116,116,116,,,,,,,,,,,None,696.5207662999164,696.5207662999164,696.5207662999164,696.5207662999164,696.5207662999164,696.5207662999164,f,0.23400430008769035,696.7879319000058,696.7879319000058,696.7879319000058,696.7879319000058,696.7879319000058,696.7879319000058,697.071437999839,698.4538977998309,698.4538977998309,698.4538977998309,698.4538977998309,698.4538977998309,698.4538977998309,698.4375179999042,698.4538977998309,698.4538977998309,698.4538977998309,698.4538977998309,698.4538977998309,698.4538977998309,698.4538977998309,700.1188953998499,700.1188953998499,700.1188953998499,700.1188953998499,700.1188953998499,700.1188953998499,700.1188953998499,56,44,30,61,56,60,700.1188953998499,702.0362888998352,,,,,,,,,,,009,f,25,2023-05-13_18h14.16.751,RL,2022.2.5,60.24205258699676,
34,39,49,61,0,117,117,117,,,,,,,,,,,None,702.0362888998352,702.0362888998352,702.0362888998352,702.0362888998352,702.0362888998352,702.0362888998352,f,0.19304020004346967,702.253483499866,702.253483499866,702.253483499866,702.253483499866,702.253483499866,702.253483499866,702.5372490000445,704.0367939998396,704.0367939998396,704.0367939998396,704.0367939998396,704.0367939998396,704.0367939998396,704.0198586999904,704.0367939998396,704.0367939998396,704.0367939998396,704.0367939998396,704.0367939998396,704.0367939998396,704.0367939998396,705.8173874998465,705.8173874998465,705.8173874998465,705.8173874998465,705.8173874998465,705.8173874998465,705.8173874998465,49,39,34,61,49,60,705.8173874998465,707.3697309000418,,,,,,,,,,,009,f,25,2023-05-13_18h14.16.751,RL,2022.2.5,60.24205258699676,
27,36,50,69,0,118,118,118,,,,,,,,,,,None,707.3697309000418,707.3697309000418,707.3697309000418,707.3697309000418,707.3697309000418,707.3697309000418,f,0.25650939997285604,707.6553541000467,707.6553541000467,707.6553541000467,707.6553541000467,707.6553541000467,707.6553541000467,707.9527052999474,709.8523325000424,709.8523325000424,709.8523325000424,709.8523325000424,709.8523325000424,709.8523325000424,709.8523325000424,709.8523325000424,709.8523325000424,709.8523325000424,709.8523325000424,709.8523325000424,709.8523325000424,709.8523325000424,712.0499433998484,712.0499433998484,712.0499433998484,712.0499433998484,712.0499433998484,712.0499433998484,712.0499433998484,50,36,27,69,50,60,712.0499433998484,713.984746000031,,,,,,,,,,,009,f,25,2023-05-13_18h14.16.751,RL,2022.2.5,60.24205258699676,
36,31,37,59,0,119,119,119,,,,,,,,,,,None,713.984746000031,713.984746000031,713.984746000031,713.984746000031,713.984746000031,713.984746000031,f,0.5216018999926746,714.5358198999893,714.5358198999893,714.5358198999893,714.5358198999893,714.5358198999893,714.5358198999893,714.8351785000414,716.6344278999604,716.6344278999604,716.6344278999604,716.6344278999604,716.6344278999604,716.6344278999604,716.6344278999604,716.6344278999604,716.6344278999604,716.6344278999604,716.6344278999604,716.6344278999604,716.6344278999604,716.6344278999604,718.7321895998903,718.7321895998903,718.7321895998903,718.7321895998903,718.7321895998903,718.7321895998903,718.7321895998903,37,31,36,59,37,60,718.7321895998903,720.2668377000373,,,,,,,,,,,009,f,25,2023-05-13_18h14.16.751,RL,2022.2.5,60.24205258699676,
36,42,57,69,0,120,120,120,,,,,,,,,,,None,720.2668377000373,720.2668377000373,720.2668377000373,720.2668377000373,720.2668377000373,720.2668377000373,j,0.2328055000398308,720.5174433998764,720.5174433998764,720.5174433998764,720.5174433998764,720.5174433998764,720.5174433998764,720.8002748000436,721.7332392998505,721.7332392998505,721.7332392998505,721.7332392998505,721.7332392998505,721.7332392998505,721.7170020998456,721.7332392998505,721.7332392998505,721.7332392998505,721.7332392998505,721.7332392998505,721.7332392998505,721.7332392998505,722.9483545999974,722.9483545999974,722.9483545999974,722.9483545999974,722.9483545999974,722.9483545999974,722.9483545999974,57,42,36,69,69,60,722.9483545999974,724.483039899962,,,,,,,,,,,009,f,25,2023-05-13_18h14.16.751,RL,2022.2.5,60.24205258699676,
