arm1,arm2,arm3,arm4,trials.thisRepN,trials.thisTrialN,trials.thisN,trials.thisIndex,instru_img1.started,instru_resp.started,instru_resp.keys,instru_resp.rt,image_2.started,text_2.started,fixbefore_2.started,rest_response.keys,red.started,green.started,yellow.started,blue.started,choose_bandit.started,Fixation.started,choose_bandit.keys,choose_bandit.rt,black.started,red_2.started,green_2.started,yellow_2.started,blue_2.started,fixation_2.started,docs.started,black.stopped,red_2.stopped,green_2.stopped,yellow_2.stopped,blue_2.stopped,fixation_2.stopped,docs.stopped,black_com.started,reward_sub.started,reward__sub.started,red_compare.started,green_com.started,yellow_com.started,blue_com.started,black_com.stopped,reward_sub.stopped,reward__sub.stopped,red_compare.stopped,green_com.stopped,yellow_com.stopped,blue_com.stopped,rewardred,rewardyellow,rewardblue,rewardgreen,subchoose,expectation,intertrialfix.started,intertrialfix.stopped,rest_image.started,rest_response.started,rest_response.rt,image_expect_after.started,text_exp_after.started,image_expect_after.stopped,text_exp_after.stopped,image.started,key_resp.started,key_resp.keys,participant,Gender,Age,date,expName,psychopyVersion,frameRate,
,,,,,,,,20.52245150017552,20.52245150017552,space,6.57912000012584,,,,,,,,,,,,,,,,,,,,,,,,,,,,,,,,,,,,,,,,,,,,,,,,,,,,,,,,,,,010,ｍ,1９,2023-05-13_18h48.26.471,RL,2022.2.5,60.049168241871804,
30,27,51,62,0,0,0,0,,,,,27.143178600119427,27.143178600119427,32.14504040009342,None,33.14652539999224,33.14652539999224,33.14652539999224,33.14652539999224,33.14652539999224,33.14652539999224,r,0.3743326999247074,33.5537847999949,33.5537847999949,33.5537847999949,33.5537847999949,33.5537847999949,33.5537847999949,33.846575299976394,35.347261500079185,35.347261500079185,35.347261500079185,35.347261500079185,35.347261500079185,35.347261500079185,35.347261500079185,35.347261500079185,35.347261500079185,35.347261500079185,35.347261500079185,35.347261500079185,35.347261500079185,35.347261500079185,37.20071260002442,37.20071260002442,37.20071260002442,37.20071260002442,37.20071260002442,37.20071260002442,37.20071260002442,27,51,30,62,51,70,37.20071260002442,38.72885569999926,,,,,,,,,,,010,ｍ,1９,2023-05-13_18h48.26.471,RL,2022.2.5,60.049168241871804,
39,46,54,58,0,1,1,1,,,,,,,,None,38.72885569999926,38.72885569999926,38.72885569999926,38.72885569999926,38.72885569999926,38.72885569999926,f,0.3132241000421345,39.063299200031906,39.063299200031906,39.063299200031906,39.063299200031906,39.063299200031906,39.063299200031906,39.346093400148675,40.396300200140104,40.396300200140104,40.396300200140104,40.396300200140104,40.396300200140104,40.396300200140104,40.37926940014586,40.396300200140104,40.396300200140104,40.396300200140104,40.396300200140104,40.396300200140104,40.396300200140104,40.396300200140104,41.72712770011276,41.72712770011276,41.72712770011276,41.72712770011276,41.72712770011276,41.72712770011276,41.72712770011276,46,54,39,58,46,70,41.72712770011276,43.29472970007919,,,,,,,,,,,010,ｍ,1９,2023-05-13_18h48.26.471,RL,2022.2.5,60.049168241871804,
35,44,53,55,0,2,2,2,,,,,,,,None,43.29472970007919,43.29472970007919,43.29472970007919,43.29472970007919,43.29472970007919,43.29472970007919,r,0.27309200004674494,43.595013400074095,43.595013400074095,43.595013400074095,43.595013400074095,43.595013400074095,43.595013400074095,43.87885470013134,45.77746420004405,45.77746420004405,45.77746420004405,45.77746420004405,45.77746420004405,45.77746420004405,45.7613061000593,45.77746420004405,45.77746420004405,45.77746420004405,45.77746420004405,45.77746420004405,45.77746420004405,45.77746420004405,47.959569100057706,47.959569100057706,47.959569100057706,47.959569100057706,47.959569100057706,47.959569100057706,47.959569100057706,44,53,35,55,53,70,47.959569100057706,49.8434582001064,,,,,,,,,,,010,ｍ,1９,2023-05-13_18h48.26.471,RL,2022.2.5,60.049168241871804,
39,37,60,57,0,3,3,3,,,,,,,,None,49.8434582001064,49.8434582001064,49.8434582001064,49.8434582001064,49.8434582001064,49.8434582001064,i,0.32635070011019707,50.194012799998745,50.194012799998745,50.194012799998745,50.194012799998745,50.194012799998745,50.194012799998745,50.494088100036606,52.25999450008385,52.25999450008385,52.25999450008385,52.25999450008385,52.25999450008385,52.25999450008385,52.25999450008385,52.25999450008385,52.25999450008385,52.25999450008385,52.25999450008385,52.25999450008385,52.25999450008385,52.25999450008385,54.325119300046936,54.325119300046936,54.325119300046936,54.325119300046936,54.325119300046936,54.325119300046936,54.325119300046936,37,60,39,57,39,70,54.325119300046936,55.84254680015147,,,,,,,,,,,010,ｍ,1９,2023-05-13_18h48.26.471,RL,2022.2.5,60.049168241871804,
48,44,51,58,0,4,4,4,,,,,,,,None,55.84254680015147,55.84254680015147,55.84254680015147,55.84254680015147,55.84254680015147,55.84254680015147,j,0.2536673001013696,56.12608060007915,56.12608060007915,56.12608060007915,56.12608060007915,56.12608060007915,56.12608060007915,56.4265378001146,57.442150300135836,57.442150300135836,57.442150300135836,57.442150300135836,57.442150300135836,57.442150300135836,57.442150300135836,57.442150300135836,57.442150300135836,57.442150300135836,57.442150300135836,57.442150300135836,57.442150300135836,57.442150300135836,58.757366500096396,58.757366500096396,58.757366500096396,58.757366500096396,58.757366500096396,58.757366500096396,58.757366500096396,44,51,48,58,58,70,58.757366500096396,60.658163600135595,,,,,,,,,,,010,ｍ,1９,2023-05-13_18h48.26.471,RL,2022.2.5,60.049168241871804,
30,34,62,54,0,5,5,5,,,,,,,,None,60.658163600135595,60.658163600135595,60.658163600135595,60.658163600135595,60.658163600135595,60.658163600135595,r,0.28783320006914437,60.97554240003228,60.97554240003228,60.97554240003228,60.97554240003228,60.97554240003228,60.97554240003228,61.25909100007266,63.14153080014512,63.14153080014512,63.14153080014512,63.14153080014512,63.14153080014512,63.14153080014512,63.12528200005181,63.14153080014512,63.14153080014512,63.14153080014512,63.14153080014512,63.14153080014512,63.14153080014512,63.14153080014512,65.30644880002365,65.30644880002365,65.30644880002365,65.30644880002365,65.30644880002365,65.30644880002365,65.30644880002365,34,62,30,54,62,70,65.30644880002365,67.05702219996601,,,,,,,,,,,010,ｍ,1９,2023-05-13_18h48.26.471,RL,2022.2.5,60.049168241871804,
32,38,53,59,0,6,6,6,,,,,,,,None,67.05702219996601,67.05702219996601,67.05702219996601,67.05702219996601,67.05702219996601,67.05702219996601,i,0.2886729999445379,67.37428760016337,67.37428760016337,67.37428760016337,67.37428760016337,67.37428760016337,67.37428760016337,67.67377620004117,69.1401133001782,69.1401133001782,69.1401133001782,69.1401133001782,69.1401133001782,69.1401133001782,69.1401133001782,69.1401133001782,69.1401133001782,69.1401133001782,69.1401133001782,69.1401133001782,69.1401133001782,69.1401133001782,70.90519890002906,70.90519890002906,70.90519890002906,70.90519890002906,70.90519890002906,70.90519890002906,70.90519890002906,38,53,32,59,32,70,70.90519890002906,72.88936090003699,,,,,,,,,,,010,ｍ,1９,2023-05-13_18h48.26.471,RL,2022.2.5,60.049168241871804,
31,42,63,58,0,7,7,7,,,,,,,,None,72.88936090003699,72.88936090003699,72.88936090003699,72.88936090003699,72.88936090003699,72.88936090003699,j,0.8340754001401365,73.76271630008705,73.76271630008705,73.76271630008705,73.76271630008705,73.76271630008705,73.76271630008705,74.05662459996529,75.72253919998184,75.72253919998184,75.72253919998184,75.72253919998184,75.72253919998184,75.72253919998184,75.72253919998184,75.72253919998184,75.72253919998184,75.72253919998184,75.72253919998184,75.72253919998184,75.72253919998184,75.72253919998184,77.68731379997917,77.68731379997917,77.68731379997917,77.68731379997917,77.68731379997917,77.68731379997917,77.68731379997917,42,63,31,58,58,70,77.68731379997917,79.27181060006842,,,,,,,,,,,010,ｍ,1９,2023-05-13_18h48.26.471,RL,2022.2.5,60.049168241871804,
32,47,58,60,0,8,8,8,,,,,,,,None,79.27181060006842,79.27181060006842,79.27181060006842,79.27181060006842,79.27181060006842,79.27181060006842,r,0.26304290001280606,79.55621569999494,79.55621569999494,79.55621569999494,79.55621569999494,79.55621569999494,79.55621569999494,79.83869340014644,81.45489670010284,81.45489670010284,81.45489670010284,81.45489670010284,81.45489670010284,81.45489670010284,81.43833580007777,81.45489670010284,81.45489670010284,81.45489670010284,81.45489670010284,81.45489670010284,81.45489670010284,81.45489670010284,83.35340010002255,83.35340010002255,83.35340010002255,83.35340010002255,83.35340010002255,83.35340010002255,83.35340010002255,47,58,32,60,58,70,83.35340010002255,84.93782940017991,,,,,,,,,,,010,ｍ,1９,2023-05-13_18h48.26.471,RL,2022.2.5,60.049168241871804,
29,42,55,70,0,9,9,9,,,,,,,,None,84.93782940017991,84.93782940017991,84.93782940017991,84.93782940017991,84.93782940017991,84.93782940017991,f,0.2814209999050945,85.24023460014723,85.24023460014723,85.24023460014723,85.24023460014723,85.24023460014723,85.24023460014723,85.53769130003639,87.3542424000334,87.3542424000334,87.3542424000334,87.3542424000334,87.3542424000334,87.3542424000334,87.3542424000334,87.3542424000334,87.3542424000334,87.3542424000334,87.3542424000334,87.3542424000334,87.3542424000334,87.3542424000334,89.46838850015774,89.46838850015774,89.46838850015774,89.46838850015774,89.46838850015774,89.46838850015774,89.46838850015774,42,55,29,70,42,70,89.46838850015774,91.28656630008481,,,,,,,,,,,010,ｍ,1９,2023-05-13_18h48.26.471,RL,2022.2.5,60.049168241871804,
33,37,57,75,0,10,10,10,,,,,,,,None,91.28656630008481,91.28656630008481,91.28656630008481,91.28656630008481,91.28656630008481,91.28656630008481,r,0.2767827999778092,91.5875820000656,91.5875820000656,91.5875820000656,91.5875820000656,91.5875820000656,91.5875820000656,91.8702462001238,93.80291740014218,93.80291740014218,93.80291740014218,93.80291740014218,93.80291740014218,93.80291740014218,93.7867384001147,93.80291740014218,93.80291740014218,93.80291740014218,93.80291740014218,93.80291740014218,93.80291740014218,93.80291740014218,96.00077689997852,96.00077689997852,96.00077689997852,96.00077689997852,96.00077689997852,96.00077689997852,96.00077689997852,37,57,33,75,57,70,96.00077689997852,97.96876530000009,,,,,,,,,,,010,ｍ,1９,2023-05-13_18h48.26.471,RL,2022.2.5,60.049168241871804,
37,42,48,78,0,11,11,11,,,,,,,,None,97.96876530000009,97.96876530000009,97.96876530000009,97.96876530000009,97.96876530000009,97.96876530000009,r,0.23238329985179007,98.2197927001398,98.2197927001398,98.2197927001398,98.2197927001398,98.2197927001398,98.2197927001398,98.51903840014711,99.78528710012324,99.78528710012324,99.78528710012324,99.78528710012324,99.78528710012324,99.78528710012324,99.78528710012324,99.78528710012324,99.78528710012324,99.78528710012324,99.78528710012324,99.78528710012324,99.78528710012324,99.78528710012324,101.34956670016982,101.34956670016982,101.34956670016982,101.34956670016982,101.34956670016982,101.34956670016982,101.34956670016982,42,48,37,78,48,70,101.34956670016982,103.26781029999256,,,,,,,,,,,010,ｍ,1９,2023-05-13_18h48.26.471,RL,2022.2.5,60.049168241871804,
28,42,48,75,0,12,12,12,,,,,,,,None,103.26781029999256,103.26781029999256,103.26781029999256,103.26781029999256,103.26781029999256,103.26781029999256,r,1.4055656001437455,104.70224370015785,104.70224370015785,104.70224370015785,104.70224370015785,104.70224370015785,104.70224370015785,105.0009616999887,106.55117540014908,106.55117540014908,106.55117540014908,106.55117540014908,106.55117540014908,106.55117540014908,106.55117540014908,106.55117540014908,106.55117540014908,106.55117540014908,106.55117540014908,106.55117540014908,106.55117540014908,106.55117540014908,108.39868460013531,108.39868460013531,108.39868460013531,108.39868460013531,108.39868460013531,108.39868460013531,108.39868460013531,42,48,28,75,48,70,108.39868460013531,110.2662121001631,,,,,,,,,,,010,ｍ,1９,2023-05-13_18h48.26.471,RL,2022.2.5,60.049168241871804,
28,32,43,74,0,13,13,13,,,,,,,,None,110.2662121001631,110.2662121001631,110.2662121001631,110.2662121001631,110.2662121001631,110.2662121001631,r,0.3206937999930233,110.61867830017582,110.61867830017582,110.61867830017582,110.61867830017582,110.61867830017582,110.61867830017582,110.9164105001837,112.54952480015345,112.54952480015345,112.54952480015345,112.54952480015345,112.54952480015345,112.54952480015345,112.54952480015345,112.54952480015345,112.54952480015345,112.54952480015345,112.54952480015345,112.54952480015345,112.54952480015345,112.54952480015345,114.4809024001006,114.4809024001006,114.4809024001006,114.4809024001006,114.4809024001006,114.4809024001006,114.4809024001006,32,43,28,74,43,70,114.4809024001006,116.13219560007565,,,,,,,,,,,010,ｍ,1９,2023-05-13_18h48.26.471,RL,2022.2.5,60.049168241871804,
30,41,54,82,0,14,14,14,,,,,,,,None,116.13219560007565,116.13219560007565,116.13219560007565,116.13219560007565,116.13219560007565,116.13219560007565,j,0.305873200064525,116.46798210009001,116.46798210009001,116.46798210009001,116.46798210009001,116.46798210009001,116.46798210009001,116.76533710001968,118.315208400134,118.315208400134,118.315208400134,118.315208400134,118.315208400134,118.315208400134,118.315208400134,118.315208400134,118.315208400134,118.315208400134,118.315208400134,118.315208400134,118.315208400134,118.315208400134,120.16333770006895,120.16333770006895,120.16333770006895,120.16333770006895,120.16333770006895,120.16333770006895,120.16333770006895,41,54,30,82,82,70,120.16333770006895,121.89762439997867,,,,,,,,,,,010,ｍ,1９,2023-05-13_18h48.26.471,RL,2022.2.5,60.049168241871804,
37,32,50,83,0,15,15,15,,,,,,,,None,121.89762439997867,121.89762439997867,121.89762439997867,121.89762439997867,121.89762439997867,121.89762439997867,j,0.31406089989468455,122.23249240010045,122.23249240010045,122.23249240010045,122.23249240010045,122.23249240010045,122.23249240010045,122.53118610009551,123.34780640015379,123.34780640015379,123.34780640015379,123.34780640015379,123.34780640015379,123.34780640015379,123.33114260016009,123.34780640015379,123.34780640015379,123.34780640015379,123.34780640015379,123.34780640015379,123.34780640015379,123.34780640015379,124.44620210002176,124.44620210002176,124.44620210002176,124.44620210002176,124.44620210002176,124.44620210002176,124.44620210002176,32,50,37,83,83,70,124.44620210002176,126.04712420003489,,,,,,,,,,,010,ｍ,1９,2023-05-13_18h48.26.471,RL,2022.2.5,60.049168241871804,
41,41,56,71,0,16,16,16,,,,,,,,None,126.04712420003489,126.04712420003489,126.04712420003489,126.04712420003489,126.04712420003489,126.04712420003489,j,0.3729785999748856,126.4496335000731,126.4496335000731,126.4496335000731,126.4496335000731,126.4496335000731,126.4496335000731,126.74752230010927,128.32982960017398,128.32982960017398,128.32982960017398,128.32982960017398,128.32982960017398,128.32982960017398,128.31343260011636,128.32982960017398,128.32982960017398,128.32982960017398,128.32982960017398,128.32982960017398,128.32982960017398,128.32982960017398,130.19524969998747,130.19524969998747,130.19524969998747,130.19524969998747,130.19524969998747,130.19524969998747,130.19524969998747,41,56,41,71,71,70,130.19524969998747,131.86247140006162,,,,,,,,,,,010,ｍ,1９,2023-05-13_18h48.26.471,RL,2022.2.5,60.049168241871804,
28,41,48,63,0,17,17,17,,,,,,,,None,131.86247140006162,131.86247140006162,131.86247140006162,131.86247140006162,131.86247140006162,131.86247140006162,r,1.4151962001342326,133.29682680009864,133.29682680009864,133.29682680009864,133.29682680009864,133.29682680009864,133.29682680009864,133.59599180007353,135.56208790000528,135.56208790000528,135.56208790000528,135.56208790000528,135.56208790000528,135.56208790000528,135.56208790000528,135.56208790000528,135.56208790000528,135.56208790000528,135.56208790000528,135.56208790000528,135.56208790000528,135.56208790000528,137.82719270000234,137.82719270000234,137.82719270000234,137.82719270000234,137.82719270000234,137.82719270000234,137.82719270000234,41,48,28,63,48,70,137.82719270000234,139.41104479995556,,,,,,,,,,,010,ｍ,1９,2023-05-13_18h48.26.471,RL,2022.2.5,60.049168241871804,
36,50,50,74,0,18,18,18,,,,,,,,None,139.41104479995556,139.41104479995556,139.41104479995556,139.41104479995556,139.41104479995556,139.41104479995556,j,0.24799970001913607,139.6791005001869,139.6791005001869,139.6791005001869,139.6791005001869,139.6791005001869,139.6791005001869,139.96222330001183,141.27813540003262,141.27813540003262,141.27813540003262,141.27813540003262,141.27813540003262,141.27813540003262,141.2615742001217,141.27813540003262,141.27813540003262,141.27813540003262,141.27813540003262,141.27813540003262,141.27813540003262,141.27813540003262,142.87642630003393,142.87642630003393,142.87642630003393,142.87642630003393,142.87642630003393,142.87642630003393,142.87642630003393,50,50,36,74,74,70,142.87642630003393,144.6267356001772,,,,,,,,,,,010,ｍ,1９,2023-05-13_18h48.26.471,RL,2022.2.5,60.049168241871804,
37,43,43,72,0,19,19,19,,,,,,,,None,144.6267356001772,144.6267356001772,144.6267356001772,144.6267356001772,144.6267356001772,144.6267356001772,j,0.38125919993035495,145.02948430017568,145.02948430017568,145.02948430017568,145.02948430017568,145.02948430017568,145.02948430017568,145.32746249996126,146.17705769999884,146.17705769999884,146.17705769999884,146.17705769999884,146.17705769999884,146.17705769999884,146.17705769999884,146.17705769999884,146.17705769999884,146.17705769999884,146.17705769999884,146.17705769999884,146.17705769999884,146.17705769999884,147.3251784001477,147.3251784001477,147.3251784001477,147.3251784001477,147.3251784001477,147.3251784001477,147.3251784001477,43,43,37,72,72,70,147.3251784001477,148.99295140011236,,,,,,,,,,,010,ｍ,1９,2023-05-13_18h48.26.471,RL,2022.2.5,60.049168241871804,
28,40,51,74,0,20,20,20,,,,,,,,None,148.99295140011236,148.99295140011236,148.99295140011236,148.99295140011236,148.99295140011236,148.99295140011236,j,0.3752760000061244,149.39411750016734,149.39411750016734,149.39411750016734,149.39411750016734,149.39411750016734,149.39411750016734,149.67656970000826,150.80991930002347,150.80991930002347,150.80991930002347,150.80991930002347,150.80991930002347,150.80991930002347,150.7932979001198,150.80991930002347,150.80991930002347,150.80991930002347,150.80991930002347,150.80991930002347,150.80991930002347,150.80991930002347,152.22497790004127,152.22497790004127,152.22497790004127,152.22497790004127,152.22497790004127,152.22497790004127,152.22497790004127,40,51,28,74,74,70,152.22497790004127,153.9758995999582,,,,,,,,,,,010,ｍ,1９,2023-05-13_18h48.26.471,RL,2022.2.5,60.049168241871804,
32,32,38,71,0,21,21,21,,,,,,,,None,153.9758995999582,153.9758995999582,153.9758995999582,153.9758995999582,153.9758995999582,153.9758995999582,j,0.28980290004983544,154.29248289996758,154.29248289996758,154.29248289996758,154.29248289996758,154.29248289996758,154.29248289996758,154.59223380009644,156.1418761999812,156.1418761999812,156.1418761999812,156.1418761999812,156.1418761999812,156.1418761999812,156.1418761999812,156.1418761999812,156.1418761999812,156.1418761999812,156.1418761999812,156.1418761999812,156.1418761999812,156.1418761999812,157.99048859998584,157.99048859998584,157.99048859998584,157.99048859998584,157.99048859998584,157.99048859998584,157.99048859998584,32,38,32,71,71,70,157.99048859998584,159.84093619999476,,,,,,,,,,,010,ｍ,1９,2023-05-13_18h48.26.471,RL,2022.2.5,60.049168241871804,
41,32,51,70,0,22,22,22,,,,,,,,None,159.84093619999476,159.84093619999476,159.84093619999476,159.84093619999476,159.84093619999476,159.84093619999476,j,0.27442080015316606,160.1415029000491,160.1415029000491,160.1415029000491,160.1415029000491,160.1415029000491,160.1415029000491,160.42469590017572,161.90757310017943,161.90757310017943,161.90757310017943,161.90757310017943,161.90757310017943,161.90757310017943,161.8914175000973,161.90757310017943,161.90757310017943,161.90757310017943,161.90757310017943,161.90757310017943,161.90757310017943,161.90757310017943,163.6721445999574,163.6721445999574,163.6721445999574,163.6721445999574,163.6721445999574,163.6721445999574,163.6721445999574,32,51,41,70,70,70,163.6721445999574,165.3570217001252,,,,,,,,,,,010,ｍ,1９,2023-05-13_18h48.26.471,RL,2022.2.5,60.049168241871804,
33,28,54,68,0,23,23,23,,,,,,,,None,165.3570217001252,165.3570217001252,165.3570217001252,165.3570217001252,165.3570217001252,165.3570217001252,j,0.2772121001034975,165.657748100115,165.657748100115,165.657748100115,165.657748100115,165.657748100115,165.657748100115,165.94064270006493,167.4402091000229,167.4402091000229,167.4402091000229,167.4402091000229,167.4402091000229,167.4402091000229,167.42345210001804,167.4402091000229,167.4402091000229,167.4402091000229,167.4402091000229,167.4402091000229,167.4402091000229,167.4402091000229,169.22172450018115,169.22172450018115,169.22172450018115,169.22172450018115,169.22172450018115,169.22172450018115,169.22172450018115,28,54,33,68,68,70,169.22172450018115,170.93900969997048,,,,,,,,,,,010,ｍ,1９,2023-05-13_18h48.26.471,RL,2022.2.5,60.049168241871804,
30,41,51,65,0,24,24,24,,,,,,,,None,170.93900969997048,170.93900969997048,170.93900969997048,170.93900969997048,170.93900969997048,170.93900969997048,j,0.288581799948588,171.25839380011894,171.25839380011894,171.25839380011894,171.25839380011894,171.25839380011894,171.25839380011894,171.53987420001067,172.40572330006398,172.40572330006398,172.40572330006398,172.40572330006398,172.40572330006398,172.40572330006398,172.38963570003398,172.40572330006398,172.40572330006398,172.40572330006398,172.40572330006398,172.40572330006398,172.40572330006398,172.40572330006398,173.5541670001112,173.5541670001112,173.5541670001112,173.5541670001112,173.5541670001112,173.5541670001112,173.5541670001112,41,51,30,65,65,70,173.5541670001112,175.27228739997372,,,,,,,,,,,010,ｍ,1９,2023-05-13_18h48.26.471,RL,2022.2.5,60.049168241871804,
33,36,44,64,0,25,25,25,,,,,,,,None,175.27228739997372,175.27228739997372,175.27228739997372,175.27228739997372,175.27228739997372,175.27228739997372,f,0.32838220009580255,175.62365790014155,175.62365790014155,175.62365790014155,175.62365790014155,175.62365790014155,175.62365790014155,175.92222600011155,177.4717189001385,177.4717189001385,177.4717189001385,177.4717189001385,177.4717189001385,177.4717189001385,177.4717189001385,177.4717189001385,177.4717189001385,177.4717189001385,177.4717189001385,177.4717189001385,177.4717189001385,177.4717189001385,179.31973510002717,179.31973510002717,179.31973510002717,179.31973510002717,179.31973510002717,179.31973510002717,179.31973510002717,36,44,33,64,36,70,179.31973510002717,180.87055270001292,,,,,,,,,,,010,ｍ,1９,2023-05-13_18h48.26.471,RL,2022.2.5,60.049168241871804,
37,39,45,65,0,26,26,26,,,,,,,,None,180.87055270001292,180.87055270001292,180.87055270001292,180.87055270001292,180.87055270001292,180.87055270001292,j,0.3147315001115203,181.20630950015038,181.20630950015038,181.20630950015038,181.20630950015038,181.20630950015038,181.20630950015038,181.50460310000926,183.20430680015124,183.20430680015124,183.20430680015124,183.20430680015124,183.20430680015124,183.20430680015124,183.20430680015124,183.20430680015124,183.20430680015124,183.20430680015124,183.20430680015124,183.20430680015124,183.20430680015124,183.20430680015124,185.202029600041,185.202029600041,185.202029600041,185.202029600041,185.202029600041,185.202029600041,185.202029600041,39,45,37,65,65,70,185.202029600041,186.71951940003783,,,,,,,,,,,010,ｍ,1９,2023-05-13_18h48.26.471,RL,2022.2.5,60.049168241871804,
28,41,45,68,0,27,27,27,,,,,,,,None,186.71951940003783,186.71951940003783,186.71951940003783,186.71951940003783,186.71951940003783,186.71951940003783,i,0.3964690000284463,187.1399473999627,187.1399473999627,187.1399473999627,187.1399473999627,187.1399473999627,187.1399473999627,187.43678280012682,189.0696028000675,189.0696028000675,189.0696028000675,189.0696028000675,189.0696028000675,189.0696028000675,189.0696028000675,189.0696028000675,189.0696028000675,189.0696028000675,189.0696028000675,189.0696028000675,189.0696028000675,189.0696028000675,191.00106479995884,191.00106479995884,191.00106479995884,191.00106479995884,191.00106479995884,191.00106479995884,191.00106479995884,41,45,28,68,28,70,191.00106479995884,192.51856930018403,,,,,,,,,,,010,ｍ,1９,2023-05-13_18h48.26.471,RL,2022.2.5,60.049168241871804,
25,40,51,71,0,28,28,28,,,,,,,,None,192.51856930018403,192.51856930018403,192.51856930018403,192.51856930018403,192.51856930018403,192.51856930018403,j,0.3418516998644918,192.88809500006028,192.88809500006028,192.88809500006028,192.88809500006028,192.88809500006028,192.88809500006028,193.18594520003535,195.00228050001897,195.00228050001897,195.00228050001897,195.00228050001897,195.00228050001897,195.00228050001897,195.00228050001897,195.00228050001897,195.00228050001897,195.00228050001897,195.00228050001897,195.00228050001897,195.00228050001897,195.00228050001897,197.11647949996404,197.11647949996404,197.11647949996404,197.11647949996404,197.11647949996404,197.11647949996404,197.11647949996404,40,51,25,71,71,70,197.11647949996404,198.95070610009134,,,,,,,,,,,010,ｍ,1９,2023-05-13_18h48.26.471,RL,2022.2.5,60.049168241871804,
28,37,44,71,0,29,29,29,,,,,,,,None,198.95070610009134,198.95070610009134,198.95070610009134,198.95070610009134,198.95070610009134,198.95070610009134,j,0.32961120014078915,199.3014593999833,199.3014593999833,199.3014593999833,199.3014593999833,199.3014593999833,199.3014593999833,199.58489529998042,200.4675444001332,200.4675444001332,200.4675444001332,200.4675444001332,200.4675444001332,200.4675444001332,200.45095440000296,200.4675444001332,200.4675444001332,200.4675444001332,200.4675444001332,200.4675444001332,200.4675444001332,200.4675444001332,201.63310870015994,201.63310870015994,201.63310870015994,201.63310870015994,201.63310870015994,201.63310870015994,201.63310870015994,37,44,28,71,71,70,201.63310870015994,203.16702289995737,,,,,,,,,,,010,ｍ,1９,2023-05-13_18h48.26.471,RL,2022.2.5,60.049168241871804,
38,42,57,79,0,30,30,30,,,,,,,,None,203.16702289995737,203.16702289995737,203.16702289995737,203.16702289995737,203.16702289995737,203.16702289995737,j,0.4427833999507129,203.63382460013963,203.63382460013963,203.63382460013963,203.63382460013963,203.63382460013963,203.63382460013963,203.9177015000023,205.0335806000512,205.0335806000512,205.0335806000512,205.0335806000512,205.0335806000512,205.0335806000512,205.01695300010033,205.0335806000512,205.0335806000512,205.0335806000512,205.0335806000512,205.0335806000512,205.0335806000512,205.0335806000512,206.43151789996773,206.43151789996773,206.43151789996773,206.43151789996773,206.43151789996773,206.43151789996773,206.43151789996773,42,57,38,79,79,70,206.43151789996773,207.96586790005676,,,,,,,,,,,010,ｍ,1９,2023-05-13_18h48.26.471,RL,2022.2.5,60.049168241871804,
40,37,46,69,0,31,31,31,,,,,,,,None,207.96586790005676,207.96586790005676,207.96586790005676,207.96586790005676,207.96586790005676,207.96586790005676,j,0.307406899984926,208.29998400015756,208.29998400015756,208.29998400015756,208.29998400015756,208.29998400015756,208.29998400015756,208.58289299998432,209.7826382999774,209.7826382999774,209.7826382999774,209.7826382999774,209.7826382999774,209.7826382999774,209.76592759997584,209.7826382999774,209.7826382999774,209.7826382999774,209.7826382999774,209.7826382999774,209.7826382999774,209.7826382999774,211.26379930018447,211.26379930018447,211.26379930018447,211.26379930018447,211.26379930018447,211.26379930018447,211.26379930018447,37,46,40,69,69,70,211.26379930018447,213.21504519996233,,,,,,,,,,,010,ｍ,1９,2023-05-13_18h48.26.471,RL,2022.2.5,60.049168241871804,
30,34,49,65,0,32,32,32,,,,,,,,None,213.21504519996233,213.21504519996233,213.21504519996233,213.21504519996233,213.21504519996233,213.21504519996233,j,0.27898609987460077,213.51742570009083,213.51742570009083,213.51742570009083,213.51742570009083,213.51742570009083,213.51742570009083,213.7989799999632,215.09848850010894,215.09848850010894,215.09848850010894,215.09848850010894,215.09848850010894,215.09848850010894,215.08235330018215,215.09848850010894,215.09848850010894,215.09848850010894,215.09848850010894,215.09848850010894,215.09848850010894,215.09848850010894,216.679633700056,216.679633700056,216.679633700056,216.679633700056,216.679633700056,216.679633700056,216.679633700056,34,49,30,65,65,70,216.679633700056,218.54777309997007,,,,,,,,,,,010,ｍ,1９,2023-05-13_18h48.26.471,RL,2022.2.5,60.049168241871804,
31,33,55,67,0,33,33,33,,,,,,,,None,218.54777309997007,218.54777309997007,218.54777309997007,218.54777309997007,218.54777309997007,218.54777309997007,j,0.3036662000231445,218.88115160004236,218.88115160004236,218.88115160004236,218.88115160004236,218.88115160004236,218.88115160004236,219.16477910010144,221.11446220008656,221.11446220008656,221.11446220008656,221.11446220008656,221.11446220008656,221.11446220008656,221.0975995999761,221.11446220008656,221.11446220008656,221.11446220008656,221.11446220008656,221.11446220008656,221.11446220008656,221.11446220008656,223.3456064001657,223.3456064001657,223.3456064001657,223.3456064001657,223.3456064001657,223.3456064001657,223.3456064001657,33,55,31,67,67,70,223.3456064001657,225.26310910005122,,,,,,,,,,,010,ｍ,1９,2023-05-13_18h48.26.471,RL,2022.2.5,60.049168241871804,
17,36,48,70,0,34,34,34,,,,,,,,None,225.26310910005122,225.26310910005122,225.26310910005122,225.26310910005122,225.26310910005122,225.26310910005122,j,0.46264919987879694,225.74876920017414,225.74876920017414,225.74876920017414,225.74876920017414,225.74876920017414,225.74876920017414,226.02969960006885,227.27989910007454,227.27989910007454,227.27989910007454,227.27989910007454,227.27989910007454,227.27989910007454,227.2465548000764,227.27989910007454,227.27989910007454,227.27989910007454,227.27989910007454,227.27989910007454,227.27989910007454,227.27989910007454,228.79460510006174,228.79460510006174,228.79460510006174,228.79460510006174,228.79460510006174,228.79460510006174,228.79460510006174,36,48,17,70,70,70,228.79460510006174,230.32863170001656,,,,,,,,,,,010,ｍ,1９,2023-05-13_18h48.26.471,RL,2022.2.5,60.049168241871804,
25,39,50,52,0,35,35,35,,,,,,,,None,230.32863170001656,230.32863170001656,230.32863170001656,230.32863170001656,230.32863170001656,230.32863170001656,j,0.49043029989115894,230.84908409998752,230.84908409998752,230.84908409998752,230.84908409998752,230.84908409998752,230.84908409998752,231.12924999999814,232.49502900009975,232.49502900009975,232.49502900009975,232.49502900009975,232.49502900009975,232.49502900009975,232.4621052001603,232.49502900009975,232.49502900009975,232.49502900009975,232.49502900009975,232.49502900009975,232.49502900009975,232.49502900009975,234.12728190002963,234.12728190002963,234.12728190002963,234.12728190002963,234.12728190002963,234.12728190002963,234.12728190002963,39,50,25,52,52,70,234.12728190002963,236.0947293001227,,,,,,,,,,,010,ｍ,1９,2023-05-13_18h48.26.471,RL,2022.2.5,60.049168241871804,
34,46,59,61,0,36,36,36,,,,,,,,None,236.0947293001227,236.0947293001227,236.0947293001227,236.0947293001227,236.0947293001227,236.0947293001227,j,0.26497930008918047,236.37947320006788,236.37947320006788,236.37947320006788,236.37947320006788,236.37947320006788,236.37947320006788,236.6619164000731,237.5113646001555,237.5113646001555,237.5113646001555,237.5113646001555,237.5113646001555,237.5113646001555,237.49508020002395,237.5113646001555,237.5113646001555,237.5113646001555,237.5113646001555,237.5113646001555,237.5113646001555,237.5113646001555,238.64290560013615,238.64290560013615,238.64290560013615,238.64290560013615,238.64290560013615,238.64290560013615,238.64290560013615,46,59,34,61,61,70,238.64290560013615,240.5935094000306,,,,,,,,,,,010,ｍ,1９,2023-05-13_18h48.26.471,RL,2022.2.5,60.049168241871804,
25,44,54,55,0,37,37,37,,,,,,,,None,240.5935094000306,240.5935094000306,240.5935094000306,240.5935094000306,240.5935094000306,240.5935094000306,j,0.28235229989513755,240.89684050017968,240.89684050017968,240.89684050017968,240.89684050017968,240.89684050017968,240.89684050017968,241.19413199997507,242.04379340005107,242.04379340005107,242.04379340005107,242.04379340005107,242.04379340005107,242.04379340005107,242.02706270013005,242.04379340005107,242.04379340005107,242.04379340005107,242.04379340005107,242.04379340005107,242.04379340005107,242.04379340005107,243.17567480006255,243.17567480006255,243.17567480006255,243.17567480006255,243.17567480006255,243.17567480006255,243.17567480006255,44,54,25,55,55,70,243.17567480006255,244.693142300006,,,,,,,,,,,010,ｍ,1９,2023-05-13_18h48.26.471,RL,2022.2.5,60.049168241871804,
35,53,62,60,0,38,38,38,,,,,,,,None,244.693142300006,244.693142300006,244.693142300006,244.693142300006,244.693142300006,244.693142300006,j,0.37982159992679954,245.09553120005876,245.09553120005876,245.09553120005876,245.09553120005876,245.09553120005876,245.09553120005876,245.39328830013983,246.70994179998524,246.70994179998524,246.70994179998524,246.70994179998524,246.70994179998524,246.70994179998524,246.69336859998293,246.70994179998524,246.70994179998524,246.70994179998524,246.70994179998524,246.70994179998524,246.70994179998524,246.70994179998524,248.30807460006326,248.30807460006326,248.30807460006326,248.30807460006326,248.30807460006326,248.30807460006326,248.30807460006326,53,62,35,60,60,70,248.30807460006326,250.20885160006583,,,,,,,,,,,010,ｍ,1９,2023-05-13_18h48.26.471,RL,2022.2.5,60.049168241871804,
28,53,62,61,0,39,39,39,,,,,,,,None,250.20885160006583,250.20885160006583,250.20885160006583,250.20885160006583,250.20885160006583,250.20885160006583,j,0.27645240002311766,250.50949870003387,250.50949870003387,250.50949870003387,250.50949870003387,250.50949870003387,250.50949870003387,250.79234930011444,252.15865610004403,252.15865610004403,252.15865610004403,252.15865610004403,252.15865610004403,252.15865610004403,252.14206059998833,252.15865610004403,252.15865610004403,252.15865610004403,252.15865610004403,252.15865610004403,252.15865610004403,252.15865610004403,253.80691640009172,253.80691640009172,253.80691640009172,253.80691640009172,253.80691640009172,253.80691640009172,253.80691640009172,53,62,28,61,61,70,253.80691640009172,255.808187100105,,,,,,,,,,,010,ｍ,1９,2023-05-13_18h48.26.471,RL,2022.2.5,60.049168241871804,
37,55,69,61,0,40,40,40,,,,,,,,None,255.808187100105,255.808187100105,255.808187100105,255.808187100105,255.808187100105,255.808187100105,r,0.382014200091362,256.2080988001544,256.2080988001544,256.2080988001544,256.2080988001544,256.2080988001544,256.2080988001544,256.4913972001523,257.6744827001821,257.6744827001821,257.6744827001821,257.6744827001821,257.6744827001821,257.6744827001821,257.65781800006516,257.6744827001821,257.6744827001821,257.6744827001821,257.6744827001821,257.6744827001821,257.6744827001821,257.6744827001821,259.1389703999739,259.1389703999739,259.1389703999739,259.1389703999739,259.1389703999739,259.1389703999739,259.1389703999739,55,69,37,61,69,70,259.1389703999739,260.72338470001705,,,,,,,,,,,010,ｍ,1９,2023-05-13_18h48.26.471,RL,2022.2.5,60.049168241871804,
29,58,64,52,0,41,41,41,,,,,,,,None,260.72338470001705,260.72338470001705,260.72338470001705,260.72338470001705,260.72338470001705,260.72338470001705,r,0.44018290005624294,261.1906101000495,261.1906101000495,261.1906101000495,261.1906101000495,261.1906101000495,261.1906101000495,261.47387450002134,263.2901481001172,263.2901481001172,263.2901481001172,263.2901481001172,263.2901481001172,263.2901481001172,263.27390340017155,263.2901481001172,263.2901481001172,263.2901481001172,263.2901481001172,263.2901481001172,263.2901481001172,263.2901481001172,265.3882341000717,265.3882341000717,265.3882341000717,265.3882341000717,265.3882341000717,265.3882341000717,265.3882341000717,58,64,29,52,64,70,265.3882341000717,267.27256359998137,,,,,,,,,,,010,ｍ,1９,2023-05-13_18h48.26.471,RL,2022.2.5,60.049168241871804,
33,51,70,57,0,42,42,42,,,,,,,,None,267.27256359998137,267.27256359998137,267.27256359998137,267.27256359998137,267.27256359998137,267.27256359998137,j,0.29512109979987144,267.5908355000429,267.5908355000429,267.5908355000429,267.5908355000429,267.5908355000429,267.5908355000429,267.87308170017786,269.5054952001665,269.5054952001665,269.5054952001665,269.5054952001665,269.5054952001665,269.5054952001665,269.4887790000066,269.5054952001665,269.5054952001665,269.5054952001665,269.5054952001665,269.5054952001665,269.5054952001665,269.5054952001665,271.4204033999704,271.4204033999704,271.4204033999704,271.4204033999704,271.4204033999704,271.4204033999704,271.4204033999704,51,70,33,57,57,70,271.4204033999704,273.0211331001483,,,,,,,,,,,010,ｍ,1９,2023-05-13_18h48.26.471,RL,2022.2.5,60.049168241871804,
45,51,68,52,0,43,43,43,,,,,,,,None,273.0211331001483,273.0211331001483,273.0211331001483,273.0211331001483,273.0211331001483,273.0211331001483,r,0.3099944000132382,273.3551839001011,273.3551839001011,273.3551839001011,273.3551839001011,273.3551839001011,273.3551839001011,273.63857110007666,274.5217814000789,274.5217814000789,274.5217814000789,274.5217814000789,274.5217814000789,274.5217814000789,274.50539980013855,274.5217814000789,274.5217814000789,274.5217814000789,274.5217814000789,274.5217814000789,274.5217814000789,274.5217814000789,275.68616409995593,275.68616409995593,275.68616409995593,275.68616409995593,275.68616409995593,275.68616409995593,275.68616409995593,51,68,45,52,68,70,275.68616409995593,277.55415540002286,,,,,,,,,,,010,ｍ,1９,2023-05-13_18h48.26.471,RL,2022.2.5,60.049168241871804,
34,54,68,52,0,44,44,44,,,,,,,,None,277.55415540002286,277.55415540002286,277.55415540002286,277.55415540002286,277.55415540002286,277.55415540002286,r,0.33158369990997016,277.9048164000269,277.9048164000269,277.9048164000269,277.9048164000269,277.9048164000269,277.9048164000269,278.20460460009053,280.07039420004,280.07039420004,280.07039420004,280.07039420004,280.07039420004,280.07039420004,280.07039420004,280.07039420004,280.07039420004,280.07039420004,280.07039420004,280.07039420004,280.07039420004,280.07039420004,282.23525870009325,282.23525870009325,282.23525870009325,282.23525870009325,282.23525870009325,282.23525870009325,282.23525870009325,54,68,34,52,68,70,282.23525870009325,283.7861707000993,,,,,,,,,,,010,ｍ,1９,2023-05-13_18h48.26.471,RL,2022.2.5,60.049168241871804,
42,49,68,53,0,45,45,45,,,,,,,,None,283.7861707000993,283.7861707000993,283.7861707000993,283.7861707000993,283.7861707000993,283.7861707000993,r,0.37636790005490184,284.1882281000726,284.1882281000726,284.1882281000726,284.1882281000726,284.1882281000726,284.1882281000726,284.46977520012297,285.9694268000312,285.9694268000312,285.9694268000312,285.9694268000312,285.9694268000312,285.9694268000312,285.95296140015125,285.9694268000312,285.9694268000312,285.9694268000312,285.9694268000312,285.9694268000312,285.9694268000312,285.9694268000312,287.7509572999552,287.7509572999552,287.7509572999552,287.7509572999552,287.7509572999552,287.7509572999552,287.7509572999552,49,68,42,53,68,70,287.7509572999552,289.4851932001766,,,,,,,,,,,010,ｍ,1９,2023-05-13_18h48.26.471,RL,2022.2.5,60.049168241871804,
46,55,66,53,0,46,46,46,,,,,,,,None,289.4851932001766,289.4851932001766,289.4851932001766,289.4851932001766,289.4851932001766,289.4851932001766,r,0.40761710004881024,289.9224517000839,289.9224517000839,289.9224517000839,289.9224517000839,289.9224517000839,289.9224517000839,290.2026439001784,291.6019975000527,291.6019975000527,291.6019975000527,291.6019975000527,291.6019975000527,291.6019975000527,291.58501820010133,291.6019975000527,291.6019975000527,291.6019975000527,291.6019975000527,291.6019975000527,291.6019975000527,291.6019975000527,293.2831669000443,293.2831669000443,293.2831669000443,293.2831669000443,293.2831669000443,293.2831669000443,293.2831669000443,55,66,46,53,66,70,293.2831669000443,294.93426770018414,,,,,,,,,,,010,ｍ,1９,2023-05-13_18h48.26.471,RL,2022.2.5,60.049168241871804,
42,57,59,52,0,47,47,47,,,,,,,,None,294.93426770018414,294.93426770018414,294.93426770018414,294.93426770018414,294.93426770018414,294.93426770018414,r,0.3364514000713825,295.3060802000109,295.3060802000109,295.3060802000109,295.3060802000109,295.3060802000109,295.3060802000109,295.5845494000241,297.5676311000716,297.5676311000716,297.5676311000716,297.5676311000716,297.5676311000716,297.5676311000716,297.55124610010535,297.5676311000716,297.5676311000716,297.5676311000716,297.5676311000716,297.5676311000716,297.5676311000716,297.5676311000716,299.83207390015014,299.83207390015014,299.83207390015014,299.83207390015014,299.83207390015014,299.83207390015014,299.83207390015014,57,59,42,52,59,70,299.83207390015014,301.64998660003766,,,,,,,,,,,010,ｍ,1９,2023-05-13_18h48.26.471,RL,2022.2.5,60.049168241871804,
48,51,58,57,0,48,48,48,,,,,,,,None,301.64998660003766,301.64998660003766,301.64998660003766,301.64998660003766,301.64998660003766,301.64998660003766,j,0.25731880008243024,301.93534930003807,301.93534930003807,301.93534930003807,301.93534930003807,301.93534930003807,301.93534930003807,302.21709930012,303.2833718000911,303.2833718000911,303.2833718000911,303.2833718000911,303.2833718000911,303.2833718000911,303.2666843000334,303.2833718000911,303.2833718000911,303.2833718000911,303.2833718000911,303.2833718000911,303.2833718000911,303.2833718000911,304.63149760011584,304.63149760011584,304.63149760011584,304.63149760011584,304.63149760011584,304.63149760011584,304.63149760011584,51,58,48,57,57,70,304.63149760011584,306.1989531000145,,,,,,,,,,,010,ｍ,1９,2023-05-13_18h48.26.471,RL,2022.2.5,60.049168241871804,
44,52,59,62,0,49,49,49,,,,,,,,None,306.1989531000145,306.1989531000145,306.1989531000145,306.1989531000145,306.1989531000145,306.1989531000145,r,0.2725633999798447,306.4996202001348,306.4996202001348,306.4996202001348,306.4996202001348,306.4996202001348,306.4996202001348,306.7823143999558,308.6657102999743,308.6657102999743,308.6657102999743,308.6657102999743,308.6657102999743,308.6657102999743,308.64893990010023,308.6657102999743,308.6657102999743,308.6657102999743,308.6657102999743,308.6657102999743,308.6657102999743,308.6657102999743,310.8303958000615,310.8303958000615,310.8303958000615,310.8303958000615,310.8303958000615,310.8303958000615,310.8303958000615,52,59,44,62,59,70,310.8303958000615,312.3812655999791,,,,,,,,,,,010,ｍ,1９,2023-05-13_18h48.26.471,RL,2022.2.5,60.049168241871804,
49,47,59,49,0,50,50,50,,,,,,,,None,312.3812655999791,312.3812655999791,312.3812655999791,312.3812655999791,312.3812655999791,312.3812655999791,r,0.5149914000649005,312.91712060011923,312.91712060011923,312.91712060011923,312.91712060011923,312.91712060011923,312.91712060011923,313.21458160015754,314.66433449997567,314.66433449997567,314.66433449997567,314.66433449997567,314.66433449997567,314.66433449997567,314.66433449997567,314.66433449997567,314.66433449997567,314.66433449997567,314.66433449997567,314.66433449997567,314.66433449997567,314.66433449997567,316.4129184000194,316.4129184000194,316.4129184000194,316.4129184000194,316.4129184000194,316.4129184000194,316.4129184000194,47,59,49,49,59,70,316.4129184000194,318.28023050003685,,,,,,,,,,,010,ｍ,1９,2023-05-13_18h48.26.471,RL,2022.2.5,60.049168241871804,
50,55,57,57,0,51,51,51,,,,,,,,None,318.28023050003685,318.28023050003685,318.28023050003685,318.28023050003685,318.28023050003685,318.28023050003685,j,0.3073402000591159,318.6157565000467,318.6157565000467,318.6157565000467,318.6157565000467,318.6157565000467,318.6157565000467,318.913618999999,320.1637795001734,320.1637795001734,320.1637795001734,320.1637795001734,320.1637795001734,320.1637795001734,320.1637795001734,320.1637795001734,320.1637795001734,320.1637795001734,320.1637795001734,320.1637795001734,320.1637795001734,320.1637795001734,321.71165490010753,321.71165490010753,321.71165490010753,321.71165490010753,321.71165490010753,321.71165490010753,321.71165490010753,55,57,50,57,57,70,321.71165490010753,323.29632870014757,,,,,,,,,,,010,ｍ,1９,2023-05-13_18h48.26.471,RL,2022.2.5,60.049168241871804,
53,47,67,49,0,52,52,52,,,,,,,,None,323.29632870014757,323.29632870014757,323.29632870014757,323.29632870014757,323.29632870014757,323.29632870014757,r,0.46220789989456534,323.7807565999683,323.7807565999683,323.7807565999683,323.7807565999683,323.7807565999683,323.7807565999683,324.06328180013224,325.5457948001567,325.5457948001567,325.5457948001567,325.5457948001567,325.5457948001567,325.5457948001567,325.5294770000037,325.5457948001567,325.5457948001567,325.5457948001567,325.5457948001567,325.5457948001567,325.5457948001567,325.5457948001567,327.31053280015476,327.31053280015476,327.31053280015476,327.31053280015476,327.31053280015476,327.31053280015476,327.31053280015476,47,67,53,49,67,70,327.31053280015476,329.0281523000449,,,,,,,,,,,010,ｍ,1９,2023-05-13_18h48.26.471,RL,2022.2.5,60.049168241871804,
53,55,69,61,0,53,53,53,,,,,,,,None,329.0281523000449,329.0281523000449,329.0281523000449,329.0281523000449,329.0281523000449,329.0281523000449,r,0.2701566000469029,329.33426110004075,329.33426110004075,329.33426110004075,329.33426110004075,329.33426110004075,329.33426110004075,329.6118743000552,331.2618474001065,331.2618474001065,331.2618474001065,331.2618474001065,331.2618474001065,331.2618474001065,331.22844360000454,331.2618474001065,331.2618474001065,331.2618474001065,331.2618474001065,331.2618474001065,331.2618474001065,331.2618474001065,333.1759590001311,333.1759590001311,333.1759590001311,333.1759590001311,333.1759590001311,333.1759590001311,333.1759590001311,55,69,53,61,69,70,333.1759590001311,334.6944097999949,,,,,,,,,,,010,ｍ,1９,2023-05-13_18h48.26.471,RL,2022.2.5,60.049168241871804,
48,56,71,51,0,54,54,54,,,,,,,,None,334.6944097999949,334.6944097999949,334.6944097999949,334.6944097999949,334.6944097999949,334.6944097999949,r,0.30262740002945065,335.03278310014866,335.03278310014866,335.03278310014866,335.03278310014866,335.03278310014866,335.03278310014866,335.31139539997093,337.11037800018676,337.11037800018676,337.11037800018676,337.11037800018676,337.11037800018676,337.11037800018676,337.0776109001599,337.11037800018676,337.11037800018676,337.11037800018676,337.11037800018676,337.11037800018676,337.11037800018676,337.11037800018676,339.175018500071,339.175018500071,339.175018500071,339.175018500071,339.175018500071,339.175018500071,339.175018500071,56,71,48,51,71,70,339.175018500071,340.876445800066,,,,,,,,,,,010,ｍ,1９,2023-05-13_18h48.26.471,RL,2022.2.5,60.049168241871804,
51,56,65,51,0,55,55,55,,,,,,,,None,340.876445800066,340.876445800066,340.876445800066,340.876445800066,340.876445800066,340.876445800066,r,0.29191050003282726,341.1940771001391,341.1940771001391,341.1940771001391,341.1940771001391,341.1940771001391,341.1940771001391,341.47687340015545,342.9763758999761,342.9763758999761,342.9763758999761,342.9763758999761,342.9763758999761,342.9763758999761,342.96007150015794,342.9763758999761,342.9763758999761,342.9763758999761,342.9763758999761,342.9763758999761,342.9763758999761,342.9763758999761,344.7576661000494,344.7576661000494,344.7576661000494,344.7576661000494,344.7576661000494,344.7576661000494,344.7576661000494,56,65,51,51,65,70,344.7576661000494,346.2923276000656,,,,,,,,,,,010,ｍ,1９,2023-05-13_18h48.26.471,RL,2022.2.5,60.049168241871804,
53,60,64,51,0,56,56,56,,,,,,,,None,346.2923276000656,346.2923276000656,346.2923276000656,346.2923276000656,346.2923276000656,346.2923276000656,r,0.33763390011154115,346.66411100002006,346.66411100002006,346.66411100002006,346.66411100002006,346.66411100002006,346.66411100002006,346.95902980002575,347.8421679001767,347.8421679001767,347.8421679001767,347.8421679001767,347.8421679001767,347.8421679001767,347.8421679001767,347.8421679001767,347.8421679001767,347.8421679001767,347.8421679001767,347.8421679001767,347.8421679001767,347.8421679001767,349.0237579999957,349.0237579999957,349.0237579999957,349.0237579999957,349.0237579999957,349.0237579999957,349.0237579999957,60,64,53,51,64,70,349.0237579999957,351.0241609001532,,,,,,,,,,,010,ｍ,1９,2023-05-13_18h48.26.471,RL,2022.2.5,60.049168241871804,
54,56,67,43,0,57,57,57,,,,,,,,None,351.0241609001532,351.0241609001532,351.0241609001532,351.0241609001532,351.0241609001532,351.0241609001532,r,1.1702290999237448,352.2248696000315,352.2248696000315,352.2248696000315,352.2248696000315,352.2248696000315,352.2248696000315,352.5078261999879,354.45001569995657,354.45001569995657,354.45001569995657,354.45001569995657,354.45001569995657,354.45001569995657,354.3913461000193,354.45001569995657,354.45001569995657,354.45001569995657,354.45001569995657,354.45001569995657,354.45001569995657,354.45001569995657,356.63891259999946,356.63891259999946,356.63891259999946,356.63891259999946,356.63891259999946,356.63891259999946,356.63891259999946,56,67,54,43,67,70,356.63891259999946,358.5902407001704,,,,,,,,,,,010,ｍ,1９,2023-05-13_18h48.26.471,RL,2022.2.5,60.049168241871804,
59,65,67,46,0,58,58,58,,,,,,,,None,358.5902407001704,358.5902407001704,358.5902407001704,358.5902407001704,358.5902407001704,358.5902407001704,r,0.23751779994927347,358.85918699996546,358.85918699996546,358.85918699996546,358.85918699996546,358.85918699996546,358.85918699996546,359.1403110001702,361.0394224000629,361.0394224000629,361.0394224000629,361.0394224000629,361.0394224000629,361.0394224000629,361.0068024999928,361.0394224000629,361.0394224000629,361.0394224000629,361.0394224000629,361.0394224000629,361.0394224000629,361.0394224000629,363.20457429997623,363.20457429997623,363.20457429997623,363.20457429997623,363.20457429997623,363.20457429997623,363.20457429997623,65,67,59,46,67,70,363.20457429997623,364.87201110017486,,,,,,,,,,,010,ｍ,1９,2023-05-13_18h48.26.471,RL,2022.2.5,60.049168241871804,
53,55,67,36,0,59,59,59,,,,,,,,None,364.87201110017486,364.87201110017486,364.87201110017486,364.87201110017486,364.87201110017486,364.87201110017486,r,0.1977325000334531,365.09010830009356,365.09010830009356,365.09010830009356,365.09010830009356,365.09010830009356,365.09010830009356,365.3888822000008,367.18866079999134,367.18866079999134,367.18866079999134,367.18866079999134,367.18866079999134,367.18866079999134,367.18866079999134,367.18866079999134,367.18866079999134,367.18866079999134,367.18866079999134,367.18866079999134,367.18866079999134,367.18866079999134,369.2864693000447,369.2864693000447,369.2864693000447,369.2864693000447,369.2864693000447,369.2864693000447,369.2864693000447,55,67,53,36,67,70,369.2864693000447,371.1211131999735,,,,,,,,,,,010,ｍ,1９,2023-05-13_18h48.26.471,RL,2022.2.5,60.049168241871804,
54,68,56,42,0,60,60,60,,,,,,,,None,371.1211131999735,371.1211131999735,371.1211131999735,371.1211131999735,371.1211131999735,371.1211131999735,r,0.3016119999811053,371.4624097000342,371.4624097000342,371.4624097000342,371.4624097000342,371.4624097000342,371.4624097000342,371.737780299969,373.47103220014833,373.47103220014833,373.47103220014833,373.47103220014833,373.47103220014833,373.47103220014833,373.4374734000303,373.47103220014833,373.47103220014833,373.47103220014833,373.47103220014833,373.47103220014833,373.47103220014833,373.47103220014833,375.4689110000618,375.4689110000618,375.4689110000618,375.4689110000618,375.4689110000618,375.4689110000618,375.4689110000618,68,56,54,42,56,70,375.4689110000618,377.2532489001751,,,,,,,,,,,010,ｍ,1９,2023-05-13_18h48.26.471,RL,2022.2.5,60.049168241871804,
56,54,58,42,0,61,61,61,,,,,,,,None,377.2532489001751,377.2532489001751,377.2532489001751,377.2532489001751,377.2532489001751,377.2532489001751,r,0.27920659980736673,377.5549178000074,377.5549178000074,377.5549178000074,377.5549178000074,377.5549178000074,377.5549178000074,377.83731410000473,379.7533044000156,379.7533044000156,379.7533044000156,379.7533044000156,379.7533044000156,379.7533044000156,379.7363476001192,379.7533044000156,379.7533044000156,379.7533044000156,379.7533044000156,379.7533044000156,379.7533044000156,379.7533044000156,381.9513558000326,381.9513558000326,381.9513558000326,381.9513558000326,381.9513558000326,381.9513558000326,381.9513558000326,54,58,56,42,58,70,381.9513558000326,383.95200640009716,,,,,,,,,,,010,ｍ,1９,2023-05-13_18h48.26.471,RL,2022.2.5,60.049168241871804,
54,50,58,44,0,62,62,62,,,,,,,,None,383.95200640009716,383.95200640009716,383.95200640009716,383.95200640009716,383.95200640009716,383.95200640009716,r,0.2960491001140326,384.2708648000844,384.2708648000844,384.2708648000844,384.2708648000844,384.2708648000844,384.2708648000844,384.5691133001819,386.4686938000377,386.4686938000377,386.4686938000377,386.4686938000377,386.4686938000377,386.4686938000377,386.4686938000377,386.4686938000377,386.4686938000377,386.4686938000377,386.4686938000377,386.4686938000377,386.4686938000377,386.4686938000377,388.6664687001612,388.6664687001612,388.6664687001612,388.6664687001612,388.6664687001612,388.6664687001612,388.6664687001612,50,58,54,44,58,70,388.6664687001612,390.41785020008683,,,,,,,,,,,010,ｍ,1９,2023-05-13_18h48.26.471,RL,2022.2.5,60.049168241871804,
45,59,51,44,0,63,63,63,,,,,,,,None,390.41785020008683,390.41785020008683,390.41785020008683,390.41785020008683,390.41785020008683,390.41785020008683,r,0.27614400000311434,390.7221761001274,390.7221761001274,390.7221761001274,390.7221761001274,390.7221761001274,390.7221761001274,391.00159190013073,392.4842289001681,392.4842289001681,392.4842289001681,392.4842289001681,392.4842289001681,392.4842289001681,392.4680584000889,392.4842289001681,392.4842289001681,392.4842289001681,392.4842289001681,392.4842289001681,392.4842289001681,392.4842289001681,394.2488720000256,394.2488720000256,394.2488720000256,394.2488720000256,394.2488720000256,394.2488720000256,394.2488720000256,59,51,45,44,51,70,394.2488720000256,395.85027489997447,,,,,,,,,,,010,ｍ,1９,2023-05-13_18h48.26.471,RL,2022.2.5,60.049168241871804,
50,54,50,44,0,64,64,64,,,,,,,,None,395.85027489997447,395.85027489997447,395.85027489997447,395.85027489997447,395.85027489997447,395.85027489997447,j,0.35533869988285005,396.23402690002695,396.23402690002695,396.23402690002695,396.23402690002695,396.23402690002695,396.23402690002695,396.5168490000069,397.4500126000494,397.4500126000494,397.4500126000494,397.4500126000494,397.4500126000494,397.4500126000494,397.4334545000456,397.4500126000494,397.4500126000494,397.4500126000494,397.4500126000494,397.4500126000494,397.4500126000494,397.4500126000494,398.6648600001354,398.6648600001354,398.6648600001354,398.6648600001354,398.6648600001354,398.6648600001354,398.6648600001354,54,50,50,44,44,70,398.6648600001354,400.3162195000332,,,,,,,,,,,010,ｍ,1９,2023-05-13_18h48.26.471,RL,2022.2.5,60.049168241871804,
52,53,50,44,0,65,65,65,,,,,,,,None,400.3162195000332,400.3162195000332,400.3162195000332,400.3162195000332,400.3162195000332,400.3162195000332,r,0.263188699958846,400.59966429998167,400.59966429998167,400.59966429998167,400.59966429998167,400.59966429998167,400.59966429998167,400.8827375001274,402.63268689997494,402.63268689997494,402.63268689997494,402.63268689997494,402.63268689997494,402.63268689997494,402.6162199000828,402.63268689997494,402.63268689997494,402.63268689997494,402.63268689997494,402.63268689997494,402.63268689997494,402.63268689997494,404.6644464000128,404.6644464000128,404.6644464000128,404.6644464000128,404.6644464000128,404.6644464000128,404.6644464000128,53,50,52,44,50,70,404.6644464000128,406.2149648000486,,,,,,,,,,,010,ｍ,1９,2023-05-13_18h48.26.471,RL,2022.2.5,60.049168241871804,
42,55,65,49,0,66,66,66,,,,,,,,None,406.2149648000486,406.2149648000486,406.2149648000486,406.2149648000486,406.2149648000486,406.2149648000486,r,0.30439990013837814,406.5487464000471,406.5487464000471,406.5487464000471,406.5487464000471,406.5487464000471,406.5487464000471,406.8487381001469,407.9647409999743,407.9647409999743,407.9647409999743,407.9647409999743,407.9647409999743,407.9647409999743,407.9647409999743,407.9647409999743,407.9647409999743,407.9647409999743,407.9647409999743,407.9647409999743,407.9647409999743,407.9647409999743,409.3795485000592,409.3795485000592,409.3795485000592,409.3795485000592,409.3795485000592,409.3795485000592,409.3795485000592,55,65,42,49,65,70,409.3795485000592,410.9311655999627,,,,,,,,,,,010,ｍ,1９,2023-05-13_18h48.26.471,RL,2022.2.5,60.049168241871804,
46,55,53,54,0,67,67,67,,,,,,,,None,410.9311655999627,410.9311655999627,410.9311655999627,410.9311655999627,410.9311655999627,410.9311655999627,r,0.2794260000810027,411.23113570013084,411.23113570013084,411.23113570013084,411.23113570013084,411.23113570013084,411.23113570013084,411.514630000107,412.5808188000228,412.5808188000228,412.5808188000228,412.5808188000228,412.5808188000228,412.5808188000228,412.56421059998684,412.5808188000228,412.5808188000228,412.5808188000228,412.5808188000228,412.5808188000228,412.5808188000228,412.5808188000228,413.92900330014527,413.92900330014527,413.92900330014527,413.92900330014527,413.92900330014527,413.92900330014527,413.92900330014527,55,53,46,54,53,70,413.92900330014527,415.64660100010224,,,,,,,,,,,010,ｍ,1９,2023-05-13_18h48.26.471,RL,2022.2.5,60.049168241871804,
51,56,45,50,0,68,68,68,,,,,,,,None,415.64660100010224,415.64660100010224,415.64660100010224,415.64660100010224,415.64660100010224,415.64660100010224,j,0.2627433999441564,415.9310926999897,415.9310926999897,415.9310926999897,415.9310926999897,415.9310926999897,415.9310926999897,416.23046580003574,417.9796639000997,417.9796639000997,417.9796639000997,417.9796639000997,417.9796639000997,417.9796639000997,417.9796639000997,417.9796639000997,417.9796639000997,417.9796639000997,417.9796639000997,417.9796639000997,417.9796639000997,417.9796639000997,420.02775970008224,420.02775970008224,420.02775970008224,420.02775970008224,420.02775970008224,420.02775970008224,420.02775970008224,56,45,51,50,50,70,420.02775970008224,422.01228679995984,,,,,,,,,,,010,ｍ,1９,2023-05-13_18h48.26.471,RL,2022.2.5,60.049168241871804,
40,51,48,54,0,69,69,69,,,,,,,,None,422.01228679995984,422.01228679995984,422.01228679995984,422.01228679995984,422.01228679995984,422.01228679995984,r,0.2415744001045823,422.27941079996526,422.27941079996526,422.27941079996526,422.27941079996526,422.27941079996526,422.27941079996526,422.5790226000827,423.8952866999898,423.8952866999898,423.8952866999898,423.8952866999898,423.8952866999898,423.8952866999898,423.8952866999898,423.8952866999898,423.8952866999898,423.8952866999898,423.8952866999898,423.8952866999898,423.8952866999898,423.8952866999898,425.5100971001666,425.5100971001666,425.5100971001666,425.5100971001666,425.5100971001666,425.5100971001666,425.5100971001666,51,48,40,54,48,70,425.5100971001666,427.2444611999672,,,,,,,,,,,010,ｍ,1９,2023-05-13_18h48.26.471,RL,2022.2.5,60.049168241871804,
44,55,51,57,0,70,70,70,,,,,,,,None,427.2444611999672,427.2444611999672,427.2444611999672,427.2444611999672,427.2444611999672,427.2444611999672,r,0.2673445001710206,427.547013200121,427.547013200121,427.547013200121,427.547013200121,427.547013200121,427.547013200121,427.82855050009675,429.67800020007417,429.67800020007417,429.67800020007417,429.67800020007417,429.67800020007417,429.67800020007417,429.66154960007407,429.67800020007417,429.67800020007417,429.67800020007417,429.67800020007417,429.67800020007417,429.67800020007417,429.67800020007417,431.80909200012684,431.80909200012684,431.80909200012684,431.80909200012684,431.80909200012684,431.80909200012684,431.80909200012684,55,51,44,57,51,70,431.80909200012684,433.3270741000306,,,,,,,,,,,010,ｍ,1９,2023-05-13_18h48.26.471,RL,2022.2.5,60.049168241871804,
52,61,51,53,0,71,71,71,,,,,,,,None,433.3270741000306,433.3270741000306,433.3270741000306,433.3270741000306,433.3270741000306,433.3270741000306,r,0.3382686001714319,433.6951935000252,433.6951935000252,433.6951935000252,433.6951935000252,433.6951935000252,433.6951935000252,433.9775664000772,435.1603945000097,435.1603945000097,435.1603945000097,435.1603945000097,435.1603945000097,435.1603945000097,435.143870000029,435.1603945000097,435.1603945000097,435.1603945000097,435.1603945000097,435.1603945000097,435.1603945000097,435.1603945000097,436.624819500139,436.624819500139,436.624819500139,436.624819500139,436.624819500139,436.624819500139,436.624819500139,61,51,52,53,51,70,436.624819500139,438.59255350008607,,,,,,,,,,,010,ｍ,1９,2023-05-13_18h48.26.471,RL,2022.2.5,60.049168241871804,
52,55,49,60,0,72,72,72,,,,,,,,None,438.59255350008607,438.59255350008607,438.59255350008607,438.59255350008607,438.59255350008607,438.59255350008607,j,0.9329533998388797,439.5429853000678,439.5429853000678,439.5429853000678,439.5429853000678,439.5429853000678,439.5429853000678,439.84269269998185,441.40937270014547,441.40937270014547,441.40937270014547,441.40937270014547,441.40937270014547,441.40937270014547,441.40937270014547,441.40937270014547,441.40937270014547,441.40937270014547,441.40937270014547,441.40937270014547,441.40937270014547,441.40937270014547,443.2737998999655,443.2737998999655,443.2737998999655,443.2737998999655,443.2737998999655,443.2737998999655,443.2737998999655,55,49,52,60,60,70,443.2737998999655,445.2750105999876,,,,,,,,,,,010,ｍ,1９,2023-05-13_18h48.26.471,RL,2022.2.5,60.049168241871804,
54,48,49,60,0,73,73,73,,,,,,,,None,445.2750105999876,445.2750105999876,445.2750105999876,445.2750105999876,445.2750105999876,445.2750105999876,r,0.6906271001789719,445.992090200074,445.992090200074,445.992090200074,445.992090200074,445.992090200074,445.992090200074,446.27548010018654,448.2577727001626,448.2577727001626,448.2577727001626,448.2577727001626,448.2577727001626,448.2577727001626,448.24118939996697,448.2577727001626,448.2577727001626,448.2577727001626,448.2577727001626,448.2577727001626,448.2577727001626,448.2577727001626,450.52291629998945,450.52291629998945,450.52291629998945,450.52291629998945,450.52291629998945,450.52291629998945,450.52291629998945,48,49,54,60,49,70,450.52291629998945,452.09018000005744,,,,,,,,,,,010,ｍ,1９,2023-05-13_18h48.26.471,RL,2022.2.5,60.049168241871804,
47,48,54,47,0,74,74,74,,,,,,,,None,452.09018000005744,452.09018000005744,452.09018000005744,452.09018000005744,452.09018000005744,452.09018000005744,j,0.272144400049001,452.39341010013595,452.39341010013595,452.39341010013595,452.39341010013595,452.39341010013595,452.39341010013595,452.6742390000727,454.3733853001613,454.3733853001613,454.3733853001613,454.3733853001613,454.3733853001613,454.3733853001613,454.3570471999701,454.3733853001613,454.3733853001613,454.3733853001613,454.3733853001613,454.3733853001613,454.3733853001613,454.3733853001613,456.35471760015935,456.35471760015935,456.35471760015935,456.35471760015935,456.35471760015935,456.35471760015935,456.35471760015935,48,54,47,47,47,70,456.35471760015935,458.15500390017405,,,,,,,,,,,010,ｍ,1９,2023-05-13_18h48.26.471,RL,2022.2.5,60.049168241871804,
51,49,44,54,0,75,75,75,,,,,,,,q,512.8301635000389,512.8301635000389,512.8301635000389,512.8301635000389,512.8301635000389,512.8301635000389,r,0.34520989982411265,513.1969548000488,513.1969548000488,513.1969548000488,513.1969548000488,513.1969548000488,513.1969548000488,513.4800831000321,515.030033600051,515.030033600051,515.030033600051,515.030033600051,515.030033600051,515.030033600051,515.0135483001359,515.030033600051,515.030033600051,515.030033600051,515.030033600051,515.030033600051,515.030033600051,515.030033600051,516.8611330001149,516.8611330001149,516.8611330001149,516.8611330001149,516.8611330001149,516.8611330001149,516.8611330001149,49,44,51,54,44,70,516.8611330001149,518.4456784999929,458.15500390017405,458.15500390017405,49.639990699943155,507.81458710017614,507.81458710017614,512.8301635000389,512.8301635000389,,,,010,ｍ,1９,2023-05-13_18h48.26.471,RL,2022.2.5,60.049168241871804,
47,62,50,61,0,76,76,76,,,,,,,,None,518.4456784999929,518.4456784999929,518.4456784999929,518.4456784999929,518.4456784999929,518.4456784999929,j,0.29511619987897575,518.7629242001567,518.7629242001567,518.7629242001567,518.7629242001567,518.7629242001567,518.7629242001567,519.0457729999907,520.179065400036,520.179065400036,520.179065400036,520.179065400036,520.179065400036,520.179065400036,520.1625324999914,520.179065400036,520.179065400036,520.179065400036,520.179065400036,520.179065400036,520.179065400036,520.179065400036,521.5935319000855,521.5935319000855,521.5935319000855,521.5935319000855,521.5935319000855,521.5935319000855,521.5935319000855,62,50,47,61,61,70,521.5935319000855,523.2949349000119,,,,,,,,,,,010,ｍ,1９,2023-05-13_18h48.26.471,RL,2022.2.5,60.049168241871804,
50,53,49,62,0,77,77,77,,,,,,,,None,523.2949349000119,523.2949349000119,523.2949349000119,523.2949349000119,523.2949349000119,523.2949349000119,j,0.3342950001824647,523.667390699964,523.667390699964,523.667390699964,523.667390699964,523.667390699964,523.667390699964,523.9449722999707,525.1615414000116,525.1615414000116,525.1615414000116,525.1615414000116,525.1615414000116,525.1615414000116,525.1281306999736,525.1615414000116,525.1615414000116,525.1615414000116,525.1615414000116,525.1615414000116,525.1615414000116,525.1615414000116,526.6426446000114,526.6426446000114,526.6426446000114,526.6426446000114,526.6426446000114,526.6426446000114,526.6426446000114,53,49,50,62,62,70,526.6426446000114,528.5940917001572,,,,,,,,,,,010,ｍ,1９,2023-05-13_18h48.26.471,RL,2022.2.5,60.049168241871804,
48,61,54,71,0,78,78,78,,,,,,,,None,528.5940917001572,528.5940917001572,528.5940917001572,528.5940917001572,528.5940917001572,528.5940917001572,r,0.2804440998006612,528.8940369000193,528.8940369000193,528.8940369000193,528.8940369000193,528.8940369000193,528.8940369000193,529.194419400068,530.1102593000978,530.1102593000978,530.1102593000978,530.1102593000978,530.1102593000978,530.1102593000978,530.1102593000978,530.1102593000978,530.1102593000978,530.1102593000978,530.1102593000978,530.1102593000978,530.1102593000978,530.1102593000978,531.3252246000338,531.3252246000338,531.3252246000338,531.3252246000338,531.3252246000338,531.3252246000338,531.3252246000338,61,54,48,71,54,70,531.3252246000338,533.2432006001472,,,,,,,,,,,010,ｍ,1９,2023-05-13_18h48.26.471,RL,2022.2.5,60.049168241871804,
58,53,51,68,0,79,79,79,,,,,,,,None,533.2432006001472,533.2432006001472,533.2432006001472,533.2432006001472,533.2432006001472,533.2432006001472,j,0.25279940012842417,533.5269818000961,533.5269818000961,533.5269818000961,533.5269818000961,533.5269818000961,533.5269818000961,533.8096817000769,534.692885800032,534.692885800032,534.692885800032,534.692885800032,534.692885800032,534.692885800032,534.6760852001607,534.692885800032,534.692885800032,534.692885800032,534.692885800032,534.692885800032,534.692885800032,534.692885800032,535.8579677999951,535.8579677999951,535.8579677999951,535.8579677999951,535.8579677999951,535.8579677999951,535.8579677999951,53,51,58,68,68,70,535.8579677999951,537.6087750999723,,,,,,,,,,,010,ｍ,1９,2023-05-13_18h48.26.471,RL,2022.2.5,60.049168241871804,
63,51,61,65,0,80,80,80,,,,,,,,None,537.6087750999723,537.6087750999723,537.6087750999723,537.6087750999723,537.6087750999723,537.6087750999723,j,0.26066659996286035,537.8923981999978,537.8923981999978,537.8923981999978,537.8923981999978,537.8923981999978,537.8923981999978,538.1923624000046,539.2259494999889,539.2259494999889,539.2259494999889,539.2259494999889,539.2259494999889,539.2259494999889,539.2259494999889,539.2259494999889,539.2259494999889,539.2259494999889,539.2259494999889,539.2259494999889,539.2259494999889,539.2259494999889,540.5572617000435,540.5572617000435,540.5572617000435,540.5572617000435,540.5572617000435,540.5572617000435,540.5572617000435,51,61,63,65,65,70,540.5572617000435,542.1080954000354,,,,,,,,,,,010,ｍ,1９,2023-05-13_18h48.26.471,RL,2022.2.5,60.049168241871804,
49,56,61,56,0,81,81,81,,,,,,,,None,542.1080954000354,542.1080954000354,542.1080954000354,542.1080954000354,542.1080954000354,542.1080954000354,j,0.31580009986646473,542.4417396001518,542.4417396001518,542.4417396001518,542.4417396001518,542.4417396001518,542.4417396001518,542.7255242001265,543.7581333999988,543.7581333999988,543.7581333999988,543.7581333999988,543.7581333999988,543.7581333999988,543.7418548001442,543.7581333999988,543.7581333999988,543.7581333999988,543.7581333999988,543.7581333999988,543.7581333999988,543.7581333999988,545.0728672000114,545.0728672000114,545.0728672000114,545.0728672000114,545.0728672000114,545.0728672000114,545.0728672000114,56,61,49,56,56,70,545.0728672000114,546.9567998000421,,,,,,,,,,,010,ｍ,1９,2023-05-13_18h48.26.471,RL,2022.2.5,60.049168241871804,
60,55,57,49,0,82,82,82,,,,,,,,None,546.9567998000421,546.9567998000421,546.9567998000421,546.9567998000421,546.9567998000421,546.9567998000421,i,0.25504789990372956,547.2409233001526,547.2409233001526,547.2409233001526,547.2409233001526,547.2409233001526,547.2409233001526,547.5244176001288,548.6072933999822,548.6072933999822,548.6072933999822,548.6072933999822,548.6072933999822,548.6072933999822,548.590441300068,548.6072933999822,548.6072933999822,548.6072933999822,548.6072933999822,548.6072933999822,548.6072933999822,548.6072933999822,549.972090100171,549.972090100171,549.972090100171,549.972090100171,549.972090100171,549.972090100171,549.972090100171,55,57,60,49,60,70,549.972090100171,551.5730956001207,,,,,,,,,,,010,ｍ,1９,2023-05-13_18h48.26.471,RL,2022.2.5,60.049168241871804,
58,56,64,52,0,83,83,83,,,,,,,,None,551.5730956001207,551.5730956001207,551.5730956001207,551.5730956001207,551.5730956001207,551.5730956001207,f,0.28260339982807636,551.8745150000323,551.8745150000323,551.8745150000323,551.8745150000323,551.8745150000323,551.8745150000323,552.1563726000022,553.5228717001155,553.5228717001155,553.5228717001155,553.5228717001155,553.5228717001155,553.5228717001155,553.5063183000311,553.5228717001155,553.5228717001155,553.5228717001155,553.5228717001155,553.5228717001155,553.5228717001155,553.5228717001155,555.1709187000524,555.1709187000524,555.1709187000524,555.1709187000524,555.1709187000524,555.1709187000524,555.1709187000524,56,64,58,52,56,70,555.1709187000524,556.7887115001213,,,,,,,,,,,010,ｍ,1９,2023-05-13_18h48.26.471,RL,2022.2.5,60.049168241871804,
45,44,56,56,0,84,84,84,,,,,,,,None,556.7887115001213,556.7887115001213,556.7887115001213,556.7887115001213,556.7887115001213,556.7887115001213,j,0.25714400014840066,557.0732851000503,557.0732851000503,557.0732851000503,557.0732851000503,557.0732851000503,557.0732851000503,557.3725028999615,558.7885822001845,558.7885822001845,558.7885822001845,558.7885822001845,558.7885822001845,558.7885822001845,558.7885822001845,558.7885822001845,558.7885822001845,558.7885822001845,558.7885822001845,558.7885822001845,558.7885822001845,558.7885822001845,560.5028826000635,560.5028826000635,560.5028826000635,560.5028826000635,560.5028826000635,560.5028826000635,560.5028826000635,44,56,45,56,56,70,560.5028826000635,562.2712350001093,,,,,,,,,,,010,ｍ,1９,2023-05-13_18h48.26.471,RL,2022.2.5,60.049168241871804,
46,50,59,57,0,85,85,85,,,,,,,,None,562.2712350001093,562.2712350001093,562.2712350001093,562.2712350001093,562.2712350001093,562.2712350001093,r,0.26645039999857545,562.5551533000544,562.5551533000544,562.5551533000544,562.5551533000544,562.5551533000544,562.5551533000544,562.8383164000697,564.521171499975,564.521171499975,564.521171499975,564.521171499975,564.521171499975,564.521171499975,564.5044425001834,564.521171499975,564.521171499975,564.521171499975,564.521171499975,564.521171499975,564.521171499975,564.521171499975,566.486166600138,566.486166600138,566.486166600138,566.486166600138,566.486166600138,566.486166600138,566.486166600138,50,59,46,57,59,70,566.486166600138,568.2532948001754,,,,,,,,,,,010,ｍ,1９,2023-05-13_18h48.26.471,RL,2022.2.5,60.049168241871804,
41,36,62,48,0,86,86,86,,,,,,,,None,568.2532948001754,568.2532948001754,568.2532948001754,568.2532948001754,568.2532948001754,568.2532948001754,j,0.515727800084278,568.7881455000024,568.7881455000024,568.7881455000024,568.7881455000024,568.7881455000024,568.7881455000024,569.0873239999637,570.170090700034,570.170090700034,570.170090700034,570.170090700034,570.170090700034,570.170090700034,570.170090700034,570.170090700034,570.170090700034,570.170090700034,570.170090700034,570.170090700034,570.170090700034,570.170090700034,571.551776500186,571.551776500186,571.551776500186,571.551776500186,571.551776500186,571.551776500186,571.551776500186,36,62,41,48,48,70,571.551776500186,573.0859050001018,,,,,,,,,,,010,ｍ,1９,2023-05-13_18h48.26.471,RL,2022.2.5,60.049168241871804,
48,44,72,55,0,87,87,87,,,,,,,,None,573.0859050001018,573.0859050001018,573.0859050001018,573.0859050001018,573.0859050001018,573.0859050001018,r,0.33014649990946054,573.438831300009,573.438831300009,573.438831300009,573.438831300009,573.438831300009,573.438831300009,573.7364325001836,575.4862012001686,575.4862012001686,575.4862012001686,575.4862012001686,575.4862012001686,575.4862012001686,575.4696843000129,575.4862012001686,575.4862012001686,575.4862012001686,575.4862012001686,575.4862012001686,575.4862012001686,575.4862012001686,577.5176242000889,577.5176242000889,577.5176242000889,577.5176242000889,577.5176242000889,577.5176242000889,577.5176242000889,44,72,48,55,72,70,577.5176242000889,579.0350596001372,,,,,,,,,,,010,ｍ,1９,2023-05-13_18h48.26.471,RL,2022.2.5,60.049168241871804,
36,33,64,51,0,88,88,88,,,,,,,,None,579.0350596001372,579.0350596001372,579.0350596001372,579.0350596001372,579.0350596001372,579.0350596001372,r,0.2560446001589298,579.318904899992,579.318904899992,579.318904899992,579.318904899992,579.318904899992,579.318904899992,579.6187112999614,580.9185621000361,580.9185621000361,580.9185621000361,580.9185621000361,580.9185621000361,580.9185621000361,580.9185621000361,580.9185621000361,580.9185621000361,580.9185621000361,580.9185621000361,580.9185621000361,580.9185621000361,580.9185621000361,582.5165055000689,582.5165055000689,582.5165055000689,582.5165055000689,582.5165055000689,582.5165055000689,582.5165055000689,33,64,36,51,64,70,582.5165055000689,584.2343560000882,,,,,,,,,,,010,ｍ,1９,2023-05-13_18h48.26.471,RL,2022.2.5,60.049168241871804,
43,36,65,59,0,89,89,89,,,,,,,,None,584.2343560000882,584.2343560000882,584.2343560000882,584.2343560000882,584.2343560000882,584.2343560000882,r,0.2843609999399632,584.5557455001399,584.5557455001399,584.5557455001399,584.5557455001399,584.5557455001399,584.5557455001399,584.8346098000184,585.7678247999866,585.7678247999866,585.7678247999866,585.7678247999866,585.7678247999866,585.7678247999866,585.7345459000207,585.7678247999866,585.7678247999866,585.7678247999866,585.7678247999866,585.7678247999866,585.7678247999866,585.7678247999866,586.9659369001165,586.9659369001165,586.9659369001165,586.9659369001165,586.9659369001165,586.9659369001165,586.9659369001165,36,65,43,59,65,70,586.9659369001165,588.8333048999775,,,,,,,,,,,010,ｍ,1９,2023-05-13_18h48.26.471,RL,2022.2.5,60.049168241871804,
46,43,61,54,0,90,90,90,,,,,,,,None,588.8333048999775,588.8333048999775,588.8333048999775,588.8333048999775,588.8333048999775,588.8333048999775,r,0.28027740004472435,589.1338011999615,589.1338011999615,589.1338011999615,589.1338011999615,589.1338011999615,589.1338011999615,589.4169660001062,590.5163820001762,590.5163820001762,590.5163820001762,590.5163820001762,590.5163820001762,590.5163820001762,590.499889699975,590.5163820001762,590.5163820001762,590.5163820001762,590.5163820001762,590.5163820001762,590.5163820001762,590.5163820001762,591.8978469001595,591.8978469001595,591.8978469001595,591.8978469001595,591.8978469001595,591.8978469001595,591.8978469001595,43,61,46,54,61,70,591.8978469001595,593.6159308000933,,,,,,,,,,,010,ｍ,1９,2023-05-13_18h48.26.471,RL,2022.2.5,60.049168241871804,
47,37,60,53,0,91,91,91,,,,,,,,None,593.6159308000933,593.6159308000933,593.6159308000933,593.6159308000933,593.6159308000933,593.6159308000933,i,0.21879200008697808,593.8706644000486,593.8706644000486,593.8706644000486,593.8706644000486,593.8706644000486,593.8706644000486,594.149637100054,596.0822749000508,596.0822749000508,596.0822749000508,596.0822749000508,596.0822749000508,596.0822749000508,596.065528600011,596.0822749000508,596.0822749000508,596.0822749000508,596.0822749000508,596.0822749000508,596.0822749000508,596.0822749000508,598.2969254001509,598.2969254001509,598.2969254001509,598.2969254001509,598.2969254001509,598.2969254001509,598.2969254001509,37,60,47,53,47,70,598.2969254001509,600.0150562000927,,,,,,,,,,,010,ｍ,1９,2023-05-13_18h48.26.471,RL,2022.2.5,60.049168241871804,
47,41,68,44,0,92,92,92,,,,,,,,None,600.0150562000927,600.0150562000927,600.0150562000927,600.0150562000927,600.0150562000927,600.0150562000927,r,0.24503839993849397,600.2859565000981,600.2859565000981,600.2859565000981,600.2859565000981,600.2859565000981,600.2859565000981,600.5818112001289,601.8317829000298,601.8317829000298,601.8317829000298,601.8317829000298,601.8317829000298,601.8317829000298,601.8317829000298,601.8317829000298,601.8317829000298,601.8317829000298,601.8317829000298,601.8317829000298,601.8317829000298,601.8317829000298,603.3795078999829,603.3795078999829,603.3795078999829,603.3795078999829,603.3795078999829,603.3795078999829,603.3795078999829,41,68,47,44,68,70,603.3795078999829,605.0472878001165,,,,,,,,,,,010,ｍ,1９,2023-05-13_18h48.26.471,RL,2022.2.5,60.049168241871804,
51,30,68,39,0,93,93,93,,,,,,,,None,605.0472878001165,605.0472878001165,605.0472878001165,605.0472878001165,605.0472878001165,605.0472878001165,j,0.5191595999058336,605.6024800001178,605.6024800001178,605.6024800001178,605.6024800001178,605.6024800001178,605.6024800001178,605.8807050001342,607.0301208000164,607.0301208000164,607.0301208000164,607.0301208000164,607.0301208000164,607.0301208000164,606.9973709001206,607.0301208000164,607.0301208000164,607.0301208000164,607.0301208000164,607.0301208000164,607.0301208000164,607.0301208000164,608.4452434000559,608.4452434000559,608.4452434000559,608.4452434000559,608.4452434000559,608.4452434000559,608.4452434000559,30,68,51,39,39,70,608.4452434000559,610.1300854000729,,,,,,,,,,,010,ｍ,1９,2023-05-13_18h48.26.471,RL,2022.2.5,60.049168241871804,
37,37,71,45,0,94,94,94,,,,,,,,None,610.1300854000729,610.1300854000729,610.1300854000729,610.1300854000729,610.1300854000729,610.1300854000729,r,0.2655438999645412,610.4133156000171,610.4133156000171,610.4133156000171,610.4133156000171,610.4133156000171,610.4133156000171,610.6963528001215,611.8299547000788,611.8299547000788,611.8299547000788,611.8299547000788,611.8299547000788,611.8299547000788,611.8134528000373,611.8299547000788,611.8299547000788,611.8299547000788,611.8299547000788,611.8299547000788,611.8299547000788,611.8299547000788,613.2445349001791,613.2445349001791,613.2445349001791,613.2445349001791,613.2445349001791,613.2445349001791,613.2445349001791,37,71,37,45,71,70,613.2445349001791,615.0119735000189,,,,,,,,,,,010,ｍ,1９,2023-05-13_18h48.26.471,RL,2022.2.5,60.049168241871804,
43,31,69,43,0,95,95,95,,,,,,,,None,615.0119735000189,615.0119735000189,615.0119735000189,615.0119735000189,615.0119735000189,615.0119735000189,r,0.3056665000040084,615.3475804000627,615.3475804000627,615.3475804000627,615.3475804000627,615.3475804000627,615.3475804000627,615.6456598001532,617.5953739001416,617.5953739001416,617.5953739001416,617.5953739001416,617.5953739001416,617.5953739001416,617.5953739001416,617.5953739001416,617.5953739001416,617.5953739001416,617.5953739001416,617.5953739001416,617.5953739001416,617.5953739001416,619.8432057001628,619.8432057001628,619.8432057001628,619.8432057001628,619.8432057001628,619.8432057001628,619.8432057001628,31,69,43,43,69,70,619.8432057001628,621.7776995000895,,,,,,,,,,,010,ｍ,1９,2023-05-13_18h48.26.471,RL,2022.2.5,60.049168241871804,
37,35,72,42,0,96,96,96,,,,,,,,None,621.7776995000895,621.7776995000895,621.7776995000895,621.7776995000895,621.7776995000895,621.7776995000895,r,0.2343715000897646,622.0487281000242,622.0487281000242,622.0487281000242,622.0487281000242,622.0487281000242,622.0487281000242,622.3279573000036,624.1606232000049,624.1606232000049,624.1606232000049,624.1606232000049,624.1606232000049,624.1606232000049,624.1441053999588,624.1606232000049,624.1606232000049,624.1606232000049,624.1606232000049,624.1606232000049,624.1606232000049,624.1606232000049,626.2755744000897,626.2755744000897,626.2755744000897,626.2755744000897,626.2755744000897,626.2755744000897,626.2755744000897,35,72,37,42,72,70,626.2755744000897,628.176652800059,,,,,,,,,,,010,ｍ,1９,2023-05-13_18h48.26.471,RL,2022.2.5,60.049168241871804,
32,28,73,40,0,97,97,97,,,,,,,,None,628.176652800059,628.176652800059,628.176652800059,628.176652800059,628.176652800059,628.176652800059,r,0.25245409994386137,628.4637428000569,628.4637428000569,628.4637428000569,628.4637428000569,628.4637428000569,628.4637428000569,628.7434014000464,630.1599914999679,630.1599914999679,630.1599914999679,630.1599914999679,630.1599914999679,630.1599914999679,630.1432090001181,630.1599914999679,630.1599914999679,630.1599914999679,630.1599914999679,630.1599914999679,630.1599914999679,630.1599914999679,631.8580720999744,631.8580720999744,631.8580720999744,631.8580720999744,631.8580720999744,631.8580720999744,631.8580720999744,28,73,32,40,73,70,631.8580720999744,633.6920312000439,,,,,,,,,,,010,ｍ,1９,2023-05-13_18h48.26.471,RL,2022.2.5,60.049168241871804,
42,39,71,46,0,98,98,98,,,,,,,,None,633.6920312000439,633.6920312000439,633.6920312000439,633.6920312000439,633.6920312000439,633.6920312000439,r,0.274205100024119,633.9925294001587,633.9925294001587,633.9925294001587,633.9925294001587,633.9925294001587,633.9925294001587,634.2922400000971,635.775306600146,635.775306600146,635.775306600146,635.775306600146,635.775306600146,635.775306600146,635.775306600146,635.775306600146,635.775306600146,635.775306600146,635.775306600146,635.775306600146,635.775306600146,635.775306600146,637.5568844000809,637.5568844000809,637.5568844000809,637.5568844000809,637.5568844000809,637.5568844000809,637.5568844000809,39,71,42,46,71,70,637.5568844000809,639.4410947000142,,,,,,,,,,,010,ｍ,1９,2023-05-13_18h48.26.471,RL,2022.2.5,60.049168241871804,
54,33,73,47,0,99,99,99,,,,,,,,None,639.4410947000142,639.4410947000142,639.4410947000142,639.4410947000142,639.4410947000142,639.4410947000142,r,0.4154171000700444,639.8787597001065,639.8787597001065,639.8787597001065,639.8787597001065,639.8787597001065,639.8787597001065,640.175036800094,641.6747441999614,641.6747441999614,641.6747441999614,641.6747441999614,641.6747441999614,641.6747441999614,641.6747441999614,641.6747441999614,641.6747441999614,641.6747441999614,641.6747441999614,641.6747441999614,641.6747441999614,641.6747441999614,643.4727580000181,643.4727580000181,643.4727580000181,643.4727580000181,643.4727580000181,643.4727580000181,643.4727580000181,33,73,54,47,73,70,643.4727580000181,645.3902667001821,,,,,,,,,,,010,ｍ,1９,2023-05-13_18h48.26.471,RL,2022.2.5,60.049168241871804,
45,43,66,49,0,100,100,100,,,,,,,,None,645.3902667001821,645.3902667001821,645.3902667001821,645.3902667001821,645.3902667001821,645.3902667001821,r,0.445827400078997,645.8583099001553,645.8583099001553,645.8583099001553,645.8583099001553,645.8583099001553,645.8583099001553,646.1568521000445,647.273722999962,647.273722999962,647.273722999962,647.273722999962,647.273722999962,647.273722999962,647.273722999962,647.273722999962,647.273722999962,647.273722999962,647.273722999962,647.273722999962,647.273722999962,647.273722999962,648.6879608000163,648.6879608000163,648.6879608000163,648.6879608000163,648.6879608000163,648.6879608000163,648.6879608000163,43,66,45,49,66,70,648.6879608000163,650.5562210001517,,,,,,,,,,,010,ｍ,1９,2023-05-13_18h48.26.471,RL,2022.2.5,60.049168241871804,
40,36,61,50,0,101,101,101,,,,,,,,None,650.5562210001517,650.5562210001517,650.5562210001517,650.5562210001517,650.5562210001517,650.5562210001517,r,0.33413129998371005,650.9271586001851,650.9271586001851,650.9271586001851,650.9271586001851,650.9271586001851,650.9271586001851,651.2063107001595,652.8556447001174,652.8556447001174,652.8556447001174,652.8556447001174,652.8556447001174,652.8556447001174,652.8390648001805,652.8556447001174,652.8556447001174,652.8556447001174,652.8556447001174,652.8556447001174,652.8556447001174,652.8556447001174,654.7872025000397,654.7872025000397,654.7872025000397,654.7872025000397,654.7872025000397,654.7872025000397,654.7872025000397,36,61,40,50,61,70,654.7872025000397,656.422110500047,,,,,,,,,,,010,ｍ,1９,2023-05-13_18h48.26.471,RL,2022.2.5,60.049168241871804,
35,34,65,55,0,102,102,102,,,,,,,,None,656.422110500047,656.422110500047,656.422110500047,656.422110500047,656.422110500047,656.422110500047,j,0.4119059999939054,656.8565901999827,656.8565901999827,656.8565901999827,656.8565901999827,656.8565901999827,656.8565901999827,657.1383641001303,659.0383411999792,659.0383411999792,659.0383411999792,659.0383411999792,659.0383411999792,659.0383411999792,659.0216123999562,659.0383411999792,659.0383411999792,659.0383411999792,659.0383411999792,659.0383411999792,659.0383411999792,659.0383411999792,661.219680899987,661.219680899987,661.219680899987,661.219680899987,661.219680899987,661.219680899987,661.219680899987,34,65,35,55,55,70,661.219680899987,663.153703100048,,,,,,,,,,,010,ｍ,1９,2023-05-13_18h48.26.471,RL,2022.2.5,60.049168241871804,
39,37,61,52,0,103,103,103,,,,,,,,None,663.153703100048,663.153703100048,663.153703100048,663.153703100048,663.153703100048,663.153703100048,r,0.24355740007013083,663.420740300091,663.420740300091,663.420740300091,663.420740300091,663.420740300091,663.420740300091,663.7041270001791,665.1869326999877,665.1869326999877,665.1869326999877,665.1869326999877,665.1869326999877,665.1869326999877,665.1705418000929,665.1869326999877,665.1869326999877,665.1869326999877,665.1869326999877,665.1869326999877,665.1869326999877,665.1869326999877,666.9515470999759,666.9515470999759,666.9515470999759,666.9515470999759,666.9515470999759,666.9515470999759,666.9515470999759,37,61,39,52,61,70,666.9515470999759,668.8528186001349,,,,,,,,,,,010,ｍ,1９,2023-05-13_18h48.26.471,RL,2022.2.5,60.049168241871804,
44,41,50,44,0,104,104,104,,,,,,,,None,668.8528186001349,668.8528186001349,668.8528186001349,668.8528186001349,668.8528186001349,668.8528186001349,f,0.29086770000867546,669.1697879000567,669.1697879000567,669.1697879000567,669.1697879000567,669.1697879000567,669.1697879000567,669.4531336000655,670.2865718000103,670.2865718000103,670.2865718000103,670.2865718000103,670.2865718000103,670.2865718000103,670.269921500003,670.2865718000103,670.2865718000103,670.2865718000103,670.2865718000103,670.2865718000103,670.2865718000103,670.2865718000103,671.4007805001456,671.4007805001456,671.4007805001456,671.4007805001456,671.4007805001456,671.4007805001456,671.4007805001456,41,50,44,44,41,70,671.4007805001456,673.2183521001134,,,,,,,,,,,010,ｍ,1９,2023-05-13_18h48.26.471,RL,2022.2.5,60.049168241871804,
43,42,54,51,0,105,105,105,,,,,,,,None,673.2183521001134,673.2183521001134,673.2183521001134,673.2183521001134,673.2183521001134,673.2183521001134,r,0.21972190006636083,673.4708322000224,673.4708322000224,673.4708322000224,673.4708322000224,673.4708322000224,673.4708322000224,673.7527119000442,675.0021999999881,675.0021999999881,675.0021999999881,675.0021999999881,675.0021999999881,675.0021999999881,674.9856160001364,675.0021999999881,675.0021999999881,675.0021999999881,675.0021999999881,675.0021999999881,675.0021999999881,675.0021999999881,676.533558800118,676.533558800118,676.533558800118,676.533558800118,676.533558800118,676.533558800118,676.533558800118,42,54,43,51,54,70,676.533558800118,678.1010877999943,,,,,,,,,,,010,ｍ,1９,2023-05-13_18h48.26.471,RL,2022.2.5,60.049168241871804,
51,35,44,53,0,106,106,106,,,,,,,,None,678.1010877999943,678.1010877999943,678.1010877999943,678.1010877999943,678.1010877999943,678.1010877999943,i,0.3853422999382019,678.5229436000809,678.5229436000809,678.5229436000809,678.5229436000809,678.5229436000809,678.5229436000809,678.8016937000211,680.2510593000334,680.2510593000334,680.2510593000334,680.2510593000334,680.2510593000334,680.2510593000334,680.234591800021,680.2510593000334,680.2510593000334,680.2510593000334,680.2510593000334,680.2510593000334,680.2510593000334,680.2510593000334,681.9825481001753,681.9825481001753,681.9825481001753,681.9825481001753,681.9825481001753,681.9825481001753,681.9825481001753,35,44,51,53,51,70,681.9825481001753,683.5836294000037,,,,,,,,,,,010,ｍ,1９,2023-05-13_18h48.26.471,RL,2022.2.5,60.049168241871804,
44,30,51,60,0,107,107,107,,,,,,,,None,683.5836294000037,683.5836294000037,683.5836294000037,683.5836294000037,683.5836294000037,683.5836294000037,r,0.27694269991479814,683.8853114000522,683.8853114000522,683.8853114000522,683.8853114000522,683.8853114000522,683.8853114000522,684.1670224999543,685.0339592001401,685.0339592001401,685.0339592001401,685.0339592001401,685.0339592001401,685.0339592001401,685.0171972000971,685.0339592001401,685.0339592001401,685.0339592001401,685.0339592001401,685.0339592001401,685.0339592001401,685.0339592001401,686.1820378999691,686.1820378999691,686.1820378999691,686.1820378999691,686.1820378999691,686.1820378999691,686.1820378999691,30,51,44,60,51,70,686.1820378999691,687.849386200076,,,,,,,,,,,010,ｍ,1９,2023-05-13_18h48.26.471,RL,2022.2.5,60.049168241871804,
40,29,60,48,0,108,108,108,,,,,,,,None,687.849386200076,687.849386200076,687.849386200076,687.849386200076,687.849386200076,687.849386200076,j,0.24598290002904832,688.1179661001079,688.1179661001079,688.1179661001079,688.1179661001079,688.1179661001079,688.1179661001079,688.4168832001742,689.7494922000915,689.7494922000915,689.7494922000915,689.7494922000915,689.7494922000915,689.7494922000915,689.7494922000915,689.7494922000915,689.7494922000915,689.7494922000915,689.7494922000915,689.7494922000915,689.7494922000915,689.7494922000915,691.3809693001676,691.3809693001676,691.3809693001676,691.3809693001676,691.3809693001676,691.3809693001676,691.3809693001676,29,60,40,48,48,70,691.3809693001676,692.981851400109,,,,,,,,,,,010,ｍ,1９,2023-05-13_18h48.26.471,RL,2022.2.5,60.049168241871804,
51,42,51,55,0,109,109,109,,,,,,,,None,692.981851400109,692.981851400109,692.981851400109,692.981851400109,692.981851400109,692.981851400109,i,0.24618259980343282,693.2492063001264,693.2492063001264,693.2492063001264,693.2492063001264,693.2492063001264,693.2492063001264,693.5487016001716,695.0817971001379,695.0817971001379,695.0817971001379,695.0817971001379,695.0817971001379,695.0817971001379,695.0817971001379,695.0817971001379,695.0817971001379,695.0817971001379,695.0817971001379,695.0817971001379,695.0817971001379,695.0817971001379,696.9133475001436,696.9133475001436,696.9133475001436,696.9133475001436,696.9133475001436,696.9133475001436,696.9133475001436,42,51,51,55,51,70,696.9133475001436,698.8306104000658,,,,,,,,,,,010,ｍ,1９,2023-05-13_18h48.26.471,RL,2022.2.5,60.049168241871804,
45,36,55,56,0,110,110,110,,,,,,,,None,698.8306104000658,698.8306104000658,698.8306104000658,698.8306104000658,698.8306104000658,698.8306104000658,r,0.1991797999944538,699.0480297000613,699.0480297000613,699.0480297000613,699.0480297000613,699.0480297000613,699.0480297000613,699.3478115000762,700.9972949000075,700.9972949000075,700.9972949000075,700.9972949000075,700.9972949000075,700.9972949000075,700.9972949000075,700.9972949000075,700.9972949000075,700.9972949000075,700.9972949000075,700.9972949000075,700.9972949000075,700.9972949000075,702.9457190001849,702.9457190001849,702.9457190001849,702.9457190001849,702.9457190001849,702.9457190001849,702.9457190001849,36,55,45,56,55,70,702.9457190001849,704.913038500119,,,,,,,,,,,010,ｍ,1９,2023-05-13_18h48.26.471,RL,2022.2.5,60.049168241871804,
45,35,48,47,0,111,111,111,,,,,,,,None,704.913038500119,704.913038500119,704.913038500119,704.913038500119,704.913038500119,704.913038500119,r,0.21374340006150305,705.1470373000484,705.1470373000484,705.1470373000484,705.1470373000484,705.1470373000484,705.1470373000484,705.4305816001724,706.4134088000283,706.4134088000283,706.4134088000283,706.4134088000283,706.4134088000283,706.4134088000283,706.3968328000046,706.4134088000283,706.4134088000283,706.4134088000283,706.4134088000283,706.4134088000283,706.4134088000283,706.4134088000283,707.6780375000089,707.6780375000089,707.6780375000089,707.6780375000089,707.6780375000089,707.6780375000089,707.6780375000089,35,48,45,47,48,70,707.6780375000089,709.545889200177,,,,,,,,,,,010,ｍ,1９,2023-05-13_18h48.26.471,RL,2022.2.5,60.049168241871804,
42,33,57,50,0,112,112,112,,,,,,,,None,709.545889200177,709.545889200177,709.545889200177,709.545889200177,709.545889200177,709.545889200177,j,0.546257299836725,710.1138528999873,710.1138528999873,710.1138528999873,710.1138528999873,710.1138528999873,710.1138528999873,710.4127846001647,711.8959115999751,711.8959115999751,711.8959115999751,711.8959115999751,711.8959115999751,711.8959115999751,711.8959115999751,711.8959115999751,711.8959115999751,711.8959115999751,711.8959115999751,711.8959115999751,711.8959115999751,711.8959115999751,713.6772941001691,713.6772941001691,713.6772941001691,713.6772941001691,713.6772941001691,713.6772941001691,713.6772941001691,33,57,42,50,50,70,713.6772941001691,715.1945803000126,,,,,,,,,,,010,ｍ,1９,2023-05-13_18h48.26.471,RL,2022.2.5,60.049168241871804,
44,44,58,43,0,113,113,113,,,,,,,,None,715.1945803000126,715.1945803000126,715.1945803000126,715.1945803000126,715.1945803000126,715.1945803000126,r,0.3127677000593394,715.5285797000397,715.5285797000397,715.5285797000397,715.5285797000397,715.5285797000397,715.5285797000397,715.8117494999897,717.4778848001733,717.4778848001733,717.4778848001733,717.4778848001733,717.4778848001733,717.4778848001733,717.4612638000399,717.4778848001733,717.4778848001733,717.4778848001733,717.4778848001733,717.4778848001733,717.4778848001733,717.4778848001733,719.4259965000674,719.4259965000674,719.4259965000674,719.4259965000674,719.4259965000674,719.4259965000674,719.4259965000674,44,58,44,43,58,70,719.4259965000674,720.9770492000971,,,,,,,,,,,010,ｍ,1９,2023-05-13_18h48.26.471,RL,2022.2.5,60.049168241871804,
37,45,44,48,0,114,114,114,,,,,,,,None,720.9770492000971,720.9770492000971,720.9770492000971,720.9770492000971,720.9770492000971,720.9770492000971,i,0.2500687998253852,721.2458220999688,721.2458220999688,721.2458220999688,721.2458220999688,721.2458220999688,721.2458220999688,721.5272691999562,722.5100867999718,722.5100867999718,722.5100867999718,722.5100867999718,722.5100867999718,722.5100867999718,722.493800500175,722.5100867999718,722.5100867999718,722.5100867999718,722.5100867999718,722.5100867999718,722.5100867999718,722.5100867999718,723.7750161001459,723.7750161001459,723.7750161001459,723.7750161001459,723.7750161001459,723.7750161001459,723.7750161001459,45,44,37,48,37,70,723.7750161001459,725.6095763000194,,,,,,,,,,,010,ｍ,1９,2023-05-13_18h48.26.471,RL,2022.2.5,60.049168241871804,
47,44,51,46,0,115,115,115,,,,,,,,None,725.6095763000194,725.6095763000194,725.6095763000194,725.6095763000194,725.6095763000194,725.6095763000194,r,0.22522239992395043,725.8649714000057,725.8649714000057,725.8649714000057,725.8649714000057,725.8649714000057,725.8649714000057,726.160106100142,727.7092852001078,727.7092852001078,727.7092852001078,727.7092852001078,727.7092852001078,727.7092852001078,727.7092852001078,727.7092852001078,727.7092852001078,727.7092852001078,727.7092852001078,727.7092852001078,727.7092852001078,727.7092852001078,729.5573162001092,729.5573162001092,729.5573162001092,729.5573162001092,729.5573162001092,729.5573162001092,729.5573162001092,44,51,47,46,51,70,729.5573162001092,731.2253106001299,,,,,,,,,,,010,ｍ,1９,2023-05-13_18h48.26.471,RL,2022.2.5,60.049168241871804,
30,44,56,61,0,116,116,116,,,,,,,,None,731.2253106001299,731.2253106001299,731.2253106001299,731.2253106001299,731.2253106001299,731.2253106001299,r,0.28020179993472993,731.5256517000962,731.5256517000962,731.5256517000962,731.5256517000962,731.5256517000962,731.5256517000962,731.8253057000693,732.7586718001403,732.7586718001403,732.7586718001403,732.7586718001403,732.7586718001403,732.7586718001403,732.7586718001403,732.7586718001403,732.7586718001403,732.7586718001403,732.7586718001403,732.7586718001403,732.7586718001403,732.7586718001403,733.9904309001286,733.9904309001286,733.9904309001286,733.9904309001286,733.9904309001286,733.9904309001286,733.9904309001286,44,56,30,61,56,70,733.9904309001286,735.6576777000446,,,,,,,,,,,010,ｍ,1９,2023-05-13_18h48.26.471,RL,2022.2.5,60.049168241871804,
34,39,49,61,0,117,117,117,,,,,,,,None,735.6576777000446,735.6576777000446,735.6576777000446,735.6576777000446,735.6576777000446,735.6576777000446,j,0.39296159986406565,736.0747428999748,736.0747428999748,736.0747428999748,736.0747428999748,736.0747428999748,736.0747428999748,736.3582912001293,737.2577222001273,737.2577222001273,737.2577222001273,737.2577222001273,737.2577222001273,737.2577222001273,737.241257000016,737.2577222001273,737.2577222001273,737.2577222001273,737.2577222001273,737.2577222001273,737.2577222001273,737.2577222001273,738.4397217000369,738.4397217000369,738.4397217000369,738.4397217000369,738.4397217000369,738.4397217000369,738.4397217000369,39,49,34,61,61,70,738.4397217000369,740.1736618999857,,,,,,,,,,,010,ｍ,1９,2023-05-13_18h48.26.471,RL,2022.2.5,60.049168241871804,
27,36,50,69,0,118,118,118,,,,,,,,None,740.1736618999857,740.1736618999857,740.1736618999857,740.1736618999857,740.1736618999857,740.1736618999857,r,0.38311429996974766,740.5748052001,740.5748052001,740.5748052001,740.5748052001,740.5748052001,740.5748052001,740.8739390000701,742.3073828001507,742.3073828001507,742.3073828001507,742.3073828001507,742.3073828001507,742.3073828001507,742.3073828001507,742.3073828001507,742.3073828001507,742.3073828001507,742.3073828001507,742.3073828001507,742.3073828001507,742.3073828001507,744.038202600088,744.038202600088,744.038202600088,744.038202600088,744.038202600088,744.038202600088,744.038202600088,36,50,27,69,50,70,744.038202600088,745.5563084001187,,,,,,,,,,,010,ｍ,1９,2023-05-13_18h48.26.471,RL,2022.2.5,60.049168241871804,
36,31,37,59,0,119,119,119,,,,,,,,None,745.5563084001187,745.5563084001187,745.5563084001187,745.5563084001187,745.5563084001187,745.5563084001187,j,0.42568590003065765,746.0075819001067,746.0075819001067,746.0075819001067,746.0075819001067,746.0075819001067,746.0075819001067,746.2899319999851,748.2391511001624,748.2391511001624,748.2391511001624,748.2391511001624,748.2391511001624,748.2391511001624,748.2224485999905,748.2391511001624,748.2391511001624,748.2391511001624,748.2391511001624,748.2391511001624,748.2391511001624,748.2391511001624,750.4537120000459,750.4537120000459,750.4537120000459,750.4537120000459,750.4537120000459,750.4537120000459,750.4537120000459,31,37,36,59,59,70,750.4537120000459,752.3213337999769,,,,,,,,,,,010,ｍ,1９,2023-05-13_18h48.26.471,RL,2022.2.5,60.049168241871804,
36,42,57,69,0,120,120,120,,,,,,,,None,752.3213337999769,752.3213337999769,752.3213337999769,752.3213337999769,752.3213337999769,752.3213337999769,r,0.5596690999809653,752.9051364001352,752.9051364001352,752.9051364001352,752.9051364001352,752.9051364001352,752.9051364001352,753.1883142001461,754.654690900119,754.654690900119,754.654690900119,754.654690900119,754.654690900119,754.654690900119,754.637886099983,754.654690900119,754.654690900119,754.654690900119,754.654690900119,754.654690900119,754.654690900119,754.654690900119,756.4030131001491,756.4030131001491,756.4030131001491,756.4030131001491,756.4030131001491,756.4030131001491,756.4030131001491,42,57,36,69,57,70,756.4030131001491,758.1700764000416,,,,,,,,,,,010,ｍ,1９,2023-05-13_18h48.26.471,RL,2022.2.5,60.049168241871804,
32,38,52,53,0,121,121,121,,,,,,,,None,758.1700764000416,758.1700764000416,758.1700764000416,758.1700764000416,758.1700764000416,758.1700764000416,r,0.3441134002059698,758.5379149999935,758.5379149999935,758.5379149999935,758.5379149999935,758.5379149999935,758.5379149999935,758.8207907001488,759.9370579000097,759.9370579000097,759.9370579000097,759.9370579000097,759.9370579000097,759.9370579000097,759.9205509000458,759.9370579000097,759.9370579000097,759.9370579000097,759.9370579000097,759.9370579000097,759.9370579000097,759.9370579000097,761.3351062999573,761.3351062999573,761.3351062999573,761.3351062999573,761.3351062999573,761.3351062999573,761.3351062999573,38,52,32,53,52,70,761.3351062999573,763.136559400009,,,,,,,,,,,010,ｍ,1９,2023-05-13_18h48.26.471,RL,2022.2.5,60.049168241871804,
