arm1,arm2,arm3,arm4,trials.thisRepN,trials.thisTrialN,trials.thisN,trials.thisIndex,instru_img1.started,instru_resp.started,instru_resp.keys,instru_resp.rt,image_2.started,text_2.started,fixbefore_2.started,rest_response.keys,red.started,green.started,yellow.started,blue.started,choose_bandit.started,Fixation.started,choose_bandit.keys,choose_bandit.rt,black.started,red_2.started,green_2.started,yellow_2.started,blue_2.started,fixation_2.started,docs.started,black.stopped,red_2.stopped,green_2.stopped,yellow_2.stopped,blue_2.stopped,fixation_2.stopped,docs.stopped,black_com.started,reward_sub.started,reward__sub.started,red_compare.started,green_com.started,yellow_com.started,blue_com.started,black_com.stopped,reward_sub.stopped,reward__sub.stopped,red_compare.stopped,green_com.stopped,yellow_com.stopped,blue_com.stopped,rewardred,rewardyellow,rewardblue,rewardgreen,subchoose,expectation,intertrialfix.started,intertrialfix.stopped,rest_image.started,rest_response.started,rest_response.rt,image_expect_after.started,text_exp_after.started,image_expect_after.stopped,text_exp_after.stopped,bigx.started,bigx.stopped,image.started,key_resp.started,key_resp.keys,key_resp.rt,participant,Gender,Age,date,expName,psychopyVersion,frameRate,
,,,,,,,,20.63556160009466,20.63556160009466,space,3.2358323999214917,,,,,,,,,,,,,,,,,,,,,,,,,,,,,,,,,,,,,,,,,,,,,,,,,,,,,,,,,,,,,,３１１,f,２２,2023-05-18_09h05.56.648,RL,2022.2.5,60.052990771053224,
30,31,46,67,0,0,0,0,,,,,23.90992909995839,23.90992909995839,28.91461140010506,None,29.916085599921644,29.916085599921644,29.916085599921644,29.916085599921644,29.916085599921644,29.916085599921644,j,0.9704454999882728,30.923570099985227,30.923570099985227,30.923570099985227,30.923570099985227,30.923570099985227,30.923570099985227,31.224786600098014,32.35375989996828,32.35375989996828,32.35375989996828,32.35375989996828,32.35375989996828,32.35375989996828,32.35375989996828,32.35375989996828,32.35375989996828,32.35375989996828,32.35375989996828,32.35375989996828,32.35375989996828,32.35375989996828,33.83778119995259,33.83778119995259,33.83778119995259,33.83778119995259,33.83778119995259,33.83778119995259,33.83778119995259,67,30,31,46,46,60,33.83778119995259,35.64796099998057,,,,,,,,,,,,,,３１１,f,２２,2023-05-18_09h05.56.648,RL,2022.2.5,60.052990771053224,
28,34,50,68,0,1,1,1,,,,,,,,None,35.64796099998057,35.64796099998057,35.64796099998057,35.64796099998057,35.64796099998057,35.64796099998057,r,0.8759298999793828,36.54858969990164,36.54858969990164,36.54858969990164,36.54858969990164,36.54858969990164,36.54858969990164,36.8498182001058,37.983546799980104,37.983546799980104,37.983546799980104,37.983546799980104,37.983546799980104,37.983546799980104,37.983546799980104,37.983546799980104,37.983546799980104,37.983546799980104,37.983546799980104,37.983546799980104,37.983546799980104,37.983546799980104,39.418327499879524,39.418327499879524,39.418327499879524,39.418327499879524,39.418327499879524,39.418327499879524,39.418327499879524,68,28,34,50,28,60,39.418327499879524,41.047152400016785,,,,,,,,,,,,,,３１１,f,２２,2023-05-18_09h05.56.648,RL,2022.2.5,60.052990771053224,
25,34,44,71,0,2,2,2,,,,,,,,None,41.047152400016785,41.047152400016785,41.047152400016785,41.047152400016785,41.047152400016785,41.047152400016785,i,1.0960040998179466,42.16574739990756,42.16574739990756,42.16574739990756,42.16574739990756,42.16574739990756,42.16574739990756,42.46363559993915,43.5967850999441,43.5967850999441,43.5967850999441,43.5967850999441,43.5967850999441,43.5967850999441,43.5967850999441,43.5967850999441,43.5967850999441,43.5967850999441,43.5967850999441,43.5967850999441,43.5967850999441,43.5967850999441,45.02829820010811,45.02829820010811,45.02829820010811,45.02829820010811,45.02829820010811,45.02829820010811,45.02829820010811,71,25,34,44,34,60,45.02829820010811,46.64653269993141,,,,,,,,,,,,,,３１１,f,２２,2023-05-18_09h05.56.648,RL,2022.2.5,60.052990771053224,
19,32,53,74,0,3,3,3,,,,,,,,None,46.64653269993141,46.64653269993141,46.64653269993141,46.64653269993141,46.64653269993141,46.64653269993141,i,1.165010599885136,47.82994209998287,47.82994209998287,47.82994209998287,47.82994209998287,47.82994209998287,47.82994209998287,48.11371470009908,50.12921559996903,50.12921559996903,50.12921559996903,50.12921559996903,50.12921559996903,50.12921559996903,50.112418100005016,50.12921559996903,50.12921559996903,50.12921559996903,50.12921559996903,50.12921559996903,50.12921559996903,50.12921559996903,52.427668400108814,52.427668400108814,52.427668400108814,52.427668400108814,52.427668400108814,52.427668400108814,52.427668400108814,74,19,32,53,32,60,52.427668400108814,53.9451719999779,,,,,,,,,,,,,,３１１,f,２２,2023-05-18_09h05.56.648,RL,2022.2.5,60.052990771053224,
29,45,44,64,0,4,4,4,,,,,,,,None,53.9451719999779,53.9451719999779,53.9451719999779,53.9451719999779,53.9451719999779,53.9451719999779,f,0.49403230007737875,54.462200300069526,54.462200300069526,54.462200300069526,54.462200300069526,54.462200300069526,54.462200300069526,54.74568330007605,56.04483489994891,56.04483489994891,56.04483489994891,56.04483489994891,56.04483489994891,56.04483489994891,56.02840579999611,56.04483489994891,56.04483489994891,56.04483489994891,56.04483489994891,56.04483489994891,56.04483489994891,56.04483489994891,57.626718000043184,57.626718000043184,57.626718000043184,57.626718000043184,57.626718000043184,57.626718000043184,57.626718000043184,64,29,45,44,64,60,57.626718000043184,59.51126109994948,,,,,,,,,,,,,,３１１,f,２２,2023-05-18_09h05.56.648,RL,2022.2.5,60.052990771053224,
32,44,46,76,0,5,5,5,,,,,,,,None,59.51126109994948,59.51126109994948,59.51126109994948,59.51126109994948,59.51126109994948,59.51126109994948,i,0.5528479998465627,60.094426499912515,60.094426499912515,60.094426499912515,60.094426499912515,60.094426499912515,60.094426499912515,60.39463740005158,61.444456999888644,61.444456999888644,61.444456999888644,61.444456999888644,61.444456999888644,61.444456999888644,61.444456999888644,61.444456999888644,61.444456999888644,61.444456999888644,61.444456999888644,61.444456999888644,61.444456999888644,61.444456999888644,62.79175299988128,62.79175299988128,62.79175299988128,62.79175299988128,62.79175299988128,62.79175299988128,62.79175299988128,76,32,44,46,44,60,62.79175299988128,64.37663420010358,,,,,,,,,,,,,,３１１,f,２２,2023-05-18_09h05.56.648,RL,2022.2.5,60.052990771053224,
32,50,46,78,0,6,6,6,,,,,,,,None,64.37663420010358,64.37663420010358,64.37663420010358,64.37663420010358,64.37663420010358,64.37663420010358,r,0.32954459986649454,64.72717779991217,64.72717779991217,64.72717779991217,64.72717779991217,64.72717779991217,64.72717779991217,65.02692759991623,66.57678469992243,66.57678469992243,66.57678469992243,66.57678469992243,66.57678469992243,66.57678469992243,66.57678469992243,66.57678469992243,66.57678469992243,66.57678469992243,66.57678469992243,66.57678469992243,66.57678469992243,66.57678469992243,68.42456980003044,68.42456980003044,68.42456980003044,68.42456980003044,68.42456980003044,68.42456980003044,68.42456980003044,78,32,50,46,32,60,68.42456980003044,70.3758256000001,,,,,,,,,,,,,,３１１,f,２２,2023-05-18_09h05.56.648,RL,2022.2.5,60.052990771053224,
31,43,47,70,0,7,7,7,,,,,,,,None,70.3758256000001,70.3758256000001,70.3758256000001,70.3758256000001,70.3758256000001,70.3758256000001,j,0.548547400161624,70.94288309989497,70.94288309989497,70.94288309989497,70.94288309989497,70.94288309989497,70.94288309989497,71.22576229996048,73.04187839990482,73.04187839990482,73.04187839990482,73.04187839990482,73.04187839990482,73.04187839990482,73.02556440001354,73.04187839990482,73.04187839990482,73.04187839990482,73.04187839990482,73.04187839990482,73.04187839990482,73.04187839990482,75.14042329997756,75.14042329997756,75.14042329997756,75.14042329997756,75.14042329997756,75.14042329997756,75.14042329997756,70,31,43,47,47,60,75.14042329997756,76.97414460009895,,,,,,,,,,,,,,３１１,f,２２,2023-05-18_09h05.56.648,RL,2022.2.5,60.052990771053224,
33,45,53,73,0,8,8,8,,,,,,,,None,76.97414460009895,76.97414460009895,76.97414460009895,76.97414460009895,76.97414460009895,76.97414460009895,f,0.35960680013522506,77.35831009992398,77.35831009992398,77.35831009992398,77.35831009992398,77.35831009992398,77.35831009992398,77.64121749997139,78.49131589988247,78.49131589988247,78.49131589988247,78.49131589988247,78.49131589988247,78.49131589988247,78.47466719988734,78.49131589988247,78.49131589988247,78.49131589988247,78.49131589988247,78.49131589988247,78.49131589988247,78.49131589988247,79.62289620004594,79.62289620004594,79.62289620004594,79.62289620004594,79.62289620004594,79.62289620004594,79.62289620004594,73,33,45,53,73,60,79.62289620004594,81.50690679997206,,,,,,,,,,,,,,３１１,f,２２,2023-05-18_09h05.56.648,RL,2022.2.5,60.052990771053224,
30,46,48,71,0,9,9,9,,,,,,,,None,81.50690679997206,81.50690679997206,81.50690679997206,81.50690679997206,81.50690679997206,81.50690679997206,f,0.39069749996997416,81.9249541000463,81.9249541000463,81.9249541000463,81.9249541000463,81.9249541000463,81.9249541000463,82.20720049994998,83.93975979997776,83.93975979997776,83.93975979997776,83.93975979997776,83.93975979997776,83.93975979997776,83.9237500000745,83.93975979997776,83.93975979997776,83.93975979997776,83.93975979997776,83.93975979997776,83.93975979997776,83.93975979997776,85.9546924000606,85.9546924000606,85.9546924000606,85.9546924000606,85.9546924000606,85.9546924000606,85.9546924000606,71,30,46,48,71,60,85.9546924000606,87.72249999991618,,,,,,,,,,,,,,３１１,f,２２,2023-05-18_09h05.56.648,RL,2022.2.5,60.052990771053224,
38,47,47,75,0,10,10,10,,,,,,,,None,87.72249999991618,87.72249999991618,87.72249999991618,87.72249999991618,87.72249999991618,87.72249999991618,j,0.35188860003836453,88.1062509000767,88.1062509000767,88.1062509000767,88.1062509000767,88.1062509000767,88.1062509000767,88.38917879993096,90.02236120007001,90.02236120007001,90.02236120007001,90.02236120007001,90.02236120007001,90.02236120007001,90.00592499994673,90.02236120007001,90.02236120007001,90.02236120007001,90.02236120007001,90.02236120007001,90.02236120007001,90.02236120007001,91.9369761000853,91.9369761000853,91.9369761000853,91.9369761000853,91.9369761000853,91.9369761000853,91.9369761000853,75,38,47,47,47,60,91.9369761000853,93.85496130003594,,,,,,,,,,,,,,３１１,f,２２,2023-05-18_09h05.56.648,RL,2022.2.5,60.052990771053224,
38,46,48,67,0,11,11,11,,,,,,,,None,93.85496130003594,93.85496130003594,93.85496130003594,93.85496130003594,93.85496130003594,93.85496130003594,f,0.32412420003674924,94.2052859000396,94.2052859000396,94.2052859000396,94.2052859000396,94.2052859000396,94.2052859000396,94.50484759989195,95.95522239990532,95.95522239990532,95.95522239990532,95.95522239990532,95.95522239990532,95.95522239990532,95.95522239990532,95.95522239990532,95.95522239990532,95.95522239990532,95.95522239990532,95.95522239990532,95.95522239990532,95.95522239990532,97.70281490008347,97.70281490008347,97.70281490008347,97.70281490008347,97.70281490008347,97.70281490008347,97.70281490008347,67,38,46,48,67,60,97.70281490008347,99.45403479994275,,,,,,,,,,,,,,３１１,f,２２,2023-05-18_09h05.56.648,RL,2022.2.5,60.052990771053224,
38,42,63,72,0,12,12,12,,,,,,,,None,99.45403479994275,99.45403479994275,99.45403479994275,99.45403479994275,99.45403479994275,99.45403479994275,r,0.27437930018641055,99.75605179998092,99.75605179998092,99.75605179998092,99.75605179998092,99.75605179998092,99.75605179998092,100.0541358999908,101.82042340002954,101.82042340002954,101.82042340002954,101.82042340002954,101.82042340002954,101.82042340002954,101.82042340002954,101.82042340002954,101.82042340002954,101.82042340002954,101.82042340002954,101.82042340002954,101.82042340002954,101.82042340002954,103.8853337999899,103.8853337999899,103.8853337999899,103.8853337999899,103.8853337999899,103.8853337999899,103.8853337999899,72,38,42,63,38,60,103.8853337999899,105.65286989999004,,,,,,,,,,,,,,３１１,f,２２,2023-05-18_09h05.56.648,RL,2022.2.5,60.052990771053224,
33,42,48,75,0,13,13,13,,,,,,,,None,105.65286989999004,105.65286989999004,105.65286989999004,105.65286989999004,105.65286989999004,105.65286989999004,f,0.407375399954617,106.08710770006292,106.08710770006292,106.08710770006292,106.08710770006292,106.08710770006292,106.08710770006292,106.3863299000077,108.11890450003557,108.11890450003557,108.11890450003557,108.11890450003557,108.11890450003557,108.11890450003557,108.11890450003557,108.11890450003557,108.11890450003557,108.11890450003557,108.11890450003557,108.11890450003557,108.11890450003557,108.11890450003557,110.15038729994558,110.15038729994558,110.15038729994558,110.15038729994558,110.15038729994558,110.15038729994558,110.15038729994558,75,33,42,48,75,60,110.15038729994558,112.03523269994184,,,,,,,,,,,,,,３１１,f,２２,2023-05-18_09h05.56.648,RL,2022.2.5,60.052990771053224,
32,47,55,76,0,14,14,14,,,,,,,,None,112.03523269994184,112.03523269994184,112.03523269994184,112.03523269994184,112.03523269994184,112.03523269994184,f,0.3303002999164164,112.38984779990278,112.38984779990278,112.38984779990278,112.38984779990278,112.38984779990278,112.38984779990278,112.6852571000345,114.53527479991317,114.53527479991317,114.53527479991317,114.53527479991317,114.53527479991317,114.53527479991317,114.53527479991317,114.53527479991317,114.53527479991317,114.53527479991317,114.53527479991317,114.53527479991317,114.53527479991317,114.53527479991317,116.68304020003416,116.68304020003416,116.68304020003416,116.68304020003416,116.68304020003416,116.68304020003416,116.68304020003416,76,32,47,55,76,60,116.68304020003416,118.60021500010043,,,,,,,,,,,,,,３１１,f,２２,2023-05-18_09h05.56.648,RL,2022.2.5,60.052990771053224,
38,50,44,71,0,15,15,15,,,,,,,,None,118.60021500010043,118.60021500010043,118.60021500010043,118.60021500010043,118.60021500010043,118.60021500010043,j,0.3403008000459522,118.96847390010953,118.96847390010953,118.96847390010953,118.96847390010953,118.96847390010953,118.96847390010953,119.25112979998812,120.58373549999669,120.58373549999669,120.58373549999669,120.58373549999669,120.58373549999669,120.58373549999669,120.56737140007317,120.58373549999669,120.58373549999669,120.58373549999669,120.58373549999669,120.58373549999669,120.58373549999669,120.58373549999669,122.19842109992169,122.19842109992169,122.19842109992169,122.19842109992169,122.19842109992169,122.19842109992169,122.19842109992169,71,38,50,44,44,60,122.19842109992169,123.71620199992321,,,,,,,,,,,,,,３１１,f,２２,2023-05-18_09h05.56.648,RL,2022.2.5,60.052990771053224,
39,59,48,78,0,16,16,16,,,,,,,,None,123.71620199992321,123.71620199992321,123.71620199992321,123.71620199992321,123.71620199992321,123.71620199992321,f,0.3124251998960972,124.05131640005857,124.05131640005857,124.05131640005857,124.05131640005857,124.05131640005857,124.05131640005857,124.33351149992086,126.34938209992833,126.34938209992833,126.34938209992833,126.34938209992833,126.34938209992833,126.34938209992833,126.33272080007009,126.34938209992833,126.34938209992833,126.34938209992833,126.34938209992833,126.34938209992833,126.34938209992833,126.34938209992833,128.63080590008758,128.63080590008758,128.63080590008758,128.63080590008758,128.63080590008758,128.63080590008758,128.63080590008758,78,39,59,48,78,60,128.63080590008758,130.2818803000264,,,,,,,,,,,,,,３１１,f,２２,2023-05-18_09h05.56.648,RL,2022.2.5,60.052990771053224,
36,62,47,77,0,17,17,17,,,,,,,,None,130.2818803000264,130.2818803000264,130.2818803000264,130.2818803000264,130.2818803000264,130.2818803000264,i,0.595584100112319,130.9004967000801,130.9004967000801,130.9004967000801,130.9004967000801,130.9004967000801,130.9004967000801,131.19873009994626,132.56538629997522,132.56538629997522,132.56538629997522,132.56538629997522,132.56538629997522,132.56538629997522,132.56538629997522,132.56538629997522,132.56538629997522,132.56538629997522,132.56538629997522,132.56538629997522,132.56538629997522,132.56538629997522,134.2302006999962,134.2302006999962,134.2302006999962,134.2302006999962,134.2302006999962,134.2302006999962,134.2302006999962,77,36,62,47,62,60,134.2302006999962,135.8637812999077,,,,,,,,,,,,,,３１１,f,２２,2023-05-18_09h05.56.648,RL,2022.2.5,60.052990771053224,
37,55,49,72,0,18,18,18,,,,,,,,None,135.8637812999077,135.8637812999077,135.8637812999077,135.8637812999077,135.8637812999077,135.8637812999077,f,0.33655430004000664,136.2359354000073,136.2359354000073,136.2359354000073,136.2359354000073,136.2359354000073,136.2359354000073,136.51463239989243,138.28049800009467,138.28049800009467,138.28049800009467,138.28049800009467,138.28049800009467,138.28049800009467,138.2644464999903,138.28049800009467,138.28049800009467,138.28049800009467,138.28049800009467,138.28049800009467,138.28049800009467,138.28049800009467,140.32889520004392,140.32889520004392,140.32889520004392,140.32889520004392,140.32889520004392,140.32889520004392,140.32889520004392,72,37,55,49,72,60,140.32889520004392,141.8629572999198,,,,,,,,,,,,,,３１１,f,２２,2023-05-18_09h05.56.648,RL,2022.2.5,60.052990771053224,
41,51,47,61,0,19,19,19,,,,,,,,None,141.8629572999198,141.8629572999198,141.8629572999198,141.8629572999198,141.8629572999198,141.8629572999198,f,0.31644960003905,142.19693670002744,142.19693670002744,142.19693670002744,142.19693670002744,142.19693670002744,142.19693670002744,142.49657130008563,143.3303507999517,143.3303507999517,143.3303507999517,143.3303507999517,143.3303507999517,143.3303507999517,143.3303507999517,143.3303507999517,143.3303507999517,143.3303507999517,143.3303507999517,143.3303507999517,143.3303507999517,143.3303507999517,144.4610260000918,144.4610260000918,144.4610260000918,144.4610260000918,144.4610260000918,144.4610260000918,144.4610260000918,61,41,51,47,61,60,144.4610260000918,146.32877300004475,,,,,,,,,,,,,,３１１,f,２２,2023-05-18_09h05.56.648,RL,2022.2.5,60.052990771053224,
42,54,51,67,0,20,20,20,,,,,,,,None,146.32877300004475,146.32877300004475,146.32877300004475,146.32877300004475,146.32877300004475,146.32877300004475,i,0.3400575998239219,146.69795840000734,146.69795840000734,146.69795840000734,146.69795840000734,146.69795840000734,146.69795840000734,146.99587119999342,148.2621392000001,148.2621392000001,148.2621392000001,148.2621392000001,148.2621392000001,148.2621392000001,148.2621392000001,148.2621392000001,148.2621392000001,148.2621392000001,148.2621392000001,148.2621392000001,148.2621392000001,148.2621392000001,149.82730729994364,149.82730729994364,149.82730729994364,149.82730729994364,149.82730729994364,149.82730729994364,149.82730729994364,67,42,54,51,54,60,149.82730729994364,151.77856020000763,,,,,,,,,,,,,,３１１,f,２２,2023-05-18_09h05.56.648,RL,2022.2.5,60.052990771053224,
39,61,42,72,0,21,21,21,,,,,,,,None,151.77856020000763,151.77856020000763,151.77856020000763,151.77856020000763,151.77856020000763,151.77856020000763,r,0.35495170019567013,152.16564809996635,152.16564809996635,152.16564809996635,152.16564809996635,152.16564809996635,152.16564809996635,152.46113299997523,154.06118299998343,154.06118299998343,154.06118299998343,154.06118299998343,154.06118299998343,154.06118299998343,154.06118299998343,154.06118299998343,154.06118299998343,154.06118299998343,154.06118299998343,154.06118299998343,154.06118299998343,154.06118299998343,155.95988119998947,155.95988119998947,155.95988119998947,155.95988119998947,155.95988119998947,155.95988119998947,155.95988119998947,72,39,61,42,39,60,155.95988119998947,157.69360430003144,,,,,,,,,,,,,,３１１,f,２２,2023-05-18_09h05.56.648,RL,2022.2.5,60.052990771053224,
34,56,43,69,0,22,22,22,,,,,,,,None,157.69360430003144,157.69360430003144,157.69360430003144,157.69360430003144,157.69360430003144,157.69360430003144,f,0.36984450020827353,158.09395259991288,158.09395259991288,158.09395259991288,158.09395259991288,158.09395259991288,158.09395259991288,158.37749089999124,160.12709470000118,160.12709470000118,160.12709470000118,160.12709470000118,160.12709470000118,160.12709470000118,160.11026649991982,160.12709470000118,160.12709470000118,160.12709470000118,160.12709470000118,160.12709470000118,160.12709470000118,160.12709470000118,162.1578941999469,162.1578941999469,162.1578941999469,162.1578941999469,162.1578941999469,162.1578941999469,162.1578941999469,69,34,56,43,69,60,162.1578941999469,163.72581389988773,,,,,,,,,,,,,,３１１,f,２２,2023-05-18_09h05.56.648,RL,2022.2.5,60.052990771053224,
44,64,49,53,0,23,23,23,,,,,,,,None,163.72581389988773,163.72581389988773,163.72581389988773,163.72581389988773,163.72581389988773,163.72581389988773,f,0.3550472999922931,164.10980960004963,164.10980960004963,164.10980960004963,164.10980960004963,164.10980960004963,164.10980960004963,164.39273050008342,165.27576310001314,165.27576310001314,165.27576310001314,165.27576310001314,165.27576310001314,165.27576310001314,165.25892219995148,165.27576310001314,165.27576310001314,165.27576310001314,165.27576310001314,165.27576310001314,165.27576310001314,165.27576310001314,166.44052419997752,166.44052419997752,166.44052419997752,166.44052419997752,166.44052419997752,166.44052419997752,166.44052419997752,53,44,64,49,53,60,166.44052419997752,168.2083755999338,,,,,,,,,,,,,,３１１,f,２２,2023-05-18_09h05.56.648,RL,2022.2.5,60.052990771053224,
46,52,44,55,0,24,24,24,,,,,,,,None,168.2083755999338,168.2083755999338,168.2083755999338,168.2083755999338,168.2083755999338,168.2083755999338,j,0.35215599997900426,168.59825989999808,168.59825989999808,168.59825989999808,168.59825989999808,168.59825989999808,168.59825989999808,168.87549800006673,169.94164339988492,169.94164339988492,169.94164339988492,169.94164339988492,169.94164339988492,169.94164339988492,169.9251759001054,169.94164339988492,169.94164339988492,169.94164339988492,169.94164339988492,169.94164339988492,169.94164339988492,169.94164339988492,171.29009909997694,171.29009909997694,171.29009909997694,171.29009909997694,171.29009909997694,171.29009909997694,171.29009909997694,55,46,52,44,44,60,171.29009909997694,173.09106300002895,,,,,,,,,,,,,,３１１,f,２２,2023-05-18_09h05.56.648,RL,2022.2.5,60.052990771053224,
39,41,42,58,0,25,25,25,,,,,,,,None,173.09106300002895,173.09106300002895,173.09106300002895,173.09106300002895,173.09106300002895,173.09106300002895,j,0.28571099997498095,173.41108129988424,173.41108129988424,173.41108129988424,173.41108129988424,173.41108129988424,173.41108129988424,173.69152459991165,175.6240660001058,175.6240660001058,175.6240660001058,175.6240660001058,175.6240660001058,175.6240660001058,175.59097120002843,175.6240660001058,175.6240660001058,175.6240660001058,175.6240660001058,175.6240660001058,175.6240660001058,175.6240660001058,177.82205619988963,177.82205619988963,177.82205619988963,177.82205619988963,177.82205619988963,177.82205619988963,177.82205619988963,58,39,41,42,42,60,177.82205619988963,179.60643570008688,,,,,,,,,,,,,,３１１,f,２２,2023-05-18_09h05.56.648,RL,2022.2.5,60.052990771053224,
49,45,49,59,0,26,26,26,,,,,,,,None,179.60643570008688,179.60643570008688,179.60643570008688,179.60643570008688,179.60643570008688,179.60643570008688,f,0.28520829998888075,179.92705560009927,179.92705560009927,179.92705560009927,179.92705560009927,179.92705560009927,179.92705560009927,180.20694499998353,181.75650699995458,181.75650699995458,181.75650699995458,181.75650699995458,181.75650699995458,181.75650699995458,181.73986590001732,181.75650699995458,181.75650699995458,181.75650699995458,181.75650699995458,181.75650699995458,181.75650699995458,181.75650699995458,183.58769720001146,183.58769720001146,183.58769720001146,183.58769720001146,183.58769720001146,183.58769720001146,183.58769720001146,59,49,45,49,59,60,183.58769720001146,185.4392738000024,,,,,,,,,,,,,,３１１,f,２２,2023-05-18_09h05.56.648,RL,2022.2.5,60.052990771053224,
54,46,53,57,0,27,27,27,,,,,,,,None,185.4392738000024,185.4392738000024,185.4392738000024,185.4392738000024,185.4392738000024,185.4392738000024,i,0.33922290010377765,185.80761020001955,185.80761020001955,185.80761020001955,185.80761020001955,185.80761020001955,185.80761020001955,186.1059332001023,187.98869720008224,187.98869720008224,187.98869720008224,187.98869720008224,187.98869720008224,187.98869720008224,187.98869720008224,187.98869720008224,187.98869720008224,187.98869720008224,187.98869720008224,187.98869720008224,187.98869720008224,187.98869720008224,190.16982800001279,190.16982800001279,190.16982800001279,190.16982800001279,190.16982800001279,190.16982800001279,190.16982800001279,57,54,46,53,46,60,190.16982800001279,191.85421149991453,,,,,,,,,,,,,,３１１,f,２２,2023-05-18_09h05.56.648,RL,2022.2.5,60.052990771053224,
51,47,47,47,0,28,28,28,,,,,,,,None,191.85421149991453,191.85421149991453,191.85421149991453,191.85421149991453,191.85421149991453,191.85421149991453,f,0.29098499985411763,192.17362940008752,192.17362940008752,192.17362940008752,192.17362940008752,192.17362940008752,192.17362940008752,192.471806100104,193.60419149999507,193.60419149999507,193.60419149999507,193.60419149999507,193.60419149999507,193.60419149999507,193.60419149999507,193.60419149999507,193.60419149999507,193.60419149999507,193.60419149999507,193.60419149999507,193.60419149999507,193.60419149999507,195.035970200086,195.035970200086,195.035970200086,195.035970200086,195.035970200086,195.035970200086,195.035970200086,47,51,47,47,47,60,195.035970200086,196.95342870010063,,,,,,,,,,,,,,３１１,f,２２,2023-05-18_09h05.56.648,RL,2022.2.5,60.052990771053224,
50,49,47,50,0,29,29,29,,,,,,,,None,196.95342870010063,196.95342870010063,196.95342870010063,196.95342870010063,196.95342870010063,196.95342870010063,r,0.2956614999566227,197.2717551998794,197.2717551998794,197.2717551998794,197.2717551998794,197.2717551998794,197.2717551998794,197.55413959990256,198.903299999889,198.903299999889,198.903299999889,198.903299999889,198.903299999889,198.903299999889,198.88705469993874,198.903299999889,198.903299999889,198.903299999889,198.903299999889,198.903299999889,198.903299999889,198.903299999889,200.5347929999698,200.5347929999698,200.5347929999698,200.5347929999698,200.5347929999698,200.5347929999698,200.5347929999698,50,50,49,47,50,60,200.5347929999698,202.51905329991132,,,,,,,,,,,,,,３１１,f,２２,2023-05-18_09h05.56.648,RL,2022.2.5,60.052990771053224,
52,48,45,53,0,30,30,30,,,,,,,,None,202.51905329991132,202.51905329991132,202.51905329991132,202.51905329991132,202.51905329991132,202.51905329991132,i,0.40192279987968504,202.95625060005113,202.95625060005113,202.95625060005113,202.95625060005113,202.95625060005113,202.95625060005113,203.23643999989145,204.73583459993824,204.73583459993824,204.73583459993824,204.73583459993824,204.73583459993824,204.73583459993824,204.702716199914,204.73583459993824,204.73583459993824,204.73583459993824,204.73583459993824,204.73583459993824,204.73583459993824,204.73583459993824,206.50016229995526,206.50016229995526,206.50016229995526,206.50016229995526,206.50016229995526,206.50016229995526,206.50016229995526,53,52,48,45,48,60,206.50016229995526,208.10144390002824,,,,,,,,,,,,,,３１１,f,２２,2023-05-18_09h05.56.648,RL,2022.2.5,60.052990771053224,
52,48,50,42,0,31,31,31,,,,,,,,None,208.10144390002824,208.10144390002824,208.10144390002824,208.10144390002824,208.10144390002824,208.10144390002824,r,0.32064599986188114,208.45241970010102,208.45241970010102,208.45241970010102,208.45241970010102,208.45241970010102,208.45241970010102,208.7519429998938,210.20149119989946,210.20149119989946,210.20149119989946,210.20149119989946,210.20149119989946,210.20149119989946,210.20149119989946,210.20149119989946,210.20149119989946,210.20149119989946,210.20149119989946,210.20149119989946,210.20149119989946,210.20149119989946,211.94951669988222,211.94951669988222,211.94951669988222,211.94951669988222,211.94951669988222,211.94951669988222,211.94951669988222,42,52,48,50,52,60,211.94951669988222,213.60031630005687,,,,,,,,,,,,,,３１１,f,２２,2023-05-18_09h05.56.648,RL,2022.2.5,60.052990771053224,
56,47,56,52,0,32,32,32,,,,,,,,None,213.60031630005687,213.60031630005687,213.60031630005687,213.60031630005687,213.60031630005687,213.60031630005687,j,0.36292429990135133,213.98450080002658,213.98450080002658,213.98450080002658,213.98450080002658,213.98450080002658,213.98450080002658,214.28403150010854,215.8171079000458,215.8171079000458,215.8171079000458,215.8171079000458,215.8171079000458,215.8171079000458,215.8171079000458,215.8171079000458,215.8171079000458,215.8171079000458,215.8171079000458,215.8171079000458,215.8171079000458,215.8171079000458,217.64842920005322,217.64842920005322,217.64842920005322,217.64842920005322,217.64842920005322,217.64842920005322,217.64842920005322,52,56,47,56,56,60,217.64842920005322,219.63315910007805,,,,,,,,,,,,,,３１１,f,２２,2023-05-18_09h05.56.648,RL,2022.2.5,60.052990771053224,
59,49,54,57,0,33,33,33,,,,,,,,None,219.63315910007805,219.63315910007805,219.63315910007805,219.63315910007805,219.63315910007805,219.63315910007805,j,0.29940079990774393,219.95024739997461,219.95024739997461,219.95024739997461,219.95024739997461,219.95024739997461,219.95024739997461,220.23306509992108,222.0497131999582,222.0497131999582,222.0497131999582,222.0497131999582,222.0497131999582,222.0497131999582,222.0331514000427,222.0497131999582,222.0497131999582,222.0497131999582,222.0497131999582,222.0497131999582,222.0497131999582,222.0497131999582,224.1473701999057,224.1473701999057,224.1473701999057,224.1473701999057,224.1473701999057,224.1473701999057,224.1473701999057,57,59,49,54,54,60,224.1473701999057,225.89861689996906,,,,,,,,,,,,,,３１１,f,２２,2023-05-18_09h05.56.648,RL,2022.2.5,60.052990771053224,
61,46,47,51,0,34,34,34,,,,,,,,None,225.89861689996906,225.89861689996906,225.89861689996906,225.89861689996906,225.89861689996906,225.89861689996906,f,0.25850550015456975,226.18229150003754,226.18229150003754,226.18229150003754,226.18229150003754,226.18229150003754,226.18229150003754,226.46596570010297,228.2815221999772,228.2815221999772,228.2815221999772,228.2815221999772,228.2815221999772,228.2815221999772,228.26503599993885,228.2815221999772,228.2815221999772,228.2815221999772,228.2815221999772,228.2815221999772,228.2815221999772,228.2815221999772,230.3802849999629,230.3802849999629,230.3802849999629,230.3802849999629,230.3802849999629,230.3802849999629,230.3802849999629,51,61,46,47,51,60,230.3802849999629,232.34700020006858,,,,,,,,,,,,,,３１１,f,２２,2023-05-18_09h05.56.648,RL,2022.2.5,60.052990771053224,
51,42,50,58,0,35,35,35,,,,,,,,None,232.34700020006858,232.34700020006858,232.34700020006858,232.34700020006858,232.34700020006858,232.34700020006858,j,0.395417399937287,232.7656698001083,232.7656698001083,232.7656698001083,232.7656698001083,232.7656698001083,232.7656698001083,233.0479987000581,235.06388489995152,235.06388489995152,235.06388489995152,235.06388489995152,235.06388489995152,235.06388489995152,235.04787950008176,235.06388489995152,235.06388489995152,235.06388489995152,235.06388489995152,235.06388489995152,235.06388489995152,235.06388489995152,237.36193359992467,237.36193359992467,237.36193359992467,237.36193359992467,237.36193359992467,237.36193359992467,237.36193359992467,58,51,42,50,50,60,237.36193359992467,239.19664980005473,,,,,,,,,,,,,,３１１,f,２２,2023-05-18_09h05.56.648,RL,2022.2.5,60.052990771053224,
60,34,46,57,0,36,36,36,,,,,,,,None,239.19664980005473,239.19664980005473,239.19664980005473,239.19664980005473,239.19664980005473,239.19664980005473,i,0.30066080018877983,239.53474749997258,239.53474749997258,239.53474749997258,239.53474749997258,239.53474749997258,239.53474749997258,239.813445399981,241.7130531000439,241.7130531000439,241.7130531000439,241.7130531000439,241.7130531000439,241.7130531000439,241.69631520006806,241.7130531000439,241.7130531000439,241.7130531000439,241.7130531000439,241.7130531000439,241.7130531000439,241.7130531000439,243.8943970000837,243.8943970000837,243.8943970000837,243.8943970000837,243.8943970000837,243.8943970000837,243.8943970000837,57,60,34,46,34,60,243.8943970000837,245.6120800001081,,,,,,,,,,,,,,３１１,f,２２,2023-05-18_09h05.56.648,RL,2022.2.5,60.052990771053224,
61,43,40,53,0,37,37,37,,,,,,,,None,245.6120800001081,245.6120800001081,245.6120800001081,245.6120800001081,245.6120800001081,245.6120800001081,r,0.31257730000652373,245.94988299999386,245.94988299999386,245.94988299999386,245.94988299999386,245.94988299999386,245.94988299999386,246.2456966000609,247.86183080007322,247.86183080007322,247.86183080007322,247.86183080007322,247.86183080007322,247.86183080007322,247.86183080007322,247.86183080007322,247.86183080007322,247.86183080007322,247.86183080007322,247.86183080007322,247.86183080007322,247.86183080007322,249.77632350008935,249.77632350008935,249.77632350008935,249.77632350008935,249.77632350008935,249.77632350008935,249.77632350008935,53,61,43,40,61,60,249.77632350008935,251.77794960001484,,,,,,,,,,,,,,３１１,f,２２,2023-05-18_09h05.56.648,RL,2022.2.5,60.052990771053224,
61,44,52,51,0,38,38,38,,,,,,,,None,251.77794960001484,251.77794960001484,251.77794960001484,251.77794960001484,251.77794960001484,251.77794960001484,r,0.40606820001266897,252.2123610000126,252.2123610000126,252.2123610000126,252.2123610000126,252.2123610000126,252.2123610000126,252.4946987000294,254.51082480000332,254.51082480000332,254.51082480000332,254.51082480000332,254.51082480000332,254.51082480000332,254.49368460010737,254.51082480000332,254.51082480000332,254.51082480000332,254.51082480000332,254.51082480000332,254.51082480000332,254.51082480000332,256.80860550003126,256.80860550003126,256.80860550003126,256.80860550003126,256.80860550003126,256.80860550003126,256.80860550003126,51,61,44,52,61,60,256.80860550003126,258.4423003999982,,,,,,,,,,,,,,３１１,f,２２,2023-05-18_09h05.56.648,RL,2022.2.5,60.052990771053224,
47,37,44,54,0,39,39,39,,,,,,,,None,258.4423003999982,258.4423003999982,258.4423003999982,258.4423003999982,258.4423003999982,258.4423003999982,f,0.31398830004036427,258.7768314999994,258.7768314999994,258.7768314999994,258.7768314999994,258.7768314999994,258.7768314999994,259.0593320000917,260.3430943998974,260.3430943998974,260.3430943998974,260.3430943998974,260.3430943998974,260.3430943998974,260.3263584000524,260.3430943998974,260.3430943998974,260.3430943998974,260.3430943998974,260.3430943998974,260.3430943998974,260.3430943998974,261.9073282999452,261.9073282999452,261.9073282999452,261.9073282999452,261.9073282999452,261.9073282999452,261.9073282999452,54,47,37,44,54,60,261.9073282999452,263.77567579993047,,,,,,,,,,,,,,３１１,f,２２,2023-05-18_09h05.56.648,RL,2022.2.5,60.052990771053224,
52,38,43,55,0,40,40,40,,,,,,,,None,263.77567579993047,263.77567579993047,263.77567579993047,263.77567579993047,263.77567579993047,263.77567579993047,r,0.3239414000418037,264.1287388999481,264.1287388999481,264.1287388999481,264.1287388999481,264.1287388999481,264.1287388999481,264.4255200999323,265.6584167999681,265.6584167999681,265.6584167999681,265.6584167999681,265.6584167999681,265.6584167999681,265.6584167999681,265.6584167999681,265.6584167999681,265.6584167999681,265.6584167999681,265.6584167999681,265.6584167999681,265.6584167999681,267.1898431999143,267.1898431999143,267.1898431999143,267.1898431999143,267.1898431999143,267.1898431999143,267.1898431999143,55,52,38,43,52,60,267.1898431999143,268.7083332000766,,,,,,,,,,,,,,３１１,f,２２,2023-05-18_09h05.56.648,RL,2022.2.5,60.052990771053224,
50,43,48,45,0,41,41,41,,,,,,,,None,268.7083332000766,268.7083332000766,268.7083332000766,268.7083332000766,268.7083332000766,268.7083332000766,j,0.35526180011220276,269.0938889000099,269.0938889000099,269.0938889000099,269.0938889000099,269.0938889000099,269.0938889000099,269.3914008999709,271.0411461999174,271.0411461999174,271.0411461999174,271.0411461999174,271.0411461999174,271.0411461999174,271.0411461999174,271.0411461999174,271.0411461999174,271.0411461999174,271.0411461999174,271.0411461999174,271.0411461999174,271.0411461999174,272.98904670006596,272.98904670006596,272.98904670006596,272.98904670006596,272.98904670006596,272.98904670006596,272.98904670006596,45,50,43,48,48,60,272.98904670006596,274.62317249993794,,,,,,,,,,,,,,３１１,f,２２,2023-05-18_09h05.56.648,RL,2022.2.5,60.052990771053224,
48,42,38,59,0,42,42,42,,,,,,,,None,274.62317249993794,274.62317249993794,274.62317249993794,274.62317249993794,274.62317249993794,274.62317249993794,f,0.26455159997567534,274.90833669994026,274.90833669994026,274.90833669994026,274.90833669994026,274.90833669994026,274.90833669994026,275.20710409991443,277.1234969000798,277.1234969000798,277.1234969000798,277.1234969000798,277.1234969000798,277.1234969000798,277.1234969000798,277.1234969000798,277.1234969000798,277.1234969000798,277.1234969000798,277.1234969000798,277.1234969000798,277.1234969000798,279.3377306999173,279.3377306999173,279.3377306999173,279.3377306999173,279.3377306999173,279.3377306999173,279.3377306999173,59,48,42,38,59,60,279.3377306999173,281.27210450009443,,,,,,,,,,,,,,３１１,f,２２,2023-05-18_09h05.56.648,RL,2022.2.5,60.052990771053224,
40,41,39,47,0,43,43,43,,,,,,,,None,281.27210450009443,281.27210450009443,281.27210450009443,281.27210450009443,281.27210450009443,281.27210450009443,j,0.3255956000648439,281.6227267999202,281.6227267999202,281.6227267999202,281.6227267999202,281.6227267999202,281.6227267999202,281.9059852999635,283.38869319995865,283.38869319995865,283.38869319995865,283.38869319995865,283.38869319995865,283.38869319995865,283.3722280000802,283.38869319995865,283.38869319995865,283.38869319995865,283.38869319995865,283.38869319995865,283.38869319995865,283.38869319995865,285.1365888998844,285.1365888998844,285.1365888998844,285.1365888998844,285.1365888998844,285.1365888998844,285.1365888998844,47,40,41,39,39,60,285.1365888998844,286.82156489999034,,,,,,,,,,,,,,３１１,f,２２,2023-05-18_09h05.56.648,RL,2022.2.5,60.052990771053224,
35,41,31,56,0,44,44,44,,,,,,,,None,286.82156489999034,286.82156489999034,286.82156489999034,286.82156489999034,286.82156489999034,286.82156489999034,f,0.2786693999078125,287.12339730001986,287.12339730001986,287.12339730001986,287.12339730001986,287.12339730001986,287.12339730001986,287.4051387999207,288.73782110004686,288.73782110004686,288.73782110004686,288.73782110004686,288.73782110004686,288.73782110004686,288.7212139000185,288.73782110004686,288.73782110004686,288.73782110004686,288.73782110004686,288.73782110004686,288.73782110004686,288.73782110004686,290.3528523000423,290.3528523000423,290.3528523000423,290.3528523000423,290.3528523000423,290.3528523000423,290.3528523000423,56,35,41,31,56,60,290.3528523000423,292.0873485999182,,,,,,,,,,,,,,３１１,f,２２,2023-05-18_09h05.56.648,RL,2022.2.5,60.052990771053224,
37,41,30,54,0,45,45,45,,,,,,,,None,292.0873485999182,292.0873485999182,292.0873485999182,292.0873485999182,292.0873485999182,292.0873485999182,i,0.3523929000366479,292.4749304000288,292.4749304000288,292.4749304000288,292.4749304000288,292.4749304000288,292.4749304000288,292.7540583999362,294.6371752000414,294.6371752000414,294.6371752000414,294.6371752000414,294.6371752000414,294.6371752000414,294.62053740001284,294.6371752000414,294.6371752000414,294.6371752000414,294.6371752000414,294.6371752000414,294.6371752000414,294.6371752000414,296.80171689996496,296.80171689996496,296.80171689996496,296.80171689996496,296.80171689996496,296.80171689996496,296.80171689996496,54,37,41,30,41,60,296.80171689996496,298.6689655999653,,,,,,,,,,,,,,３１１,f,２２,2023-05-18_09h05.56.648,RL,2022.2.5,60.052990771053224,
35,33,42,50,0,46,46,46,,,,,,,,None,298.6689655999653,298.6689655999653,298.6689655999653,298.6689655999653,298.6689655999653,298.6689655999653,f,0.30553180002607405,299.00744650000706,299.00744650000706,299.00744650000706,299.00744650000706,299.00744650000706,299.00744650000706,299.2865172000602,301.16949529992417,301.16949529992417,301.16949529992417,301.16949529992417,301.16949529992417,301.16949529992417,301.13626609998755,301.16949529992417,301.16949529992417,301.16949529992417,301.16949529992417,301.16949529992417,301.16949529992417,301.16949529992417,303.31701799994335,303.31701799994335,303.31701799994335,303.31701799994335,303.31701799994335,303.31701799994335,303.31701799994335,50,35,33,42,50,60,303.31701799994335,305.05199710000306,,,,,,,,,,,,,,３１１,f,２２,2023-05-18_09h05.56.648,RL,2022.2.5,60.052990771053224,
37,41,38,65,0,47,47,47,,,,,,,,None,305.05199710000306,305.05199710000306,305.05199710000306,305.05199710000306,305.05199710000306,305.05199710000306,r,0.3192674999590963,305.40208119992167,305.40208119992167,305.40208119992167,305.40208119992167,305.40208119992167,305.40208119992167,305.6852766999509,306.7348472001031,306.7348472001031,306.7348472001031,306.7348472001031,306.7348472001031,306.7348472001031,306.7187985999044,306.7348472001031,306.7348472001031,306.7348472001031,306.7348472001031,306.7348472001031,306.7348472001031,306.7348472001031,308.06653090007603,308.06653090007603,308.06653090007603,308.06653090007603,308.06653090007603,308.06653090007603,308.06653090007603,65,37,41,38,37,60,308.06653090007603,310.01728360005654,,,,,,,,,,,,,,３１１,f,２２,2023-05-18_09h05.56.648,RL,2022.2.5,60.052990771053224,
27,36,41,57,0,48,48,48,,,,,,,,None,310.01728360005654,310.01728360005654,310.01728360005654,310.01728360005654,310.01728360005654,310.01728360005654,i,0.30976870004087687,310.35106880008243,310.35106880008243,310.35106880008243,310.35106880008243,310.35106880008243,310.35106880008243,310.63414449989796,312.1504691999871,312.1504691999871,312.1504691999871,312.1504691999871,312.1504691999871,312.1504691999871,312.1343207000755,312.1504691999871,312.1504691999871,312.1504691999871,312.1504691999871,312.1504691999871,312.1504691999871,312.1504691999871,313.9487461000681,313.9487461000681,313.9487461000681,313.9487461000681,313.9487461000681,313.9487461000681,313.9487461000681,57,27,36,41,36,60,313.9487461000681,315.7665468000341,,,,,,,,,,,,,,３１１,f,２２,2023-05-18_09h05.56.648,RL,2022.2.5,60.052990771053224,
21,39,43,54,0,49,49,49,,,,,,,,None,315.7665468000341,315.7665468000341,315.7665468000341,315.7665468000341,315.7665468000341,315.7665468000341,j,0.25693159992806613,316.0502778000664,316.0502778000664,316.0502778000664,316.0502778000664,316.0502778000664,316.0502778000664,316.34966750000603,317.6660408999305,317.6660408999305,317.6660408999305,317.6660408999305,317.6660408999305,317.6660408999305,317.6660408999305,317.6660408999305,317.6660408999305,317.6660408999305,317.6660408999305,317.6660408999305,317.6660408999305,317.6660408999305,319.28124010004103,319.28124010004103,319.28124010004103,319.28124010004103,319.28124010004103,319.28124010004103,319.28124010004103,54,21,39,43,43,60,319.28124010004103,321.03192050009966,,,,,,,,,,,,,,３１１,f,２２,2023-05-18_09h05.56.648,RL,2022.2.5,60.052990771053224,
21,32,48,56,0,50,50,50,,,,,,,,None,321.03192050009966,321.03192050009966,321.03192050009966,321.03192050009966,321.03192050009966,321.03192050009966,f,0.3003434999845922,321.36880680010654,321.36880680010654,321.36880680010654,321.36880680010654,321.36880680010654,321.36880680010654,321.6492049000226,323.3152358001098,323.3152358001098,323.3152358001098,323.3152358001098,323.3152358001098,323.3152358001098,323.29857910005376,323.3152358001098,323.3152358001098,323.3152358001098,323.3152358001098,323.3152358001098,323.3152358001098,323.3152358001098,325.26326710009016,325.26326710009016,325.26326710009016,325.26326710009016,325.26326710009016,325.26326710009016,325.26326710009016,56,21,32,48,56,60,325.26326710009016,326.9813375000376,,,,,,,,,,,,,,３１１,f,２２,2023-05-18_09h05.56.648,RL,2022.2.5,60.052990771053224,
28,39,37,56,0,51,51,51,,,,,,,,None,326.9813375000376,326.9813375000376,326.9813375000376,326.9813375000376,326.9813375000376,326.9813375000376,f,0.32568640005774796,327.3319812999107,327.3319812999107,327.3319812999107,327.3319812999107,327.3319812999107,327.3319812999107,327.63136840006337,329.5140309999697,329.5140309999697,329.5140309999697,329.5140309999697,329.5140309999697,329.5140309999697,329.5140309999697,329.5140309999697,329.5140309999697,329.5140309999697,329.5140309999697,329.5140309999697,329.5140309999697,329.5140309999697,331.69556539994664,331.69556539994664,331.69556539994664,331.69556539994664,331.69556539994664,331.69556539994664,331.69556539994664,56,28,39,37,56,60,331.69556539994664,333.44671309995465,,,,,,,,,,,,,,３１１,f,２２,2023-05-18_09h05.56.648,RL,2022.2.5,60.052990771053224,
23,36,46,56,0,52,52,52,,,,,,,,None,333.44671309995465,333.44671309995465,333.44671309995465,333.44671309995465,333.44671309995465,333.44671309995465,f,0.2679876999463886,333.7522358999122,333.7522358999122,333.7522358999122,333.7522358999122,333.7522358999122,333.7522358999122,334.04713280010037,335.0964925000444,335.0964925000444,335.0964925000444,335.0964925000444,335.0964925000444,335.0964925000444,335.0803070999682,335.0964925000444,335.0964925000444,335.0964925000444,335.0964925000444,335.0964925000444,335.0964925000444,335.0964925000444,336.4277526999358,336.4277526999358,336.4277526999358,336.4277526999358,336.4277526999358,336.4277526999358,336.4277526999358,56,23,36,46,56,60,336.4277526999358,338.14564260002226,,,,,,,,,,,,,,３１１,f,２２,2023-05-18_09h05.56.648,RL,2022.2.5,60.052990771053224,
25,44,32,51,0,53,53,53,,,,,,,,None,338.14564260002226,338.14564260002226,338.14564260002226,338.14564260002226,338.14564260002226,338.14564260002226,f,0.2905218000523746,338.464255400002,338.464255400002,338.464255400002,338.464255400002,338.464255400002,338.464255400002,338.746394299902,340.02906730002724,340.02906730002724,340.02906730002724,340.02906730002724,340.02906730002724,340.02906730002724,340.01248049992137,340.02906730002724,340.02906730002724,340.02906730002724,340.02906730002724,340.02906730002724,340.02906730002724,340.02906730002724,341.5933590999339,341.5933590999339,341.5933590999339,341.5933590999339,341.5933590999339,341.5933590999339,341.5933590999339,51,25,44,32,51,60,341.5933590999339,343.3117978000082,,,,,,,,,,,,,,３１１,f,２２,2023-05-18_09h05.56.648,RL,2022.2.5,60.052990771053224,
27,40,42,52,0,54,54,54,,,,,,,,None,343.3117978000082,343.3117978000082,343.3117978000082,343.3117978000082,343.3117978000082,343.3117978000082,j,0.28199389996007085,343.6124032998923,343.6124032998923,343.6124032998923,343.6124032998923,343.6124032998923,343.6124032998923,343.8954574998934,345.5951270000078,345.5951270000078,345.5951270000078,345.5951270000078,345.5951270000078,345.5951270000078,345.57845859997906,345.5951270000078,345.5951270000078,345.5951270000078,345.5951270000078,345.5951270000078,345.5951270000078,345.5951270000078,347.57594510004856,347.57594510004856,347.57594510004856,347.57594510004856,347.57594510004856,347.57594510004856,347.57594510004856,52,27,40,42,42,60,347.57594510004856,349.3773465999402,,,,,,,,,,,,,,３１１,f,２２,2023-05-18_09h05.56.648,RL,2022.2.5,60.052990771053224,
32,49,44,54,0,55,55,55,,,,,,,,None,349.3773465999402,349.3773465999402,349.3773465999402,349.3773465999402,349.3773465999402,349.3773465999402,r,0.29673709999769926,349.6942930999212,349.6942930999212,349.6942930999212,349.6942930999212,349.6942930999212,349.6942930999212,349.97717369999737,351.44379030005075,351.44379030005075,351.44379030005075,351.44379030005075,351.44379030005075,351.44379030005075,351.4276542000007,351.44379030005075,351.44379030005075,351.44379030005075,351.44379030005075,351.44379030005075,351.44379030005075,351.44379030005075,353.1918001000304,353.1918001000304,353.1918001000304,353.1918001000304,353.1918001000304,353.1918001000304,353.1918001000304,54,32,49,44,32,60,353.1918001000304,354.92614650004543,,,,,,,,,,,,,,３１１,f,２２,2023-05-18_09h05.56.648,RL,2022.2.5,60.052990771053224,
29,43,40,54,0,56,56,56,,,,,,,,None,354.92614650004543,354.92614650004543,354.92614650004543,354.92614650004543,354.92614650004543,354.92614650004543,i,0.47993699996732175,355.42805269989185,355.42805269989185,355.42805269989185,355.42805269989185,355.42805269989185,355.42805269989185,355.7098477000836,357.40950750000775,357.40950750000775,357.40950750000775,357.40950750000775,357.40950750000775,357.40950750000775,357.3932767000515,357.40950750000775,357.40950750000775,357.40950750000775,357.40950750000775,357.40950750000775,357.40950750000775,357.40950750000775,359.3909662000369,359.3909662000369,359.3909662000369,359.3909662000369,359.3909662000369,359.3909662000369,359.3909662000369,54,29,43,40,43,60,359.3909662000369,361.1926146999467,,,,,,,,,,,,,,３１１,f,２２,2023-05-18_09h05.56.648,RL,2022.2.5,60.052990771053224,
19,36,48,59,0,57,57,57,,,,,,,,None,361.1926146999467,361.1926146999467,361.1926146999467,361.1926146999467,361.1926146999467,361.1926146999467,f,0.2718283999711275,361.4927471000701,361.4927471000701,361.4927471000701,361.4927471000701,361.4927471000701,361.4927471000701,361.77533539989963,362.7999342000112,362.7999342000112,362.7999342000112,362.7999342000112,362.7999342000112,362.7999342000112,362.74159960006364,362.7999342000112,362.7999342000112,362.7999342000112,362.7999342000112,362.7999342000112,362.7999342000112,362.7999342000112,364.05636489996687,364.05636489996687,364.05636489996687,364.05636489996687,364.05636489996687,364.05636489996687,364.05636489996687,59,19,36,48,59,60,364.05636489996687,365.7411632000003,,,,,,,,,,,,,,３１１,f,２２,2023-05-18_09h05.56.648,RL,2022.2.5,60.052990771053224,
38,40,48,57,0,58,58,58,,,,,,,,None,365.7411632000003,365.7411632000003,365.7411632000003,365.7411632000003,365.7411632000003,365.7411632000003,f,0.30363320000469685,366.0765480999835,366.0765480999835,366.0765480999835,366.0765480999835,366.0765480999835,366.0765480999835,366.37470829999074,368.2574674000498,368.2574674000498,368.2574674000498,368.2574674000498,368.2574674000498,368.2574674000498,368.2574674000498,368.2574674000498,368.2574674000498,368.2574674000498,368.2574674000498,368.2574674000498,368.2574674000498,368.2574674000498,370.4384278000798,370.4384278000798,370.4384278000798,370.4384278000798,370.4384278000798,370.4384278000798,370.4384278000798,57,38,40,48,57,60,370.4384278000798,372.13976799999364,,,,,,,,,,,,,,３１１,f,２２,2023-05-18_09h05.56.648,RL,2022.2.5,60.052990771053224,
29,38,51,64,0,59,59,59,,,,,,,,None,372.13976799999364,372.13976799999364,372.13976799999364,372.13976799999364,372.13976799999364,372.13976799999364,f,0.5354001999367028,372.71096480009146,372.71096480009146,372.71096480009146,372.71096480009146,372.71096480009146,372.71096480009146,372.98996699997224,374.72294249990955,374.72294249990955,374.72294249990955,374.72294249990955,374.72294249990955,374.72294249990955,374.6896937000565,374.72294249990955,374.72294249990955,374.72294249990955,374.72294249990955,374.72294249990955,374.72294249990955,374.72294249990955,376.72126260004006,376.72126260004006,376.72126260004006,376.72126260004006,376.72126260004006,376.72126260004006,376.72126260004006,64,29,38,51,64,60,376.72126260004006,378.5219068999868,,,,,,,,,,,,,,３１１,f,２２,2023-05-18_09h05.56.648,RL,2022.2.5,60.052990771053224,
27,44,51,70,0,60,60,60,,,,,,,,None,378.5219068999868,378.5219068999868,378.5219068999868,378.5219068999868,378.5219068999868,378.5219068999868,f,0.2805588999763131,378.8234395000618,378.8234395000618,378.8234395000618,378.8234395000618,378.8234395000618,378.8234395000618,379.1055022000801,380.30527810007334,380.30527810007334,380.30527810007334,380.30527810007334,380.30527810007334,380.30527810007334,380.2886258000508,380.30527810007334,380.30527810007334,380.30527810007334,380.30527810007334,380.30527810007334,380.30527810007334,380.30527810007334,381.78655380010605,381.78655380010605,381.78655380010605,381.78655380010605,381.78655380010605,381.78655380010605,381.78655380010605,70,27,44,51,70,60,381.78655380010605,383.6209553000517,,,,,,,,,,,,,,３１１,f,２２,2023-05-18_09h05.56.648,RL,2022.2.5,60.052990771053224,
32,51,49,61,0,61,61,61,,,,,,,,None,383.6209553000517,383.6209553000517,383.6209553000517,383.6209553000517,383.6209553000517,383.6209553000517,f,0.49848080007359385,384.1381717999466,384.1381717999466,384.1381717999466,384.1381717999466,384.1381717999466,384.1381717999466,384.4217383998912,386.2710839000065,386.2710839000065,386.2710839000065,386.2710839000065,386.2710839000065,386.2710839000065,386.2548611999955,386.2710839000065,386.2710839000065,386.2710839000065,386.2710839000065,386.2710839000065,386.2710839000065,386.2710839000065,388.40272010001354,388.40272010001354,388.40272010001354,388.40272010001354,388.40272010001354,388.40272010001354,388.40272010001354,61,32,51,49,61,60,388.40272010001354,390.33666769997217,,,,,,,,,,,,,,３１１,f,２２,2023-05-18_09h05.56.648,RL,2022.2.5,60.052990771053224,
42,51,55,52,0,62,62,62,,,,,,,,None,390.33666769997217,390.33666769997217,390.33666769997217,390.33666769997217,390.33666769997217,390.33666769997217,i,0.314987099962309,390.6729772000108,390.6729772000108,390.6729772000108,390.6729772000108,390.6729772000108,390.6729772000108,390.97031589993276,392.65338920010254,392.65338920010254,392.65338920010254,392.65338920010254,392.65338920010254,392.65338920010254,392.65338920010254,392.65338920010254,392.65338920010254,392.65338920010254,392.65338920010254,392.65338920010254,392.65338920010254,392.65338920010254,394.63444470008835,394.63444470008835,394.63444470008835,394.63444470008835,394.63444470008835,394.63444470008835,394.63444470008835,52,42,51,55,51,60,394.63444470008835,396.5023314000573,,,,,,,,,,,,,,３１１,f,２２,2023-05-18_09h05.56.648,RL,2022.2.5,60.052990771053224,
28,55,51,67,0,63,63,63,,,,,,,,None,396.5023314000573,396.5023314000573,396.5023314000573,396.5023314000573,396.5023314000573,396.5023314000573,j,0.3084293999709189,396.83615390001796,396.83615390001796,396.83615390001796,396.83615390001796,396.83615390001796,396.83615390001796,397.1196252000518,399.1191912998911,399.1191912998911,399.1191912998911,399.1191912998911,399.1191912998911,399.1191912998911,399.1025825000834,399.1191912998911,399.1191912998911,399.1191912998911,399.1191912998911,399.1191912998911,399.1191912998911,399.1191912998911,401.39990819990635,401.39990819990635,401.39990819990635,401.39990819990635,401.39990819990635,401.39990819990635,401.39990819990635,67,28,55,51,51,60,401.39990819990635,403.05124530009925,,,,,,,,,,,,,,３１１,f,２２,2023-05-18_09h05.56.648,RL,2022.2.5,60.052990771053224,
34,57,51,58,0,64,64,64,,,,,,,,None,403.05124530009925,403.05124530009925,403.05124530009925,403.05124530009925,403.05124530009925,403.05124530009925,f,0.2732100000139326,403.35151740000583,403.35151740000583,403.35151740000583,403.35151740000583,403.35151740000583,403.35151740000583,403.63502519996837,404.6511335000396,404.6511335000396,404.6511335000396,404.6511335000396,404.6511335000396,404.6511335000396,404.63460380001925,404.6511335000396,404.6511335000396,404.6511335000396,404.6511335000396,404.6511335000396,404.6511335000396,404.6511335000396,405.9495725000743,405.9495725000743,405.9495725000743,405.9495725000743,405.9495725000743,405.9495725000743,405.9495725000743,58,34,57,51,58,60,405.9495725000743,407.55006320006214,,,,,,,,,,,,,,３１１,f,２２,2023-05-18_09h05.56.648,RL,2022.2.5,60.052990771053224,
30,48,52,60,0,65,65,65,,,,,,,,None,407.55006320006214,407.55006320006214,407.55006320006214,407.55006320006214,407.55006320006214,407.55006320006214,r,0.33141690003685653,407.90073020011187,407.90073020011187,407.90073020011187,407.90073020011187,407.90073020011187,407.90073020011187,408.1844214000739,409.26743049989454,409.26743049989454,409.26743049989454,409.26743049989454,409.26743049989454,409.26743049989454,409.2506800000556,409.26743049989454,409.26743049989454,409.26743049989454,409.26743049989454,409.26743049989454,409.26743049989454,409.26743049989454,410.63169619999826,410.63169619999826,410.63169619999826,410.63169619999826,410.63169619999826,410.63169619999826,410.63169619999826,60,30,48,52,30,60,410.63169619999826,412.2998601999134,,,,,,,,,,,,,,３１１,f,２２,2023-05-18_09h05.56.648,RL,2022.2.5,60.052990771053224,
33,60,42,56,0,66,66,66,,,,,,,,None,412.2998601999134,412.2998601999134,412.2998601999134,412.2998601999134,412.2998601999134,412.2998601999134,f,0.36126330005936325,412.68366550002247,412.68366550002247,412.68366550002247,412.68366550002247,412.68366550002247,412.68366550002247,412.96656959992833,414.1993390000425,414.1993390000425,414.1993390000425,414.1993390000425,414.1993390000425,414.1993390000425,414.18328700005077,414.1993390000425,414.1993390000425,414.1993390000425,414.1993390000425,414.1993390000425,414.1993390000425,414.1993390000425,415.7140850999858,415.7140850999858,415.7140850999858,415.7140850999858,415.7140850999858,415.7140850999858,415.7140850999858,56,33,60,42,56,60,415.7140850999858,417.3820487000048,,,,,,,,,,,,,,３１１,f,２２,2023-05-18_09h05.56.648,RL,2022.2.5,60.052990771053224,
35,57,47,58,0,67,67,67,,,,,,,,None,417.3820487000048,417.3820487000048,417.3820487000048,417.3820487000048,417.3820487000048,417.3820487000048,j,0.34282379993237555,417.7489384000655,417.7489384000655,417.7489384000655,417.7489384000655,417.7489384000655,417.7489384000655,418.0322759000119,418.88190430006944,418.88190430006944,418.88190430006944,418.88190430006944,418.88190430006944,418.88190430006944,418.865775299957,418.88190430006944,418.88190430006944,418.88190430006944,418.88190430006944,418.88190430006944,418.88190430006944,418.88190430006944,420.01356799993664,420.01356799993664,420.01356799993664,420.01356799993664,420.01356799993664,420.01356799993664,420.01356799993664,58,35,57,47,47,60,420.01356799993664,421.78145870007575,,,,,,,,,,,,,,３１１,f,２２,2023-05-18_09h05.56.648,RL,2022.2.5,60.052990771053224,
42,67,43,58,0,68,68,68,,,,,,,,None,421.78145870007575,421.78145870007575,421.78145870007575,421.78145870007575,421.78145870007575,421.78145870007575,f,0.28054470010101795,422.08204329991713,422.08204329991713,422.08204329991713,422.08204329991713,422.08204329991713,422.08204329991713,422.3648027998861,423.33117079990916,423.33117079990916,423.33117079990916,423.33117079990916,423.33117079990916,423.33117079990916,423.3149782998953,423.33117079990916,423.33117079990916,423.33117079990916,423.33117079990916,423.33117079990916,423.33117079990916,423.33117079990916,424.5790432000067,424.5790432000067,424.5790432000067,424.5790432000067,424.5790432000067,424.5790432000067,424.5790432000067,58,42,67,43,58,60,424.5790432000067,426.4805199999828,,,,,,,,,,,,,,３１１,f,２２,2023-05-18_09h05.56.648,RL,2022.2.5,60.052990771053224,
28,59,43,59,0,69,69,69,,,,,,,,None,426.4805199999828,426.4805199999828,426.4805199999828,426.4805199999828,426.4805199999828,426.4805199999828,f,0.3171485997736454,426.8139859000221,426.8139859000221,426.8139859000221,426.8139859000221,426.8139859000221,426.8139859000221,427.09755699988455,427.9972637000028,427.9972637000028,427.9972637000028,427.9972637000028,427.9972637000028,427.9972637000028,427.9808912000153,427.9972637000028,427.9972637000028,427.9972637000028,427.9972637000028,427.9972637000028,427.9972637000028,427.9972637000028,429.17851480003446,429.17851480003446,429.17851480003446,429.17851480003446,429.17851480003446,429.17851480003446,429.17851480003446,59,28,59,43,59,60,429.17851480003446,430.96303560002707,,,,,,,,,,,,,,３１１,f,２２,2023-05-18_09h05.56.648,RL,2022.2.5,60.052990771053224,
35,54,46,52,0,70,70,70,,,,,,,,None,430.96303560002707,430.96303560002707,430.96303560002707,430.96303560002707,430.96303560002707,430.96303560002707,f,0.32890449999831617,431.31460639997385,431.31460639997385,431.31460639997385,431.31460639997385,431.31460639997385,431.31460639997385,431.59663080004975,433.4631984999869,433.4631984999869,433.4631984999869,433.4631984999869,433.4631984999869,433.4631984999869,433.4466405999847,433.4631984999869,433.4631984999869,433.4631984999869,433.4631984999869,433.4631984999869,433.4631984999869,433.4631984999869,435.61047700000927,435.61047700000927,435.61047700000927,435.61047700000927,435.61047700000927,435.61047700000927,435.61047700000927,52,35,54,46,52,60,435.61047700000927,437.2120511000976,,,,,,,,,,,,,,３１１,f,２２,2023-05-18_09h05.56.648,RL,2022.2.5,60.052990771053224,
38,57,53,53,0,71,71,71,,,,,,,,None,437.2120511000976,437.2120511000976,437.2120511000976,437.2120511000976,437.2120511000976,437.2120511000976,i,0.3125793000217527,437.54559340002015,437.54559340002015,437.54559340002015,437.54559340002015,437.54559340002015,437.54559340002015,437.84539130004123,439.0785294000525,439.0785294000525,439.0785294000525,439.0785294000525,439.0785294000525,439.0785294000525,439.0785294000525,439.0785294000525,439.0785294000525,439.0785294000525,439.0785294000525,439.0785294000525,439.0785294000525,439.0785294000525,440.609523500083,440.609523500083,440.609523500083,440.609523500083,440.609523500083,440.609523500083,440.609523500083,53,38,57,53,57,60,440.609523500083,442.37738740001805,,,,,,,,,,,,,,３１１,f,２２,2023-05-18_09h05.56.648,RL,2022.2.5,60.052990771053224,
45,61,45,60,0,72,72,72,,,,,,,,None,442.37738740001805,442.37738740001805,442.37738740001805,442.37738740001805,442.37738740001805,442.37738740001805,i,0.27733299997635186,442.678279499989,442.678279499989,442.678279499989,442.678279499989,442.678279499989,442.678279499989,442.96097619994543,444.1777530000545,444.1777530000545,444.1777530000545,444.1777530000545,444.1777530000545,444.1777530000545,444.16121560009196,444.1777530000545,444.1777530000545,444.1777530000545,444.1777530000545,444.1777530000545,444.1777530000545,444.1777530000545,445.6759071999695,445.6759071999695,445.6759071999695,445.6759071999695,445.6759071999695,445.6759071999695,445.6759071999695,60,45,61,45,61,60,445.6759071999695,447.2101483999286,,,,,,,,,,,,,,３１１,f,２２,2023-05-18_09h05.56.648,RL,2022.2.5,60.052990771053224,
36,51,44,55,0,73,73,73,,,,,,,,None,447.2101483999286,447.2101483999286,447.2101483999286,447.2101483999286,447.2101483999286,447.2101483999286,i,0.29128230013884604,447.5274050999433,447.5274050999433,447.5274050999433,447.5274050999433,447.5274050999433,447.5274050999433,447.82694360008463,449.64338860008866,449.64338860008866,449.64338860008866,449.64338860008866,449.64338860008866,449.64338860008866,449.64338860008866,449.64338860008866,449.64338860008866,449.64338860008866,449.64338860008866,449.64338860008866,449.64338860008866,449.64338860008866,451.7578541999683,451.7578541999683,451.7578541999683,451.7578541999683,451.7578541999683,451.7578541999683,451.7578541999683,55,36,51,44,51,60,451.7578541999683,453.4926761998795,,,,,,,,,,,,,,３１１,f,２２,2023-05-18_09h05.56.648,RL,2022.2.5,60.052990771053224,
41,56,45,64,0,74,74,74,,,,,,,,None,453.4926761998795,453.4926761998795,453.4926761998795,453.4926761998795,453.4926761998795,453.4926761998795,f,0.2920620001386851,453.8097939998843,453.8097939998843,453.8097939998843,453.8097939998843,453.8097939998843,453.8097939998843,454.1094543999061,454.95900340005755,454.95900340005755,454.95900340005755,454.95900340005755,454.95900340005755,454.95900340005755,454.95900340005755,454.95900340005755,454.95900340005755,454.95900340005755,454.95900340005755,454.95900340005755,454.95900340005755,454.95900340005755,456.1071401000954,456.1071401000954,456.1071401000954,456.1071401000954,456.1071401000954,456.1071401000954,456.1071401000954,64,41,56,45,64,60,456.1071401000954,457.6907822000794,,,,,,,,,,,,,,３１１,f,２２,2023-05-18_09h05.56.648,RL,2022.2.5,60.052990771053224,
37,63,47,69,0,75,75,75,,,,,,,,q,484.8869543001056,484.8869543001056,484.8869543001056,484.8869543001056,484.8869543001056,484.8869543001056,None,,,,,,,,,,,,,,,,,,,,,,,,,,,,,,69,37,63,47,0,60,492.40118939988315,494.3687489000149,457.6907822000794,457.6907822000794,22.160722099943087,479.8717716000974,479.8717716000974,484.8869543001056,484.8869543001056,486.38843140006065,492.40118939988315,,,,,３１１,f,２２,2023-05-18_09h05.56.648,RL,2022.2.5,60.052990771053224,
39,60,33,64,0,76,76,76,,,,,,,,None,494.3687489000149,494.3687489000149,494.3687489000149,494.3687489000149,494.3687489000149,494.3687489000149,r,0.523781199939549,494.9201098999474,494.9201098999474,494.9201098999474,494.9201098999474,494.9201098999474,494.9201098999474,495.2024560999125,496.6853161000181,496.6853161000181,496.6853161000181,496.6853161000181,496.6853161000181,496.6853161000181,496.6682889999356,496.6853161000181,496.6853161000181,496.6853161000181,496.6853161000181,496.6853161000181,496.6853161000181,496.6853161000181,498.4499206999317,498.4499206999317,498.4499206999317,498.4499206999317,498.4499206999317,498.4499206999317,498.4499206999317,64,39,60,33,39,60,498.4499206999317,500.1509211999364,,,,,,,,,,,,,,３１１,f,２２,2023-05-18_09h05.56.648,RL,2022.2.5,60.052990771053224,
34,59,47,66,0,77,77,77,,,,,,,,None,500.1509211999364,500.1509211999364,500.1509211999364,500.1509211999364,500.1509211999364,500.1509211999364,f,0.3100844998843968,500.48485939996317,500.48485939996317,500.48485939996317,500.48485939996317,500.48485939996317,500.48485939996317,500.76777700008824,502.1009309999645,502.1009309999645,502.1009309999645,502.1009309999645,502.1009309999645,502.1009309999645,502.08450270001777,502.1009309999645,502.1009309999645,502.1009309999645,502.1009309999645,502.1009309999645,502.1009309999645,502.1009309999645,503.71550730010495,503.71550730010495,503.71550730010495,503.71550730010495,503.71550730010495,503.71550730010495,503.71550730010495,66,34,59,47,66,60,503.71550730010495,505.31687929993495,,,,,,,,,,,,,,３１１,f,２２,2023-05-18_09h05.56.648,RL,2022.2.5,60.052990771053224,
37,55,39,70,0,78,78,78,,,,,,,,None,505.31687929993495,505.31687929993495,505.31687929993495,505.31687929993495,505.31687929993495,505.31687929993495,f,0.3996492000296712,505.73363390006125,505.73363390006125,505.73363390006125,505.73363390006125,505.73363390006125,505.73363390006125,506.0334592999425,506.9335183999501,506.9335183999501,506.9335183999501,506.9335183999501,506.9335183999501,506.9335183999501,506.9335183999501,506.9335183999501,506.9335183999501,506.9335183999501,506.9335183999501,506.9335183999501,506.9335183999501,506.9335183999501,508.1313881999813,508.1313881999813,508.1313881999813,508.1313881999813,508.1313881999813,508.1313881999813,508.1313881999813,70,37,55,39,70,60,508.1313881999813,509.9328012999613,,,,,,,,,,,,,,３１１,f,２２,2023-05-18_09h05.56.648,RL,2022.2.5,60.052990771053224,
42,51,36,66,0,79,79,79,,,,,,,,None,509.9328012999613,509.9328012999613,509.9328012999613,509.9328012999613,509.9328012999613,509.9328012999613,f,0.2559525000397116,510.21643480006605,510.21643480006605,510.21643480006605,510.21643480006605,510.21643480006605,510.21643480006605,510.4992964998819,511.9157738999929,511.9157738999929,511.9157738999929,511.9157738999929,511.9157738999929,511.9157738999929,511.8991658000741,511.9157738999929,511.9157738999929,511.9157738999929,511.9157738999929,511.9157738999929,511.9157738999929,511.9157738999929,513.6139169000089,513.6139169000089,513.6139169000089,513.6139169000089,513.6139169000089,513.6139169000089,513.6139169000089,66,42,51,36,66,60,513.6139169000089,515.2981859000865,,,,,,,,,,,,,,３１１,f,２２,2023-05-18_09h05.56.648,RL,2022.2.5,60.052990771053224,
35,49,31,68,0,80,80,80,,,,,,,,None,515.2981859000865,515.2981859000865,515.2981859000865,515.2981859000865,515.2981859000865,515.2981859000865,j,0.3240960000548512,515.6485868000891,515.6485868000891,515.6485868000891,515.6485868000891,515.6485868000891,515.6485868000891,515.9484109000769,517.4984993999824,517.4984993999824,517.4984993999824,517.4984993999824,517.4984993999824,517.4984993999824,517.4984993999824,517.4984993999824,517.4984993999824,517.4984993999824,517.4984993999824,517.4984993999824,517.4984993999824,517.4984993999824,519.346089300001,519.346089300001,519.346089300001,519.346089300001,519.346089300001,519.346089300001,519.346089300001,68,35,49,31,31,60,519.346089300001,521.2475501000881,,,,,,,,,,,,,,３１１,f,２２,2023-05-18_09h05.56.648,RL,2022.2.5,60.052990771053224,
37,55,30,72,0,81,81,81,,,,,,,,None,521.2475501000881,521.2475501000881,521.2475501000881,521.2475501000881,521.2475501000881,521.2475501000881,f,0.28540239995345473,521.5685290000401,521.5685290000401,521.5685290000401,521.5685290000401,521.5685290000401,521.5685290000401,521.8476591000799,523.4804924998898,523.4804924998898,523.4804924998898,523.4804924998898,523.4804924998898,523.4804924998898,523.4638704999816,523.4804924998898,523.4804924998898,523.4804924998898,523.4804924998898,523.4804924998898,523.4804924998898,523.4804924998898,525.3953412000556,525.3953412000556,525.3953412000556,525.3953412000556,525.3953412000556,525.3953412000556,525.3953412000556,72,37,55,30,72,60,525.3953412000556,526.9461093000136,,,,,,,,,,,,,,３１１,f,２２,2023-05-18_09h05.56.648,RL,2022.2.5,60.052990771053224,
42,47,35,78,0,82,82,82,,,,,,,,None,526.9461093000136,526.9461093000136,526.9461093000136,526.9461093000136,526.9461093000136,526.9461093000136,f,0.2992797999177128,527.2650460998993,527.2650460998993,527.2650460998993,527.2650460998993,527.2650460998993,527.2650460998993,527.5466952999122,528.6632421000395,528.6632421000395,528.6632421000395,528.6632421000395,528.6632421000395,528.6632421000395,528.6463764000218,528.6632421000395,528.6632421000395,528.6632421000395,528.6632421000395,528.6632421000395,528.6632421000395,528.6632421000395,530.0610088999383,530.0610088999383,530.0610088999383,530.0610088999383,530.0610088999383,530.0610088999383,530.0610088999383,78,42,47,35,78,60,530.0610088999383,531.8285129999276,,,,,,,,,,,,,,３１１,f,２２,2023-05-18_09h05.56.648,RL,2022.2.5,60.052990771053224,
49,40,41,82,0,83,83,83,,,,,,,,None,531.8285129999276,531.8285129999276,531.8285129999276,531.8285129999276,531.8285129999276,531.8285129999276,f,0.2779699999373406,532.1290796000976,532.1290796000976,532.1290796000976,532.1290796000976,532.1290796000976,532.1290796000976,532.4127531000413,533.7120705000125,533.7120705000125,533.7120705000125,533.7120705000125,533.7120705000125,533.7120705000125,533.6952219000086,533.7120705000125,533.7120705000125,533.7120705000125,533.7120705000125,533.7120705000125,533.7120705000125,533.7120705000125,535.2939689001068,535.2939689001068,535.2939689001068,535.2939689001068,535.2939689001068,535.2939689001068,535.2939689001068,82,49,40,41,82,60,535.2939689001068,537.1945094000548,,,,,,,,,,,,,,３１１,f,２２,2023-05-18_09h05.56.648,RL,2022.2.5,60.052990771053224,
45,41,36,83,0,84,84,84,,,,,,,,None,537.1945094000548,537.1945094000548,537.1945094000548,537.1945094000548,537.1945094000548,537.1945094000548,f,0.3153444000054151,537.5331717000809,537.5331717000809,537.5331717000809,537.5331717000809,537.5331717000809,537.5331717000809,537.8280807998963,539.7943283999339,539.7943283999339,539.7943283999339,539.7943283999339,539.7943283999339,539.7943283999339,539.7943283999339,539.7943283999339,539.7943283999339,539.7943283999339,539.7943283999339,539.7943283999339,539.7943283999339,539.7943283999339,542.0590981000569,542.0590981000569,542.0590981000569,542.0590981000569,542.0590981000569,542.0590981000569,542.0590981000569,83,45,41,36,83,60,542.0590981000569,543.7432307000272,,,,,,,,,,,,,,３１１,f,２２,2023-05-18_09h05.56.648,RL,2022.2.5,60.052990771053224,
42,50,43,71,0,85,85,85,,,,,,,,None,543.7432307000272,543.7432307000272,543.7432307000272,543.7432307000272,543.7432307000272,543.7432307000272,f,0.29645109991542995,544.0613738000393,544.0613738000393,544.0613738000393,544.0613738000393,544.0613738000393,544.0613738000393,544.3601557000075,546.0601649000309,546.0601649000309,546.0601649000309,546.0601649000309,546.0601649000309,546.0601649000309,546.0601649000309,546.0601649000309,546.0601649000309,546.0601649000309,546.0601649000309,546.0601649000309,546.0601649000309,546.0601649000309,548.0576681001112,548.0576681001112,548.0576681001112,548.0576681001112,548.0576681001112,548.0576681001112,548.0576681001112,71,42,50,43,71,60,548.0576681001112,549.8423697000835,,,,,,,,,,,,,,３１１,f,２２,2023-05-18_09h05.56.648,RL,2022.2.5,60.052990771053224,
46,47,53,84,0,86,86,86,,,,,,,,None,549.8423697000835,549.8423697000835,549.8423697000835,549.8423697000835,549.8423697000835,549.8423697000835,f,0.27171549992635846,550.1435847000685,550.1435847000685,550.1435847000685,550.1435847000685,550.1435847000685,550.1435847000685,550.4258039998822,551.3424166000914,551.3424166000914,551.3424166000914,551.3424166000914,551.3424166000914,551.3424166000914,551.3259236998856,551.3424166000914,551.3424166000914,551.3424166000914,551.3424166000914,551.3424166000914,551.3424166000914,551.3424166000914,552.5408753000665,552.5408753000665,552.5408753000665,552.5408753000665,552.5408753000665,552.5408753000665,552.5408753000665,84,46,47,53,84,60,552.5408753000665,554.0912989999633,,,,,,,,,,,,,,３１１,f,２２,2023-05-18_09h05.56.648,RL,2022.2.5,60.052990771053224,
55,52,37,77,0,87,87,87,,,,,,,,None,554.0912989999633,554.0912989999633,554.0912989999633,554.0912989999633,554.0912989999633,554.0912989999633,f,0.3396540000103414,554.4585190999787,554.4585190999787,554.4585190999787,554.4585190999787,554.4585190999787,554.4585190999787,554.7584494000766,556.4746799999848,556.4746799999848,556.4746799999848,556.4746799999848,556.4746799999848,556.4746799999848,556.4746799999848,556.4746799999848,556.4746799999848,556.4746799999848,556.4746799999848,556.4746799999848,556.4746799999848,556.4746799999848,558.4899540001061,558.4899540001061,558.4899540001061,558.4899540001061,558.4899540001061,558.4899540001061,558.4899540001061,77,55,52,37,77,60,558.4899540001061,560.4906639000401,,,,,,,,,,,,,,３１１,f,２２,2023-05-18_09h05.56.648,RL,2022.2.5,60.052990771053224,
47,57,35,86,0,88,88,88,,,,,,,,None,560.4906639000401,560.4906639000401,560.4906639000401,560.4906639000401,560.4906639000401,560.4906639000401,f,0.27568110008724034,560.7908075999003,560.7908075999003,560.7908075999003,560.7908075999003,560.7908075999003,560.7908075999003,561.0738355999347,562.7237911999691,562.7237911999691,562.7237911999691,562.7237911999691,562.7237911999691,562.7237911999691,562.7074255999178,562.7237911999691,562.7237911999691,562.7237911999691,562.7237911999691,562.7237911999691,562.7237911999691,562.7237911999691,564.6551037000027,564.6551037000027,564.6551037000027,564.6551037000027,564.6551037000027,564.6551037000027,564.6551037000027,86,47,57,35,86,60,564.6551037000027,566.3391714000609,,,,,,,,,,,,,,３１１,f,２２,2023-05-18_09h05.56.648,RL,2022.2.5,60.052990771053224,
48,52,28,83,0,89,89,89,,,,,,,,None,566.3391714000609,566.3391714000609,566.3391714000609,566.3391714000609,566.3391714000609,566.3391714000609,f,0.29270739993080497,566.6577264999505,566.6577264999505,566.6577264999505,566.6577264999505,566.6577264999505,566.6577264999505,566.9399192999117,568.0392805999145,568.0392805999145,568.0392805999145,568.0392805999145,568.0392805999145,568.0392805999145,568.0062382998876,568.0392805999145,568.0392805999145,568.0392805999145,568.0392805999145,568.0392805999145,568.0392805999145,568.0392805999145,569.4040665999055,569.4040665999055,569.4040665999055,569.4040665999055,569.4040665999055,569.4040665999055,569.4040665999055,83,48,52,28,83,60,569.4040665999055,571.2387296999805,,,,,,,,,,,,,,３１１,f,２２,2023-05-18_09h05.56.648,RL,2022.2.5,60.052990771053224,
51,45,31,79,0,90,90,90,,,,,,,,None,571.2387296999805,571.2387296999805,571.2387296999805,571.2387296999805,571.2387296999805,571.2387296999805,f,0.4179642000235617,571.6926861999091,571.6926861999091,571.6926861999091,571.6926861999091,571.6926861999091,571.6926861999091,571.9721073999535,573.2884567000438,573.2884567000438,573.2884567000438,573.2884567000438,573.2884567000438,573.2884567000438,573.2719376999885,573.2884567000438,573.2884567000438,573.2884567000438,573.2884567000438,573.2884567000438,573.2884567000438,573.2884567000438,574.8864712999202,574.8864712999202,574.8864712999202,574.8864712999202,574.8864712999202,574.8864712999202,574.8864712999202,79,51,45,31,79,60,574.8864712999202,576.8377078999765,,,,,,,,,,,,,,３１１,f,２２,2023-05-18_09h05.56.648,RL,2022.2.5,60.052990771053224,
51,41,37,77,0,91,91,91,,,,,,,,None,576.8377078999765,576.8377078999765,576.8377078999765,576.8377078999765,576.8377078999765,576.8377078999765,i,0.2865195001941174,577.1550231999718,577.1550231999718,577.1550231999718,577.1550231999718,577.1550231999718,577.1550231999718,577.4545636998955,578.737688299967,578.737688299967,578.737688299967,578.737688299967,578.737688299967,578.737688299967,578.737688299967,578.737688299967,578.737688299967,578.737688299967,578.737688299967,578.737688299967,578.737688299967,578.737688299967,580.3189964001067,580.3189964001067,580.3189964001067,580.3189964001067,580.3189964001067,580.3189964001067,580.3189964001067,77,51,41,37,41,60,580.3189964001067,581.9532304999884,,,,,,,,,,,,,,３１１,f,２２,2023-05-18_09h05.56.648,RL,2022.2.5,60.052990771053224,
44,45,39,87,0,92,92,92,,,,,,,,None,581.9532304999884,581.9532304999884,581.9532304999884,581.9532304999884,581.9532304999884,581.9532304999884,f,0.38474879995919764,582.3734631999396,582.3734631999396,582.3734631999396,582.3734631999396,582.3734631999396,582.3734631999396,582.653945799917,584.003535799915,584.003535799915,584.003535799915,584.003535799915,584.003535799915,584.003535799915,583.9866667001043,584.003535799915,584.003535799915,584.003535799915,584.003535799915,584.003535799915,584.003535799915,584.003535799915,585.6346477000043,585.6346477000043,585.6346477000043,585.6346477000043,585.6346477000043,585.6346477000043,585.6346477000043,87,44,45,39,87,60,585.6346477000043,587.635604799958,,,,,,,,,,,,,,３１１,f,２２,2023-05-18_09h05.56.648,RL,2022.2.5,60.052990771053224,
47,49,31,84,0,93,93,93,,,,,,,,None,587.635604799958,587.635604799958,587.635604799958,587.635604799958,587.635604799958,587.635604799958,f,0.2969978000037372,587.952826899942,587.952826899942,587.952826899942,587.952826899942,587.952826899942,587.952826899942,588.2359984000213,589.7689455000218,589.7689455000218,589.7689455000218,589.7689455000218,589.7689455000218,589.7689455000218,589.7528834000695,589.7689455000218,589.7689455000218,589.7689455000218,589.7689455000218,589.7689455000218,589.7689455000218,589.7689455000218,591.5839740999509,591.5839740999509,591.5839740999509,591.5839740999509,591.5839740999509,591.5839740999509,591.5839740999509,84,47,49,31,84,60,591.5839740999509,593.2515722999815,,,,,,,,,,,,,,３１１,f,２２,2023-05-18_09h05.56.648,RL,2022.2.5,60.052990771053224,
57,55,33,71,0,94,94,94,,,,,,,,None,593.2515722999815,593.2515722999815,593.2515722999815,593.2515722999815,593.2515722999815,593.2515722999815,f,0.3738075001165271,593.6545442000497,593.6545442000497,593.6545442000497,593.6545442000497,593.6545442000497,593.6545442000497,593.9350310000591,595.3347088000737,595.3347088000737,595.3347088000737,595.3347088000737,595.3347088000737,595.3347088000737,595.3183500000741,595.3347088000737,595.3347088000737,595.3347088000737,595.3347088000737,595.3347088000737,595.3347088000737,595.3347088000737,597.0161707000807,597.0161707000807,597.0161707000807,597.0161707000807,597.0161707000807,597.0161707000807,597.0161707000807,71,57,55,33,71,60,597.0161707000807,598.5171376999933,,,,,,,,,,,,,,３１１,f,２２,2023-05-18_09h05.56.648,RL,2022.2.5,60.052990771053224,
46,43,29,76,0,95,95,95,,,,,,,,None,598.5171376999933,598.5171376999933,598.5171376999933,598.5171376999933,598.5171376999933,598.5171376999933,f,0.26979939988814294,598.8175520000514,598.8175520000514,598.8175520000514,598.8175520000514,598.8175520000514,598.8175520000514,599.1172219000291,600.1338988998905,600.1338988998905,600.1338988998905,600.1338988998905,600.1338988998905,600.1338988998905,600.1338988998905,600.1338988998905,600.1338988998905,600.1338988998905,600.1338988998905,600.1338988998905,600.1338988998905,600.1338988998905,601.4487830998842,601.4487830998842,601.4487830998842,601.4487830998842,601.4487830998842,601.4487830998842,601.4487830998842,76,46,43,29,76,60,601.4487830998842,603.0997363000643,,,,,,,,,,,,,,３１１,f,２２,2023-05-18_09h05.56.648,RL,2022.2.5,60.052990771053224,
38,46,25,74,0,96,96,96,,,,,,,,None,603.0997363000643,603.0997363000643,603.0997363000643,603.0997363000643,603.0997363000643,603.0997363000643,f,0.04239399987272918,603.1681876000948,603.1681876000948,603.1681876000948,603.1681876000948,603.1681876000948,603.1681876000948,603.466493499931,605.2493040000554,605.2493040000554,605.2493040000554,605.2493040000554,605.2493040000554,605.2493040000554,605.2493040000554,605.2493040000554,605.2493040000554,605.2493040000554,605.2493040000554,605.2493040000554,605.2493040000554,605.2493040000554,607.3305158000439,607.3305158000439,607.3305158000439,607.3305158000439,607.3305158000439,607.3305158000439,607.3305158000439,74,38,46,25,74,60,607.3305158000439,609.1485190999229,,,,,,,,,,,,,,３１１,f,２２,2023-05-18_09h05.56.648,RL,2022.2.5,60.052990771053224,
46,46,34,82,0,97,97,97,,,,,,,,None,609.1485190999229,609.1485190999229,609.1485190999229,609.1485190999229,609.1485190999229,609.1485190999229,f,0.35177990002557635,609.5377020000014,609.5377020000014,609.5377020000014,609.5377020000014,609.5377020000014,609.5377020000014,609.8323792000301,611.7485098000616,611.7485098000616,611.7485098000616,611.7485098000616,611.7485098000616,611.7485098000616,611.7485098000616,611.7485098000616,611.7485098000616,611.7485098000616,611.7485098000616,611.7485098000616,611.7485098000616,611.7485098000616,613.9629122000188,613.9629122000188,613.9629122000188,613.9629122000188,613.9629122000188,613.9629122000188,613.9629122000188,82,46,46,34,82,60,613.9629122000188,615.9642185999546,,,,,,,,,,,,,,３１１,f,２２,2023-05-18_09h05.56.648,RL,2022.2.5,60.052990771053224,
49,61,29,68,0,98,98,98,,,,,,,,None,615.9642185999546,615.9642185999546,615.9642185999546,615.9642185999546,615.9642185999546,615.9642185999546,f,0.2903827999252826,616.2812014000956,616.2812014000956,616.2812014000956,616.2812014000956,616.2812014000956,616.2812014000956,616.5644737998955,617.4806651000399,617.4806651000399,617.4806651000399,617.4806651000399,617.4806651000399,617.4806651000399,617.4639669999015,617.4806651000399,617.4806651000399,617.4806651000399,617.4806651000399,617.4806651000399,617.4806651000399,617.4806651000399,618.6791757999454,618.6791757999454,618.6791757999454,618.6791757999454,618.6791757999454,618.6791757999454,618.6791757999454,68,49,61,29,68,60,618.6791757999454,620.5964039999526,,,,,,,,,,,,,,３１１,f,２２,2023-05-18_09h05.56.648,RL,2022.2.5,60.052990771053224,
47,48,30,69,0,99,99,99,,,,,,,,None,620.5964039999526,620.5964039999526,620.5964039999526,620.5964039999526,620.5964039999526,620.5964039999526,f,0.29381519998423755,620.9136838999111,620.9136838999111,620.9136838999111,620.9136838999111,620.9136838999111,620.9136838999111,621.196953299921,622.3305907000322,622.3305907000322,622.3305907000322,622.3305907000322,622.3305907000322,622.3305907000322,622.3132199000102,622.3305907000322,622.3305907000322,622.3305907000322,622.3305907000322,622.3305907000322,622.3305907000322,622.3305907000322,623.745184399886,623.745184399886,623.745184399886,623.745184399886,623.745184399886,623.745184399886,623.745184399886,69,47,48,30,69,60,623.745184399886,625.7122200001031,,,,,,,,,,,,,,３１１,f,２２,2023-05-18_09h05.56.648,RL,2022.2.5,60.052990771053224,
49,48,33,62,0,100,100,100,,,,,,,,None,625.7122200001031,625.7122200001031,625.7122200001031,625.7122200001031,625.7122200001031,625.7122200001031,r,0.3399715998675674,626.0796072999947,626.0796072999947,626.0796072999947,626.0796072999947,626.0796072999947,626.0796072999947,626.3626399999484,627.8623480999377,627.8623480999377,627.8623480999377,627.8623480999377,627.8623480999377,627.8623480999377,627.845489700092,627.8623480999377,627.8623480999377,627.8623480999377,627.8623480999377,627.8623480999377,627.8623480999377,627.8623480999377,629.6435684999451,629.6435684999451,629.6435684999451,629.6435684999451,629.6435684999451,629.6435684999451,629.6435684999451,62,49,48,33,49,60,629.6435684999451,631.5283677999396,,,,,,,,,,,,,,３１１,f,２２,2023-05-18_09h05.56.648,RL,2022.2.5,60.052990771053224,
46,51,24,63,0,101,101,101,,,,,,,,None,631.5283677999396,631.5283677999396,631.5283677999396,631.5283677999396,631.5283677999396,631.5283677999396,f,0.3191056000068784,631.8789206000511,631.8789206000511,631.8789206000511,631.8789206000511,631.8789206000511,631.8789206000511,632.1615645000711,633.861444399925,633.861444399925,633.861444399925,633.861444399925,633.861444399925,633.861444399925,633.8447487000376,633.861444399925,633.861444399925,633.861444399925,633.861444399925,633.861444399925,633.861444399925,633.861444399925,635.8425058000721,635.8425058000721,635.8425058000721,635.8425058000721,635.8425058000721,635.8425058000721,635.8425058000721,63,46,51,24,63,60,635.8425058000721,637.8269028000068,,,,,,,,,,,,,,３１１,f,２２,2023-05-18_09h05.56.648,RL,2022.2.5,60.052990771053224,
55,43,34,66,0,102,102,102,,,,,,,,None,637.8269028000068,637.8269028000068,637.8269028000068,637.8269028000068,637.8269028000068,637.8269028000068,f,0.3835003999993205,638.2441789999139,638.2441789999139,638.2441789999139,638.2441789999139,638.2441789999139,638.2441789999139,638.5273186999839,640.3439418000635,640.3439418000635,640.3439418000635,640.3439418000635,640.3439418000635,640.3439418000635,640.3273523000535,640.3439418000635,640.3439418000635,640.3439418000635,640.3439418000635,640.3439418000635,640.3439418000635,640.3439418000635,642.4419253999367,642.4419253999367,642.4419253999367,642.4419253999367,642.4419253999367,642.4419253999367,642.4419253999367,66,55,43,34,66,60,642.4419253999367,644.0425547000486,,,,,,,,,,,,,,３１１,f,２２,2023-05-18_09h05.56.648,RL,2022.2.5,60.052990771053224,
52,41,26,55,0,103,103,103,,,,,,,,None,644.0425547000486,644.0425547000486,644.0425547000486,644.0425547000486,644.0425547000486,644.0425547000486,j,0.7366240001283586,644.8097836000379,644.8097836000379,644.8097836000379,644.8097836000379,644.8097836000379,644.8097836000379,645.092757599894,646.3258249000646,646.3258249000646,646.3258249000646,646.3258249000646,646.3258249000646,646.3258249000646,646.3095408000518,646.3258249000646,646.3258249000646,646.3258249000646,646.3258249000646,646.3258249000646,646.3258249000646,646.3258249000646,647.8406829000451,647.8406829000451,647.8406829000451,647.8406829000451,647.8406829000451,647.8406829000451,647.8406829000451,55,52,41,26,26,60,647.8406829000451,649.6247189999558,,,,,,,,,,,,,,３１１,f,２２,2023-05-18_09h05.56.648,RL,2022.2.5,60.052990771053224,
42,48,27,63,0,104,104,104,,,,,,,,None,649.6247189999558,649.6247189999558,649.6247189999558,649.6247189999558,649.6247189999558,649.6247189999558,f,0.26072130003012717,649.9091095998883,649.9091095998883,649.9091095998883,649.9091095998883,649.9091095998883,649.9091095998883,650.2086821999401,651.4583010000642,651.4583010000642,651.4583010000642,651.4583010000642,651.4583010000642,651.4583010000642,651.4583010000642,651.4583010000642,651.4583010000642,651.4583010000642,651.4583010000642,651.4583010000642,651.4583010000642,651.4583010000642,653.0063857000787,653.0063857000787,653.0063857000787,653.0063857000787,653.0063857000787,653.0063857000787,653.0063857000787,63,42,48,27,63,60,653.0063857000787,654.7074064998887,,,,,,,,,,,,,,３１１,f,２２,2023-05-18_09h05.56.648,RL,2022.2.5,60.052990771053224,
50,56,32,63,0,105,105,105,,,,,,,,None,654.7074064998887,654.7074064998887,654.7074064998887,654.7074064998887,654.7074064998887,654.7074064998887,i,0.2928999001160264,655.0257908001076,655.0257908001076,655.0257908001076,655.0257908001076,655.0257908001076,655.0257908001076,655.3075129000936,656.940750000067,656.940750000067,656.940750000067,656.940750000067,656.940750000067,656.940750000067,656.9242817000486,656.940750000067,656.940750000067,656.940750000067,656.940750000067,656.940750000067,656.940750000067,656.940750000067,658.8551145999227,658.8551145999227,658.8551145999227,658.8551145999227,658.8551145999227,658.8551145999227,658.8551145999227,63,50,56,32,56,60,658.8551145999227,660.5228873998858,,,,,,,,,,,,,,３１１,f,２２,2023-05-18_09h05.56.648,RL,2022.2.5,60.052990771053224,
46,57,32,66,0,106,106,106,,,,,,,,None,660.5228873998858,660.5228873998858,660.5228873998858,660.5228873998858,660.5228873998858,660.5228873998858,f,0.3026801999658346,660.8566958999727,660.8566958999727,660.8566958999727,660.8566958999727,660.8566958999727,660.8566958999727,661.1568821999244,662.5230735000223,662.5230735000223,662.5230735000223,662.5230735000223,662.5230735000223,662.5230735000223,662.5230735000223,662.5230735000223,662.5230735000223,662.5230735000223,662.5230735000223,662.5230735000223,662.5230735000223,662.5230735000223,664.1877963999286,664.1877963999286,664.1877963999286,664.1877963999286,664.1877963999286,664.1877963999286,664.1877963999286,66,46,57,32,66,60,664.1877963999286,665.9059160999022,,,,,,,,,,,,,,３１１,f,２２,2023-05-18_09h05.56.648,RL,2022.2.5,60.052990771053224,
48,52,27,56,0,107,107,107,,,,,,,,None,665.9059160999022,665.9059160999022,665.9059160999022,665.9059160999022,665.9059160999022,665.9059160999022,f,0.3064000001177192,666.2393602000084,666.2393602000084,666.2393602000084,666.2393602000084,666.2393602000084,666.2393602000084,666.5227290000767,668.488571899943,668.488571899943,668.488571899943,668.488571899943,668.488571899943,668.488571899943,668.488571899943,668.488571899943,668.488571899943,668.488571899943,668.488571899943,668.488571899943,668.488571899943,668.488571899943,670.7533986999188,670.7533986999188,670.7533986999188,670.7533986999188,670.7533986999188,670.7533986999188,670.7533986999188,56,48,52,27,56,60,670.7533986999188,672.6709183000494,,,,,,,,,,,,,,３１１,f,２２,2023-05-18_09h05.56.648,RL,2022.2.5,60.052990771053224,
40,54,21,62,0,108,108,108,,,,,,,,None,672.6709183000494,672.6709183000494,672.6709183000494,672.6709183000494,672.6709183000494,672.6709183000494,j,0.3773448998108506,673.0715936000925,673.0715936000925,673.0715936000925,673.0715936000925,673.0715936000925,673.0715936000925,673.3545492000412,674.7711318999063,674.7711318999063,674.7711318999063,674.7711318999063,674.7711318999063,674.7711318999063,674.754359500017,674.7711318999063,674.7711318999063,674.7711318999063,674.7711318999063,674.7711318999063,674.7711318999063,674.7711318999063,676.4690876998939,676.4690876998939,676.4690876998939,676.4690876998939,676.4690876998939,676.4690876998939,676.4690876998939,62,40,54,21,21,60,676.4690876998939,677.986680299975,,,,,,,,,,,,,,３１１,f,２２,2023-05-18_09h05.56.648,RL,2022.2.5,60.052990771053224,
41,54,27,64,0,109,109,109,,,,,,,,None,677.986680299975,677.986680299975,677.986680299975,677.986680299975,677.986680299975,677.986680299975,r,0.3815155001357198,678.387525399914,678.387525399914,678.387525399914,678.387525399914,678.387525399914,678.387525399914,678.670703999931,679.7367481000256,679.7367481000256,679.7367481000256,679.7367481000256,679.7367481000256,679.7367481000256,679.7205042999703,679.7367481000256,679.7367481000256,679.7367481000256,679.7367481000256,679.7367481000256,679.7367481000256,679.7367481000256,681.0847392000724,681.0847392000724,681.0847392000724,681.0847392000724,681.0847392000724,681.0847392000724,681.0847392000724,64,41,54,27,41,60,681.0847392000724,682.9192240999546,,,,,,,,,,,,,,３１１,f,２２,2023-05-18_09h05.56.648,RL,2022.2.5,60.052990771053224,
34,56,30,52,0,110,110,110,,,,,,,,None,682.9192240999546,682.9192240999546,682.9192240999546,682.9192240999546,682.9192240999546,682.9192240999546,f,0.28204630012623966,683.2199353000615,683.2199353000615,683.2199353000615,683.2199353000615,683.2199353000615,683.2199353000615,683.503013700014,684.9523797000293,684.9523797000293,684.9523797000293,684.9523797000293,684.9523797000293,684.9523797000293,684.9360628998838,684.9523797000293,684.9523797000293,684.9523797000293,684.9523797000293,684.9523797000293,684.9523797000293,684.9523797000293,686.6842517000623,686.6842517000623,686.6842517000623,686.6842517000623,686.6842517000623,686.6842517000623,686.6842517000623,52,34,56,30,52,60,686.6842517000623,688.551388700027,,,,,,,,,,,,,,３１１,f,２２,2023-05-18_09h05.56.648,RL,2022.2.5,60.052990771053224,
41,55,26,50,0,111,111,111,,,,,,,,None,688.551388700027,688.551388700027,688.551388700027,688.551388700027,688.551388700027,688.551388700027,i,0.27328069997020066,688.8519367000554,688.8519367000554,688.8519367000554,688.8519367000554,688.8519367000554,688.8519367000554,689.1521159999538,690.3018515999429,690.3018515999429,690.3018515999429,690.3018515999429,690.3018515999429,690.3018515999429,690.3018515999429,690.3018515999429,690.3018515999429,690.3018515999429,690.3018515999429,690.3018515999429,690.3018515999429,690.3018515999429,691.7495772000402,691.7495772000402,691.7495772000402,691.7495772000402,691.7495772000402,691.7495772000402,691.7495772000402,50,41,55,26,55,60,691.7495772000402,693.5839337999932,,,,,,,,,,,,,,３１１,f,２２,2023-05-18_09h05.56.648,RL,2022.2.5,60.052990771053224,
41,48,25,53,0,112,112,112,,,,,,,,None,693.5839337999932,693.5839337999932,693.5839337999932,693.5839337999932,693.5839337999932,693.5839337999932,f,0.2919024999719113,693.9030053999741,693.9030053999741,693.9030053999741,693.9030053999741,693.9030053999741,693.9030053999741,694.1844516999554,695.7006252999417,695.7006252999417,695.7006252999417,695.7006252999417,695.7006252999417,695.7006252999417,695.6839666001033,695.7006252999417,695.7006252999417,695.7006252999417,695.7006252999417,695.7006252999417,695.7006252999417,695.7006252999417,697.4987554999534,697.4987554999534,697.4987554999534,697.4987554999534,697.4987554999534,697.4987554999534,697.4987554999534,53,41,48,25,53,60,697.4987554999534,699.3163938999642,,,,,,,,,,,,,,３１１,f,２２,2023-05-18_09h05.56.648,RL,2022.2.5,60.052990771053224,
36,53,21,51,0,113,113,113,,,,,,,,None,699.3163938999642,699.3163938999642,699.3163938999642,699.3163938999642,699.3163938999642,699.3163938999642,r,0.2820555998478085,699.6168692999054,699.6168692999054,699.6168692999054,699.6168692999054,699.6168692999054,699.6168692999054,699.9003522999119,700.8497794000432,700.8497794000432,700.8497794000432,700.8497794000432,700.8497794000432,700.8497794000432,700.8330188998953,700.8497794000432,700.8497794000432,700.8497794000432,700.8497794000432,700.8497794000432,700.8497794000432,700.8497794000432,702.0815075999126,702.0815075999126,702.0815075999126,702.0815075999126,702.0815075999126,702.0815075999126,702.0815075999126,51,36,53,21,36,60,702.0815075999126,703.7487077000551,,,,,,,,,,,,,,３１１,f,２２,2023-05-18_09h05.56.648,RL,2022.2.5,60.052990771053224,
38,48,27,39,0,114,114,114,,,,,,,,None,703.7487077000551,703.7487077000551,703.7487077000551,703.7487077000551,703.7487077000551,703.7487077000551,f,0.27253819978795946,704.0510430000722,704.0510430000722,704.0510430000722,704.0510430000722,704.0510430000722,704.0510430000722,704.3327752000187,705.3159447000362,705.3159447000362,705.3159447000362,705.3159447000362,705.3159447000362,705.3159447000362,705.2994977999479,705.3159447000362,705.3159447000362,705.3159447000362,705.3159447000362,705.3159447000362,705.3159447000362,705.3159447000362,706.5805108000059,706.5805108000059,706.5805108000059,706.5805108000059,706.5805108000059,706.5805108000059,706.5805108000059,39,38,48,27,39,60,706.5805108000059,708.248013000004,,,,,,,,,,,,,,３１１,f,２２,2023-05-18_09h05.56.648,RL,2022.2.5,60.052990771053224,
35,46,20,41,0,115,115,115,,,,,,,,None,708.248013000004,708.248013000004,708.248013000004,708.248013000004,708.248013000004,708.248013000004,i,0.3971300001721829,708.6658155000769,708.6658155000769,708.6658155000769,708.6658155000769,708.6658155000769,708.6658155000769,708.965161900036,710.4150324999355,710.4150324999355,710.4150324999355,710.4150324999355,710.4150324999355,710.4150324999355,710.4150324999355,710.4150324999355,710.4150324999355,710.4150324999355,710.4150324999355,710.4150324999355,710.4150324999355,710.4150324999355,712.1631891999859,712.1631891999859,712.1631891999859,712.1631891999859,712.1631891999859,712.1631891999859,712.1631891999859,41,35,46,20,46,60,712.1631891999859,713.7137748999521,,,,,,,,,,,,,,３１１,f,２２,2023-05-18_09h05.56.648,RL,2022.2.5,60.052990771053224,
30,51,31,50,0,116,116,116,,,,,,,,None,713.7137748999521,713.7137748999521,713.7137748999521,713.7137748999521,713.7137748999521,713.7137748999521,j,0.3309007999487221,714.0647326998878,714.0647326998878,714.0647326998878,714.0647326998878,714.0647326998878,714.0647326998878,714.347482800018,715.7306816999335,715.7306816999335,715.7306816999335,715.7306816999335,715.7306816999335,715.7306816999335,715.6973836999387,715.7306816999335,715.7306816999335,715.7306816999335,715.7306816999335,715.7306816999335,715.7306816999335,715.7306816999335,717.3785268000793,717.3785268000793,717.3785268000793,717.3785268000793,717.3785268000793,717.3785268000793,717.3785268000793,50,30,51,31,31,60,717.3785268000793,719.0130797999445,,,,,,,,,,,,,,３１１,f,２２,2023-05-18_09h05.56.648,RL,2022.2.5,60.052990771053224,
34,60,36,43,0,117,117,117,,,,,,,,None,719.0130797999445,719.0130797999445,719.0130797999445,719.0130797999445,719.0130797999445,719.0130797999445,f,0.29252929985523224,719.3303247001022,719.3303247001022,719.3303247001022,719.3303247001022,719.3303247001022,719.3303247001022,719.6132201999426,720.8959325000178,720.8959325000178,720.8959325000178,720.8959325000178,720.8959325000178,720.8959325000178,720.8791495000478,720.8959325000178,720.8959325000178,720.8959325000178,720.8959325000178,720.8959325000178,720.8959325000178,720.8959325000178,722.461308100028,722.461308100028,722.461308100028,722.461308100028,722.461308100028,722.461308100028,722.461308100028,43,34,60,36,43,60,722.461308100028,724.1455941998865,,,,,,,,,,,,,,３１１,f,２２,2023-05-18_09h05.56.648,RL,2022.2.5,60.052990771053224,
45,52,32,48,0,118,118,118,,,,,,,,None,724.1455941998865,724.1455941998865,724.1455941998865,724.1455941998865,724.1455941998865,724.1455941998865,r,0.32918259990401566,724.4996223000344,724.4996223000344,724.4996223000344,724.4996223000344,724.4996223000344,724.4996223000344,724.7957327000331,726.7618501000106,726.7618501000106,726.7618501000106,726.7618501000106,726.7618501000106,726.7618501000106,726.7455420000479,726.7618501000106,726.7618501000106,726.7618501000106,726.7618501000106,726.7618501000106,726.7618501000106,726.7618501000106,729.0100227999501,729.0100227999501,729.0100227999501,729.0100227999501,729.0100227999501,729.0100227999501,729.0100227999501,48,45,52,32,45,60,729.0100227999501,730.8106921999715,,,,,,,,,,,,,,３１１,f,２２,2023-05-18_09h05.56.648,RL,2022.2.5,60.052990771053224,
35,59,27,50,0,119,119,119,,,,,,,,None,730.8106921999715,730.8106921999715,730.8106921999715,730.8106921999715,730.8106921999715,730.8106921999715,i,0.3135226999875158,731.1456804000773,731.1456804000773,731.1456804000773,731.1456804000773,731.1456804000773,731.1456804000773,731.4443214000203,732.4776057999115,732.4776057999115,732.4776057999115,732.4776057999115,732.4776057999115,732.4776057999115,732.4776057999115,732.4776057999115,732.4776057999115,732.4776057999115,732.4776057999115,732.4776057999115,732.4776057999115,732.4776057999115,733.8088163000066,733.8088163000066,733.8088163000066,733.8088163000066,733.8088163000066,733.8088163000066,733.8088163000066,50,35,59,27,59,60,733.8088163000066,735.7935754000209,,,,,,,,,,,,,,３１１,f,２２,2023-05-18_09h05.56.648,RL,2022.2.5,60.052990771053224,
36,68,28,36,0,120,120,120,,,,,,,,None,735.7935754000209,735.7935754000209,735.7935754000209,735.7935754000209,735.7935754000209,735.7935754000209,i,0.3210247999522835,736.1452291000169,736.1452291000169,736.1452291000169,736.1452291000169,736.1452291000169,736.1452291000169,736.4440572999883,738.0600475000683,738.0600475000683,738.0600475000683,738.0600475000683,738.0600475000683,738.0600475000683,738.0600475000683,738.0600475000683,738.0600475000683,738.0600475000683,738.0600475000683,738.0600475000683,738.0600475000683,738.0600475000683,739.9746491999831,739.9746491999831,739.9746491999831,739.9746491999831,739.9746491999831,739.9746491999831,739.9746491999831,36,36,68,28,68,60,739.9746491999831,741.9092582000885,,,,,,,,,,,,,,３１１,f,２２,2023-05-18_09h05.56.648,RL,2022.2.5,60.052990771053224,
40,60,23,44,0,121,121,121,,,,,,,,None,741.9092582000885,741.9092582000885,741.9092582000885,741.9092582000885,741.9092582000885,741.9092582000885,i,0.6152504000347108,742.5425627001096,742.5425627001096,742.5425627001096,742.5425627001096,742.5425627001096,742.5425627001096,742.8257275999058,744.5093235999811,744.5093235999811,744.5093235999811,744.5093235999811,744.5093235999811,744.5093235999811,744.4925243000034,744.5093235999811,744.5093235999811,744.5093235999811,744.5093235999811,744.5093235999811,744.5093235999811,744.5093235999811,746.4735785999801,746.4735785999801,746.4735785999801,746.4735785999801,746.4735785999801,746.4735785999801,746.4735785999801,44,40,60,23,60,60,746.4735785999801,748.0416311000008,,,,,,,,,,,,,,３１１,f,２２,2023-05-18_09h05.56.648,RL,2022.2.5,60.052990771053224,
