arm1,arm2,arm3,arm4,trials.thisRepN,trials.thisTrialN,trials.thisN,trials.thisIndex,instru_img1.started,instru_resp.started,instru_resp.keys,instru_resp.rt,image_2.started,text_2.started,image_2.stopped,text_2.stopped,fixbefore_2.started,fixbefore_2.stopped,rest_response.keys,red.started,green.started,yellow.started,blue.started,choose_bandit.started,Fixation.started,choose_bandit.keys,choose_bandit.rt,black.started,red_2.started,green_2.started,yellow_2.started,blue_2.started,fixation_2.started,docs.started,docs.stopped,black.stopped,red_2.stopped,green_2.stopped,yellow_2.stopped,blue_2.stopped,fixation_2.stopped,black_com.started,reward_sub.started,reward__sub.started,red_compare.started,green_com.started,yellow_com.started,blue_com.started,black_com.stopped,reward_sub.stopped,reward__sub.stopped,red_compare.stopped,green_com.stopped,yellow_com.stopped,blue_com.stopped,rewardred,rewardyellow,rewardblue,rewardgreen,subchoose,expectation,intertrialfix.started,intertrialfix.stopped,rest_image.started,rest_response.started,rest_response.rt,image_expect_after.started,text_exp_after.started,image_expect_after.stopped,text_exp_after.stopped,bigx.started,bigx.stopped,image.started,key_resp.started,key_resp.keys,key_resp.rt,participant,Gender,Age,date,expName,psychopyVersion,frameRate,
,,,,,,,,15.523501200135797,15.523501200135797,space,6.774236700031906,,,,,,,,,,,,,,,,,,,,,,,,,,,,,,,,,,,,,,,,,,,,,,,,,,,,,,,,,,,,,,,,,３０２,f,２２,2023-05-18_09h44.41.108,RL,2022.2.5,60.10652073347257,
30,31,46,67,0,0,0,0,,,,,22.31674290006049,22.31674290006049,27.316408999962732,27.316408999962732,27.316408999962732,28.317869200138375,None,28.317869200138375,28.317869200138375,28.317869200138375,28.317869200138375,28.317869200138375,28.317869200138375,r,0.44356220006011426,28.7879332001321,28.7879332001321,28.7879332001321,28.7879332001321,28.7879332001321,28.7879332001321,29.070137199945748,30.702835300005972,30.7218532001134,30.7218532001134,30.7218532001134,30.7218532001134,30.7218532001134,30.7218532001134,30.7218532001134,30.7218532001134,30.7218532001134,30.7218532001134,30.7218532001134,30.7218532001134,30.7218532001134,32.69895160011947,32.69895160011947,32.69895160011947,32.69895160011947,32.69895160011947,32.69895160011947,32.69895160011947,46,31,30,67,31,70,32.69895160011947,34.68285650014877,,,,,,,,,,,,,,３０２,f,２２,2023-05-18_09h44.41.108,RL,2022.2.5,60.10652073347257,
28,34,50,68,0,1,1,1,,,,,,,,,,,None,34.68285650014877,34.68285650014877,34.68285650014877,34.68285650014877,34.68285650014877,34.68285650014877,f,0.6208343000616878,35.33323280001059,35.33323280001059,35.33323280001059,35.33323280001059,35.33323280001059,35.33323280001059,35.61712840013206,37.06663700006902,37.082565899938345,37.082565899938345,37.082565899938345,37.082565899938345,37.082565899938345,37.082565899938345,37.082565899938345,37.082565899938345,37.082565899938345,37.082565899938345,37.082565899938345,37.082565899938345,37.082565899938345,38.830750999972224,38.830750999972224,38.830750999972224,38.830750999972224,38.830750999972224,38.830750999972224,38.830750999972224,50,34,28,68,50,70,38.830750999972224,40.831979600014165,,,,,,,,,,,,,,３０２,f,２２,2023-05-18_09h44.41.108,RL,2022.2.5,60.10652073347257,
25,34,44,71,0,2,2,2,,,,,,,,,,,None,40.831979600014165,40.831979600014165,40.831979600014165,40.831979600014165,40.831979600014165,40.831979600014165,i,0.6234538999851793,41.48220490012318,41.48220490012318,41.48220490012318,41.48220490012318,41.48220490012318,41.48220490012318,41.7654800999444,42.88229180010967,42.89825700013898,42.89825700013898,42.89825700013898,42.89825700013898,42.89825700013898,42.89825700013898,42.89825700013898,42.89825700013898,42.89825700013898,42.89825700013898,42.89825700013898,42.89825700013898,42.89825700013898,44.31344410008751,44.31344410008751,44.31344410008751,44.31344410008751,44.31344410008751,44.31344410008751,44.31344410008751,44,34,25,71,25,70,44.31344410008751,45.831008800072595,,,,,,,,,,,,,,３０２,f,２２,2023-05-18_09h44.41.108,RL,2022.2.5,60.10652073347257,
19,32,53,74,0,3,3,3,,,,,,,,,,,None,45.831008800072595,45.831008800072595,45.831008800072595,45.831008800072595,45.831008800072595,45.831008800072595,j,0.6528096999973059,46.52037990000099,46.52037990000099,46.52037990000099,46.52037990000099,46.52037990000099,46.52037990000099,46.8148499999661,48.34743760013953,48.364083900116384,48.364083900116384,48.364083900116384,48.364083900116384,48.364083900116384,48.364083900116384,48.364083900116384,48.364083900116384,48.364083900116384,48.364083900116384,48.364083900116384,48.364083900116384,48.364083900116384,50.19558920012787,50.19558920012787,50.19558920012787,50.19558920012787,50.19558920012787,50.19558920012787,50.19558920012787,53,32,19,74,74,70,50.19558920012787,51.99686770001426,,,,,,,,,,,,,,３０２,f,２２,2023-05-18_09h44.41.108,RL,2022.2.5,60.10652073347257,
29,45,44,64,0,4,4,4,,,,,,,,,,,None,51.99686770001426,51.99686770001426,51.99686770001426,51.99686770001426,51.99686770001426,51.99686770001426,j,0.5314128000754863,52.5471274999436,52.5471274999436,52.5471274999436,52.5471274999436,52.5471274999436,52.5471274999436,52.847051199991256,54.2131499000825,54.2131499000825,54.2131499000825,54.2131499000825,54.2131499000825,54.2131499000825,54.2131499000825,54.2131499000825,54.2131499000825,54.2131499000825,54.2131499000825,54.2131499000825,54.2131499000825,54.2131499000825,55.87824809993617,55.87824809993617,55.87824809993617,55.87824809993617,55.87824809993617,55.87824809993617,55.87824809993617,44,45,29,64,64,70,55.87824809993617,57.62921410007402,,,,,,,,,,,,,,３０２,f,２２,2023-05-18_09h44.41.108,RL,2022.2.5,60.10652073347257,
32,44,46,76,0,5,5,5,,,,,,,,,,,None,57.62921410007402,57.62921410007402,57.62921410007402,57.62921410007402,57.62921410007402,57.62921410007402,j,0.4493680000305176,58.09589390014298,58.09589390014298,58.09589390014298,58.09589390014298,58.09589390014298,58.09589390014298,58.37903920002282,59.195864300010726,59.21223950013518,59.21223950013518,59.21223950013518,59.21223950013518,59.21223950013518,59.21223950013518,59.21223950013518,59.21223950013518,59.21223950013518,59.21223950013518,59.21223950013518,59.21223950013518,59.21223950013518,60.32750130002387,60.32750130002387,60.32750130002387,60.32750130002387,60.32750130002387,60.32750130002387,60.32750130002387,46,44,32,76,76,70,60.32750130002387,62.111772400094196,,,,,,,,,,,,,,３０２,f,２２,2023-05-18_09h44.41.108,RL,2022.2.5,60.10652073347257,
32,50,46,78,0,6,6,6,,,,,,,,,,,None,62.111772400094196,62.111772400094196,62.111772400094196,62.111772400094196,62.111772400094196,62.111772400094196,j,0.5793127999641001,62.712009800132364,62.712009800132364,62.712009800132364,62.712009800132364,62.712009800132364,62.712009800132364,63.011906899977475,64.54466639994644,64.54466639994644,64.54466639994644,64.54466639994644,64.54466639994644,64.54466639994644,64.54466639994644,64.54466639994644,64.54466639994644,64.54466639994644,64.54466639994644,64.54466639994644,64.54466639994644,64.54466639994644,66.37636280013248,66.37636280013248,66.37636280013248,66.37636280013248,66.37636280013248,66.37636280013248,66.37636280013248,46,50,32,78,78,70,66.37636280013248,67.92706140014343,,,,,,,,,,,,,,３０２,f,２２,2023-05-18_09h44.41.108,RL,2022.2.5,60.10652073347257,
31,43,47,70,0,7,7,7,,,,,,,,,,,None,67.92706140014343,67.92706140014343,67.92706140014343,67.92706140014343,67.92706140014343,67.92706140014343,j,0.3974603000096977,68.34541860013269,68.34541860013269,68.34541860013269,68.34541860013269,68.34541860013269,68.34541860013269,68.64410219993442,70.54382040002383,70.54382040002383,70.54382040002383,70.54382040002383,70.54382040002383,70.54382040002383,70.54382040002383,70.54382040002383,70.54382040002383,70.54382040002383,70.54382040002383,70.54382040002383,70.54382040002383,70.54382040002383,72.74158970010467,72.74158970010467,72.74158970010467,72.74158970010467,72.74158970010467,72.74158970010467,72.74158970010467,47,43,31,70,70,70,72.74158970010467,74.2931077000685,,,,,,,,,,,,,,３０２,f,２２,2023-05-18_09h44.41.108,RL,2022.2.5,60.10652073347257,
33,45,53,73,0,8,8,8,,,,,,,,,,,None,74.2931077000685,74.2931077000685,74.2931077000685,74.2931077000685,74.2931077000685,74.2931077000685,j,0.4096570999827236,74.72702670004219,74.72702670004219,74.72702670004219,74.72702670004219,74.72702670004219,74.72702670004219,75.02621109993197,76.2594558999408,76.2594558999408,76.2594558999408,76.2594558999408,76.2594558999408,76.2594558999408,76.2594558999408,76.2594558999408,76.2594558999408,76.2594558999408,76.2594558999408,76.2594558999408,76.2594558999408,76.2594558999408,77.79079310013913,77.79079310013913,77.79079310013913,77.79079310013913,77.79079310013913,77.79079310013913,77.79079310013913,53,45,33,73,73,70,77.79079310013913,79.64201249997132,,,,,,,,,,,,,,３０２,f,２２,2023-05-18_09h44.41.108,RL,2022.2.5,60.10652073347257,
30,46,48,71,0,9,9,9,,,,,,,,,,,None,79.64201249997132,79.64201249997132,79.64201249997132,79.64201249997132,79.64201249997132,79.64201249997132,j,0.44632240012288094,80.10892880009487,80.10892880009487,80.10892880009487,80.10892880009487,80.10892880009487,80.10892880009487,80.39258550014347,81.39213369996287,81.40817850013264,81.40817850013264,81.40817850013264,81.40817850013264,81.40817850013264,81.40817850013264,81.40817850013264,81.40817850013264,81.40817850013264,81.40817850013264,81.40817850013264,81.40817850013264,81.40817850013264,82.69008000008762,82.69008000008762,82.69008000008762,82.69008000008762,82.69008000008762,82.69008000008762,82.69008000008762,48,46,30,71,71,70,82.69008000008762,84.60814100014977,,,,,,,,,,,,,,３０２,f,２２,2023-05-18_09h44.41.108,RL,2022.2.5,60.10652073347257,
38,47,47,75,0,10,10,10,,,,,,,,,,,None,84.60814100014977,84.60814100014977,84.60814100014977,84.60814100014977,84.60814100014977,84.60814100014977,j,0.43128270003944635,85.05842499993742,85.05842499993742,85.05842499993742,85.05842499993742,85.05842499993742,85.05842499993742,85.35816730000079,86.30782570014708,86.30782570014708,86.30782570014708,86.30782570014708,86.30782570014708,86.30782570014708,86.30782570014708,86.30782570014708,86.30782570014708,86.30782570014708,86.30782570014708,86.30782570014708,86.30782570014708,86.30782570014708,87.55549439997412,87.55549439997412,87.55549439997412,87.55549439997412,87.55549439997412,87.55549439997412,87.55549439997412,47,47,38,75,75,70,87.55549439997412,89.40699460008182,,,,,,,,,,,,,,３０２,f,２２,2023-05-18_09h44.41.108,RL,2022.2.5,60.10652073347257,
38,46,48,67,0,11,11,11,,,,,,,,,,,None,89.40699460008182,89.40699460008182,89.40699460008182,89.40699460008182,89.40699460008182,89.40699460008182,j,0.3974015999119729,89.8240652999375,89.8240652999375,89.8240652999375,89.8240652999375,89.8240652999375,89.8240652999375,90.10738070006482,91.12377619999461,91.14046779996715,91.14046779996715,91.14046779996715,91.14046779996715,91.14046779996715,91.14046779996715,91.14046779996715,91.14046779996715,91.14046779996715,91.14046779996715,91.14046779996715,91.14046779996715,91.14046779996715,92.43820740003139,92.43820740003139,92.43820740003139,92.43820740003139,92.43820740003139,92.43820740003139,92.43820740003139,48,46,38,67,67,70,92.43820740003139,94.10603370005265,,,,,,,,,,,,,,３０２,f,２２,2023-05-18_09h44.41.108,RL,2022.2.5,60.10652073347257,
38,42,63,72,0,12,12,12,,,,,,,,,,,None,94.10603370005265,94.10603370005265,94.10603370005265,94.10603370005265,94.10603370005265,94.10603370005265,f,0.38567410013638437,94.52836360014044,94.52836360014044,94.52836360014044,94.52836360014044,94.52836360014044,94.52836360014044,94.82280270010233,96.6891838000156,96.6891838000156,96.6891838000156,96.6891838000156,96.6891838000156,96.6891838000156,96.6891838000156,96.6891838000156,96.6891838000156,96.6891838000156,96.6891838000156,96.6891838000156,96.6891838000156,96.6891838000156,98.85375700006261,98.85375700006261,98.85375700006261,98.85375700006261,98.85375700006261,98.85375700006261,98.85375700006261,63,42,38,72,63,70,98.85375700006261,100.47195359994657,,,,,,,,,,,,,,３０２,f,２２,2023-05-18_09h44.41.108,RL,2022.2.5,60.10652073347257,
33,42,48,75,0,13,13,13,,,,,,,,,,,None,100.47195359994657,100.47195359994657,100.47195359994657,100.47195359994657,100.47195359994657,100.47195359994657,i,0.9511490999720991,101.46462430013344,101.46462430013344,101.46462430013344,101.46462430013344,101.46462430013344,101.46462430013344,101.73866529995576,103.42157250014134,103.45450079999864,103.45450079999864,103.45450079999864,103.45450079999864,103.45450079999864,103.45450079999864,103.45450079999864,103.45450079999864,103.45450079999864,103.45450079999864,103.45450079999864,103.45450079999864,103.45450079999864,105.43618750013411,105.43618750013411,105.43618750013411,105.43618750013411,105.43618750013411,105.43618750013411,105.43618750013411,48,42,33,75,33,70,105.43618750013411,107.17045830003917,,,,,,,,,,,,,,３０２,f,２２,2023-05-18_09h44.41.108,RL,2022.2.5,60.10652073347257,
32,47,55,76,0,14,14,14,,,,,,,,,,,None,107.17045830003917,107.17045830003917,107.17045830003917,107.17045830003917,107.17045830003917,107.17045830003917,f,0.3535511998925358,107.55406529991888,107.55406529991888,107.55406529991888,107.55406529991888,107.55406529991888,107.55406529991888,107.85405110009015,109.13683590013534,109.13683590013534,109.13683590013534,109.13683590013534,109.13683590013534,109.13683590013534,109.13683590013534,109.13683590013534,109.13683590013534,109.13683590013534,109.13683590013534,109.13683590013534,109.13683590013534,109.13683590013534,110.71833609999157,110.71833609999157,110.71833609999157,110.71833609999157,110.71833609999157,110.71833609999157,110.71833609999157,55,47,32,76,55,70,110.71833609999157,112.41988159995526,,,,,,,,,,,,,,３０２,f,２２,2023-05-18_09h44.41.108,RL,2022.2.5,60.10652073347257,
38,50,44,71,0,15,15,15,,,,,,,,,,,None,112.41988159995526,112.41988159995526,112.41988159995526,112.41988159995526,112.41988159995526,112.41988159995526,r,0.364512600004673,112.80448570009321,112.80448570009321,112.80448570009321,112.80448570009321,112.80448570009321,112.80448570009321,113.08627939992584,114.7028320999816,114.71930660004728,114.71930660004728,114.71930660004728,114.71930660004728,114.71930660004728,114.71930660004728,114.71930660004728,114.71930660004728,114.71930660004728,114.71930660004728,114.71930660004728,114.71930660004728,114.71930660004728,116.6344024001155,116.6344024001155,116.6344024001155,116.6344024001155,116.6344024001155,116.6344024001155,116.6344024001155,44,50,38,71,50,70,116.6344024001155,118.36827640002593,,,,,,,,,,,,,,３０２,f,２２,2023-05-18_09h44.41.108,RL,2022.2.5,60.10652073347257,
39,59,48,78,0,16,16,16,,,,,,,,,,,None,118.36827640002593,118.36827640002593,118.36827640002593,118.36827640002593,118.36827640002593,118.36827640002593,j,0.4338622000068426,118.84028060012497,118.84028060012497,118.84028060012497,118.84028060012497,118.84028060012497,118.84028060012497,119.11898929998279,120.16845609992743,120.18526099994779,120.18526099994779,120.18526099994779,120.18526099994779,120.18526099994779,120.18526099994779,120.18526099994779,120.18526099994779,120.18526099994779,120.18526099994779,120.18526099994779,120.18526099994779,120.18526099994779,121.53327940008603,121.53327940008603,121.53327940008603,121.53327940008603,121.53327940008603,121.53327940008603,121.53327940008603,48,59,39,78,78,70,121.53327940008603,123.50083809997886,,,,,,,,,,,,,,３０２,f,２２,2023-05-18_09h44.41.108,RL,2022.2.5,60.10652073347257,
36,62,47,77,0,17,17,17,,,,,,,,,,,None,123.50083809997886,123.50083809997886,123.50083809997886,123.50083809997886,123.50083809997886,123.50083809997886,j,0.37659800006076694,123.90341050014831,123.90341050014831,123.90341050014831,123.90341050014831,123.90341050014831,123.90341050014831,124.20113710011356,125.16787629993632,125.18430780014023,125.18430780014023,125.18430780014023,125.18430780014023,125.18430780014023,125.18430780014023,125.18430780014023,125.18430780014023,125.18430780014023,125.18430780014023,125.18430780014023,125.18430780014023,125.18430780014023,126.4490607001353,126.4490607001353,126.4490607001353,126.4490607001353,126.4490607001353,126.4490607001353,126.4490607001353,47,62,36,77,77,70,126.4490607001353,128.43367539998144,,,,,,,,,,,,,,３０２,f,２２,2023-05-18_09h44.41.108,RL,2022.2.5,60.10652073347257,
37,55,49,72,0,18,18,18,,,,,,,,,,,None,128.43367539998144,128.43367539998144,128.43367539998144,128.43367539998144,128.43367539998144,128.43367539998144,j,0.4392297000158578,128.9012593999505,128.9012593999505,128.9012593999505,128.9012593999505,128.9012593999505,128.9012593999505,129.20012319996022,130.03337540011853,130.03337540011853,130.03337540011853,130.03337540011853,130.03337540011853,130.03337540011853,130.03337540011853,130.03337540011853,130.03337540011853,130.03337540011853,130.03337540011853,130.03337540011853,130.03337540011853,130.03337540011853,131.16515190014616,131.16515190014616,131.16515190014616,131.16515190014616,131.16515190014616,131.16515190014616,131.16515190014616,49,55,37,72,72,70,131.16515190014616,132.8492191999685,,,,,,,,,,,,,,３０２,f,２２,2023-05-18_09h44.41.108,RL,2022.2.5,60.10652073347257,
41,51,47,61,0,19,19,19,,,,,,,,,,,None,132.8492191999685,132.8492191999685,132.8492191999685,132.8492191999685,132.8492191999685,132.8492191999685,j,0.43460689997300506,133.3205591000151,133.3205591000151,133.3205591000151,133.3205591000151,133.3205591000151,133.3205591000151,133.59977969992906,134.6826494000852,134.69908990012482,134.69908990012482,134.69908990012482,134.69908990012482,134.69908990012482,134.69908990012482,134.69908990012482,134.69908990012482,134.69908990012482,134.69908990012482,134.69908990012482,134.69908990012482,134.69908990012482,136.08106019999832,136.08106019999832,136.08106019999832,136.08106019999832,136.08106019999832,136.08106019999832,136.08106019999832,47,51,41,61,61,70,136.08106019999832,137.8979937999975,,,,,,,,,,,,,,３０２,f,２２,2023-05-18_09h44.41.108,RL,2022.2.5,60.10652073347257,
42,54,51,67,0,20,20,20,,,,,,,,,,,None,137.8979937999975,137.8979937999975,137.8979937999975,137.8979937999975,137.8979937999975,137.8979937999975,j,0.33534549991600215,138.26938880002126,138.26938880002126,138.26938880002126,138.26938880002126,138.26938880002126,138.26938880002126,138.54875429999083,140.03177929995582,140.04873039992526,140.04873039992526,140.04873039992526,140.04873039992526,140.04873039992526,140.04873039992526,140.04873039992526,140.04873039992526,140.04873039992526,140.04873039992526,140.04873039992526,140.04873039992526,140.04873039992526,141.82977670012042,141.82977670012042,141.82977670012042,141.82977670012042,141.82977670012042,141.82977670012042,141.82977670012042,51,54,42,67,67,70,141.82977670012042,143.66437370004132,,,,,,,,,,,,,,３０２,f,２２,2023-05-18_09h44.41.108,RL,2022.2.5,60.10652073347257,
39,61,42,72,0,21,21,21,,,,,,,,,,,None,143.66437370004132,143.66437370004132,143.66437370004132,143.66437370004132,143.66437370004132,143.66437370004132,j,0.33212330006062984,144.014747899957,144.014747899957,144.014747899957,144.014747899957,144.014747899957,144.014747899957,144.29754950013012,145.28089409996755,145.29748630011454,145.29748630011454,145.29748630011454,145.29748630011454,145.29748630011454,145.29748630011454,145.29748630011454,145.29748630011454,145.29748630011454,145.29748630011454,145.29748630011454,145.29748630011454,145.29748630011454,146.57947440003045,146.57947440003045,146.57947440003045,146.57947440003045,146.57947440003045,146.57947440003045,146.57947440003045,42,61,39,72,72,70,146.57947440003045,148.27970429998823,,,,,,,,,,,,,,３０２,f,２２,2023-05-18_09h44.41.108,RL,2022.2.5,60.10652073347257,
34,56,43,69,0,22,22,22,,,,,,,,,,,None,148.27970429998823,148.27970429998823,148.27970429998823,148.27970429998823,148.27970429998823,148.27970429998823,j,0.3606537999585271,148.66360970004462,148.66360970004462,148.66360970004462,148.66360970004462,148.66360970004462,148.66360970004462,148.94703659997322,150.76329970010556,150.7795035999734,150.7795035999734,150.7795035999734,150.7795035999734,150.7795035999734,150.7795035999734,150.7795035999734,150.7795035999734,150.7795035999734,150.7795035999734,150.7795035999734,150.7795035999734,150.7795035999734,152.89414470014162,152.89414470014162,152.89414470014162,152.89414470014162,152.89414470014162,152.89414470014162,152.89414470014162,43,56,34,69,69,70,152.89414470014162,154.56220400007442,,,,,,,,,,,,,,３０２,f,２２,2023-05-18_09h44.41.108,RL,2022.2.5,60.10652073347257,
44,64,49,53,0,23,23,23,,,,,,,,,,,None,154.56220400007442,154.56220400007442,154.56220400007442,154.56220400007442,154.56220400007442,154.56220400007442,j,0.42111409991048276,155.01256719999947,155.01256719999947,155.01256719999947,155.01256719999947,155.01256719999947,155.01256719999947,155.29621950001456,156.66212660004385,156.67880490003154,156.67880490003154,156.67880490003154,156.67880490003154,156.67880490003154,156.67880490003154,156.67880490003154,156.67880490003154,156.67880490003154,156.67880490003154,156.67880490003154,156.67880490003154,156.67880490003154,158.3437745999545,158.3437745999545,158.3437745999545,158.3437745999545,158.3437745999545,158.3437745999545,158.3437745999545,49,64,44,53,53,70,158.3437745999545,160.0279052001424,,,,,,,,,,,,,,３０２,f,２２,2023-05-18_09h44.41.108,RL,2022.2.5,60.10652073347257,
46,52,44,55,0,24,24,24,,,,,,,,,,,None,160.0279052001424,160.0279052001424,160.0279052001424,160.0279052001424,160.0279052001424,160.0279052001424,j,0.29648340004496276,160.34810730000027,160.34810730000027,160.34810730000027,160.34810730000027,160.34810730000027,160.34810730000027,160.628172500059,162.26121590007097,162.29471460008062,162.29471460008062,162.29471460008062,162.29471460008062,162.29471460008062,162.29471460008062,162.29471460008062,162.29471460008062,162.29471460008062,162.29471460008062,162.29471460008062,162.29471460008062,162.29471460008062,164.22559350007214,164.22559350007214,164.22559350007214,164.22559350007214,164.22559350007214,164.22559350007214,164.22559350007214,44,52,46,55,55,70,164.22559350007214,165.77695820014924,,,,,,,,,,,,,,３０２,f,２２,2023-05-18_09h44.41.108,RL,2022.2.5,60.10652073347257,
39,41,42,58,0,25,25,25,,,,,,,,,,,None,165.77695820014924,165.77695820014924,165.77695820014924,165.77695820014924,165.77695820014924,165.77695820014924,i,0.4187600000295788,166.23217059997842,166.23217059997842,166.23217059997842,166.23217059997842,166.23217059997842,166.23217059997842,166.51047340012155,167.97689560009167,168.01050320011564,168.01050320011564,168.01050320011564,168.01050320011564,168.01050320011564,168.01050320011564,168.01050320011564,168.01050320011564,168.01050320011564,168.01050320011564,168.01050320011564,168.01050320011564,168.01050320011564,169.77484950004146,169.77484950004146,169.77484950004146,169.77484950004146,169.77484950004146,169.77484950004146,169.77484950004146,42,41,39,58,39,70,169.77484950004146,171.29304650006816,,,,,,,,,,,,,,３０２,f,２２,2023-05-18_09h44.41.108,RL,2022.2.5,60.10652073347257,
49,45,49,59,0,26,26,26,,,,,,,,,,,None,171.29304650006816,171.29304650006816,171.29304650006816,171.29304650006816,171.29304650006816,171.29304650006816,f,0.3453184000682086,171.6598938999232,171.6598938999232,171.6598938999232,171.6598938999232,171.6598938999232,171.6598938999232,171.9428302999586,173.24269270012155,173.25920050009154,173.25920050009154,173.25920050009154,173.25920050009154,173.25920050009154,173.25920050009154,173.25920050009154,173.25920050009154,173.25920050009154,173.25920050009154,173.25920050009154,173.25920050009154,173.25920050009154,174.85732940002345,174.85732940002345,174.85732940002345,174.85732940002345,174.85732940002345,174.85732940002345,174.85732940002345,49,45,49,59,49,70,174.85732940002345,176.79127510008402,,,,,,,,,,,,,,３０２,f,２２,2023-05-18_09h44.41.108,RL,2022.2.5,60.10652073347257,
54,46,53,57,0,27,27,27,,,,,,,,,,,None,176.79127510008402,176.79127510008402,176.79127510008402,176.79127510008402,176.79127510008402,176.79127510008402,r,0.33212550007738173,177.14227379998192,177.14227379998192,177.14227379998192,177.14227379998192,177.14227379998192,177.14227379998192,177.42531200009398,178.69176890002564,178.70871710008942,178.70871710008942,178.70871710008942,178.70871710008942,178.70871710008942,178.70871710008942,178.70871710008942,178.70871710008942,178.70871710008942,178.70871710008942,178.70871710008942,178.70871710008942,178.70871710008942,180.27340629999526,180.27340629999526,180.27340629999526,180.27340629999526,180.27340629999526,180.27340629999526,180.27340629999526,53,46,54,57,46,70,180.27340629999526,182.17442820011638,,,,,,,,,,,,,,３０２,f,２２,2023-05-18_09h44.41.108,RL,2022.2.5,60.10652073347257,
51,47,47,47,0,28,28,28,,,,,,,,,,,None,182.17442820011638,182.17442820011638,182.17442820011638,182.17442820011638,182.17442820011638,182.17442820011638,j,0.32668870012275875,182.52501019998454,182.52501019998454,182.52501019998454,182.52501019998454,182.52501019998454,182.52501019998454,182.82428950001486,184.25715950015,184.25715950015,184.25715950015,184.25715950015,184.25715950015,184.25715950015,184.25715950015,184.25715950015,184.25715950015,184.25715950015,184.25715950015,184.25715950015,184.25715950015,184.25715950015,185.9895719999913,185.9895719999913,185.9895719999913,185.9895719999913,185.9895719999913,185.9895719999913,185.9895719999913,47,47,51,47,47,70,185.9895719999913,187.9233025999274,,,,,,,,,,,,,,３０２,f,２２,2023-05-18_09h44.41.108,RL,2022.2.5,60.10652073347257,
50,49,47,50,0,29,29,29,,,,,,,,,,,None,187.9233025999274,187.9233025999274,187.9233025999274,187.9233025999274,187.9233025999274,187.9233025999274,f,0.30315220006741583,188.2616401000414,188.2616401000414,188.2616401000414,188.2616401000414,188.2616401000414,188.2616401000414,188.55708950012922,190.02308010007255,190.02308010007255,190.02308010007255,190.02308010007255,190.02308010007255,190.02308010007255,190.02308010007255,190.02308010007255,190.02308010007255,190.02308010007255,190.02308010007255,190.02308010007255,190.02308010007255,190.02308010007255,191.78761509992182,191.78761509992182,191.78761509992182,191.78761509992182,191.78761509992182,191.78761509992182,191.78761509992182,47,49,50,50,47,70,191.78761509992182,193.58861640002578,,,,,,,,,,,,,,３０２,f,２２,2023-05-18_09h44.41.108,RL,2022.2.5,60.10652073347257,
52,48,45,53,0,30,30,30,,,,,,,,,,,None,193.58861640002578,193.58861640002578,193.58861640002578,193.58861640002578,193.58861640002578,193.58861640002578,r,0.29605240002274513,193.90745369996876,193.90745369996876,193.90745369996876,193.90745369996876,193.90745369996876,193.90745369996876,194.20552620012313,195.02220820006914,195.02220820006914,195.02220820006914,195.02220820006914,195.02220820006914,195.02220820006914,195.02220820006914,195.02220820006914,195.02220820006914,195.02220820006914,195.02220820006914,195.02220820006914,195.02220820006914,195.02220820006914,196.13678269996308,196.13678269996308,196.13678269996308,196.13678269996308,196.13678269996308,196.13678269996308,196.13678269996308,45,48,52,53,48,70,196.13678269996308,198.0050607000012,,,,,,,,,,,,,,３０２,f,２２,2023-05-18_09h44.41.108,RL,2022.2.5,60.10652073347257,
52,48,50,42,0,31,31,31,,,,,,,,,,,None,198.0050607000012,198.0050607000012,198.0050607000012,198.0050607000012,198.0050607000012,198.0050607000012,f,0.4273125999607146,198.45504799997434,198.45504799997434,198.45504799997434,198.45504799997434,198.45504799997434,198.45504799997434,198.73839269997552,199.68827249994501,199.70473100012168,199.70473100012168,199.70473100012168,199.70473100012168,199.70473100012168,199.70473100012168,199.70473100012168,199.70473100012168,199.70473100012168,199.70473100012168,199.70473100012168,199.70473100012168,199.70473100012168,200.95308690005913,200.95308690005913,200.95308690005913,200.95308690005913,200.95308690005913,200.95308690005913,200.95308690005913,50,48,52,42,50,70,200.95308690005913,202.770836800104,,,,,,,,,,,,,,３０２,f,２２,2023-05-18_09h44.41.108,RL,2022.2.5,60.10652073347257,
56,47,56,52,0,32,32,32,,,,,,,,,,,None,202.770836800104,202.770836800104,202.770836800104,202.770836800104,202.770836800104,202.770836800104,j,0.3374673000071198,203.13921490008943,203.13921490008943,203.13921490008943,203.13921490008943,203.13921490008943,203.13921490008943,203.437370599946,204.95382339996286,204.9705109000206,204.9705109000206,204.9705109000206,204.9705109000206,204.9705109000206,204.9705109000206,204.9705109000206,204.9705109000206,204.9705109000206,204.9705109000206,204.9705109000206,204.9705109000206,204.9705109000206,206.78528430010192,206.78528430010192,206.78528430010192,206.78528430010192,206.78528430010192,206.78528430010192,206.78528430010192,56,47,56,52,52,70,206.78528430010192,208.48622109997086,,,,,,,,,,,,,,３０２,f,２２,2023-05-18_09h44.41.108,RL,2022.2.5,60.10652073347257,
59,49,54,57,0,33,33,33,,,,,,,,,,,None,208.48622109997086,208.48622109997086,208.48622109997086,208.48622109997086,208.48622109997086,208.48622109997086,j,0.3443404999561608,208.85455629997887,208.85455629997887,208.85455629997887,208.85455629997887,208.85455629997887,208.85455629997887,209.1366965000052,210.98629020014778,211.00265830010176,211.00265830010176,211.00265830010176,211.00265830010176,211.00265830010176,211.00265830010176,211.00265830010176,211.00265830010176,211.00265830010176,211.00265830010176,211.00265830010176,211.00265830010176,211.00265830010176,213.15069029992446,213.15069029992446,213.15069029992446,213.15069029992446,213.15069029992446,213.15069029992446,213.15069029992446,54,49,59,57,57,70,213.15069029992446,215.15212150011212,,,,,,,,,,,,,,３０２,f,２２,2023-05-18_09h44.41.108,RL,2022.2.5,60.10652073347257,
61,46,47,51,0,34,34,34,,,,,,,,,,,None,215.15212150011212,215.15212150011212,215.15212150011212,215.15212150011212,215.15212150011212,215.15212150011212,j,0.3144690999761224,215.48722740006633,215.48722740006633,215.48722740006633,215.48722740006633,215.48722740006633,215.48722740006633,215.76903080008924,216.6349482999649,216.65157010010444,216.65157010010444,216.65157010010444,216.65157010010444,216.65157010010444,216.65157010010444,216.65157010010444,216.65157010010444,216.65157010010444,216.65157010010444,216.65157010010444,216.65157010010444,216.65157010010444,217.8168037000578,217.8168037000578,217.8168037000578,217.8168037000578,217.8168037000578,217.8168037000578,217.8168037000578,47,46,61,51,51,70,217.8168037000578,219.5679065999575,,,,,,,,,,,,,,３０２,f,２２,2023-05-18_09h44.41.108,RL,2022.2.5,60.10652073347257,
51,42,50,58,0,35,35,35,,,,,,,,,,,None,219.5679065999575,219.5679065999575,219.5679065999575,219.5679065999575,219.5679065999575,219.5679065999575,r,0.5246019000187516,220.11791240004823,220.11791240004823,220.11791240004823,220.11791240004823,220.11791240004823,220.11791240004823,220.40116359991953,222.1174926001113,222.13416570005938,222.13416570005938,222.13416570005938,222.13416570005938,222.13416570005938,222.13416570005938,222.13416570005938,222.13416570005938,222.13416570005938,222.13416570005938,222.13416570005938,222.13416570005938,222.13416570005938,224.1488882000558,224.1488882000558,224.1488882000558,224.1488882000558,224.1488882000558,224.1488882000558,224.1488882000558,50,42,51,58,42,70,224.1488882000558,225.7999915999826,,,,,,,,,,,,,,３０２,f,２２,2023-05-18_09h44.41.108,RL,2022.2.5,60.10652073347257,
60,34,46,57,0,36,36,36,,,,,,,,,,,None,225.7999915999826,225.7999915999826,225.7999915999826,225.7999915999826,225.7999915999826,225.7999915999826,j,0.4374644998461008,226.27020199992694,226.27020199992694,226.27020199992694,226.27020199992694,226.27020199992694,226.27020199992694,226.5671729000751,228.5498037999496,228.5498037999496,228.5498037999496,228.5498037999496,228.5498037999496,228.5498037999496,228.5498037999496,228.5498037999496,228.5498037999496,228.5498037999496,228.5498037999496,228.5498037999496,228.5498037999496,228.5498037999496,230.83084880001843,230.83084880001843,230.83084880001843,230.83084880001843,230.83084880001843,230.83084880001843,230.83084880001843,46,34,60,57,57,70,230.83084880001843,232.7156819999218,,,,,,,,,,,,,,３０２,f,２２,2023-05-18_09h44.41.108,RL,2022.2.5,60.10652073347257,
61,43,40,53,0,37,37,37,,,,,,,,,,,None,232.7156819999218,232.7156819999218,232.7156819999218,232.7156819999218,232.7156819999218,232.7156819999218,f,0.39819140010513365,233.13239199994132,233.13239199994132,233.13239199994132,233.13239199994132,233.13239199994132,233.13239199994132,233.4322035999503,234.74844080000184,234.74844080000184,234.74844080000184,234.74844080000184,234.74844080000184,234.74844080000184,234.74844080000184,234.74844080000184,234.74844080000184,234.74844080000184,234.74844080000184,234.74844080000184,234.74844080000184,234.74844080000184,236.36344270012341,236.36344270012341,236.36344270012341,236.36344270012341,236.36344270012341,236.36344270012341,236.36344270012341,40,43,61,53,40,70,236.36344270012341,238.16404419997707,,,,,,,,,,,,,,３０２,f,２２,2023-05-18_09h44.41.108,RL,2022.2.5,60.10652073347257,
61,44,52,51,0,38,38,38,,,,,,,,,,,None,238.16404419997707,238.16404419997707,238.16404419997707,238.16404419997707,238.16404419997707,238.16404419997707,i,0.44392460002563894,238.63192630000412,238.63192630000412,238.63192630000412,238.63192630000412,238.63192630000412,238.63192630000412,238.91502590011805,240.69729080004618,240.71424850006588,240.71424850006588,240.71424850006588,240.71424850006588,240.71424850006588,240.71424850006588,240.71424850006588,240.71424850006588,240.71424850006588,240.71424850006588,240.71424850006588,240.71424850006588,240.71424850006588,242.79563189996406,242.79563189996406,242.79563189996406,242.79563189996406,242.79563189996406,242.79563189996406,242.79563189996406,52,44,61,51,61,70,242.79563189996406,244.29663829994388,,,,,,,,,,,,,,３０２,f,２２,2023-05-18_09h44.41.108,RL,2022.2.5,60.10652073347257,
47,37,44,54,0,39,39,39,,,,,,,,,,,None,244.29663829994388,244.29663829994388,244.29663829994388,244.29663829994388,244.29663829994388,244.29663829994388,j,0.46477399999275804,244.78043340006843,244.78043340006843,244.78043340006843,244.78043340006843,244.78043340006843,244.78043340006843,245.08009369997308,246.69633019994944,246.69633019994944,246.69633019994944,246.69633019994944,246.69633019994944,246.69633019994944,246.69633019994944,246.69633019994944,246.69633019994944,246.69633019994944,246.69633019994944,246.69633019994944,246.69633019994944,246.69633019994944,248.61121580004692,248.61121580004692,248.61121580004692,248.61121580004692,248.61121580004692,248.61121580004692,248.61121580004692,44,37,47,54,54,70,248.61121580004692,250.32906430005096,,,,,,,,,,,,,,３０２,f,２２,2023-05-18_09h44.41.108,RL,2022.2.5,60.10652073347257,
52,38,43,55,0,40,40,40,,,,,,,,,,,None,250.32906430005096,250.32906430005096,250.32906430005096,250.32906430005096,250.32906430005096,250.32906430005096,i,0.4412392000667751,250.7971107000485,250.7971107000485,250.7971107000485,250.7971107000485,250.7971107000485,250.7971107000485,251.0960562999826,252.27903730003163,252.27903730003163,252.27903730003163,252.27903730003163,252.27903730003163,252.27903730003163,252.27903730003163,252.27903730003163,252.27903730003163,252.27903730003163,252.27903730003163,252.27903730003163,252.27903730003163,252.27903730003163,253.7601205999963,253.7601205999963,253.7601205999963,253.7601205999963,253.7601205999963,253.7601205999963,253.7601205999963,43,38,52,55,52,70,253.7601205999963,255.594621400116,,,,,,,,,,,,,,３０２,f,２２,2023-05-18_09h44.41.108,RL,2022.2.5,60.10652073347257,
50,43,48,45,0,41,41,41,,,,,,,,,,,None,255.594621400116,255.594621400116,255.594621400116,255.594621400116,255.594621400116,255.594621400116,j,0.41612289985641837,256.0282515999861,256.0282515999861,256.0282515999861,256.0282515999861,256.0282515999861,256.0282515999861,256.31170219997875,257.7612859001383,257.7780085001141,257.7780085001141,257.7780085001141,257.7780085001141,257.7780085001141,257.7780085001141,257.7780085001141,257.7780085001141,257.7780085001141,257.7780085001141,257.7780085001141,257.7780085001141,257.7780085001141,259.5261067999527,259.5261067999527,259.5261067999527,259.5261067999527,259.5261067999527,259.5261067999527,259.5261067999527,48,43,50,45,45,70,259.5261067999527,261.3102488000877,,,,,,,,,,,,,,３０２,f,２２,2023-05-18_09h44.41.108,RL,2022.2.5,60.10652073347257,
48,42,38,59,0,42,42,42,,,,,,,,,,,None,261.3102488000877,261.3102488000877,261.3102488000877,261.3102488000877,261.3102488000877,261.3102488000877,i,0.2869209998752922,261.62848700000905,261.62848700000905,261.62848700000905,261.62848700000905,261.62848700000905,261.62848700000905,261.9273562000599,263.0268431000877,263.0268431000877,263.0268431000877,263.0268431000877,263.0268431000877,263.0268431000877,263.0268431000877,263.0268431000877,263.0268431000877,263.0268431000877,263.0268431000877,263.0268431000877,263.0268431000877,263.0268431000877,264.4251179001294,264.4251179001294,264.4251179001294,264.4251179001294,264.4251179001294,264.4251179001294,264.4251179001294,38,42,48,59,48,70,264.4251179001294,265.9595505001489,,,,,,,,,,,,,,３０２,f,２２,2023-05-18_09h44.41.108,RL,2022.2.5,60.10652073347257,
40,41,39,47,0,43,43,43,,,,,,,,,,,None,265.9595505001489,265.9595505001489,265.9595505001489,265.9595505001489,265.9595505001489,265.9595505001489,i,0.45413550012744963,266.4455321999267,266.4455321999267,266.4455321999267,266.4455321999267,266.4455321999267,266.4455321999267,266.74307530000806,267.82640670007095,267.82640670007095,267.82640670007095,267.82640670007095,267.82640670007095,267.82640670007095,267.82640670007095,267.82640670007095,267.82640670007095,267.82640670007095,267.82640670007095,267.82640670007095,267.82640670007095,267.82640670007095,269.2079489999451,269.2079489999451,269.2079489999451,269.2079489999451,269.2079489999451,269.2079489999451,269.2079489999451,39,41,40,47,40,70,269.2079489999451,270.8087873000186,,,,,,,,,,,,,,３０２,f,２２,2023-05-18_09h44.41.108,RL,2022.2.5,60.10652073347257,
35,41,31,56,0,44,44,44,,,,,,,,,,,None,270.8087873000186,270.8087873000186,270.8087873000186,270.8087873000186,270.8087873000186,270.8087873000186,f,0.28975029988214374,271.129696900025,271.129696900025,271.129696900025,271.129696900025,271.129696900025,271.129696900025,271.4257769000251,273.0250526999589,273.0250526999589,273.0250526999589,273.0250526999589,273.0250526999589,273.0250526999589,273.0250526999589,273.0250526999589,273.0250526999589,273.0250526999589,273.0250526999589,273.0250526999589,273.0250526999589,273.0250526999589,274.92340090009384,274.92340090009384,274.92340090009384,274.92340090009384,274.92340090009384,274.92340090009384,274.92340090009384,31,41,35,56,31,70,274.92340090009384,276.8413770000916,,,,,,,,,,,,,,３０２,f,２２,2023-05-18_09h44.41.108,RL,2022.2.5,60.10652073347257,
37,41,30,54,0,45,45,45,,,,,,,,,,,None,276.8413770000916,276.8413770000916,276.8413770000916,276.8413770000916,276.8413770000916,276.8413770000916,r,0.4490424001123756,277.3080854001455,277.3080854001455,277.3080854001455,277.3080854001455,277.3080854001455,277.3080854001455,277.59098670003004,279.2411861999426,279.27436359995045,279.27436359995045,279.27436359995045,279.27436359995045,279.27436359995045,279.27436359995045,279.27436359995045,279.27436359995045,279.27436359995045,279.27436359995045,279.27436359995045,279.27436359995045,279.27436359995045,281.2390664999839,281.2390664999839,281.2390664999839,281.2390664999839,281.2390664999839,281.2390664999839,281.2390664999839,30,41,37,54,41,70,281.2390664999839,282.9064953001216,,,,,,,,,,,,,,３０２,f,２２,2023-05-18_09h44.41.108,RL,2022.2.5,60.10652073347257,
35,33,42,50,0,46,46,46,,,,,,,,,,,None,282.9064953001216,282.9064953001216,282.9064953001216,282.9064953001216,282.9064953001216,282.9064953001216,j,0.5233841999433935,283.45752610010095,283.45752610010095,283.45752610010095,283.45752610010095,283.45752610010095,283.45752610010095,283.7567249001004,284.57324660010636,284.57324660010636,284.57324660010636,284.57324660010636,284.57324660010636,284.57324660010636,284.57324660010636,284.57324660010636,284.57324660010636,284.57324660010636,284.57324660010636,284.57324660010636,284.57324660010636,284.57324660010636,285.68795270007104,285.68795270007104,285.68795270007104,285.68795270007104,285.68795270007104,285.68795270007104,285.68795270007104,42,33,35,50,50,70,285.68795270007104,287.2726590000093,,,,,,,,,,,,,,３０２,f,２２,2023-05-18_09h44.41.108,RL,2022.2.5,60.10652073347257,
37,41,38,65,0,47,47,47,,,,,,,,,,,None,287.2726590000093,287.2726590000093,287.2726590000093,287.2726590000093,287.2726590000093,287.2726590000093,i,0.37759830011054873,287.6731571999844,287.6731571999844,287.6731571999844,287.6731571999844,287.6731571999844,287.6731571999844,287.9562230000738,289.00603669998236,289.02253730013035,289.02253730013035,289.02253730013035,289.02253730013035,289.02253730013035,289.02253730013035,289.02253730013035,289.02253730013035,289.02253730013035,289.02253730013035,289.02253730013035,289.02253730013035,289.02253730013035,290.37092279992066,290.37092279992066,290.37092279992066,290.37092279992066,290.37092279992066,290.37092279992066,290.37092279992066,38,41,37,65,37,70,290.37092279992066,291.92147310008295,,,,,,,,,,,,,,３０２,f,２２,2023-05-18_09h44.41.108,RL,2022.2.5,60.10652073347257,
27,36,41,57,0,48,48,48,,,,,,,,,,,None,291.92147310008295,291.92147310008295,291.92147310008295,291.92147310008295,291.92147310008295,291.92147310008295,j,0.2873372999019921,292.238826100016,292.238826100016,292.238826100016,292.238826100016,292.238826100016,292.238826100016,292.5221401001327,294.2719485000707,294.2883073000703,294.2883073000703,294.2883073000703,294.2883073000703,294.2883073000703,294.2883073000703,294.2883073000703,294.2883073000703,294.2883073000703,294.2883073000703,294.2883073000703,294.2883073000703,294.2883073000703,296.3363393000327,296.3363393000327,296.3363393000327,296.3363393000327,296.3363393000327,296.3363393000327,296.3363393000327,41,36,27,57,57,70,296.3363393000327,298.05402239994146,,,,,,,,,,,,,,３０２,f,２２,2023-05-18_09h44.41.108,RL,2022.2.5,60.10652073347257,
21,39,43,54,0,49,49,49,,,,,,,,,,,None,298.05402239994146,298.05402239994146,298.05402239994146,298.05402239994146,298.05402239994146,298.05402239994146,j,0.3476234001573175,298.4239370999858,298.4239370999858,298.4239370999858,298.4239370999858,298.4239370999858,298.4239370999858,298.7048130000476,299.87051409995183,299.88723660004325,299.88723660004325,299.88723660004325,299.88723660004325,299.88723660004325,299.88723660004325,299.88723660004325,299.88723660004325,299.88723660004325,299.88723660004325,299.88723660004325,299.88723660004325,299.88723660004325,301.3525483000558,301.3525483000558,301.3525483000558,301.3525483000558,301.3525483000558,301.3525483000558,301.3525483000558,43,39,21,54,54,70,301.3525483000558,303.2035392001271,,,,,,,,,,,,,,３０２,f,２２,2023-05-18_09h44.41.108,RL,2022.2.5,60.10652073347257,
21,32,48,56,0,50,50,50,,,,,,,,,,,None,303.2035392001271,303.2035392001271,303.2035392001271,303.2035392001271,303.2035392001271,303.2035392001271,j,0.38371000019833446,303.6053860001266,303.6053860001266,303.6053860001266,303.6053860001266,303.6053860001266,303.6053860001266,303.90326780010946,304.75356739992276,304.75356739992276,304.75356739992276,304.75356739992276,304.75356739992276,304.75356739992276,304.75356739992276,304.75356739992276,304.75356739992276,304.75356739992276,304.75356739992276,304.75356739992276,304.75356739992276,304.75356739992276,305.9013392999768,305.9013392999768,305.9013392999768,305.9013392999768,305.9013392999768,305.9013392999768,305.9013392999768,48,32,21,56,56,70,305.9013392999768,307.90211050002836,,,,,,,,,,,,,,３０２,f,２２,2023-05-18_09h44.41.108,RL,2022.2.5,60.10652073347257,
28,39,37,56,0,51,51,51,,,,,,,,,,,None,307.90211050002836,307.90211050002836,307.90211050002836,307.90211050002836,307.90211050002836,307.90211050002836,r,0.362971399910748,308.2887623999268,308.2887623999268,308.2887623999268,308.2887623999268,308.2887623999268,308.2887623999268,308.58585000014864,310.26891690003686,310.26891690003686,310.26891690003686,310.26891690003686,310.26891690003686,310.26891690003686,310.26891690003686,310.26891690003686,310.26891690003686,310.26891690003686,310.26891690003686,310.26891690003686,310.26891690003686,310.26891690003686,312.25037140003406,312.25037140003406,312.25037140003406,312.25037140003406,312.25037140003406,312.25037140003406,312.25037140003406,37,39,28,56,39,70,312.25037140003406,314.0012308000587,,,,,,,,,,,,,,３０２,f,２２,2023-05-18_09h44.41.108,RL,2022.2.5,60.10652073347257,
23,36,46,56,0,52,52,52,,,,,,,,,,,None,314.0012308000587,314.0012308000587,314.0012308000587,314.0012308000587,314.0012308000587,314.0012308000587,f,0.31794119998812675,314.3551412001252,314.3551412001252,314.3551412001252,314.3551412001252,314.3551412001252,314.3551412001252,314.63468350004405,315.7679687999189,315.8011893001385,315.8011893001385,315.8011893001385,315.8011893001385,315.8011893001385,315.8011893001385,315.8011893001385,315.8011893001385,315.8011893001385,315.8011893001385,315.8011893001385,315.8011893001385,315.8011893001385,317.2327650000807,317.2327650000807,317.2327650000807,317.2327650000807,317.2327650000807,317.2327650000807,317.2327650000807,46,36,23,56,46,70,317.2327650000807,319.13384260004386,,,,,,,,,,,,,,３０２,f,２２,2023-05-18_09h44.41.108,RL,2022.2.5,60.10652073347257,
25,44,32,51,0,53,53,53,,,,,,,,,,,None,319.13384260004386,319.13384260004386,319.13384260004386,319.13384260004386,319.13384260004386,319.13384260004386,i,0.31518050003796816,319.4683723000344,319.4683723000344,319.4683723000344,319.4683723000344,319.4683723000344,319.4683723000344,319.750424799975,320.75078659993596,320.7671050000936,320.7671050000936,320.7671050000936,320.7671050000936,320.7671050000936,320.7671050000936,320.7671050000936,320.7671050000936,320.7671050000936,320.7671050000936,320.7671050000936,320.7671050000936,320.7671050000936,322.0651833000593,322.0651833000593,322.0651833000593,322.0651833000593,322.0651833000593,322.0651833000593,322.0651833000593,32,44,25,51,25,70,322.0651833000593,323.58321509999223,,,,,,,,,,,,,,３０２,f,２２,2023-05-18_09h44.41.108,RL,2022.2.5,60.10652073347257,
27,40,42,52,0,54,54,54,,,,,,,,,,,None,323.58321509999223,323.58321509999223,323.58321509999223,323.58321509999223,323.58321509999223,323.58321509999223,j,0.33040750003419816,323.9332884999458,323.9332884999458,323.9332884999458,323.9332884999458,323.9332884999458,323.9332884999458,324.21656309999526,325.082871499937,325.0999475000426,325.0999475000426,325.0999475000426,325.0999475000426,325.0999475000426,325.0999475000426,325.0999475000426,325.0999475000426,325.0999475000426,325.0999475000426,325.0999475000426,325.0999475000426,325.0999475000426,326.26490670000203,326.26490670000203,326.26490670000203,326.26490670000203,326.26490670000203,326.26490670000203,326.26490670000203,42,40,27,52,52,70,326.26490670000203,328.03203559992835,,,,,,,,,,,,,,３０２,f,２２,2023-05-18_09h44.41.108,RL,2022.2.5,60.10652073347257,
32,49,44,54,0,55,55,55,,,,,,,,,,,None,328.03203559992835,328.03203559992835,328.03203559992835,328.03203559992835,328.03203559992835,328.03203559992835,j,0.42039850004948676,328.4848434999585,328.4848434999585,328.4848434999585,328.4848434999585,328.4848434999585,328.4848434999585,328.78283299994655,330.44873349997215,330.44873349997215,330.44873349997215,330.44873349997215,330.44873349997215,330.44873349997215,330.44873349997215,330.44873349997215,330.44873349997215,330.44873349997215,330.44873349997215,330.44873349997215,330.44873349997215,330.44873349997215,332.4131752999965,332.4131752999965,332.4131752999965,332.4131752999965,332.4131752999965,332.4131752999965,332.4131752999965,44,49,32,54,54,70,332.4131752999965,334.3145858999342,,,,,,,,,,,,,,３０２,f,２２,2023-05-18_09h44.41.108,RL,2022.2.5,60.10652073347257,
29,43,40,54,0,56,56,56,,,,,,,,,,,None,334.3145858999342,334.3145858999342,334.3145858999342,334.3145858999342,334.3145858999342,334.3145858999342,j,0.43961460003629327,334.7830046999734,334.7830046999734,334.7830046999734,334.7830046999734,334.7830046999734,334.7830046999734,335.06468169996515,335.8975540001411,335.91444500000216,335.91444500000216,335.91444500000216,335.91444500000216,335.91444500000216,335.91444500000216,335.91444500000216,335.91444500000216,335.91444500000216,335.91444500000216,335.91444500000216,335.91444500000216,335.91444500000216,337.0460638999939,337.0460638999939,337.0460638999939,337.0460638999939,337.0460638999939,337.0460638999939,337.0460638999939,40,43,29,54,54,70,337.0460638999939,338.71355210011825,,,,,,,,,,,,,,３０２,f,２２,2023-05-18_09h44.41.108,RL,2022.2.5,60.10652073347257,
19,36,48,59,0,57,57,57,,,,,,,,,,,None,338.71355210011825,338.71355210011825,338.71355210011825,338.71355210011825,338.71355210011825,338.71355210011825,j,0.4243639998603612,339.1664750999771,339.1664750999771,339.1664750999771,339.1664750999771,339.1664750999771,339.1664750999771,339.46370450011455,340.4989287999924,340.4989287999924,340.4989287999924,340.4989287999924,340.4989287999924,340.4989287999924,340.4989287999924,340.4989287999924,340.4989287999924,340.4989287999924,340.4989287999924,340.4989287999924,340.4989287999924,340.4989287999924,341.7951030000113,341.7951030000113,341.7951030000113,341.7951030000113,341.7951030000113,341.7951030000113,341.7951030000113,48,36,19,59,59,70,341.7951030000113,343.61242970009334,,,,,,,,,,,,,,３０２,f,２２,2023-05-18_09h44.41.108,RL,2022.2.5,60.10652073347257,
38,40,48,57,0,58,58,58,,,,,,,,,,,None,343.61242970009334,343.61242970009334,343.61242970009334,343.61242970009334,343.61242970009334,343.61242970009334,j,0.3817804001737386,344.01454370003194,344.01454370003194,344.01454370003194,344.01454370003194,344.01454370003194,344.01454370003194,344.312851900002,345.4126023000572,345.4126023000572,345.4126023000572,345.4126023000572,345.4126023000572,345.4126023000572,345.4126023000572,345.4126023000572,345.4126023000572,345.4126023000572,345.4126023000572,345.4126023000572,345.4126023000572,345.4126023000572,346.81064529996365,346.81064529996365,346.81064529996365,346.81064529996365,346.81064529996365,346.81064529996365,346.81064529996365,48,40,38,57,57,70,346.81064529996365,348.3449335999321,,,,,,,,,,,,,,３０２,f,２２,2023-05-18_09h44.41.108,RL,2022.2.5,60.10652073347257,
29,38,51,64,0,59,59,59,,,,,,,,,,,None,348.3449335999321,348.3449335999321,348.3449335999321,348.3449335999321,348.3449335999321,348.3449335999321,j,0.3271856000646949,348.6957976000849,348.6957976000849,348.6957976000849,348.6957976000849,348.6957976000849,348.6957976000849,348.9787485001143,350.5284160000738,350.5451988999266,350.5451988999266,350.5451988999266,350.5451988999266,350.5451988999266,350.5451988999266,350.5451988999266,350.5451988999266,350.5451988999266,350.5451988999266,350.5451988999266,350.5451988999266,350.5451988999266,352.39319139998406,352.39319139998406,352.39319139998406,352.39319139998406,352.39319139998406,352.39319139998406,352.39319139998406,51,38,29,64,64,70,352.39319139998406,354.2279453999363,,,,,,,,,,,,,,３０２,f,２２,2023-05-18_09h44.41.108,RL,2022.2.5,60.10652073347257,
27,44,51,70,0,60,60,60,,,,,,,,,,,None,354.2279453999363,354.2279453999363,354.2279453999363,354.2279453999363,354.2279453999363,354.2279453999363,j,0.2791182999499142,354.5297739999369,354.5297739999369,354.5297739999369,354.5297739999369,354.5297739999369,354.5297739999369,354.8276867000386,356.56086970004253,356.5776756000705,356.5776756000705,356.5776756000705,356.5776756000705,356.5776756000705,356.5776756000705,356.5776756000705,356.5776756000705,356.5776756000705,356.5776756000705,356.5776756000705,356.5776756000705,356.5776756000705,358.60904160002246,358.60904160002246,358.60904160002246,358.60904160002246,358.60904160002246,358.60904160002246,358.60904160002246,51,44,27,70,70,70,358.60904160002246,360.5096680999268,,,,,,,,,,,,,,３０２,f,２２,2023-05-18_09h44.41.108,RL,2022.2.5,60.10652073347257,
32,51,49,61,0,61,61,61,,,,,,,,,,,None,360.5096680999268,360.5096680999268,360.5096680999268,360.5096680999268,360.5096680999268,360.5096680999268,j,0.3373811999335885,360.87805650010705,360.87805650010705,360.87805650010705,360.87805650010705,360.87805650010705,360.87805650010705,361.17671869997866,362.0432218001224,362.0432218001224,362.0432218001224,362.0432218001224,362.0432218001224,362.0432218001224,362.0432218001224,362.0432218001224,362.0432218001224,362.0432218001224,362.0432218001224,362.0432218001224,362.0432218001224,362.0432218001224,363.2082626000047,363.2082626000047,363.2082626000047,363.2082626000047,363.2082626000047,363.2082626000047,363.2082626000047,49,51,32,61,61,70,363.2082626000047,364.9426915999502,,,,,,,,,,,,,,３０２,f,２２,2023-05-18_09h44.41.108,RL,2022.2.5,60.10652073347257,
42,51,55,52,0,62,62,62,,,,,,,,,,,None,364.9426915999502,364.9426915999502,364.9426915999502,364.9426915999502,364.9426915999502,364.9426915999502,j,0.3191601999569684,365.294006699929,365.294006699929,365.294006699929,365.294006699929,365.294006699929,365.294006699929,365.5925917001441,367.1587698000949,367.1587698000949,367.1587698000949,367.1587698000949,367.1587698000949,367.1587698000949,367.1587698000949,367.1587698000949,367.1587698000949,367.1587698000949,367.1587698000949,367.1587698000949,367.1587698000949,367.1587698000949,369.0237183000427,369.0237183000427,369.0237183000427,369.0237183000427,369.0237183000427,369.0237183000427,369.0237183000427,55,51,42,52,52,70,369.0237183000427,371.00802950002253,,,,,,,,,,,,,,３０２,f,２２,2023-05-18_09h44.41.108,RL,2022.2.5,60.10652073347257,
28,55,51,67,0,63,63,63,,,,,,,,,,,None,371.00802950002253,371.00802950002253,371.00802950002253,371.00802950002253,371.00802950002253,371.00802950002253,j,0.36910040001384914,371.4082689001225,371.4082689001225,371.4082689001225,371.4082689001225,371.4082689001225,371.4082689001225,371.6914417000953,373.3080533000175,373.32453530002385,373.32453530002385,373.32453530002385,373.32453530002385,373.32453530002385,373.32453530002385,373.32453530002385,373.32453530002385,373.32453530002385,373.32453530002385,373.32453530002385,373.32453530002385,373.32453530002385,375.23907330003567,375.23907330003567,375.23907330003567,375.23907330003567,375.23907330003567,375.23907330003567,375.23907330003567,51,55,28,67,67,70,375.23907330003567,376.95740630012006,,,,,,,,,,,,,,３０２,f,２２,2023-05-18_09h44.41.108,RL,2022.2.5,60.10652073347257,
34,57,51,58,0,64,64,64,,,,,,,,,,,None,376.95740630012006,376.95740630012006,376.95740630012006,376.95740630012006,376.95740630012006,376.95740630012006,j,0.359708399977535,377.34203510009684,377.34203510009684,377.34203510009684,377.34203510009684,377.34203510009684,377.34203510009684,377.62392070004717,378.9407566001173,378.95691940002143,378.95691940002143,378.95691940002143,378.95691940002143,378.95691940002143,378.95691940002143,378.95691940002143,378.95691940002143,378.95691940002143,378.95691940002143,378.95691940002143,378.95691940002143,378.95691940002143,380.57163679995574,380.57163679995574,380.57163679995574,380.57163679995574,380.57163679995574,380.57163679995574,380.57163679995574,51,57,34,58,58,70,380.57163679995574,382.45624130009674,,,,,,,,,,,,,,３０２,f,２２,2023-05-18_09h44.41.108,RL,2022.2.5,60.10652073347257,
30,48,52,60,0,65,65,65,,,,,,,,,,,None,382.45624130009674,382.45624130009674,382.45624130009674,382.45624130009674,382.45624130009674,382.45624130009674,j,0.3690169998444617,382.85811310005374,382.85811310005374,382.85811310005374,382.85811310005374,382.85811310005374,382.85811310005374,383.13968600006774,384.65661960002035,384.6727969001513,384.6727969001513,384.6727969001513,384.6727969001513,384.6727969001513,384.6727969001513,384.6727969001513,384.6727969001513,384.6727969001513,384.6727969001513,384.6727969001513,384.6727969001513,384.6727969001513,386.4872886000667,386.4872886000667,386.4872886000667,386.4872886000667,386.4872886000667,386.4872886000667,386.4872886000667,52,48,30,60,60,70,386.4872886000667,388.238125000149,,,,,,,,,,,,,,３０２,f,２２,2023-05-18_09h44.41.108,RL,2022.2.5,60.10652073347257,
33,60,42,56,0,66,66,66,,,,,,,,,,,None,388.238125000149,388.238125000149,388.238125000149,388.238125000149,388.238125000149,388.238125000149,j,0.3621090000960976,388.62270090007223,388.62270090007223,388.62270090007223,388.62270090007223,388.62270090007223,388.62270090007223,388.9217882999219,390.25527740013786,390.25527740013786,390.25527740013786,390.25527740013786,390.25527740013786,390.25527740013786,390.25527740013786,390.25527740013786,390.25527740013786,390.25527740013786,390.25527740013786,390.25527740013786,390.25527740013786,390.25527740013786,391.8867810999509,391.8867810999509,391.8867810999509,391.8867810999509,391.8867810999509,391.8867810999509,391.8867810999509,42,60,33,56,56,70,391.8867810999509,393.87082950002514,,,,,,,,,,,,,,３０２,f,２２,2023-05-18_09h44.41.108,RL,2022.2.5,60.10652073347257,
35,57,47,58,0,67,67,67,,,,,,,,,,,None,393.87082950002514,393.87082950002514,393.87082950002514,393.87082950002514,393.87082950002514,393.87082950002514,j,0.37956709996797144,394.27114020008594,394.27114020008594,394.27114020008594,394.27114020008594,394.27114020008594,394.27114020008594,394.5713577000424,395.68757409998216,395.68757409998216,395.68757409998216,395.68757409998216,395.68757409998216,395.68757409998216,395.68757409998216,395.68757409998216,395.68757409998216,395.68757409998216,395.68757409998216,395.68757409998216,395.68757409998216,395.68757409998216,397.1020249000285,397.1020249000285,397.1020249000285,397.1020249000285,397.1020249000285,397.1020249000285,397.1020249000285,47,57,35,58,58,70,397.1020249000285,398.71978039992973,,,,,,,,,,,,,,３０２,f,２２,2023-05-18_09h44.41.108,RL,2022.2.5,60.10652073347257,
42,67,43,58,0,68,68,68,,,,,,,,,,,None,398.71978039992973,398.71978039992973,398.71978039992973,398.71978039992973,398.71978039992973,398.71978039992973,j,0.4444178999401629,399.18687380012125,399.18687380012125,399.18687380012125,399.18687380012125,399.18687380012125,399.18687380012125,399.47044169995934,400.58662990015,400.60305749997497,400.60305749997497,400.60305749997497,400.60305749997497,400.60305749997497,400.60305749997497,400.60305749997497,400.60305749997497,400.60305749997497,400.60305749997497,400.60305749997497,400.60305749997497,400.60305749997497,402.01810590014793,402.01810590014793,402.01810590014793,402.01810590014793,402.01810590014793,402.01810590014793,402.01810590014793,43,67,42,58,58,70,402.01810590014793,403.8191059001256,,,,,,,,,,,,,,３０２,f,２２,2023-05-18_09h44.41.108,RL,2022.2.5,60.10652073347257,
28,59,43,59,0,69,69,69,,,,,,,,,,,None,403.8191059001256,403.8191059001256,403.8191059001256,403.8191059001256,403.8191059001256,403.8191059001256,j,0.4171988000161946,404.2527326999698,404.2527326999698,404.2527326999698,404.2527326999698,404.2527326999698,404.2527326999698,404.5523612999823,405.5189129000064,405.5189129000064,405.5189129000064,405.5189129000064,405.5189129000064,405.5189129000064,405.5189129000064,405.5189129000064,405.5189129000064,405.5189129000064,405.5189129000064,405.5189129000064,405.5189129000064,405.5189129000064,406.7837088999804,406.7837088999804,406.7837088999804,406.7837088999804,406.7837088999804,406.7837088999804,406.7837088999804,43,59,28,59,59,70,406.7837088999804,408.61803940008394,,,,,,,,,,,,,,３０２,f,２２,2023-05-18_09h44.41.108,RL,2022.2.5,60.10652073347257,
35,54,46,52,0,70,70,70,,,,,,,,,,,None,408.61803940008394,408.61803940008394,408.61803940008394,408.61803940008394,408.61803940008394,408.61803940008394,j,0.4115922001656145,409.05214869999327,409.05214869999327,409.05214869999327,409.05214869999327,409.05214869999327,409.05214869999327,409.33495910000056,411.3182978001423,411.335156599991,411.335156599991,411.335156599991,411.335156599991,411.335156599991,411.335156599991,411.335156599991,411.335156599991,411.335156599991,411.335156599991,411.335156599991,411.335156599991,411.335156599991,413.61611760011874,413.61611760011874,413.61611760011874,413.61611760011874,413.61611760011874,413.61611760011874,413.61611760011874,46,54,35,52,52,70,413.61611760011874,415.2501336999703,,,,,,,,,,,,,,３０２,f,２２,2023-05-18_09h44.41.108,RL,2022.2.5,60.10652073347257,
38,57,53,53,0,71,71,71,,,,,,,,,,,None,415.2501336999703,415.2501336999703,415.2501336999703,415.2501336999703,415.2501336999703,415.2501336999703,j,0.2887563998810947,415.567534300033,415.567534300033,415.567534300033,415.567534300033,415.567534300033,415.567534300033,415.85026789992116,417.15033690002747,417.1672451000195,417.1672451000195,417.1672451000195,417.1672451000195,417.1672451000195,417.1672451000195,417.1672451000195,417.1672451000195,417.1672451000195,417.1672451000195,417.1672451000195,417.1672451000195,417.1672451000195,418.7651752999518,418.7651752999518,418.7651752999518,418.7651752999518,418.7651752999518,418.7651752999518,418.7651752999518,53,57,38,53,53,70,418.7651752999518,420.4658230000641,,,,,,,,,,,,,,３０２,f,２２,2023-05-18_09h44.41.108,RL,2022.2.5,60.10652073347257,
45,61,45,60,0,72,72,72,,,,,,,,,,,None,420.4658230000641,420.4658230000641,420.4658230000641,420.4658230000641,420.4658230000641,420.4658230000641,i,0.35881690005771816,420.85170589992777,420.85170589992777,420.85170589992777,420.85170589992777,420.85170589992777,420.85170589992777,421.1332249001134,422.4493176001124,422.46590700000525,422.46590700000525,422.46590700000525,422.46590700000525,422.46590700000525,422.46590700000525,422.46590700000525,422.46590700000525,422.46590700000525,422.46590700000525,422.46590700000525,422.46590700000525,422.46590700000525,424.0805701999925,424.0805701999925,424.0805701999925,424.0805701999925,424.0805701999925,424.0805701999925,424.0805701999925,45,61,45,60,45,70,424.0805701999925,425.8153526999522,,,,,,,,,,,,,,３０２,f,２２,2023-05-18_09h44.41.108,RL,2022.2.5,60.10652073347257,
36,51,44,55,0,73,73,73,,,,,,,,,,,None,425.8153526999522,425.8153526999522,425.8153526999522,425.8153526999522,425.8153526999522,425.8153526999522,f,0.3551578000187874,426.19941220013425,426.19941220013425,426.19941220013425,426.19941220013425,426.19941220013425,426.19941220013425,426.4985166999977,428.4150251999963,428.4150251999963,428.4150251999963,428.4150251999963,428.4150251999963,428.4150251999963,428.4150251999963,428.4150251999963,428.4150251999963,428.4150251999963,428.4150251999963,428.4150251999963,428.4150251999963,428.4150251999963,430.6297794999555,430.6297794999555,430.6297794999555,430.6297794999555,430.6297794999555,430.6297794999555,430.6297794999555,44,51,36,55,44,70,430.6297794999555,432.63101190002635,,,,,,,,,,,,,,３０２,f,２２,2023-05-18_09h44.41.108,RL,2022.2.5,60.10652073347257,
41,56,45,64,0,74,74,74,,,,,,,,,,,None,432.63101190002635,432.63101190002635,432.63101190002635,432.63101190002635,432.63101190002635,432.63101190002635,r,0.3738380998838693,433.03229589993134,433.03229589993134,433.03229589993134,433.03229589993134,433.03229589993134,433.03229589993134,433.3309444000479,434.2809423999861,434.2809423999861,434.2809423999861,434.2809423999861,434.2809423999861,434.2809423999861,434.2809423999861,434.2809423999861,434.2809423999861,434.2809423999861,434.2809423999861,434.2809423999861,434.2809423999861,434.2809423999861,435.5284758999478,435.5284758999478,435.5284758999478,435.5284758999478,435.5284758999478,435.5284758999478,435.5284758999478,45,56,41,64,56,70,435.5284758999478,437.428625700064,,,,,,,,,,,,,,３０２,f,２２,2023-05-18_09h44.41.108,RL,2022.2.5,60.10652073347257,
37,63,47,69,0,75,75,75,,,,,,,,,,,q,452.87666549999267,452.87666549999267,452.87666549999267,452.87666549999267,452.87666549999267,452.87666549999267,None,,,,,,,,,,,,,,,,,,,,,,,,,,,,,,47,63,37,69,0,70,460.3907668001484,462.1588030999992,437.428625700064,437.428625700064,10.399703600211069,447.8647471999284,447.8647471999284,452.87666549999267,452.87666549999267,454.3803280000575,460.3907668001484,,,,,３０２,f,２２,2023-05-18_09h44.41.108,RL,2022.2.5,60.10652073347257,
39,60,33,64,0,76,76,76,,,,,,,,,,,None,462.1588030999992,462.1588030999992,462.1588030999992,462.1588030999992,462.1588030999992,462.1588030999992,j,0.28213639999739826,462.46323719993234,462.46323719993234,462.46323719993234,462.46323719993234,462.46323719993234,462.46323719993234,462.74251909996383,463.8424196001142,463.8590490000788,463.8590490000788,463.8590490000788,463.8590490000788,463.8590490000788,463.8590490000788,463.8590490000788,463.8590490000788,463.8590490000788,463.8590490000788,463.8590490000788,463.8590490000788,463.8590490000788,465.2570975001436,465.2570975001436,465.2570975001436,465.2570975001436,465.2570975001436,465.2570975001436,465.2570975001436,33,60,39,64,64,70,465.2570975001436,466.80810540006496,,,,,,,,,,,,,,３０２,f,２２,2023-05-18_09h44.41.108,RL,2022.2.5,60.10652073347257,
34,59,47,66,0,77,77,77,,,,,,,,,,,None,466.80810540006496,466.80810540006496,466.80810540006496,466.80810540006496,466.80810540006496,466.80810540006496,i,0.4995850999839604,467.35082920012064,467.35082920012064,467.35082920012064,467.35082920012064,467.35082920012064,467.35082920012064,467.641860099975,469.57492580008693,469.5912914001383,469.5912914001383,469.5912914001383,469.5912914001383,469.5912914001383,469.5912914001383,469.5912914001383,469.5912914001383,469.5912914001383,469.5912914001383,469.5912914001383,469.5912914001383,469.5912914001383,471.82246960001066,471.82246960001066,471.82246960001066,471.82246960001066,471.82246960001066,471.82246960001066,471.82246960001066,47,59,34,66,34,70,471.82246960001066,473.4066711999476,,,,,,,,,,,,,,３０２,f,２２,2023-05-18_09h44.41.108,RL,2022.2.5,60.10652073347257,
37,55,39,70,0,78,78,78,,,,,,,,,,,None,473.4066711999476,473.4066711999476,473.4066711999476,473.4066711999476,473.4066711999476,473.4066711999476,f,0.6760314002167434,474.1085284999572,474.1085284999572,474.1085284999572,474.1085284999572,474.1085284999572,474.1085284999572,474.4069096001331,476.17336150002666,476.17336150002666,476.17336150002666,476.17336150002666,476.17336150002666,476.17336150002666,476.17336150002666,476.17336150002666,476.17336150002666,476.17336150002666,476.17336150002666,476.17336150002666,476.17336150002666,476.17336150002666,478.2382636999246,478.2382636999246,478.2382636999246,478.2382636999246,478.2382636999246,478.2382636999246,478.2382636999246,39,55,37,70,39,70,478.2382636999246,479.8058595000766,,,,,,,,,,,,,,３０２,f,２２,2023-05-18_09h44.41.108,RL,2022.2.5,60.10652073347257,
42,51,36,66,0,79,79,79,,,,,,,,,,,None,479.8058595000766,479.8058595000766,479.8058595000766,479.8058595000766,479.8058595000766,479.8058595000766,r,0.3490528999827802,480.17279079998843,480.17279079998843,480.17279079998843,480.17279079998843,480.17279079998843,480.17279079998843,480.4727650999557,482.3393798000179,482.3393798000179,482.3393798000179,482.3393798000179,482.3393798000179,482.3393798000179,482.3393798000179,482.3393798000179,482.3393798000179,482.3393798000179,482.3393798000179,482.3393798000179,482.3393798000179,482.3393798000179,484.50393770006485,484.50393770006485,484.50393770006485,484.50393770006485,484.50393770006485,484.50393770006485,484.50393770006485,36,51,42,66,51,70,484.50393770006485,486.05427079997025,,,,,,,,,,,,,,３０２,f,２２,2023-05-18_09h44.41.108,RL,2022.2.5,60.10652073347257,
35,49,31,68,0,80,80,80,,,,,,,,,,,None,486.05427079997025,486.05427079997025,486.05427079997025,486.05427079997025,486.05427079997025,486.05427079997025,j,0.28906770003959537,486.37157650012523,486.37157650012523,486.37157650012523,486.37157650012523,486.37157650012523,486.37157650012523,486.67143430002034,488.17142389994115,488.17142389994115,488.17142389994115,488.17142389994115,488.17142389994115,488.17142389994115,488.17142389994115,488.17142389994115,488.17142389994115,488.17142389994115,488.17142389994115,488.17142389994115,488.17142389994115,488.17142389994115,489.969231300056,489.969231300056,489.969231300056,489.969231300056,489.969231300056,489.969231300056,489.969231300056,31,49,35,68,68,70,489.969231300056,491.95387149997987,,,,,,,,,,,,,,３０２,f,２２,2023-05-18_09h44.41.108,RL,2022.2.5,60.10652073347257,
37,55,30,72,0,81,81,81,,,,,,,,,,,None,491.95387149997987,491.95387149997987,491.95387149997987,491.95387149997987,491.95387149997987,491.95387149997987,j,0.2693839999847114,492.2560491999611,492.2560491999611,492.2560491999611,492.2560491999611,492.2560491999611,492.2560491999611,492.5373003000859,493.65412520011887,493.67040770011954,493.67040770011954,493.67040770011954,493.67040770011954,493.67040770011954,493.67040770011954,493.67040770011954,493.67040770011954,493.67040770011954,493.67040770011954,493.67040770011954,493.67040770011954,493.67040770011954,495.0854106999468,495.0854106999468,495.0854106999468,495.0854106999468,495.0854106999468,495.0854106999468,495.0854106999468,30,55,37,72,72,70,495.0854106999468,496.9530893000774,,,,,,,,,,,,,,３０２,f,２２,2023-05-18_09h44.41.108,RL,2022.2.5,60.10652073347257,
42,47,35,78,0,82,82,82,,,,,,,,,,,None,496.9530893000774,496.9530893000774,496.9530893000774,496.9530893000774,496.9530893000774,496.9530893000774,j,0.3197449001017958,497.30330969998613,497.30330969998613,497.30330969998613,497.30330969998613,497.30330969998613,497.30330969998613,497.58658110001124,498.86947529995814,498.8864120999351,498.8864120999351,498.8864120999351,498.8864120999351,498.8864120999351,498.8864120999351,498.8864120999351,498.8864120999351,498.8864120999351,498.8864120999351,498.8864120999351,498.8864120999351,498.8864120999351,500.46751370001584,500.46751370001584,500.46751370001584,500.46751370001584,500.46751370001584,500.46751370001584,500.46751370001584,35,47,42,78,78,70,500.46751370001584,502.13542760000564,,,,,,,,,,,,,,３０２,f,２２,2023-05-18_09h44.41.108,RL,2022.2.5,60.10652073347257,
49,40,41,82,0,83,83,83,,,,,,,,,,,None,502.13542760000564,502.13542760000564,502.13542760000564,502.13542760000564,502.13542760000564,502.13542760000564,j,0.34262730018235743,502.50580459996127,502.50580459996127,502.50580459996127,502.50580459996127,502.50580459996127,502.50580459996127,502.7858963999897,504.40176200005226,504.4183984999545,504.4183984999545,504.4183984999545,504.4183984999545,504.4183984999545,504.4183984999545,504.4183984999545,504.4183984999545,504.4183984999545,504.4183984999545,504.4183984999545,504.4183984999545,504.4183984999545,506.33296329993755,506.33296329993755,506.33296329993755,506.33296329993755,506.33296329993755,506.33296329993755,506.33296329993755,41,40,49,82,82,70,506.33296329993755,507.85105170006864,,,,,,,,,,,,,,３０２,f,２２,2023-05-18_09h44.41.108,RL,2022.2.5,60.10652073347257,
45,41,36,83,0,84,84,84,,,,,,,,,,,None,507.85105170006864,507.85105170006864,507.85105170006864,507.85105170006864,507.85105170006864,507.85105170006864,j,0.3144642999395728,508.1847624001093,508.1847624001093,508.1847624001093,508.1847624001093,508.1847624001093,508.1847624001093,508.4676862999331,509.3341723999474,509.3508733001072,509.3508733001072,509.3508733001072,509.3508733001072,509.3508733001072,509.3508733001072,509.3508733001072,509.3508733001072,509.3508733001072,509.3508733001072,509.3508733001072,509.3508733001072,509.3508733001072,510.5158794000745,510.5158794000745,510.5158794000745,510.5158794000745,510.5158794000745,510.5158794000745,510.5158794000745,36,41,45,83,83,70,510.5158794000745,512.2341102999635,,,,,,,,,,,,,,３０２,f,２２,2023-05-18_09h44.41.108,RL,2022.2.5,60.10652073347257,
42,50,43,71,0,85,85,85,,,,,,,,,,,None,512.2341102999635,512.2341102999635,512.2341102999635,512.2341102999635,512.2341102999635,512.2341102999635,j,0.35324389999732375,512.6170465000905,512.6170465000905,512.6170465000905,512.6170465000905,512.6170465000905,512.6170465000905,512.9166649000254,514.0336828001309,514.0336828001309,514.0336828001309,514.0336828001309,514.0336828001309,514.0336828001309,514.0336828001309,514.0336828001309,514.0336828001309,514.0336828001309,514.0336828001309,514.0336828001309,514.0336828001309,514.0336828001309,515.4483636999503,515.4483636999503,515.4483636999503,515.4483636999503,515.4483636999503,515.4483636999503,515.4483636999503,43,50,42,71,71,70,515.4483636999503,517.0992570000235,,,,,,,,,,,,,,３０２,f,２２,2023-05-18_09h44.41.108,RL,2022.2.5,60.10652073347257,
46,47,53,84,0,86,86,86,,,,,,,,,,,None,517.0992570000235,517.0992570000235,517.0992570000235,517.0992570000235,517.0992570000235,517.0992570000235,j,0.28916269983164966,517.4164460999891,517.4164460999891,517.4164460999891,517.4164460999891,517.4164460999891,517.4164460999891,517.7164423000067,519.3492418001406,519.3492418001406,519.3492418001406,519.3492418001406,519.3492418001406,519.3492418001406,519.3492418001406,519.3492418001406,519.3492418001406,519.3492418001406,519.3492418001406,519.3492418001406,519.3492418001406,519.3492418001406,521.2807488001417,521.2807488001417,521.2807488001417,521.2807488001417,521.2807488001417,521.2807488001417,521.2807488001417,53,47,46,84,84,70,521.2807488001417,523.2152579999529,,,,,,,,,,,,,,３０２,f,２２,2023-05-18_09h44.41.108,RL,2022.2.5,60.10652073347257,
55,52,37,77,0,87,87,87,,,,,,,,,,,None,523.2152579999529,523.2152579999529,523.2152579999529,523.2152579999529,523.2152579999529,523.2152579999529,j,0.3023494000080973,523.5486604999751,523.5486604999751,523.5486604999751,523.5486604999751,523.5486604999751,523.5486604999751,523.8321581000928,525.4150827999692,525.4315857000183,525.4315857000183,525.4315857000183,525.4315857000183,525.4315857000183,525.4315857000183,525.4315857000183,525.4315857000183,525.4315857000183,525.4315857000183,525.4315857000183,525.4315857000183,525.4315857000183,527.2965752000455,527.2965752000455,527.2965752000455,527.2965752000455,527.2965752000455,527.2965752000455,527.2965752000455,37,52,55,77,77,70,527.2965752000455,528.830932599958,,,,,,,,,,,,,,３０２,f,２２,2023-05-18_09h44.41.108,RL,2022.2.5,60.10652073347257,
47,57,35,86,0,88,88,88,,,,,,,,,,,None,528.830932599958,528.830932599958,528.830932599958,528.830932599958,528.830932599958,528.830932599958,j,0.38452600012533367,529.2487429000903,529.2487429000903,529.2487429000903,529.2487429000903,529.2487429000903,529.2487429000903,529.5478837001137,530.9474613000639,530.9474613000639,530.9474613000639,530.9474613000639,530.9474613000639,530.9474613000639,530.9474613000639,530.9474613000639,530.9474613000639,530.9474613000639,530.9474613000639,530.9474613000639,530.9474613000639,530.9474613000639,532.6454213999677,532.6454213999677,532.6454213999677,532.6454213999677,532.6454213999677,532.6454213999677,532.6454213999677,35,57,47,86,86,70,532.6454213999677,534.5798921000678,,,,,,,,,,,,,,３０２,f,２２,2023-05-18_09h44.41.108,RL,2022.2.5,60.10652073347257,
48,52,28,83,0,89,89,89,,,,,,,,,,,None,534.5798921000678,534.5798921000678,534.5798921000678,534.5798921000678,534.5798921000678,534.5798921000678,j,0.35184370004571974,534.9672942000907,534.9672942000907,534.9672942000907,534.9672942000907,534.9672942000907,534.9672942000907,535.2632997999899,537.1125481999479,537.1125481999479,537.1125481999479,537.1125481999479,537.1125481999479,537.1125481999479,537.1125481999479,537.1125481999479,537.1125481999479,537.1125481999479,537.1125481999479,537.1125481999479,537.1125481999479,537.1125481999479,539.2606595000252,539.2606595000252,539.2606595000252,539.2606595000252,539.2606595000252,539.2606595000252,539.2606595000252,28,52,48,83,83,70,539.2606595000252,540.8452213001437,,,,,,,,,,,,,,３０２,f,２２,2023-05-18_09h44.41.108,RL,2022.2.5,60.10652073347257,
51,45,31,79,0,90,90,90,,,,,,,,,,,None,540.8452213001437,540.8452213001437,540.8452213001437,540.8452213001437,540.8452213001437,540.8452213001437,j,0.28936850000172853,541.1633864000905,541.1633864000905,541.1633864000905,541.1633864000905,541.1633864000905,541.1633864000905,541.4620312000625,543.3950102000963,543.3950102000963,543.3950102000963,543.3950102000963,543.3950102000963,543.3950102000963,543.3950102000963,543.3950102000963,543.3950102000963,543.3950102000963,543.3950102000963,543.3950102000963,543.3950102000963,543.3950102000963,545.6263274999801,545.6263274999801,545.6263274999801,545.6263274999801,545.6263274999801,545.6263274999801,545.6263274999801,31,45,51,79,79,70,545.6263274999801,547.6105343000963,,,,,,,,,,,,,,３０２,f,２２,2023-05-18_09h44.41.108,RL,2022.2.5,60.10652073347257,
51,41,37,77,0,91,91,91,,,,,,,,,,,None,547.6105343000963,547.6105343000963,547.6105343000963,547.6105343000963,547.6105343000963,547.6105343000963,j,0.28586309985257685,547.9278186000884,547.9278186000884,547.9278186000884,547.9278186000884,547.9278186000884,547.9278186000884,548.2110377999488,549.177257400006,549.1939688001294,549.1939688001294,549.1939688001294,549.1939688001294,549.1939688001294,549.1939688001294,549.1939688001294,549.1939688001294,549.1939688001294,549.1939688001294,549.1939688001294,549.1939688001294,549.1939688001294,550.4584464000072,550.4584464000072,550.4584464000072,550.4584464000072,550.4584464000072,550.4584464000072,550.4584464000072,37,41,51,77,77,70,550.4584464000072,552.2600998000707,,,,,,,,,,,,,,３０２,f,２２,2023-05-18_09h44.41.108,RL,2022.2.5,60.10652073347257,
44,45,39,87,0,92,92,92,,,,,,,,,,,None,552.2600998000707,552.2600998000707,552.2600998000707,552.2600998000707,552.2600998000707,552.2600998000707,j,0.36805439996533096,552.6657066000625,552.6657066000625,552.6657066000625,552.6657066000625,552.6657066000625,552.6657066000625,552.9433586001396,554.0268095000647,554.0600626000669,554.0600626000669,554.0600626000669,554.0600626000669,554.0600626000669,554.0600626000669,554.0600626000669,554.0600626000669,554.0600626000669,554.0600626000669,554.0600626000669,554.0600626000669,554.0600626000669,555.4411287999246,555.4411287999246,555.4411287999246,555.4411287999246,555.4411287999246,555.4411287999246,555.4411287999246,39,45,44,87,87,70,555.4411287999246,557.0589970999863,,,,,,,,,,,,,,３０２,f,２２,2023-05-18_09h44.41.108,RL,2022.2.5,60.10652073347257,
47,49,31,84,0,93,93,93,,,,,,,,,,,None,557.0589970999863,557.0589970999863,557.0589970999863,557.0589970999863,557.0589970999863,557.0589970999863,j,0.40102870017290115,557.4929007000756,557.4929007000756,557.4929007000756,557.4929007000756,557.4929007000756,557.4929007000756,557.7759835000616,558.7423177999444,558.7589221000671,558.7589221000671,558.7589221000671,558.7589221000671,558.7589221000671,558.7589221000671,558.7589221000671,558.7589221000671,558.7589221000671,558.7589221000671,558.7589221000671,558.7589221000671,558.7589221000671,560.0237845000811,560.0237845000811,560.0237845000811,560.0237845000811,560.0237845000811,560.0237845000811,560.0237845000811,31,49,47,84,84,70,560.0237845000811,561.8250659999903,,,,,,,,,,,,,,３０２,f,２２,2023-05-18_09h44.41.108,RL,2022.2.5,60.10652073347257,
57,55,33,71,0,94,94,94,,,,,,,,,,,None,561.8250659999903,561.8250659999903,561.8250659999903,561.8250659999903,561.8250659999903,561.8250659999903,j,0.39696949999779463,562.2430867000949,562.2430867000949,562.2430867000949,562.2430867000949,562.2430867000949,562.2430867000949,562.541513599921,563.4580312001053,563.4580312001053,563.4580312001053,563.4580312001053,563.4580312001053,563.4580312001053,563.4580312001053,563.4580312001053,563.4580312001053,563.4580312001053,563.4580312001053,563.4580312001053,563.4580312001053,563.4580312001053,564.6727634000126,564.6727634000126,564.6727634000126,564.6727634000126,564.6727634000126,564.6727634000126,564.6727634000126,33,55,57,71,71,70,564.6727634000126,566.373729800107,,,,,,,,,,,,,,３０２,f,２２,2023-05-18_09h44.41.108,RL,2022.2.5,60.10652073347257,
46,43,29,76,0,95,95,95,,,,,,,,,,,None,566.373729800107,566.373729800107,566.373729800107,566.373729800107,566.373729800107,566.373729800107,j,0.3375387000851333,566.7429136000574,566.7429136000574,566.7429136000574,566.7429136000574,566.7429136000574,566.7429136000574,567.0409423999954,568.0739086000249,568.0739086000249,568.0739086000249,568.0739086000249,568.0739086000249,568.0739086000249,568.0739086000249,568.0739086000249,568.0739086000249,568.0739086000249,568.0739086000249,568.0739086000249,568.0739086000249,568.0739086000249,569.4058427999262,569.4058427999262,569.4058427999262,569.4058427999262,569.4058427999262,569.4058427999262,569.4058427999262,29,43,46,76,76,70,569.4058427999262,571.0402397001162,,,,,,,,,,,,,,３０２,f,２２,2023-05-18_09h44.41.108,RL,2022.2.5,60.10652073347257,
38,46,25,74,0,96,96,96,,,,,,,,,,,None,571.0402397001162,571.0402397001162,571.0402397001162,571.0402397001162,571.0402397001162,571.0402397001162,j,0.27420889982022345,571.3405343000777,571.3405343000777,571.3405343000777,571.3405343000777,571.3405343000777,571.3405343000777,571.623455400113,573.1061966000125,573.1228750001173,573.1228750001173,573.1228750001173,573.1228750001173,573.1228750001173,573.1228750001173,573.1228750001173,573.1228750001173,573.1228750001173,573.1228750001173,573.1228750001173,573.1228750001173,573.1228750001173,574.9049651999958,574.9049651999958,574.9049651999958,574.9049651999958,574.9049651999958,574.9049651999958,574.9049651999958,25,46,38,74,74,70,574.9049651999958,576.572045299923,,,,,,,,,,,,,,３０２,f,２２,2023-05-18_09h44.41.108,RL,2022.2.5,60.10652073347257,
46,46,34,82,0,97,97,97,,,,,,,,,,,None,576.572045299923,576.572045299923,576.572045299923,576.572045299923,576.572045299923,576.572045299923,j,0.31998739996924996,576.9244874999858,576.9244874999858,576.9244874999858,576.9244874999858,576.9244874999858,576.9244874999858,577.2059999001212,578.2393179999199,578.2558401001152,578.2558401001152,578.2558401001152,578.2558401001152,578.2558401001152,578.2558401001152,578.2558401001152,578.2558401001152,578.2558401001152,578.2558401001152,578.2558401001152,578.2558401001152,578.2558401001152,579.5869674000423,579.5869674000423,579.5869674000423,579.5869674000423,579.5869674000423,579.5869674000423,579.5869674000423,34,46,46,82,82,70,579.5869674000423,581.3213261000346,,,,,,,,,,,,,,３０２,f,２２,2023-05-18_09h44.41.108,RL,2022.2.5,60.10652073347257,
49,61,29,68,0,98,98,98,,,,,,,,,,,None,581.3213261000346,581.3213261000346,581.3213261000346,581.3213261000346,581.3213261000346,581.3213261000346,j,0.2895478999707848,581.6386868001428,581.6386868001428,581.6386868001428,581.6386868001428,581.6386868001428,581.6386868001428,581.9215186000802,583.3379631000571,583.3546641999856,583.3546641999856,583.3546641999856,583.3546641999856,583.3546641999856,583.3546641999856,583.3546641999856,583.3546641999856,583.3546641999856,583.3546641999856,583.3546641999856,583.3546641999856,583.3546641999856,585.0690707999747,585.0690707999747,585.0690707999747,585.0690707999747,585.0690707999747,585.0690707999747,585.0690707999747,29,61,49,68,68,70,585.0690707999747,586.7371295001358,,,,,,,,,,,,,,３０２,f,２２,2023-05-18_09h44.41.108,RL,2022.2.5,60.10652073347257,
47,48,30,69,0,99,99,99,,,,,,,,,,,None,586.7371295001358,586.7371295001358,586.7371295001358,586.7371295001358,586.7371295001358,586.7371295001358,j,0.31155549990944564,587.0715857001487,587.0715857001487,587.0715857001487,587.0715857001487,587.0715857001487,587.0715857001487,587.353970099939,588.7703808001243,588.7868632001337,588.7868632001337,588.7868632001337,588.7868632001337,588.7868632001337,588.7868632001337,588.7868632001337,588.7868632001337,588.7868632001337,588.7868632001337,588.7868632001337,588.7868632001337,588.7868632001337,590.5017037999351,590.5017037999351,590.5017037999351,590.5017037999351,590.5017037999351,590.5017037999351,590.5017037999351,30,48,47,69,69,70,590.5017037999351,592.2358892001212,,,,,,,,,,,,,,３０２,f,２２,2023-05-18_09h44.41.108,RL,2022.2.5,60.10652073347257,
49,48,33,62,0,100,100,100,,,,,,,,,,,None,592.2358892001212,592.2358892001212,592.2358892001212,592.2358892001212,592.2358892001212,592.2358892001212,j,0.3542289000470191,592.6215266999789,592.6215266999789,592.6215266999789,592.6215266999789,592.6215266999789,592.6215266999789,592.9196715001017,594.8527146000415,594.8527146000415,594.8527146000415,594.8527146000415,594.8527146000415,594.8527146000415,594.8527146000415,594.8527146000415,594.8527146000415,594.8527146000415,594.8527146000415,594.8527146000415,594.8527146000415,594.8527146000415,597.0838699000888,597.0838699000888,597.0838699000888,597.0838699000888,597.0838699000888,597.0838699000888,597.0838699000888,33,48,49,62,62,70,597.0838699000888,598.7686491000932,,,,,,,,,,,,,,３０２,f,２２,2023-05-18_09h44.41.108,RL,2022.2.5,60.10652073347257,
46,51,24,63,0,101,101,101,,,,,,,,,,,None,598.7686491000932,598.7686491000932,598.7686491000932,598.7686491000932,598.7686491000932,598.7686491000932,j,0.3634915000293404,599.152153500123,599.152153500123,599.152153500123,599.152153500123,599.152153500123,599.152153500123,599.4355876999907,600.768263499951,600.78498700005,600.78498700005,600.78498700005,600.78498700005,600.78498700005,600.78498700005,600.78498700005,600.78498700005,600.78498700005,600.78498700005,600.78498700005,600.78498700005,600.78498700005,602.4166298001073,602.4166298001073,602.4166298001073,602.4166298001073,602.4166298001073,602.4166298001073,602.4166298001073,24,51,46,63,63,70,602.4166298001073,604.0176067999564,,,,,,,,,,,,,,３０２,f,２２,2023-05-18_09h44.41.108,RL,2022.2.5,60.10652073347257,
55,43,34,66,0,102,102,102,,,,,,,,,,,None,604.0176067999564,604.0176067999564,604.0176067999564,604.0176067999564,604.0176067999564,604.0176067999564,j,0.44241520017385483,604.4846763999667,604.4846763999667,604.4846763999667,604.4846763999667,604.4846763999667,604.4846763999667,604.7842763999943,606.4841569000855,606.4841569000855,606.4841569000855,606.4841569000855,606.4841569000855,606.4841569000855,606.4841569000855,606.4841569000855,606.4841569000855,606.4841569000855,606.4841569000855,606.4841569000855,606.4841569000855,606.4841569000855,608.4820979000069,608.4820979000069,608.4820979000069,608.4820979000069,608.4820979000069,608.4820979000069,608.4820979000069,34,43,55,66,66,70,608.4820979000069,610.2665790999308,,,,,,,,,,,,,,３０２,f,２２,2023-05-18_09h44.41.108,RL,2022.2.5,60.10652073347257,
52,41,26,55,0,103,103,103,,,,,,,,,,,None,610.2665790999308,610.2665790999308,610.2665790999308,610.2665790999308,610.2665790999308,610.2665790999308,j,0.38977320003323257,610.6834539000411,610.6834539000411,610.6834539000411,610.6834539000411,610.6834539000411,610.6834539000411,610.9665997999255,612.1328525000717,612.1498728999868,612.1498728999868,612.1498728999868,612.1498728999868,612.1498728999868,612.1498728999868,612.1498728999868,612.1498728999868,612.1498728999868,612.1498728999868,612.1498728999868,612.1498728999868,612.1498728999868,613.6143861000892,613.6143861000892,613.6143861000892,613.6143861000892,613.6143861000892,613.6143861000892,613.6143861000892,26,41,52,55,55,70,613.6143861000892,615.5485465999227,,,,,,,,,,,,,,３０２,f,２２,2023-05-18_09h44.41.108,RL,2022.2.5,60.10652073347257,
42,48,27,63,0,104,104,104,,,,,,,,,,,None,615.5485465999227,615.5485465999227,615.5485465999227,615.5485465999227,615.5485465999227,615.5485465999227,j,0.24316619988530874,615.8190087999683,615.8190087999683,615.8190087999683,615.8190087999683,615.8190087999683,615.8190087999683,616.0990655000787,617.0157660001423,617.0325281000696,617.0325281000696,617.0325281000696,617.0325281000696,617.0325281000696,617.0325281000696,617.0325281000696,617.0325281000696,617.0325281000696,617.0325281000696,617.0325281000696,617.0325281000696,617.0325281000696,618.2466235000174,618.2466235000174,618.2466235000174,618.2466235000174,618.2466235000174,618.2466235000174,618.2466235000174,27,48,42,63,63,70,618.2466235000174,619.981147600105,,,,,,,,,,,,,,３０２,f,２２,2023-05-18_09h44.41.108,RL,2022.2.5,60.10652073347257,
50,56,32,63,0,105,105,105,,,,,,,,,,,None,619.981147600105,619.981147600105,619.981147600105,619.981147600105,619.981147600105,619.981147600105,j,0.26278530014678836,620.265186100034,620.265186100034,620.265186100034,620.265186100034,620.265186100034,620.265186100034,620.5486878000665,622.3145344001241,622.3311650000978,622.3311650000978,622.3311650000978,622.3311650000978,622.3311650000978,622.3311650000978,622.3311650000978,622.3311650000978,622.3311650000978,622.3311650000978,622.3311650000978,622.3311650000978,622.3311650000978,624.396113499999,624.396113499999,624.396113499999,624.396113499999,624.396113499999,624.396113499999,624.396113499999,32,56,50,63,63,70,624.396113499999,626.0303299999796,,,,,,,,,,,,,,３０２,f,２２,2023-05-18_09h44.41.108,RL,2022.2.5,60.10652073347257,
46,57,32,66,0,106,106,106,,,,,,,,,,,None,626.0303299999796,626.0303299999796,626.0303299999796,626.0303299999796,626.0303299999796,626.0303299999796,j,0.26067329989746213,626.315516400151,626.315516400151,626.315516400151,626.315516400151,626.315516400151,626.315516400151,626.61365319998,628.5467650000937,628.5467650000937,628.5467650000937,628.5467650000937,628.5467650000937,628.5467650000937,628.5467650000937,628.5467650000937,628.5467650000937,628.5467650000937,628.5467650000937,628.5467650000937,628.5467650000937,628.5467650000937,630.7781503000297,630.7781503000297,630.7781503000297,630.7781503000297,630.7781503000297,630.7781503000297,630.7781503000297,32,57,46,66,66,70,630.7781503000297,632.6292487001047,,,,,,,,,,,,,,３０２,f,２２,2023-05-18_09h44.41.108,RL,2022.2.5,60.10652073347257,
48,52,27,56,0,107,107,107,,,,,,,,,,,None,632.6292487001047,632.6292487001047,632.6292487001047,632.6292487001047,632.6292487001047,632.6292487001047,j,0.31021000002510846,632.9629164000507,632.9629164000507,632.9629164000507,632.9629164000507,632.9629164000507,632.9629164000507,633.2461360001471,634.4458276000805,634.4625810999423,634.4625810999423,634.4625810999423,634.4625810999423,634.4625810999423,634.4625810999423,634.4625810999423,634.4625810999423,634.4625810999423,634.4625810999423,634.4625810999423,634.4625810999423,634.4625810999423,635.9604247999378,635.9604247999378,635.9604247999378,635.9604247999378,635.9604247999378,635.9604247999378,635.9604247999378,27,52,48,56,56,70,635.9604247999378,637.878057199996,,,,,,,,,,,,,,３０２,f,２２,2023-05-18_09h44.41.108,RL,2022.2.5,60.10652073347257,
40,54,21,62,0,108,108,108,,,,,,,,,,,None,637.878057199996,637.878057199996,637.878057199996,637.878057199996,637.878057199996,637.878057199996,j,0.2812258000485599,638.1816650999244,638.1816650999244,638.1816650999244,638.1816650999244,638.1816650999244,638.1816650999244,638.4618812999688,639.4117602999322,639.4450199999847,639.4450199999847,639.4450199999847,639.4450199999847,639.4450199999847,639.4450199999847,639.4450199999847,639.4450199999847,639.4450199999847,639.4450199999847,639.4450199999847,639.4450199999847,639.4450199999847,640.6931646999437,640.6931646999437,640.6931646999437,640.6931646999437,640.6931646999437,640.6931646999437,640.6931646999437,21,54,40,62,62,70,640.6931646999437,642.3273579999804,,,,,,,,,,,,,,３０２,f,２２,2023-05-18_09h44.41.108,RL,2022.2.5,60.10652073347257,
41,54,27,64,0,109,109,109,,,,,,,,,,,None,642.3273579999804,642.3273579999804,642.3273579999804,642.3273579999804,642.3273579999804,642.3273579999804,j,0.26446239999495447,642.6121823000722,642.6121823000722,642.6121823000722,642.6121823000722,642.6121823000722,642.6121823000722,642.9110624999739,644.3106545000337,644.3106545000337,644.3106545000337,644.3106545000337,644.3106545000337,644.3106545000337,644.3106545000337,644.3106545000337,644.3106545000337,644.3106545000337,644.3106545000337,644.3106545000337,644.3106545000337,644.3106545000337,646.0086940000765,646.0086940000765,646.0086940000765,646.0086940000765,646.0086940000765,646.0086940000765,646.0086940000765,27,54,41,64,64,70,646.0086940000765,647.6763985001016,,,,,,,,,,,,,,３０２,f,２２,2023-05-18_09h44.41.108,RL,2022.2.5,60.10652073347257,
34,56,30,52,0,110,110,110,,,,,,,,,,,None,647.6763985001016,647.6763985001016,647.6763985001016,647.6763985001016,647.6763985001016,647.6763985001016,i,0.32854890008457005,648.0293570000213,648.0293570000213,648.0293570000213,648.0293570000213,648.0293570000213,648.0293570000213,648.3269339001272,649.8765211999416,649.8765211999416,649.8765211999416,649.8765211999416,649.8765211999416,649.8765211999416,649.8765211999416,649.8765211999416,649.8765211999416,649.8765211999416,649.8765211999416,649.8765211999416,649.8765211999416,649.8765211999416,651.7248553999234,651.7248553999234,651.7248553999234,651.7248553999234,651.7248553999234,651.7248553999234,651.7248553999234,30,56,34,52,34,70,651.7248553999234,653.6256480999291,,,,,,,,,,,,,,３０２,f,２２,2023-05-18_09h44.41.108,RL,2022.2.5,60.10652073347257,
41,55,26,50,0,111,111,111,,,,,,,,,,,None,653.6256480999291,653.6256480999291,653.6256480999291,653.6256480999291,653.6256480999291,653.6256480999291,f,0.3052144998218864,653.9606125000864,653.9606125000864,653.9606125000864,653.9606125000864,653.9606125000864,653.9606125000864,654.2590614000801,655.6758427000605,655.6758427000605,655.6758427000605,655.6758427000605,655.6758427000605,655.6758427000605,655.6758427000605,655.6758427000605,655.6758427000605,655.6758427000605,655.6758427000605,655.6758427000605,655.6758427000605,655.6758427000605,657.3905923001003,657.3905923001003,657.3905923001003,657.3905923001003,657.3905923001003,657.3905923001003,657.3905923001003,26,55,41,50,26,70,657.3905923001003,659.241088300012,,,,,,,,,,,,,,３０２,f,２２,2023-05-18_09h44.41.108,RL,2022.2.5,60.10652073347257,
41,48,25,53,0,112,112,112,,,,,,,,,,,None,659.241088300012,659.241088300012,659.241088300012,659.241088300012,659.241088300012,659.241088300012,r,0.3068772000260651,659.5762263000943,659.5762263000943,659.5762263000943,659.5762263000943,659.5762263000943,659.5762263000943,659.8585771000944,661.2414347000886,661.2579632999841,661.2579632999841,661.2579632999841,661.2579632999841,661.2579632999841,661.2579632999841,661.2579632999841,661.2579632999841,661.2579632999841,661.2579632999841,661.2579632999841,661.2579632999841,661.2579632999841,662.9393442999572,662.9393442999572,662.9393442999572,662.9393442999572,662.9393442999572,662.9393442999572,662.9393442999572,25,48,41,53,48,70,662.9393442999572,664.5903640000615,,,,,,,,,,,,,,３０２,f,２２,2023-05-18_09h44.41.108,RL,2022.2.5,60.10652073347257,
36,53,21,51,0,113,113,113,,,,,,,,,,,None,664.5903640000615,664.5903640000615,664.5903640000615,664.5903640000615,664.5903640000615,664.5903640000615,j,0.273269500117749,664.8924688999541,664.8924688999541,664.8924688999541,664.8924688999541,664.8924688999541,664.8924688999541,665.1906985000242,666.2237847999204,666.2237847999204,666.2237847999204,666.2237847999204,666.2237847999204,666.2237847999204,666.2237847999204,666.2237847999204,666.2237847999204,666.2237847999204,666.2237847999204,666.2237847999204,666.2237847999204,666.2237847999204,667.5557232000865,667.5557232000865,667.5557232000865,667.5557232000865,667.5557232000865,667.5557232000865,667.5557232000865,21,53,36,51,51,70,667.5557232000865,669.0894164999481,,,,,,,,,,,,,,３０２,f,２２,2023-05-18_09h44.41.108,RL,2022.2.5,60.10652073347257,
38,48,27,39,0,114,114,114,,,,,,,,,,,None,669.0894164999481,669.0894164999481,669.0894164999481,669.0894164999481,669.0894164999481,669.0894164999481,j,0.3029498001560569,669.4295312999748,669.4295312999748,669.4295312999748,669.4295312999748,669.4295312999748,669.4295312999748,669.7064724001102,671.1395397000015,671.1559353999328,671.1559353999328,671.1559353999328,671.1559353999328,671.1559353999328,671.1559353999328,671.1559353999328,671.1559353999328,671.1559353999328,671.1559353999328,671.1559353999328,671.1559353999328,671.1559353999328,672.8871341000777,672.8871341000777,672.8871341000777,672.8871341000777,672.8871341000777,672.8871341000777,672.8871341000777,27,48,38,39,39,70,672.8871341000777,674.5052704000846,,,,,,,,,,,,,,３０２,f,２２,2023-05-18_09h44.41.108,RL,2022.2.5,60.10652073347257,
35,46,20,41,0,115,115,115,,,,,,,,,,,None,674.5052704000846,674.5052704000846,674.5052704000846,674.5052704000846,674.5052704000846,674.5052704000846,j,0.398851300124079,674.9221608000807,674.9221608000807,674.9221608000807,674.9221608000807,674.9221608000807,674.9221608000807,675.2057215999812,676.4055832999293,676.4218474000227,676.4218474000227,676.4218474000227,676.4218474000227,676.4218474000227,676.4218474000227,676.4218474000227,676.4218474000227,676.4218474000227,676.4218474000227,676.4218474000227,676.4218474000227,676.4218474000227,677.9197629999835,677.9197629999835,677.9197629999835,677.9197629999835,677.9197629999835,677.9197629999835,677.9197629999835,20,46,35,41,41,70,677.9197629999835,679.7545535999816,,,,,,,,,,,,,,３０２,f,２２,2023-05-18_09h44.41.108,RL,2022.2.5,60.10652073347257,
30,51,31,50,0,116,116,116,,,,,,,,,,,None,679.7545535999816,679.7545535999816,679.7545535999816,679.7545535999816,679.7545535999816,679.7545535999816,r,0.2799708000384271,680.0559125000145,680.0559125000145,680.0559125000145,680.0559125000145,680.0559125000145,680.0559125000145,680.3380172001198,681.8543040000368,681.870768400142,681.870768400142,681.870768400142,681.870768400142,681.870768400142,681.870768400142,681.870768400142,681.870768400142,681.870768400142,681.870768400142,681.870768400142,681.870768400142,681.870768400142,683.6858473999891,683.6858473999891,683.6858473999891,683.6858473999891,683.6858473999891,683.6858473999891,683.6858473999891,31,51,30,50,51,70,683.6858473999891,685.5868792999536,,,,,,,,,,,,,,３０２,f,２２,2023-05-18_09h44.41.108,RL,2022.2.5,60.10652073347257,
34,60,36,43,0,117,117,117,,,,,,,,,,,None,685.5868792999536,685.5868792999536,685.5868792999536,685.5868792999536,685.5868792999536,685.5868792999536,j,0.3397327000275254,685.9543107999489,685.9543107999489,685.9543107999489,685.9543107999489,685.9543107999489,685.9543107999489,686.253645000048,687.4032022000756,687.4032022000756,687.4032022000756,687.4032022000756,687.4032022000756,687.4032022000756,687.4032022000756,687.4032022000756,687.4032022000756,687.4032022000756,687.4032022000756,687.4032022000756,687.4032022000756,687.4032022000756,688.8512115001213,688.8512115001213,688.8512115001213,688.8512115001213,688.8512115001213,688.8512115001213,688.8512115001213,36,60,34,43,43,70,688.8512115001213,690.785797999939,,,,,,,,,,,,,,３０２,f,２２,2023-05-18_09h44.41.108,RL,2022.2.5,60.10652073347257,
45,52,32,48,0,118,118,118,,,,,,,,,,,None,690.785797999939,690.785797999939,690.785797999939,690.785797999939,690.785797999939,690.785797999939,r,0.27853269991464913,691.0869559999555,691.0869559999555,691.0869559999555,691.0869559999555,691.0869559999555,691.0869559999555,691.3857670000289,693.26875129994,693.26875129994,693.26875129994,693.26875129994,693.26875129994,693.26875129994,693.26875129994,693.26875129994,693.26875129994,693.26875129994,693.26875129994,693.26875129994,693.26875129994,693.26875129994,695.450134600047,695.450134600047,695.450134600047,695.450134600047,695.450134600047,695.450134600047,695.450134600047,32,52,45,48,52,70,695.450134600047,697.0011510001495,,,,,,,,,,,,,,３０２,f,２２,2023-05-18_09h44.41.108,RL,2022.2.5,60.10652073347257,
35,59,27,50,0,119,119,119,,,,,,,,,,,None,697.0011510001495,697.0011510001495,697.0011510001495,697.0011510001495,697.0011510001495,697.0011510001495,r,0.33658139989711344,697.3706187000498,697.3706187000498,697.3706187000498,697.3706187000498,697.3706187000498,697.3706187000498,697.6514525001403,698.4849155999254,698.5013377999421,698.5013377999421,698.5013377999421,698.5013377999421,698.5013377999421,698.5013377999421,698.5013377999421,698.5013377999421,698.5013377999421,698.5013377999421,698.5013377999421,698.5013377999421,698.5013377999421,699.6325958999805,699.6325958999805,699.6325958999805,699.6325958999805,699.6325958999805,699.6325958999805,699.6325958999805,27,59,35,50,59,70,699.6325958999805,701.1839267001487,,,,,,,,,,,,,,３０２,f,２２,2023-05-18_09h44.41.108,RL,2022.2.5,60.10652073347257,
36,68,28,36,0,120,120,120,,,,,,,,,,,None,701.1839267001487,701.1839267001487,701.1839267001487,701.1839267001487,701.1839267001487,701.1839267001487,r,0.329129199963063,701.5356153999455,701.5356153999455,701.5356153999455,701.5356153999455,701.5356153999455,701.5356153999455,701.8343347001355,702.8504890000913,702.8504890000913,702.8504890000913,702.8504890000913,702.8504890000913,702.8504890000913,702.8504890000913,702.8504890000913,702.8504890000913,702.8504890000913,702.8504890000913,702.8504890000913,702.8504890000913,702.8504890000913,704.1666250999551,704.1666250999551,704.1666250999551,704.1666250999551,704.1666250999551,704.1666250999551,704.1666250999551,28,68,36,36,68,70,704.1666250999551,706.1328392000869,,,,,,,,,,,,,,３０２,f,２２,2023-05-18_09h44.41.108,RL,2022.2.5,60.10652073347257,
