arm1,arm2,arm3,arm4,trials.thisRepN,trials.thisTrialN,trials.thisN,trials.thisIndex,instru_img1.started,instru_resp.started,instru_resp.keys,instru_resp.rt,image_2.started,text_2.started,fixbefore_2.started,rest_response.keys,red.started,green.started,yellow.started,blue.started,choose_bandit.started,Fixation.started,choose_bandit.keys,choose_bandit.rt,black.started,red_2.started,green_2.started,yellow_2.started,blue_2.started,fixation_2.started,docs.started,docs.stopped,black.stopped,red_2.stopped,green_2.stopped,yellow_2.stopped,blue_2.stopped,fixation_2.stopped,black_com.started,reward_sub.started,reward__sub.started,red_compare.started,green_com.started,yellow_com.started,blue_com.started,black_com.stopped,reward_sub.stopped,reward__sub.stopped,red_compare.stopped,green_com.stopped,yellow_com.stopped,blue_com.stopped,rewardred,rewardyellow,rewardblue,rewardgreen,subchoose,expectation,intertrialfix.started,intertrialfix.stopped,red.stopped,green.stopped,yellow.stopped,blue.stopped,choose_bandit.stopped,Fixation.stopped,bigx.started,bigx.stopped,rest_image.started,rest_response.started,rest_response.rt,image_expect_after.started,text_exp_after.started,image_expect_after.stopped,text_exp_after.stopped,image.started,key_resp.started,key_resp.keys,key_resp.rt,participant,Gender,Age,date,expName,psychopyVersion,frameRate,
,,,,,,,,20.823410799959674,20.823410799959674,space,3.3415036001242697,,,,,,,,,,,,,,,,,,,,,,,,,,,,,,,,,,,,,,,,,,,,,,,,,,,,,,,,,,,,,,,,,,,,３０３,f,２５,2023-05-18_10h13.42.050,RL,2022.2.5,59.82099166643925,
23,49,57,49,0,0,0,0,,,,,24.198592100059614,24.198592100059614,29.208698899950832,None,30.210993899963796,30.210993899963796,30.210993899963796,30.210993899963796,30.210993899963796,30.210993899963796,r,0.9934480998199433,31.234150199918076,31.234150199918076,31.234150199918076,31.234150199918076,31.234150199918076,31.234150199918076,31.5076649999246,33.22926439996809,33.26619719993323,33.26619719993323,33.26619719993323,33.26619719993323,33.26619719993323,33.26619719993323,33.26619719993323,33.26619719993323,33.26619719993323,33.26619719993323,33.26619719993323,33.26619719993323,33.26619719993323,35.32933990005404,35.32933990005404,35.32933990005404,35.32933990005404,35.32933990005404,35.32933990005404,35.32933990005404,49,57,23,49,57,60,35.32933990005404,37.058402499882504,,,,,,,,,,,,,,,,,,,,３０３,f,２５,2023-05-18_10h13.42.050,RL,2022.2.5,59.82099166643925,
31,50,52,58,0,1,1,1,,,,,,,,None,37.058402499882504,37.058402499882504,37.058402499882504,37.058402499882504,37.058402499882504,37.058402499882504,f,0.37679010001011193,37.45871339994483,37.45871339994483,37.45871339994483,37.45871339994483,37.45871339994483,37.45871339994483,37.74246279988438,38.675210600020364,38.691639999859035,38.691639999859035,38.691639999859035,38.691639999859035,38.691639999859035,38.691639999859035,38.691639999859035,38.691639999859035,38.691639999859035,38.691639999859035,38.691639999859035,38.691639999859035,38.691639999859035,39.92345339991152,39.92345339991152,39.92345339991152,39.92345339991152,39.92345339991152,39.92345339991152,39.92345339991152,58,52,31,50,58,60,39.92345339991152,41.6078035000246,,,,,,,,,,,,,,,,,,,,３０３,f,２５,2023-05-18_10h13.42.050,RL,2022.2.5,59.82099166643925,
33,47,49,48,0,2,2,2,,,,,,,,None,41.6078035000246,41.6078035000246,41.6078035000246,41.6078035000246,41.6078035000246,41.6078035000246,i,0.5578577001579106,42.19149130000733,42.19149130000733,42.19149130000733,42.19149130000733,42.19149130000733,42.19149130000733,42.49182190001011,44.19051970005967,44.19051970005967,44.19051970005967,44.19051970005967,44.19051970005967,44.19051970005967,44.19051970005967,44.19051970005967,44.19051970005967,44.19051970005967,44.19051970005967,44.19051970005967,44.19051970005967,44.19051970005967,46.17216489999555,46.17216489999555,46.17216489999555,46.17216489999555,46.17216489999555,46.17216489999555,46.17216489999555,48,49,33,47,33,60,46.17216489999555,48.05699309986085,,,,,,,,,,,,,,,,,,,,３０３,f,２５,2023-05-18_10h13.42.050,RL,2022.2.5,59.82099166643925,
22,52,57,50,0,3,3,3,,,,,,,,None,48.05699309986085,48.05699309986085,48.05699309986085,48.05699309986085,48.05699309986085,48.05699309986085,r,0.46257660002447665,48.54192589991726,48.54192589991726,48.54192589991726,48.54192589991726,48.54192589991726,48.54192589991726,48.84009179985151,50.00630709994584,50.00630709994584,50.00630709994584,50.00630709994584,50.00630709994584,50.00630709994584,50.00630709994584,50.00630709994584,50.00630709994584,50.00630709994584,50.00630709994584,50.00630709994584,50.00630709994584,50.00630709994584,51.471552500035614,51.471552500035614,51.471552500035614,51.471552500035614,51.471552500035614,51.471552500035614,51.471552500035614,50,57,22,52,57,60,51.471552500035614,53.45554149989039,,,,,,,,,,,,,,,,,,,,３０３,f,２５,2023-05-18_10h13.42.050,RL,2022.2.5,59.82099166643925,
27,52,60,61,0,4,4,4,,,,,,,,None,53.45554149989039,53.45554149989039,53.45554149989039,53.45554149989039,53.45554149989039,53.45554149989039,j,0.2701952999923378,53.75772559992038,53.75772559992038,53.75772559992038,53.75772559992038,53.75772559992038,53.75772559992038,54.03993199998513,55.95556529983878,55.97184200002812,55.97184200002812,55.97184200002812,55.97184200002812,55.97184200002812,55.97184200002812,55.97184200002812,55.97184200002812,55.97184200002812,55.97184200002812,55.97184200002812,55.97184200002812,55.97184200002812,58.187025599880144,58.187025599880144,58.187025599880144,58.187025599880144,58.187025599880144,58.187025599880144,58.187025599880144,61,60,27,52,52,60,58.187025599880144,59.921574800042436,,,,,,,,,,,,,,,,,,,,３０３,f,２５,2023-05-18_10h13.42.050,RL,2022.2.5,59.82099166643925,
30,53,66,55,0,5,5,5,,,,,,,,None,59.921574800042436,59.921574800042436,59.921574800042436,59.921574800042436,59.921574800042436,59.921574800042436,f,0.6920121998991817,60.638309800066054,60.638309800066054,60.638309800066054,60.638309800066054,60.638309800066054,60.638309800066054,60.92191189993173,61.85452449996956,61.871074100025,61.871074100025,61.871074100025,61.871074100025,61.871074100025,61.871074100025,61.871074100025,61.871074100025,61.871074100025,61.871074100025,61.871074100025,61.871074100025,61.871074100025,63.10301829990931,63.10301829990931,63.10301829990931,63.10301829990931,63.10301829990931,63.10301829990931,63.10301829990931,55,66,30,53,55,60,63.10301829990931,64.62050469988026,,,,,,,,,,,,,,,,,,,,３０３,f,２５,2023-05-18_10h13.42.050,RL,2022.2.5,59.82099166643925,
32,55,63,55,0,6,6,6,,,,,,,,None,64.62050469988026,64.62050469988026,64.62050469988026,64.62050469988026,64.62050469988026,64.62050469988026,r,0.5489040999673307,65.19193009985611,65.19193009985611,65.19193009985611,65.19193009985611,65.19193009985611,65.19193009985611,65.48718010005541,66.88659040001221,66.88659040001221,66.88659040001221,66.88659040001221,66.88659040001221,66.88659040001221,66.88659040001221,66.88659040001221,66.88659040001221,66.88659040001221,66.88659040001221,66.88659040001221,66.88659040001221,66.88659040001221,68.58542130002752,68.58542130002752,68.58542130002752,68.58542130002752,68.58542130002752,68.58542130002752,68.58542130002752,55,63,32,55,63,60,68.58542130002752,70.10321950004436,,,,,,,,,,,,,,,,,,,,３０３,f,２５,2023-05-18_10h13.42.050,RL,2022.2.5,59.82099166643925,
31,42,76,54,0,7,7,7,,,,,,,,None,70.10321950004436,70.10321950004436,70.10321950004436,70.10321950004436,70.10321950004436,70.10321950004436,i,0.6345059999730438,70.77109519997612,70.77109519997612,70.77109519997612,70.77109519997612,70.77109519997612,70.77109519997612,71.0532020998653,73.0190415000543,73.03571229986846,73.03571229986846,73.03571229986846,73.03571229986846,73.03571229986846,73.03571229986846,73.03571229986846,73.03571229986846,73.03571229986846,73.03571229986846,73.03571229986846,73.03571229986846,73.03571229986846,75.30090789985843,75.30090789985843,75.30090789985843,75.30090789985843,75.30090789985843,75.30090789985843,75.30090789985843,54,76,31,42,31,60,75.30090789985843,76.93509449996054,,,,,,,,,,,,,,,,,,,,３０３,f,２５,2023-05-18_10h13.42.050,RL,2022.2.5,59.82099166643925,
30,60,69,63,0,8,8,8,,,,,,,,None,76.93509449996054,76.93509449996054,76.93509449996054,76.93509449996054,76.93509449996054,76.93509449996054,r,0.9342471999116242,77.90850789984688,77.90850789984688,77.90850789984688,77.90850789984688,77.90850789984688,77.90850789984688,78.18550130003132,79.11835110001266,79.13462699996307,79.13462699996307,79.13462699996307,79.13462699996307,79.13462699996307,79.13462699996307,79.13462699996307,79.13462699996307,79.13462699996307,79.13462699996307,79.13462699996307,79.13462699996307,79.13462699996307,80.36669220007025,80.36669220007025,80.36669220007025,80.36669220007025,80.36669220007025,80.36669220007025,80.36669220007025,63,69,30,60,69,60,80.36669220007025,82.36760189989582,,,,,,,,,,,,,,,,,,,,３０３,f,２５,2023-05-18_10h13.42.050,RL,2022.2.5,59.82099166643925,
31,53,68,55,0,9,9,9,,,,,,,,None,82.36760189989582,82.36760189989582,82.36760189989582,82.36760189989582,82.36760189989582,82.36760189989582,r,0.47021980001591146,82.8726095999591,82.8726095999591,82.8726095999591,82.8726095999591,82.8726095999591,82.8726095999591,83.15140370000154,84.41734379995614,84.43402289994992,84.43402289994992,84.43402289994992,84.43402289994992,84.43402289994992,84.43402289994992,84.43402289994992,84.43402289994992,84.43402289994992,84.43402289994992,84.43402289994992,84.43402289994992,84.43402289994992,85.99909120006487,85.99909120006487,85.99909120006487,85.99909120006487,85.99909120006487,85.99909120006487,85.99909120006487,55,68,31,53,68,60,85.99909120006487,87.71679149987176,,,,,,,,,,,,,,,,,,,,３０３,f,２５,2023-05-18_10h13.42.050,RL,2022.2.5,59.82099166643925,
39,56,63,53,0,10,10,10,,,,,,,,None,87.71679149987176,87.71679149987176,87.71679149987176,87.71679149987176,87.71679149987176,87.71679149987176,f,1.392250700155273,89.13381999987178,89.13381999987178,89.13381999987178,89.13381999987178,89.13381999987178,89.13381999987178,89.43297439999878,91.3664764999412,91.3664764999412,91.3664764999412,91.3664764999412,91.3664764999412,91.3664764999412,91.3664764999412,91.3664764999412,91.3664764999412,91.3664764999412,91.3664764999412,91.3664764999412,91.3664764999412,91.3664764999412,93.59786810004152,93.59786810004152,93.59786810004152,93.59786810004152,93.59786810004152,93.59786810004152,93.59786810004152,53,63,39,56,53,60,93.59786810004152,95.4816572999116,,,,,,,,,,,,,,,,,,,,３０３,f,２５,2023-05-18_10h13.42.050,RL,2022.2.5,59.82099166643925,
33,62,66,49,0,11,11,11,,,,,,,,None,95.4816572999116,95.4816572999116,95.4816572999116,95.4816572999116,95.4816572999116,95.4816572999116,i,1.2356357001699507,96.75265819998458,96.75265819998458,96.75265819998458,96.75265819998458,96.75265819998458,96.75265819998458,97.03210729989223,98.94813230005093,98.96477860002778,98.96477860002778,98.96477860002778,98.96477860002778,98.96477860002778,98.96477860002778,98.96477860002778,98.96477860002778,98.96477860002778,98.96477860002778,98.96477860002778,98.96477860002778,98.96477860002778,101.17979940003715,101.17979940003715,101.17979940003715,101.17979940003715,101.17979940003715,101.17979940003715,101.17979940003715,49,66,33,62,33,60,101.17979940003715,102.91363259986974,,,,,,,,,,,,,,,,,,,,３０３,f,２５,2023-05-18_10h13.42.050,RL,2022.2.5,59.82099166643925,
35,55,65,55,0,12,12,12,,,,,,,,None,102.91363259986974,102.91363259986974,102.91363259986974,102.91363259986974,102.91363259986974,102.91363259986974,j,0.3741266999859363,103.31481519993395,103.31481519993395,103.31481519993395,103.31481519993395,103.31481519993395,103.31481519993395,103.59740229998715,104.46370709990151,104.48027719999664,104.48027719999664,104.48027719999664,104.48027719999664,104.48027719999664,104.48027719999664,104.48027719999664,104.48027719999664,104.48027719999664,104.48027719999664,104.48027719999664,104.48027719999664,104.48027719999664,105.64537260006182,105.64537260006182,105.64537260006182,105.64537260006182,105.64537260006182,105.64537260006182,105.64537260006182,55,65,35,55,55,60,105.64537260006182,107.59605679986998,,,,,,,,,,,,,,,,,,,,３０３,f,２５,2023-05-18_10h13.42.050,RL,2022.2.5,59.82099166643925,
39,53,66,53,0,13,13,13,,,,,,,,None,107.59605679986998,107.59605679986998,107.59605679986998,107.59605679986998,107.59605679986998,107.59605679986998,r,0.40077389986254275,108.03469130001031,108.03469130001031,108.03469130001031,108.03469130001031,108.03469130001031,108.03469130001031,108.31365639995784,109.2962181000039,109.32949759997427,109.32949759997427,109.32949759997427,109.32949759997427,109.32949759997427,109.32949759997427,109.32949759997427,109.32949759997427,109.32949759997427,109.32949759997427,109.32949759997427,109.32949759997427,109.32949759997427,110.6107911998406,110.6107911998406,110.6107911998406,110.6107911998406,110.6107911998406,110.6107911998406,110.6107911998406,53,66,39,53,66,60,110.6107911998406,112.22881220001727,,,,,,,,,,,,,,,,,,,,３０３,f,２５,2023-05-18_10h13.42.050,RL,2022.2.5,59.82099166643925,
46,52,77,53,0,14,14,14,,,,,,,,None,112.22881220001727,112.22881220001727,112.22881220001727,112.22881220001727,112.22881220001727,112.22881220001727,r,0.43879399984143674,112.69578789989464,112.69578789989464,112.69578789989464,112.69578789989464,112.69578789989464,112.69578789989464,112.97913950006478,114.31216449989006,114.32890659989789,114.32890659989789,114.32890659989789,114.32890659989789,114.32890659989789,114.32890659989789,114.32890659989789,114.32890659989789,114.32890659989789,114.32890659989789,114.32890659989789,114.32890659989789,114.32890659989789,115.95993539993651,115.95993539993651,115.95993539993651,115.95993539993651,115.95993539993651,115.95993539993651,115.95993539993651,53,77,46,52,77,60,115.95993539993651,117.91086090006866,,,,,,,,,,,,,,,,,,,,３０３,f,２５,2023-05-18_10h13.42.050,RL,2022.2.5,59.82099166643925,
45,58,75,54,0,15,15,15,,,,,,,,None,117.91086090006866,117.91086090006866,117.91086090006866,117.91086090006866,117.91086090006866,117.91086090006866,r,0.3530383000615984,118.30464580003172,118.30464580003172,118.30464580003172,118.30464580003172,118.30464580003172,118.30464580003172,118.57839779998176,120.19434619997628,120.22758969990537,120.22758969990537,120.22758969990537,120.22758969990537,120.22758969990537,120.22758969990537,120.22758969990537,120.22758969990537,120.22758969990537,120.22758969990537,120.22758969990537,120.22758969990537,120.22758969990537,122.14225429994985,122.14225429994985,122.14225429994985,122.14225429994985,122.14225429994985,122.14225429994985,122.14225429994985,54,75,45,58,75,60,122.14225429994985,123.84327529999427,,,,,,,,,,,,,,,,,,,,３０３,f,２５,2023-05-18_10h13.42.050,RL,2022.2.5,59.82099166643925,
43,52,71,57,0,16,16,16,,,,,,,,None,123.84327529999427,123.84327529999427,123.84327529999427,123.84327529999427,123.84327529999427,123.84327529999427,r,0.4241144999396056,124.2940078000538,124.2940078000538,124.2940078000538,124.2940078000538,124.2940078000538,124.2940078000538,124.57714800001122,125.51048920000903,125.52689279988408,125.52689279988408,125.52689279988408,125.52689279988408,125.52689279988408,125.52689279988408,125.52689279988408,125.52689279988408,125.52689279988408,125.52689279988408,125.52689279988408,125.52689279988408,125.52689279988408,126.75874249986373,126.75874249986373,126.75874249986373,126.75874249986373,126.75874249986373,126.75874249986373,126.75874249986373,57,71,43,52,71,60,126.75874249986373,128.5927033999469,,,,,,,,,,,,,,,,,,,,３０３,f,２５,2023-05-18_10h13.42.050,RL,2022.2.5,59.82099166643925,
41,61,68,57,0,17,17,17,,,,,,,,None,128.5927033999469,128.5927033999469,128.5927033999469,128.5927033999469,128.5927033999469,128.5927033999469,r,0.42617279989644885,129.04749679984525,129.04749679984525,129.04749679984525,129.04749679984525,129.04749679984525,129.04749679984525,129.34283760003746,130.52599180000834,130.52599180000834,130.52599180000834,130.52599180000834,130.52599180000834,130.52599180000834,130.52599180000834,130.52599180000834,130.52599180000834,130.52599180000834,130.52599180000834,130.52599180000834,130.52599180000834,130.52599180000834,132.00728869996965,132.00728869996965,132.00728869996965,132.00728869996965,132.00728869996965,132.00728869996965,132.00728869996965,57,68,41,61,68,60,132.00728869996965,133.60822180006653,,,,,,,,,,,,,,,,,,,,３０３,f,２５,2023-05-18_10h13.42.050,RL,2022.2.5,59.82099166643925,
43,59,70,57,0,18,18,18,,,,,,,,None,133.60822180006653,133.60822180006653,133.60822180006653,133.60822180006653,133.60822180006653,133.60822180006653,r,0.2978968999814242,133.9279821999371,133.9279821999371,133.9279821999371,133.9279821999371,133.9279821999371,133.9279821999371,134.22532349987887,135.07524599996395,135.07524599996395,135.07524599996395,135.07524599996395,135.07524599996395,135.07524599996395,135.07524599996395,135.07524599996395,135.07524599996395,135.07524599996395,135.07524599996395,135.07524599996395,135.07524599996395,135.07524599996395,136.22333809989505,136.22333809989505,136.22333809989505,136.22333809989505,136.22333809989505,136.22333809989505,136.22333809989505,57,70,43,59,70,60,136.22333809989505,137.75786100002006,,,,,,,,,,,,,,,,,,,,３０３,f,２５,2023-05-18_10h13.42.050,RL,2022.2.5,59.82099166643925,
47,57,71,63,0,19,19,19,,,,,,,,None,137.75786100002006,137.75786100002006,137.75786100002006,137.75786100002006,137.75786100002006,137.75786100002006,r,0.31964860018342733,138.1123399999924,138.1123399999924,138.1123399999924,138.1123399999924,138.1123399999924,138.1123399999924,138.39119250001386,139.4744962998666,139.49114810000174,139.49114810000174,139.49114810000174,139.49114810000174,139.49114810000174,139.49114810000174,139.49114810000174,139.49114810000174,139.49114810000174,139.49114810000174,139.49114810000174,139.49114810000174,139.49114810000174,140.8728761000093,140.8728761000093,140.8728761000093,140.8728761000093,140.8728761000093,140.8728761000093,140.8728761000093,63,71,47,57,71,60,140.8728761000093,142.85737029998563,,,,,,,,,,,,,,,,,,,,３０３,f,２５,2023-05-18_10h13.42.050,RL,2022.2.5,59.82099166643925,
45,65,73,53,0,20,20,20,,,,,,,,None,142.85737029998563,142.85737029998563,142.85737029998563,142.85737029998563,142.85737029998563,142.85737029998563,r,0.3208290000911802,143.20773689984344,143.20773689984344,143.20773689984344,143.20773689984344,143.20773689984344,143.20773689984344,143.50713209994137,144.45672550005838,144.45672550005838,144.45672550005838,144.45672550005838,144.45672550005838,144.45672550005838,144.45672550005838,144.45672550005838,144.45672550005838,144.45672550005838,144.45672550005838,144.45672550005838,144.45672550005838,144.45672550005838,145.68880410003476,145.68880410003476,145.68880410003476,145.68880410003476,145.68880410003476,145.68880410003476,145.68880410003476,53,73,45,65,73,60,145.68880410003476,147.2391484999098,,,,,,,,,,,,,,,,,,,,３０３,f,２５,2023-05-18_10h13.42.050,RL,2022.2.5,59.82099166643925,
43,59,68,57,0,21,21,21,,,,,,,,None,147.2391484999098,147.2391484999098,147.2391484999098,147.2391484999098,147.2391484999098,147.2391484999098,r,0.3608776999171823,147.62318359990604,147.62318359990604,147.62318359990604,147.62318359990604,147.62318359990604,147.62318359990604,147.90623069996946,149.57283620000817,149.58938420005143,149.58938420005143,149.58938420005143,149.58938420005143,149.58938420005143,149.58938420005143,149.58938420005143,149.58938420005143,149.58938420005143,149.58938420005143,149.58938420005143,149.58938420005143,149.58938420005143,151.55371319991536,151.55371319991536,151.55371319991536,151.55371319991536,151.55371319991536,151.55371319991536,151.55371319991536,57,68,43,59,68,60,151.55371319991536,153.55533270002343,,,,,,,,,,,,,,,,,,,,３０３,f,２５,2023-05-18_10h13.42.050,RL,2022.2.5,59.82099166643925,
48,62,69,56,0,22,22,22,,,,,,,,None,153.55533270002343,153.55533270002343,153.55533270002343,153.55533270002343,153.55533270002343,153.55533270002343,f,0.2962198001332581,153.87448009988293,153.87448009988293,153.87448009988293,153.87448009988293,153.87448009988293,153.87448009988293,154.17199909989722,155.70503790001385,155.70503790001385,155.70503790001385,155.70503790001385,155.70503790001385,155.70503790001385,155.70503790001385,155.70503790001385,155.70503790001385,155.70503790001385,155.70503790001385,155.70503790001385,155.70503790001385,155.70503790001385,157.53620179998688,157.53620179998688,157.53620179998688,157.53620179998688,157.53620179998688,157.53620179998688,157.53620179998688,56,69,48,62,56,60,157.53620179998688,159.47108429996297,,,,,,,,,,,,,,,,,,,,３０３,f,２５,2023-05-18_10h13.42.050,RL,2022.2.5,59.82099166643925,
40,66,69,64,0,23,23,23,,,,,,,,None,159.47108429996297,159.47108429996297,159.47108429996297,159.47108429996297,159.47108429996297,159.47108429996297,r,0.2885185999330133,159.79044359992258,159.79044359992258,159.79044359992258,159.79044359992258,159.79044359992258,159.79044359992258,160.08779040002264,161.93729000003077,161.93729000003077,161.93729000003077,161.93729000003077,161.93729000003077,161.93729000003077,161.93729000003077,161.93729000003077,161.93729000003077,161.93729000003077,161.93729000003077,161.93729000003077,161.93729000003077,161.93729000003077,164.08501289994456,164.08501289994456,164.08501289994456,164.08501289994456,164.08501289994456,164.08501289994456,164.08501289994456,64,69,40,66,69,60,164.08501289994456,165.95267889997922,,,,,,,,,,,,,,,,,,,,３０３,f,２５,2023-05-18_10h13.42.050,RL,2022.2.5,59.82099166643925,
37,70,68,57,0,24,24,24,,,,,,,,None,165.95267889997922,165.95267889997922,165.95267889997922,165.95267889997922,165.95267889997922,165.95267889997922,r,0.3034540999215096,166.28727709990926,166.28727709990926,166.28727709990926,166.28727709990926,166.28727709990926,166.28727709990926,166.5863027998712,168.01960749994032,168.01960749994032,168.01960749994032,168.01960749994032,168.01960749994032,168.01960749994032,168.01960749994032,168.01960749994032,168.01960749994032,168.01960749994032,168.01960749994032,168.01960749994032,168.01960749994032,168.01960749994032,169.75083269993775,169.75083269993775,169.75083269993775,169.75083269993775,169.75083269993775,169.75083269993775,169.75083269993775,57,68,37,70,68,60,169.75083269993775,171.75160169997253,,,,,,,,,,,,,,,,,,,,３０３,f,２５,2023-05-18_10h13.42.050,RL,2022.2.5,59.82099166643925,
37,70,62,54,0,25,25,25,,,,,,,,None,171.75160169997253,171.75160169997253,171.75160169997253,171.75160169997253,171.75160169997253,171.75160169997253,r,0.29673750000074506,172.06925599998794,172.06925599998794,172.06925599998794,172.06925599998794,172.06925599998794,172.06925599998794,172.3520193998702,174.3189512998797,174.35172989987768,174.35172989987768,174.35172989987768,174.35172989987768,174.35172989987768,174.35172989987768,174.35172989987768,174.35172989987768,174.35172989987768,174.35172989987768,174.35172989987768,174.35172989987768,174.35172989987768,176.63316560001113,176.63316560001113,176.63316560001113,176.63316560001113,176.63316560001113,176.63316560001113,176.63316560001113,54,62,37,70,62,60,176.63316560001113,178.16791139985435,,,,,,,,,,,,,,,,,,,,３０３,f,２５,2023-05-18_10h13.42.050,RL,2022.2.5,59.82099166643925,
35,72,69,60,0,26,26,26,,,,,,,,None,178.16791139985435,178.16791139985435,178.16791139985435,178.16791139985435,178.16791139985435,178.16791139985435,r,0.2981704000849277,178.48432999989018,178.48432999989018,178.48432999989018,178.48432999989018,178.48432999989018,178.48432999989018,178.78419899987057,180.05059899995103,180.05059899995103,180.05059899995103,180.05059899995103,180.05059899995103,180.05059899995103,180.05059899995103,180.05059899995103,180.05059899995103,180.05059899995103,180.05059899995103,180.05059899995103,180.05059899995103,180.05059899995103,181.61518119997345,181.61518119997345,181.61518119997345,181.61518119997345,181.61518119997345,181.61518119997345,181.61518119997345,60,69,35,72,69,60,181.61518119997345,183.28294069995172,,,,,,,,,,,,,,,,,,,,３０３,f,２５,2023-05-18_10h13.42.050,RL,2022.2.5,59.82099166643925,
39,62,50,67,0,27,27,27,,,,,,,,None,183.28294069995172,183.28294069995172,183.28294069995172,183.28294069995172,183.28294069995172,183.28294069995172,j,1.090786000015214,184.40005160006694,184.40005160006694,184.40005160006694,184.40005160006694,184.40005160006694,184.40005160006694,184.68307440006174,186.19966609985568,186.21643449994735,186.21643449994735,186.21643449994735,186.21643449994735,186.21643449994735,186.21643449994735,186.21643449994735,186.21643449994735,186.21643449994735,186.21643449994735,186.21643449994735,186.21643449994735,186.21643449994735,188.03068450000137,188.03068450000137,188.03068450000137,188.03068450000137,188.03068450000137,188.03068450000137,188.03068450000137,67,50,39,62,62,60,188.03068450000137,189.86567440000363,,,,,,,,,,,,,,,,,,,,３０３,f,２５,2023-05-18_10h13.42.050,RL,2022.2.5,59.82099166643925,
50,65,57,55,0,28,28,28,,,,,,,,None,189.86567440000363,189.86567440000363,189.86567440000363,189.86567440000363,189.86567440000363,189.86567440000363,j,0.2914064999204129,190.18243020004593,190.18243020004593,190.18243020004593,190.18243020004593,190.18243020004593,190.18243020004593,190.46596649987623,191.8323385999538,191.84875679994002,191.84875679994002,191.84875679994002,191.84875679994002,191.84875679994002,191.84875679994002,191.84875679994002,191.84875679994002,191.84875679994002,191.84875679994002,191.84875679994002,191.84875679994002,191.84875679994002,193.51379460003227,193.51379460003227,193.51379460003227,193.51379460003227,193.51379460003227,193.51379460003227,193.51379460003227,55,57,50,65,65,60,193.51379460003227,195.24781159986742,,,,,,,,,,,,,,,,,,,,３０３,f,２５,2023-05-18_10h13.42.050,RL,2022.2.5,59.82099166643925,
41,66,55,49,0,29,29,29,,,,,,,,None,195.24781159986742,195.24781159986742,195.24781159986742,195.24781159986742,195.24781159986742,195.24781159986742,j,0.3721827999688685,195.64953069994226,195.64953069994226,195.64953069994226,195.64953069994226,195.64953069994226,195.64953069994226,195.9478589000646,197.64738229988143,197.64738229988143,197.64738229988143,197.64738229988143,197.64738229988143,197.64738229988143,197.64738229988143,197.64738229988143,197.64738229988143,197.64738229988143,197.64738229988143,197.64738229988143,197.64738229988143,197.64738229988143,199.64557619998232,199.64557619998232,199.64557619998232,199.64557619998232,199.64557619998232,199.64557619998232,199.64557619998232,49,55,41,66,66,60,199.64557619998232,201.4801651998423,,,,,,,,,,,,,,,,,,,,３０３,f,２５,2023-05-18_10h13.42.050,RL,2022.2.5,59.82099166643925,
51,66,51,60,0,30,30,30,,,,,,,,None,201.4801651998423,201.4801651998423,201.4801651998423,201.4801651998423,201.4801651998423,201.4801651998423,j,0.37286229990422726,201.88137879990973,201.88137879990973,201.88137879990973,201.88137879990973,201.88137879990973,201.88137879990973,202.16344100004062,203.32999320002273,203.36332380003296,203.36332380003296,203.36332380003296,203.36332380003296,203.36332380003296,203.36332380003296,203.36332380003296,203.36332380003296,203.36332380003296,203.36332380003296,203.36332380003296,203.36332380003296,203.36332380003296,204.82772169983946,204.82772169983946,204.82772169983946,204.82772169983946,204.82772169983946,204.82772169983946,204.82772169983946,60,51,51,66,66,60,204.82772169983946,206.37912469985895,,,,,,,,,,,,,,,,,,,,３０３,f,２５,2023-05-18_10h13.42.050,RL,2022.2.5,59.82099166643925,
39,63,49,47,0,31,31,31,,,,,,,,None,206.37912469985895,206.37912469985895,206.37912469985895,206.37912469985895,206.37912469985895,206.37912469985895,j,0.22884030011482537,206.62942359992303,206.62942359992303,206.62942359992303,206.62942359992303,206.62942359992303,206.62942359992303,206.9130179998465,208.51237450004555,208.5296577999834,208.5296577999834,208.5296577999834,208.5296577999834,208.5296577999834,208.5296577999834,208.5296577999834,208.5296577999834,208.5296577999834,208.5296577999834,208.5296577999834,208.5296577999834,208.5296577999834,210.4270717999898,210.4270717999898,210.4270717999898,210.4270717999898,210.4270717999898,210.4270717999898,210.4270717999898,47,49,39,63,63,60,210.4270717999898,212.36178849986754,,,,,,,,,,,,,,,,,,,,３０３,f,２５,2023-05-18_10h13.42.050,RL,2022.2.5,59.82099166643925,
41,67,64,60,0,32,32,32,,,,,,,,None,212.36178849986754,212.36178849986754,212.36178849986754,212.36178849986754,212.36178849986754,212.36178849986754,j,0.30264770006760955,212.69514849991538,212.69514849991538,212.69514849991538,212.69514849991538,212.69514849991538,212.69514849991538,212.97810249985196,214.4617252999451,214.47847800003365,214.47847800003365,214.47847800003365,214.47847800003365,214.47847800003365,214.47847800003365,214.47847800003365,214.47847800003365,214.47847800003365,214.47847800003365,214.47847800003365,214.47847800003365,214.47847800003365,216.25944569986314,216.25944569986314,216.25944569986314,216.25944569986314,216.25944569986314,216.25944569986314,216.25944569986314,60,64,41,67,67,60,216.25944569986314,218.1269977998454,,,,,,,,,,,,,,,,,,,,３０３,f,２５,2023-05-18_10h13.42.050,RL,2022.2.5,59.82099166643925,
38,58,64,53,0,33,33,33,,,,,,,,None,218.1269977998454,218.1269977998454,218.1269977998454,218.1269977998454,218.1269977998454,218.1269977998454,j,0.41242259996943176,218.56107379985042,218.56107379985042,218.56107379985042,218.56107379985042,218.56107379985042,218.56107379985042,218.84411780000664,220.37688830005936,220.3935678000562,220.3935678000562,220.3935678000562,220.3935678000562,220.3935678000562,220.3935678000562,220.3935678000562,220.3935678000562,220.3935678000562,220.3935678000562,220.3935678000562,220.3935678000562,220.3935678000562,222.22526929993182,222.22526929993182,222.22526929993182,222.22526929993182,222.22526929993182,222.22526929993182,222.22526929993182,53,64,38,58,58,60,222.22526929993182,223.7765589999035,,,,,,,,,,,,,,,,,,,,３０３,f,２５,2023-05-18_10h13.42.050,RL,2022.2.5,59.82099166643925,
45,58,60,57,0,34,34,34,,,,,,,,None,223.7765589999035,223.7765589999035,223.7765589999035,223.7765589999035,223.7765589999035,223.7765589999035,r,0.49524120008572936,224.29506729985587,224.29506729985587,224.29506729985587,224.29506729985587,224.29506729985587,224.29506729985587,224.5931315999478,225.99258550000377,225.99258550000377,225.99258550000377,225.99258550000377,225.99258550000377,225.99258550000377,225.99258550000377,225.99258550000377,225.99258550000377,225.99258550000377,225.99258550000377,225.99258550000377,225.99258550000377,225.99258550000377,227.69041699985974,227.69041699985974,227.69041699985974,227.69041699985974,227.69041699985974,227.69041699985974,227.69041699985974,57,60,45,58,60,60,227.69041699985974,229.25854979990982,,,,,,,,,,,,,,,,,,,,３０３,f,２５,2023-05-18_10h13.42.050,RL,2022.2.5,59.82099166643925,
39,59,60,55,0,35,35,35,,,,,,,,None,229.25854979990982,229.25854979990982,229.25854979990982,229.25854979990982,229.25854979990982,229.25854979990982,f,0.37081269989721477,229.6598066999577,229.6598066999577,229.6598066999577,229.6598066999577,229.6598066999577,229.6598066999577,229.95862749987282,231.62537380005233,231.62537380005233,231.62537380005233,231.62537380005233,231.62537380005233,231.62537380005233,231.62537380005233,231.62537380005233,231.62537380005233,231.62537380005233,231.62537380005233,231.62537380005233,231.62537380005233,231.62537380005233,233.5894382998813,233.5894382998813,233.5894382998813,233.5894382998813,233.5894382998813,233.5894382998813,233.5894382998813,55,60,39,59,55,60,233.5894382998813,235.5077402999159,,,,,,,,,,,,,,,,,,,,３０３,f,２５,2023-05-18_10h13.42.050,RL,2022.2.5,59.82099166643925,
33,62,54,48,0,36,36,36,,,,,,,,None,235.5077402999159,235.5077402999159,235.5077402999159,235.5077402999159,235.5077402999159,235.5077402999159,r,0.3526798998937011,235.89506009989418,235.89506009989418,235.89506009989418,235.89506009989418,235.89506009989418,235.89506009989418,236.1740971999243,237.12449559988454,237.14043159992434,237.14043159992434,237.14043159992434,237.14043159992434,237.14043159992434,237.14043159992434,237.14043159992434,237.14043159992434,237.14043159992434,237.14043159992434,237.14043159992434,237.14043159992434,237.14043159992434,238.38872170005925,238.38872170005925,238.38872170005925,238.38872170005925,238.38872170005925,238.38872170005925,238.38872170005925,48,54,33,62,54,60,238.38872170005925,240.27322750003077,,,,,,,,,,,,,,,,,,,,３０３,f,２５,2023-05-18_10h13.42.050,RL,2022.2.5,59.82099166643925,
38,56,59,42,0,37,37,37,,,,,,,,None,240.27322750003077,240.27322750003077,240.27322750003077,240.27322750003077,240.27322750003077,240.27322750003077,None,,,,,,,,,,,,,,,,,,,,,,,,,,,,,,42,59,38,56,0,60,247.77084719995037,249.60468419990502,241.77161259995773,241.77161259995773,241.77161259995773,241.77161259995773,241.77161259995773,241.77161259995773,241.77161259995773,247.77084719995037,,,,,,,,,,,,３０３,f,２５,2023-05-18_10h13.42.050,RL,2022.2.5,59.82099166643925,
32,49,62,46,0,38,38,38,,,,,,,,None,249.60468419990502,249.60468419990502,249.60468419990502,249.60468419990502,249.60468419990502,249.60468419990502,j,0.5113470000214875,250.139179199934,250.139179199934,250.139179199934,250.139179199934,250.139179199934,250.139179199934,250.42210979992524,252.0883583999239,252.10497029987164,252.10497029987164,252.10497029987164,252.10497029987164,252.10497029987164,252.10497029987164,252.10497029987164,252.10497029987164,252.10497029987164,252.10497029987164,252.10497029987164,252.10497029987164,252.10497029987164,254.0692938999273,254.0692938999273,254.0692938999273,254.0692938999273,254.0692938999273,254.0692938999273,254.0692938999273,46,62,32,49,49,60,254.0692938999273,255.73714230000041,,,,,,,,,,,,,,,,,,,,３０３,f,２５,2023-05-18_10h13.42.050,RL,2022.2.5,59.82099166643925,
26,58,68,44,0,39,39,39,,,,,,,,None,255.73714230000041,255.73714230000041,255.73714230000041,255.73714230000041,255.73714230000041,255.73714230000041,i,0.29250239999964833,256.0542732998729,256.0542732998729,256.0542732998729,256.0542732998729,256.0542732998729,256.0542732998729,256.3540320000611,257.6206487000454,257.6206487000454,257.6206487000454,257.6206487000454,257.6206487000454,257.6206487000454,257.6206487000454,257.6206487000454,257.6206487000454,257.6206487000454,257.6206487000454,257.6206487000454,257.6206487000454,257.6206487000454,259.18500109994784,259.18500109994784,259.18500109994784,259.18500109994784,259.18500109994784,259.18500109994784,259.18500109994784,44,68,26,58,26,60,259.18500109994784,260.78601279994473,,,,,,,,,,,,,,,,,,,,３０３,f,２５,2023-05-18_10h13.42.050,RL,2022.2.5,59.82099166643925,
30,52,72,46,0,40,40,40,,,,,,,,None,260.78601279994473,260.78601279994473,260.78601279994473,260.78601279994473,260.78601279994473,260.78601279994473,r,0.27296600001864135,261.0869459998794,261.0869459998794,261.0869459998794,261.0869459998794,261.0869459998794,261.0869459998794,261.36974800005555,262.5527313000057,262.569454099983,262.569454099983,262.569454099983,262.569454099983,262.569454099983,262.569454099983,262.569454099983,262.569454099983,262.569454099983,262.569454099983,262.569454099983,262.569454099983,262.569454099983,264.0508069000207,264.0508069000207,264.0508069000207,264.0508069000207,264.0508069000207,264.0508069000207,264.0508069000207,46,72,30,52,72,60,264.0508069000207,265.78515219991095,,,,,,,,,,,,,,,,,,,,３０３,f,２５,2023-05-18_10h13.42.050,RL,2022.2.5,59.82099166643925,
33,68,64,49,0,41,41,41,,,,,,,,None,265.78515219991095,265.78515219991095,265.78515219991095,265.78515219991095,265.78515219991095,265.78515219991095,r,0.26578180002979934,266.06931829988025,266.06931829988025,266.06931829988025,266.06931829988025,266.06931829988025,266.06931829988025,266.35230779997073,267.2359301999677,267.2520703000482,267.2520703000482,267.2520703000482,267.2520703000482,267.2520703000482,267.2520703000482,267.2520703000482,267.2520703000482,267.2520703000482,267.2520703000482,267.2520703000482,267.2520703000482,267.2520703000482,268.43349729990587,268.43349729990587,268.43349729990587,268.43349729990587,268.43349729990587,268.43349729990587,268.43349729990587,49,64,33,68,64,60,268.43349729990587,270.1683630000334,,,,,,,,,,,,,,,,,,,,３０３,f,２５,2023-05-18_10h13.42.050,RL,2022.2.5,59.82099166643925,
41,61,68,47,0,42,42,42,,,,,,,,None,270.1683630000334,270.1683630000334,270.1683630000334,270.1683630000334,270.1683630000334,270.1683630000334,j,0.2563036000356078,270.4518709999975,270.4518709999975,270.4518709999975,270.4518709999975,270.4518709999975,270.4518709999975,270.7351066998672,272.51821790006943,272.53445879998617,272.53445879998617,272.53445879998617,272.53445879998617,272.53445879998617,272.53445879998617,272.53445879998617,272.53445879998617,272.53445879998617,272.53445879998617,272.53445879998617,272.53445879998617,272.53445879998617,274.6162382999901,274.6162382999901,274.6162382999901,274.6162382999901,274.6162382999901,274.6162382999901,274.6162382999901,47,68,41,61,61,60,274.6162382999901,276.20033919997513,,,,,,,,,,,,,,,,,,,,３０３,f,２５,2023-05-18_10h13.42.050,RL,2022.2.5,59.82099166643925,
47,60,70,49,0,43,43,43,,,,,,,,None,276.20033919997513,276.20033919997513,276.20033919997513,276.20033919997513,276.20033919997513,276.20033919997513,r,0.2786413000430912,276.50155919999816,276.50155919999816,276.50155919999816,276.50155919999816,276.50155919999816,276.50155919999816,276.7839707999956,278.03363169985823,278.05027560004964,278.05027560004964,278.05027560004964,278.05027560004964,278.05027560004964,278.05027560004964,278.05027560004964,278.05027560004964,278.05027560004964,278.05027560004964,278.05027560004964,278.05027560004964,278.05027560004964,279.59841419989243,279.59841419989243,279.59841419989243,279.59841419989243,279.59841419989243,279.59841419989243,279.59841419989243,49,70,47,60,70,60,279.59841419989243,281.46598019986413,,,,,,,,,,,,,,,,,,,,３０３,f,２５,2023-05-18_10h13.42.050,RL,2022.2.5,59.82099166643925,
50,57,66,50,0,44,44,44,,,,,,,,None,281.46598019986413,281.46598019986413,281.46598019986413,281.46598019986413,281.46598019986413,281.46598019986413,r,0.1951783997938037,281.683946599951,281.683946599951,281.683946599951,281.683946599951,281.683946599951,281.683946599951,281.98327909992076,283.23264579987153,283.23264579987153,283.23264579987153,283.23264579987153,283.23264579987153,283.23264579987153,283.23264579987153,283.23264579987153,283.23264579987153,283.23264579987153,283.23264579987153,283.23264579987153,283.23264579987153,283.23264579987153,284.78063880000263,284.78063880000263,284.78063880000263,284.78063880000263,284.78063880000263,284.78063880000263,284.78063880000263,50,66,50,57,66,60,284.78063880000263,286.41519559989683,,,,,,,,,,,,,,,,,,,,３０３,f,２５,2023-05-18_10h13.42.050,RL,2022.2.5,59.82099166643925,
54,57,65,45,0,45,45,45,,,,,,,,None,286.41519559989683,286.41519559989683,286.41519559989683,286.41519559989683,286.41519559989683,286.41519559989683,j,1.1795488002244383,287.61731290002353,287.61731290002353,287.61731290002353,287.61731290002353,287.61731290002353,287.61731290002353,287.898572599981,289.69816150004044,289.71496809995733,289.71496809995733,289.71496809995733,289.71496809995733,289.71496809995733,289.71496809995733,289.71496809995733,289.71496809995733,289.71496809995733,289.71496809995733,289.71496809995733,289.71496809995733,289.71496809995733,291.8129769000225,291.8129769000225,291.8129769000225,291.8129769000225,291.8129769000225,291.8129769000225,291.8129769000225,45,65,54,57,57,60,291.8129769000225,293.3806370999664,,,,,,,,,,,,,,,,,,,,３０３,f,２５,2023-05-18_10h13.42.050,RL,2022.2.5,59.82099166643925,
46,65,67,39,0,46,46,46,,,,,,,,None,293.3806370999664,293.3806370999664,293.3806370999664,293.3806370999664,293.3806370999664,293.3806370999664,j,0.3265662998892367,293.7309226000216,293.7309226000216,293.7309226000216,293.7309226000216,293.7309226000216,293.7309226000216,294.0144319999963,295.7471898999065,295.7637606000062,295.7637606000062,295.7637606000062,295.7637606000062,295.7637606000062,295.7637606000062,295.7637606000062,295.7637606000062,295.7637606000062,295.7637606000062,295.7637606000062,295.7637606000062,295.7637606000062,297.795109000057,297.795109000057,297.795109000057,297.795109000057,297.795109000057,297.795109000057,297.795109000057,39,67,46,65,65,60,297.795109000057,299.77976609999314,,,,,,,,,,,,,,,,,,,,３０３,f,２５,2023-05-18_10h13.42.050,RL,2022.2.5,59.82099166643925,
49,64,68,47,0,47,47,47,,,,,,,,None,299.77976609999314,299.77976609999314,299.77976609999314,299.77976609999314,299.77976609999314,299.77976609999314,f,0.27619549981318414,300.08066740003414,300.08066740003414,300.08066740003414,300.08066740003414,300.08066740003414,300.08066740003414,300.36299990001135,301.9793893999886,301.9960807999596,301.9960807999596,301.9960807999596,301.9960807999596,301.9960807999596,301.9960807999596,301.9960807999596,301.9960807999596,301.9960807999596,301.9960807999596,301.9960807999596,301.9960807999596,301.9960807999596,303.9112205998972,303.9112205998972,303.9112205998972,303.9112205998972,303.9112205998972,303.9112205998972,303.9112205998972,47,68,49,64,47,60,303.9112205998972,305.66172580001876,,,,,,,,,,,,,,,,,,,,３０３,f,２５,2023-05-18_10h13.42.050,RL,2022.2.5,59.82099166643925,
53,67,68,52,0,48,48,48,,,,,,,,None,305.66172580001876,305.66172580001876,305.66172580001876,305.66172580001876,305.66172580001876,305.66172580001876,r,0.2677547999192029,305.94882559985854,305.94882559985854,305.94882559985854,305.94882559985854,305.94882559985854,305.94882559985854,306.2458988998551,307.4953198998701,307.5118515000213,307.5118515000213,307.5118515000213,307.5118515000213,307.5118515000213,307.5118515000213,307.5118515000213,307.5118515000213,307.5118515000213,307.5118515000213,307.5118515000213,307.5118515000213,307.5118515000213,309.059915299993,309.059915299993,309.059915299993,309.059915299993,309.059915299993,309.059915299993,309.059915299993,52,68,53,67,68,60,309.059915299993,311.0113126998767,,,,,,,,,,,,,,,,,,,,３０３,f,２５,2023-05-18_10h13.42.050,RL,2022.2.5,59.82099166643925,
54,48,60,48,0,49,49,49,,,,,,,,None,311.0113126998767,311.0113126998767,311.0113126998767,311.0113126998767,311.0113126998767,311.0113126998767,r,0.40223989984951913,311.44679279997945,311.44679279997945,311.44679279997945,311.44679279997945,311.44679279997945,311.44679279997945,311.72785849985667,313.044393299846,313.060841599945,313.060841599945,313.060841599945,313.060841599945,313.060841599945,313.060841599945,313.060841599945,313.060841599945,313.060841599945,313.060841599945,313.060841599945,313.060841599945,313.060841599945,314.6759273998905,314.6759273998905,314.6759273998905,314.6759273998905,314.6759273998905,314.6759273998905,314.6759273998905,48,60,54,48,60,60,314.6759273998905,316.2768478000071,,,,,,,,,,,,,,,,,,,,３０３,f,２５,2023-05-18_10h13.42.050,RL,2022.2.5,59.82099166643925,
61,58,73,57,0,50,50,50,,,,,,,,None,316.2768478000071,316.2768478000071,316.2768478000071,316.2768478000071,316.2768478000071,316.2768478000071,j,0.24370829993858933,316.54433860001154,316.54433860001154,316.54433860001154,316.54433860001154,316.54433860001154,316.54433860001154,316.82720219995826,317.8938307999633,317.9099458998535,317.9099458998535,317.9099458998535,317.9099458998535,317.9099458998535,317.9099458998535,317.9099458998535,317.9099458998535,317.9099458998535,317.9099458998535,317.9099458998535,317.9099458998535,317.9099458998535,319.27510589989834,319.27510589989834,319.27510589989834,319.27510589989834,319.27510589989834,319.27510589989834,319.27510589989834,57,73,61,58,58,60,319.27510589989834,321.2260000000242,,,,,,,,,,,,,,,,,,,,３０３,f,２５,2023-05-18_10h13.42.050,RL,2022.2.5,59.82099166643925,
59,57,67,56,0,51,51,51,,,,,,,,None,321.2260000000242,321.2260000000242,321.2260000000242,321.2260000000242,321.2260000000242,321.2260000000242,j,0.3358629001304507,321.59764779987745,321.59764779987745,321.59764779987745,321.59764779987745,321.59764779987745,321.59764779987745,321.876180900028,323.8593115999829,323.8758632999379,323.8758632999379,323.8758632999379,323.8758632999379,323.8758632999379,323.8758632999379,323.8758632999379,323.8758632999379,323.8758632999379,323.8758632999379,323.8758632999379,323.8758632999379,323.8758632999379,326.15680100000463,326.15680100000463,326.15680100000463,326.15680100000463,326.15680100000463,326.15680100000463,326.15680100000463,56,67,59,57,57,60,326.15680100000463,327.9078913999256,,,,,,,,,,,,,,,,,,,,３０３,f,２５,2023-05-18_10h13.42.050,RL,2022.2.5,59.82099166643925,
56,54,66,62,0,52,52,52,,,,,,,,None,327.9078913999256,327.9078913999256,327.9078913999256,327.9078913999256,327.9078913999256,327.9078913999256,r,0.23662099987268448,328.17535909987055,328.17535909987055,328.17535909987055,328.17535909987055,328.17535909987055,328.17535909987055,328.4584872999694,329.47471809992567,329.4912731999066,329.4912731999066,329.4912731999066,329.4912731999066,329.4912731999066,329.4912731999066,329.4912731999066,329.4912731999066,329.4912731999066,329.4912731999066,329.4912731999066,329.4912731999066,329.4912731999066,330.8063723000232,330.8063723000232,330.8063723000232,330.8063723000232,330.8063723000232,330.8063723000232,330.8063723000232,62,66,56,54,66,60,330.8063723000232,332.7739251998719,,,,,,,,,,,,,,,,,,,,３０３,f,２５,2023-05-18_10h13.42.050,RL,2022.2.5,59.82099166643925,
62,52,62,53,0,53,53,53,,,,,,,,None,332.7739251998719,332.7739251998719,332.7739251998719,332.7739251998719,332.7739251998719,332.7739251998719,r,0.1443392001092434,332.9411867999006,332.9411867999006,332.9411867999006,332.9411867999006,332.9411867999006,332.9411867999006,333.2241256998386,334.60776449996047,334.6241343000438,334.6241343000438,334.6241343000438,334.6241343000438,334.6241343000438,334.6241343000438,334.6241343000438,334.6241343000438,334.6241343000438,334.6241343000438,334.6241343000438,334.6241343000438,334.6241343000438,336.30540900002234,336.30540900002234,336.30540900002234,336.30540900002234,336.30540900002234,336.30540900002234,336.30540900002234,53,62,62,52,62,60,336.30540900002234,337.98949759989046,,,,,,,,,,,,,,,,,,,,３０３,f,２５,2023-05-18_10h13.42.050,RL,2022.2.5,59.82099166643925,
59,52,61,55,0,54,54,54,,,,,,,,None,337.98949759989046,337.98949759989046,337.98949759989046,337.98949759989046,337.98949759989046,337.98949759989046,r,0.2881632000207901,338.3065812999848,338.3065812999848,338.3065812999848,338.3065812999848,338.3065812999848,338.3065812999848,338.6063961000182,339.9394479999319,339.9394479999319,339.9394479999319,339.9394479999319,339.9394479999319,339.9394479999319,339.9394479999319,339.9394479999319,339.9394479999319,339.9394479999319,339.9394479999319,339.9394479999319,339.9394479999319,339.9394479999319,341.5703729998786,341.5703729998786,341.5703729998786,341.5703729998786,341.5703729998786,341.5703729998786,341.5703729998786,55,61,59,52,61,60,341.5703729998786,343.3217861999292,,,,,,,,,,,,,,,,,,,,３０３,f,２５,2023-05-18_10h13.42.050,RL,2022.2.5,59.82099166643925,
52,52,60,46,0,55,55,55,,,,,,,,None,343.3217861999292,343.3217861999292,343.3217861999292,343.3217861999292,343.3217861999292,343.3217861999292,j,0.019723400007933378,343.3725558000151,343.3725558000151,343.3725558000151,343.3725558000151,343.3725558000151,343.3725558000151,343.65612539998256,344.489140199963,344.5054814000614,344.5054814000614,344.5054814000614,344.5054814000614,344.5054814000614,344.5054814000614,344.5054814000614,344.5054814000614,344.5054814000614,344.5054814000614,344.5054814000614,344.5054814000614,344.5054814000614,345.63693739986047,345.63693739986047,345.63693739986047,345.63693739986047,345.63693739986047,345.63693739986047,345.63693739986047,46,60,52,52,52,60,345.63693739986047,347.30448479996994,,,,,,,,,,,,,,,,,,,,３０３,f,２５,2023-05-18_10h13.42.050,RL,2022.2.5,59.82099166643925,
60,53,55,48,0,56,56,56,,,,,,,,None,347.30448479996994,347.30448479996994,347.30448479996994,347.30448479996994,347.30448479996994,347.30448479996994,r,0.47289380012080073,347.80606690002605,347.80606690002605,347.80606690002605,347.80606690002605,347.80606690002605,347.80606690002605,348.0885779999662,349.87163119995967,349.8879191998858,349.8879191998858,349.8879191998858,349.8879191998858,349.8879191998858,349.8879191998858,349.8879191998858,349.8879191998858,349.8879191998858,349.8879191998858,349.8879191998858,349.8879191998858,349.8879191998858,351.96906879986636,351.96906879986636,351.96906879986636,351.96906879986636,351.96906879986636,351.96906879986636,351.96906879986636,48,55,60,53,55,60,351.96906879986636,353.62038829992525,,,,,,,,,,,,,,,,,,,,３０３,f,２５,2023-05-18_10h13.42.050,RL,2022.2.5,59.82099166643925,
58,50,65,44,0,57,57,57,,,,,,,,None,353.62038829992525,353.62038829992525,353.62038829992525,353.62038829992525,353.62038829992525,353.62038829992525,f,0.39915090007707477,354.03838679986075,354.03838679986075,354.03838679986075,354.03838679986075,354.03838679986075,354.03838679986075,354.32091260002926,355.15408329991624,355.17061199992895,355.17061199992895,355.17061199992895,355.17061199992895,355.17061199992895,355.17061199992895,355.17061199992895,355.17061199992895,355.17061199992895,355.17061199992895,355.17061199992895,355.17061199992895,355.17061199992895,356.30205219984055,356.30205219984055,356.30205219984055,356.30205219984055,356.30205219984055,356.30205219984055,356.30205219984055,44,65,58,50,44,60,356.30205219984055,357.9033198999241,,,,,,,,,,,,,,,,,,,,３０３,f,２５,2023-05-18_10h13.42.050,RL,2022.2.5,59.82099166643925,
59,59,62,51,0,58,58,58,,,,,,,,None,357.9033198999241,357.9033198999241,357.9033198999241,357.9033198999241,357.9033198999241,357.9033198999241,i,0.9037818999495357,358.8370844000019,358.8370844000019,358.8370844000019,358.8370844000019,358.8370844000019,358.8370844000019,359.13646289985627,360.3349123999942,360.3349123999942,360.3349123999942,360.3349123999942,360.3349123999942,360.3349123999942,360.3349123999942,360.3349123999942,360.3349123999942,360.3349123999942,360.3349123999942,360.3349123999942,360.3349123999942,360.3349123999942,361.8007922999095,361.8007922999095,361.8007922999095,361.8007922999095,361.8007922999095,361.8007922999095,361.8007922999095,51,62,59,59,59,60,361.8007922999095,363.3352989000268,,,,,,,,,,,,,,,,,,,,３０３,f,２５,2023-05-18_10h13.42.050,RL,2022.2.5,59.82099166643925,
58,62,58,43,0,59,59,59,,,,,,,,None,363.3352989000268,363.3352989000268,363.3352989000268,363.3352989000268,363.3352989000268,363.3352989000268,j,0.27957839984446764,363.63595100003295,363.63595100003295,363.63595100003295,363.63595100003295,363.63595100003295,363.63595100003295,363.9188749999739,365.0517525000032,365.06888679997064,365.06888679997064,365.06888679997064,365.06888679997064,365.06888679997064,365.06888679997064,365.06888679997064,365.06888679997064,365.06888679997064,365.06888679997064,365.06888679997064,365.06888679997064,365.06888679997064,366.4997254998889,366.4997254998889,366.4997254998889,366.4997254998889,366.4997254998889,366.4997254998889,366.4997254998889,43,58,58,62,62,60,366.4997254998889,368.28455269988626,,,,,,,,,,,,,,,,,,,,３０３,f,２５,2023-05-18_10h13.42.050,RL,2022.2.5,59.82099166643925,
67,64,63,55,0,60,60,60,,,,,,,,None,368.28455269988626,368.28455269988626,368.28455269988626,368.28455269988626,368.28455269988626,368.28455269988626,j,0.2993638999760151,368.60251810005866,368.60251810005866,368.60251810005866,368.60251810005866,368.60251810005866,368.60251810005866,368.8849420999177,369.8012452998664,369.81777890003286,369.81777890003286,369.81777890003286,369.81777890003286,369.81777890003286,369.81777890003286,369.81777890003286,369.81777890003286,369.81777890003286,369.81777890003286,369.81777890003286,369.81777890003286,369.81777890003286,371.03234839998186,371.03234839998186,371.03234839998186,371.03234839998186,371.03234839998186,371.03234839998186,371.03234839998186,55,63,67,64,64,60,371.03234839998186,372.93349039996974,,,,,,,,,,,,,,,,,,,,３０３,f,２５,2023-05-18_10h13.42.050,RL,2022.2.5,59.82099166643925,
56,61,62,38,0,61,61,61,,,,,,,,None,372.93349039996974,372.93349039996974,372.93349039996974,372.93349039996974,372.93349039996974,372.93349039996974,j,0.32583709992468357,373.28575069992803,373.28575069992803,373.28575069992803,373.28575069992803,373.28575069992803,373.28575069992803,373.5836189999245,375.1500673999544,375.1500673999544,375.1500673999544,375.1500673999544,375.1500673999544,375.1500673999544,375.1500673999544,375.1500673999544,375.1500673999544,375.1500673999544,375.1500673999544,375.1500673999544,375.1500673999544,375.1500673999544,377.01464920002036,377.01464920002036,377.01464920002036,377.01464920002036,377.01464920002036,377.01464920002036,377.01464920002036,38,62,56,61,61,60,377.01464920002036,378.83274680003524,,,,,,,,,,,,,,,,,,,,３０３,f,２５,2023-05-18_10h13.42.050,RL,2022.2.5,59.82099166643925,
57,61,66,48,0,62,62,62,,,,,,,,None,378.83274680003524,378.83274680003524,378.83274680003524,378.83274680003524,378.83274680003524,378.83274680003524,r,0.3378441999666393,379.20101729989983,379.20101729989983,379.20101729989983,379.20101729989983,379.20101729989983,379.20101729989983,379.49949169997126,380.61602979991585,380.61602979991585,380.61602979991585,380.61602979991585,380.61602979991585,380.61602979991585,380.61602979991585,380.61602979991585,380.61602979991585,380.61602979991585,380.61602979991585,380.61602979991585,380.61602979991585,380.61602979991585,382.03100740001537,382.03100740001537,382.03100740001537,382.03100740001537,382.03100740001537,382.03100740001537,382.03100740001537,48,66,57,61,66,60,382.03100740001537,383.9149446999654,,,,,,,,,,,,,,,,,,,,３０３,f,２５,2023-05-18_10h13.42.050,RL,2022.2.5,59.82099166643925,
52,58,65,52,0,63,63,63,,,,,,,,None,383.9149446999654,383.9149446999654,383.9149446999654,383.9149446999654,383.9149446999654,383.9149446999654,r,0.2790665999054909,384.21668209997006,384.21668209997006,384.21668209997006,384.21668209997006,384.21668209997006,384.21668209997006,384.49895509984344,386.21534239989705,386.2317045000382,386.2317045000382,386.2317045000382,386.2317045000382,386.2317045000382,386.2317045000382,386.2317045000382,386.2317045000382,386.2317045000382,386.2317045000382,386.2317045000382,386.2317045000382,386.2317045000382,388.2460729999002,388.2460729999002,388.2460729999002,388.2460729999002,388.2460729999002,388.2460729999002,388.2460729999002,52,65,52,58,65,60,388.2460729999002,389.880831599934,,,,,,,,,,,,,,,,,,,,３０３,f,２５,2023-05-18_10h13.42.050,RL,2022.2.5,59.82099166643925,
51,59,68,53,0,64,64,64,,,,,,,,None,389.880831599934,389.880831599934,389.880831599934,389.880831599934,389.880831599934,389.880831599934,r,0.26860349997878075,390.1859720000066,390.1859720000066,390.1859720000066,390.1859720000066,390.1859720000066,390.1859720000066,390.46405189996585,391.9475072999485,391.9641849999316,391.9641849999316,391.9641849999316,391.9641849999316,391.9641849999316,391.9641849999316,391.9641849999316,391.9641849999316,391.9641849999316,391.9641849999316,391.9641849999316,391.9641849999316,391.9641849999316,393.74551839986816,393.74551839986816,393.74551839986816,393.74551839986816,393.74551839986816,393.74551839986816,393.74551839986816,53,68,51,59,68,60,393.74551839986816,395.712851600023,,,,,,,,,,,,,,,,,,,,３０３,f,２５,2023-05-18_10h13.42.050,RL,2022.2.5,59.82099166643925,
51,56,71,56,0,65,65,65,,,,,,,,None,395.712851600023,395.712851600023,395.712851600023,395.712851600023,395.712851600023,395.712851600023,r,0.32889939984306693,396.0632839000318,396.0632839000318,396.0632839000318,396.0632839000318,396.0632839000318,396.0632839000318,396.3466540998779,398.31287789996713,398.32946090004407,398.32946090004407,398.32946090004407,398.32946090004407,398.32946090004407,398.32946090004407,398.32946090004407,398.32946090004407,398.32946090004407,398.32946090004407,398.32946090004407,398.32946090004407,398.32946090004407,400.59410490002483,400.59410490002483,400.59410490002483,400.59410490002483,400.59410490002483,400.59410490002483,400.59410490002483,56,71,51,56,71,60,400.59410490002483,402.11211430002004,,,,,,,,,,,,,,,,,,,,３０３,f,２５,2023-05-18_10h13.42.050,RL,2022.2.5,59.82099166643925,
47,57,69,52,0,66,66,66,,,,,,,,None,402.11211430002004,402.11211430002004,402.11211430002004,402.11211430002004,402.11211430002004,402.11211430002004,j,0.2533296998590231,402.39724590000696,402.39724590000696,402.39724590000696,402.39724590000696,402.39724590000696,402.39724590000696,402.6953336999286,404.41173429996707,404.41173429996707,404.41173429996707,404.41173429996707,404.41173429996707,404.41173429996707,404.41173429996707,404.41173429996707,404.41173429996707,404.41173429996707,404.41173429996707,404.41173429996707,404.41173429996707,404.41173429996707,406.42625919985585,406.42625919985585,406.42625919985585,406.42625919985585,406.42625919985585,406.42625919985585,406.42625919985585,52,69,47,57,57,60,406.42625919985585,408.31092059984803,,,,,,,,,,,,,,,,,,,,３０３,f,２５,2023-05-18_10h13.42.050,RL,2022.2.5,59.82099166643925,
48,58,73,48,0,67,67,67,,,,,,,,None,408.31092059984803,408.31092059984803,408.31092059984803,408.31092059984803,408.31092059984803,408.31092059984803,f,0.8790691001340747,409.21337349992245,409.21337349992245,409.21337349992245,409.21337349992245,409.21337349992245,409.21337349992245,409.510917800013,411.02714550006203,411.02714550006203,411.02714550006203,411.02714550006203,411.02714550006203,411.02714550006203,411.02714550006203,411.02714550006203,411.02714550006203,411.02714550006203,411.02714550006203,411.02714550006203,411.02714550006203,411.02714550006203,412.841738200048,412.841738200048,412.841738200048,412.841738200048,412.841738200048,412.841738200048,412.841738200048,48,73,48,58,48,60,412.841738200048,414.6931910999119,,,,,,,,,,,,,,,,,,,,３０３,f,２５,2023-05-18_10h13.42.050,RL,2022.2.5,59.82099166643925,
54,62,66,44,0,68,68,68,,,,,,,,None,414.6931910999119,414.6931910999119,414.6931910999119,414.6931910999119,414.6931910999119,414.6931910999119,r,0.2790759999770671,414.9947848999873,414.9947848999873,414.9947848999873,414.9947848999873,414.9947848999873,414.9947848999873,415.27679689996876,417.17590330005623,417.2095123999752,417.2095123999752,417.2095123999752,417.2095123999752,417.2095123999752,417.2095123999752,417.2095123999752,417.2095123999752,417.2095123999752,417.2095123999752,417.2095123999752,417.2095123999752,417.2095123999752,419.4079708000645,419.4079708000645,419.4079708000645,419.4079708000645,419.4079708000645,419.4079708000645,419.4079708000645,44,66,54,62,66,60,419.4079708000645,421.1089355999138,,,,,,,,,,,,,,,,,,,,３０３,f,２５,2023-05-18_10h13.42.050,RL,2022.2.5,59.82099166643925,
52,63,65,46,0,69,69,69,,,,,,,,None,421.1089355999138,421.1089355999138,421.1089355999138,421.1089355999138,421.1089355999138,421.1089355999138,r,0.2812846000306308,421.40914690005593,421.40914690005593,421.40914690005593,421.40914690005593,421.40914690005593,421.40914690005593,421.6921639998909,423.2917688000016,423.3085817999672,423.3085817999672,423.3085817999672,423.3085817999672,423.3085817999672,423.3085817999672,423.3085817999672,423.3085817999672,423.3085817999672,423.3085817999672,423.3085817999672,423.3085817999672,423.3085817999672,425.2064520998392,425.2064520998392,425.2064520998392,425.2064520998392,425.2064520998392,425.2064520998392,425.2064520998392,46,65,52,63,65,60,425.2064520998392,426.8408549998421,,,,,,,,,,,,,,,,,,,,３０３,f,２５,2023-05-18_10h13.42.050,RL,2022.2.5,59.82099166643925,
55,60,70,56,0,70,70,70,,,,,,,,None,426.8408549998421,426.8408549998421,426.8408549998421,426.8408549998421,426.8408549998421,426.8408549998421,i,0.31358740013092756,427.1746228998527,427.1746228998527,427.1746228998527,427.1746228998527,427.1746228998527,427.1746228998527,427.45783489989117,429.2077150999103,429.2242258999031,429.2242258999031,429.2242258999031,429.2242258999031,429.2242258999031,429.2242258999031,429.2242258999031,429.2242258999031,429.2242258999031,429.2242258999031,429.2242258999031,429.2242258999031,429.2242258999031,431.27243819995783,431.27243819995783,431.27243819995783,431.27243819995783,431.27243819995783,431.27243819995783,431.27243819995783,56,70,55,60,55,60,431.27243819995783,432.85638660006225,,,,,,,,,,,,,,,,,,,,３０３,f,２５,2023-05-18_10h13.42.050,RL,2022.2.5,59.82099166643925,
54,54,60,48,0,71,71,71,,,,,,,,None,432.85638660006225,432.85638660006225,432.85638660006225,432.85638660006225,432.85638660006225,432.85638660006225,r,0.43191469996236265,433.3081199999433,433.3081199999433,433.3081199999433,433.3081199999433,433.3081199999433,433.3081199999433,433.60656969994307,434.5898819998838,434.5898819998838,434.5898819998838,434.5898819998838,434.5898819998838,434.5898819998838,434.5898819998838,434.5898819998838,434.5898819998838,434.5898819998838,434.5898819998838,434.5898819998838,434.5898819998838,434.5898819998838,435.87119710003026,435.87119710003026,435.87119710003026,435.87119710003026,435.87119710003026,435.87119710003026,435.87119710003026,48,60,54,54,60,60,435.87119710003026,437.8053999999538,,,,,,,,,,,,,,,,,,,,３０３,f,２５,2023-05-18_10h13.42.050,RL,2022.2.5,59.82099166643925,
60,52,71,59,0,72,72,72,,,,,,,,None,437.8053999999538,437.8053999999538,437.8053999999538,437.8053999999538,437.8053999999538,437.8053999999538,r,0.4886775999329984,438.3249500999227,438.3249500999227,438.3249500999227,438.3249500999227,438.3249500999227,438.3249500999227,438.62260070000775,440.388991399901,440.4058131000493,440.4058131000493,440.4058131000493,440.4058131000493,440.4058131000493,440.4058131000493,440.4058131000493,440.4058131000493,440.4058131000493,440.4058131000493,440.4058131000493,440.4058131000493,440.4058131000493,442.4705894999206,442.4705894999206,442.4705894999206,442.4705894999206,442.4705894999206,442.4705894999206,442.4705894999206,59,71,60,52,71,60,442.4705894999206,444.4383443000261,,,,,,,,,,,,,,,,,,,,３０３,f,２５,2023-05-18_10h13.42.050,RL,2022.2.5,59.82099166643925,
51,54,69,64,0,73,73,73,,,,,,,,None,444.4383443000261,444.4383443000261,444.4383443000261,444.4383443000261,444.4383443000261,444.4383443000261,j,0.29637790005654097,444.75493659987114,444.75493659987114,444.75493659987114,444.75493659987114,444.75493659987114,444.75493659987114,445.0383595000021,446.4880738998763,446.504349200055,446.504349200055,446.504349200055,446.504349200055,446.504349200055,446.504349200055,446.504349200055,446.504349200055,446.504349200055,446.504349200055,446.504349200055,446.504349200055,446.504349200055,448.2524303998798,448.2524303998798,448.2524303998798,448.2524303998798,448.2524303998798,448.2524303998798,448.2524303998798,64,69,51,54,54,60,448.2524303998798,450.0036442000419,,,,,,,,,,,,,,,,,,,,３０３,f,２５,2023-05-18_10h13.42.050,RL,2022.2.5,59.82099166643925,
51,47,75,53,0,74,74,74,,,,,,,,None,450.0036442000419,450.0036442000419,450.0036442000419,450.0036442000419,450.0036442000419,450.0036442000419,r,0.34332320000976324,450.37234609993175,450.37234609993175,450.37234609993175,450.37234609993175,450.37234609993175,450.37234609993175,450.6704462999478,451.63707030005753,451.63707030005753,451.63707030005753,451.63707030005753,451.63707030005753,451.63707030005753,451.63707030005753,451.63707030005753,451.63707030005753,451.63707030005753,451.63707030005753,451.63707030005753,451.63707030005753,451.63707030005753,452.901775599923,452.901775599923,452.901775599923,452.901775599923,452.901775599923,452.901775599923,452.901775599923,53,75,51,47,75,60,452.901775599923,454.8522570999339,,,,,,,,,,,,,,,,,,,,３０３,f,２５,2023-05-18_10h13.42.050,RL,2022.2.5,59.82099166643925,
50,48,76,56,0,75,75,75,,,,,,,,q,480.93176469998434,480.93176469998434,480.93176469998434,480.93176469998434,480.93176469998434,480.93176469998434,j,0.49266399978660047,481.4485979999881,481.4485979999881,481.4485979999881,481.4485979999881,481.4485979999881,481.4485979999881,481.7315721998457,482.7649336999748,482.7814295999706,482.7814295999706,482.7814295999706,482.7814295999706,482.7814295999706,482.7814295999706,482.7814295999706,482.7814295999706,482.7814295999706,482.7814295999706,482.7814295999706,482.7814295999706,482.7814295999706,484.11272189999,484.11272189999,484.11272189999,484.11272189999,484.11272189999,484.11272189999,484.11272189999,56,76,50,48,48,60,484.11272189999,486.0807215999812,,,,,,,,,454.8522570999339,454.8522570999339,21.042913699988276,475.9165997998789,475.9165997998789,480.93176469998434,480.93176469998434,,,,,３０３,f,２５,2023-05-18_10h13.42.050,RL,2022.2.5,59.82099166643925,
54,52,75,69,0,76,76,76,,,,,,,,None,486.0807215999812,486.0807215999812,486.0807215999812,486.0807215999812,486.0807215999812,486.0807215999812,r,0.2705351000186056,486.3838964998722,486.3838964998722,486.3838964998722,486.3838964998722,486.3838964998722,486.3838964998722,486.68070539995097,488.2972621000372,488.2972621000372,488.2972621000372,488.2972621000372,488.2972621000372,488.2972621000372,488.2972621000372,488.2972621000372,488.2972621000372,488.2972621000372,488.2972621000372,488.2972621000372,488.2972621000372,488.2972621000372,490.21207679994404,490.21207679994404,490.21207679994404,490.21207679994404,490.21207679994404,490.21207679994404,490.21207679994404,69,75,54,52,75,60,490.21207679994404,492.1631374999415,,,,,,,,,,,,,,,,,,,,３０３,f,２５,2023-05-18_10h13.42.050,RL,2022.2.5,59.82099166643925,
55,54,77,66,0,77,77,77,,,,,,,,None,492.1631374999415,492.1631374999415,492.1631374999415,492.1631374999415,492.1631374999415,492.1631374999415,f,0.28828349988907576,492.48200099985115,492.48200099985115,492.48200099985115,492.48200099985115,492.48200099985115,492.48200099985115,492.77969049988315,494.6960890998598,494.6960890998598,494.6960890998598,494.6960890998598,494.6960890998598,494.6960890998598,494.6960890998598,494.6960890998598,494.6960890998598,494.6960890998598,494.6960890998598,494.6960890998598,494.6960890998598,494.6960890998598,496.9106149999425,496.9106149999425,496.9106149999425,496.9106149999425,496.9106149999425,496.9106149999425,496.9106149999425,66,77,55,54,66,60,496.9106149999425,498.4786839999724,,,,,,,,,,,,,,,,,,,,３０３,f,２５,2023-05-18_10h13.42.050,RL,2022.2.5,59.82099166643925,
59,53,70,67,0,78,78,78,,,,,,,,None,498.4786839999724,498.4786839999724,498.4786839999724,498.4786839999724,498.4786839999724,498.4786839999724,f,0.4860906000249088,498.9998852000572,498.9998852000572,498.9998852000572,498.9998852000572,498.9998852000572,498.9998852000572,499.2953643000219,500.3951956999954,500.3951956999954,500.3951956999954,500.3951956999954,500.3951956999954,500.3951956999954,500.3951956999954,500.3951956999954,500.3951956999954,500.3951956999954,500.3951956999954,500.3951956999954,500.3951956999954,500.3951956999954,501.79325970006175,501.79325970006175,501.79325970006175,501.79325970006175,501.79325970006175,501.79325970006175,501.79325970006175,67,70,59,53,67,60,501.79325970006175,503.7109578999225,,,,,,,,,,,,,,,,,,,,３０３,f,２５,2023-05-18_10h13.42.050,RL,2022.2.5,59.82099166643925,
48,50,66,59,0,79,79,79,,,,,,,,None,503.7109578999225,503.7109578999225,503.7109578999225,503.7109578999225,503.7109578999225,503.7109578999225,f,0.31761109991930425,504.0650704000145,504.0650704000145,504.0650704000145,504.0650704000145,504.0650704000145,504.0650704000145,504.3447662999388,505.69416689989157,505.7108028999064,505.7108028999064,505.7108028999064,505.7108028999064,505.7108028999064,505.7108028999064,505.7108028999064,505.7108028999064,505.7108028999064,505.7108028999064,505.7108028999064,505.7108028999064,505.7108028999064,507.3590915000532,507.3590915000532,507.3590915000532,507.3590915000532,507.3590915000532,507.3590915000532,507.3590915000532,59,66,48,50,59,60,507.3590915000532,509.34324870002456,,,,,,,,,,,,,,,,,,,,３０３,f,２５,2023-05-18_10h13.42.050,RL,2022.2.5,59.82099166643925,
54,52,72,60,0,80,80,80,,,,,,,,None,509.34324870002456,509.34324870002456,509.34324870002456,509.34324870002456,509.34324870002456,509.34324870002456,i,0.3241367000155151,509.6938771000132,509.6938771000132,509.6938771000132,509.6938771000132,509.6938771000132,509.6938771000132,509.9770883000456,510.79338459996507,510.80973570002243,510.80973570002243,510.80973570002243,510.80973570002243,510.80973570002243,510.80973570002243,510.80973570002243,510.80973570002243,510.80973570002243,510.80973570002243,510.80973570002243,510.80973570002243,510.80973570002243,511.9247281998396,511.9247281998396,511.9247281998396,511.9247281998396,511.9247281998396,511.9247281998396,511.9247281998396,60,72,54,52,54,60,511.9247281998396,513.4922072999179,,,,,,,,,,,,,,,,,,,,３０３,f,２５,2023-05-18_10h13.42.050,RL,2022.2.5,59.82099166643925,
41,49,62,64,0,81,81,81,,,,,,,,None,513.4922072999179,513.4922072999179,513.4922072999179,513.4922072999179,513.4922072999179,513.4922072999179,j,0.4078108000103384,513.9264723998494,513.9264723998494,513.9264723998494,513.9264723998494,513.9264723998494,513.9264723998494,514.2092442999128,515.4924790000077,515.5091885000002,515.5091885000002,515.5091885000002,515.5091885000002,515.5091885000002,515.5091885000002,515.5091885000002,515.5091885000002,515.5091885000002,515.5091885000002,515.5091885000002,515.5091885000002,515.5091885000002,517.0905997999944,517.0905997999944,517.0905997999944,517.0905997999944,517.0905997999944,517.0905997999944,517.0905997999944,64,62,41,49,49,60,517.0905997999944,518.9583959998563,,,,,,,,,,,,,,,,,,,,３０３,f,２５,2023-05-18_10h13.42.050,RL,2022.2.5,59.82099166643925,
36,48,66,59,0,82,82,82,,,,,,,,None,518.9583959998563,518.9583959998563,518.9583959998563,518.9583959998563,518.9583959998563,518.9583959998563,r,0.41216230019927025,519.39324019989,519.39324019989,519.39324019989,519.39324019989,519.39324019989,519.39324019989,519.6752793998457,520.80814619991,520.8247207000386,520.8247207000386,520.8247207000386,520.8247207000386,520.8247207000386,520.8247207000386,520.8247207000386,520.8247207000386,520.8247207000386,520.8247207000386,520.8247207000386,520.8247207000386,520.8247207000386,522.256420499878,522.256420499878,522.256420499878,522.256420499878,522.256420499878,522.256420499878,522.256420499878,59,66,36,48,66,60,522.256420499878,524.2070855000056,,,,,,,,,,,,,,,,,,,,３０３,f,２５,2023-05-18_10h13.42.050,RL,2022.2.5,59.82099166643925,
42,45,64,57,0,83,83,83,,,,,,,,None,524.2070855000056,524.2070855000056,524.2070855000056,524.2070855000056,524.2070855000056,524.2070855000056,r,0.3453383999876678,524.5747344999108,524.5747344999108,524.5747344999108,524.5747344999108,524.5747344999108,524.5747344999108,524.8574568000622,526.6406526998617,526.657274399884,526.657274399884,526.657274399884,526.657274399884,526.657274399884,526.657274399884,526.657274399884,526.657274399884,526.657274399884,526.657274399884,526.657274399884,526.657274399884,526.657274399884,528.738990599988,528.738990599988,528.738990599988,528.738990599988,528.738990599988,528.738990599988,528.738990599988,57,64,42,45,64,60,528.738990599988,530.7392718000337,,,,,,,,,,,,,,,,,,,,３０３,f,２５,2023-05-18_10h13.42.050,RL,2022.2.5,59.82099166643925,
46,50,60,66,0,84,84,84,,,,,,,,None,530.7392718000337,530.7392718000337,530.7392718000337,530.7392718000337,530.7392718000337,530.7392718000337,f,0.548056700034067,531.3064786000177,531.3064786000177,531.3064786000177,531.3064786000177,531.3064786000177,531.3064786000177,531.6065235000569,533.4558428998571,533.4558428998571,533.4558428998571,533.4558428998571,533.4558428998571,533.4558428998571,533.4558428998571,533.4558428998571,533.4558428998571,533.4558428998571,533.4558428998571,533.4558428998571,533.4558428998571,533.4558428998571,535.6037936999928,535.6037936999928,535.6037936999928,535.6037936999928,535.6037936999928,535.6037936999928,535.6037936999928,66,60,46,50,66,60,535.6037936999928,537.5881624999456,,,,,,,,,,,,,,,,,,,,３０３,f,２５,2023-05-18_10h13.42.050,RL,2022.2.5,59.82099166643925,
43,51,53,63,0,85,85,85,,,,,,,,None,537.5881624999456,537.5881624999456,537.5881624999456,537.5881624999456,537.5881624999456,537.5881624999456,f,0.4822251999285072,538.0885777999647,538.0885777999647,538.0885777999647,538.0885777999647,538.0885777999647,538.0885777999647,538.3718204000033,540.1048101000488,540.1213342000265,540.1213342000265,540.1213342000265,540.1213342000265,540.1213342000265,540.1213342000265,540.1213342000265,540.1213342000265,540.1213342000265,540.1213342000265,540.1213342000265,540.1213342000265,540.1213342000265,542.1529037000146,542.1529037000146,542.1529037000146,542.1529037000146,542.1529037000146,542.1529037000146,542.1529037000146,63,53,43,51,63,60,542.1529037000146,544.1543195999693,,,,,,,,,,,,,,,,,,,,３０３,f,２５,2023-05-18_10h13.42.050,RL,2022.2.5,59.82099166643925,
50,43,59,62,0,86,86,86,,,,,,,,None,544.1543195999693,544.1543195999693,544.1543195999693,544.1543195999693,544.1543195999693,544.1543195999693,f,0.2685109998565167,544.4581716000102,544.4581716000102,544.4581716000102,544.4581716000102,544.4581716000102,544.4581716000102,544.7539142000023,545.7371391998604,545.7371391998604,545.7371391998604,545.7371391998604,545.7371391998604,545.7371391998604,545.7371391998604,545.7371391998604,545.7371391998604,545.7371391998604,545.7371391998604,545.7371391998604,545.7371391998604,545.7371391998604,547.0189713998698,547.0189713998698,547.0189713998698,547.0189713998698,547.0189713998698,547.0189713998698,547.0189713998698,62,59,50,43,62,60,547.0189713998698,548.6868443998974,,,,,,,,,,,,,,,,,,,,３０３,f,２５,2023-05-18_10h13.42.050,RL,2022.2.5,59.82099166643925,
51,39,58,63,0,87,87,87,,,,,,,,None,548.6868443998974,548.6868443998974,548.6868443998974,548.6868443998974,548.6868443998974,548.6868443998974,f,0.27898780000396073,548.9869480999187,548.9869480999187,548.9869480999187,548.9869480999187,548.9869480999187,548.9869480999187,549.2702647000551,550.5200320000295,550.5368149999995,550.5368149999995,550.5368149999995,550.5368149999995,550.5368149999995,550.5368149999995,550.5368149999995,550.5368149999995,550.5368149999995,550.5368149999995,550.5368149999995,550.5368149999995,550.5368149999995,552.0842744000256,552.0842744000256,552.0842744000256,552.0842744000256,552.0842744000256,552.0842744000256,552.0842744000256,63,58,51,39,63,60,552.0842744000256,553.8025839000475,,,,,,,,,,,,,,,,,,,,３０３,f,２５,2023-05-18_10h13.42.050,RL,2022.2.5,59.82099166643925,
41,37,63,57,0,88,88,88,,,,,,,,None,553.8025839000475,553.8025839000475,553.8025839000475,553.8025839000475,553.8025839000475,553.8025839000475,r,0.2983184000477195,554.1194869999308,554.1194869999308,554.1194869999308,554.1194869999308,554.1194869999308,554.1194869999308,554.402716799872,555.3692878000438,555.3855580000672,555.3855580000672,555.3855580000672,555.3855580000672,555.3855580000672,555.3855580000672,555.3855580000672,555.3855580000672,555.3855580000672,555.3855580000672,555.3855580000672,555.3855580000672,555.3855580000672,556.6501579000615,556.6501579000615,556.6501579000615,556.6501579000615,556.6501579000615,556.6501579000615,556.6501579000615,57,63,41,37,63,60,556.6501579000615,558.5347196999937,,,,,,,,,,,,,,,,,,,,３０３,f,２５,2023-05-18_10h13.42.050,RL,2022.2.5,59.82099166643925,
45,27,61,65,0,89,89,89,,,,,,,,None,558.5347196999937,558.5347196999937,558.5347196999937,558.5347196999937,558.5347196999937,558.5347196999937,i,0.3450094999279827,558.9016863000579,558.9016863000579,558.9016863000579,558.9016863000579,558.9016863000579,558.9016863000579,559.2017055999022,560.068037299905,560.068037299905,560.068037299905,560.068037299905,560.068037299905,560.068037299905,560.068037299905,560.068037299905,560.068037299905,560.068037299905,560.068037299905,560.068037299905,560.068037299905,560.068037299905,561.2326539000496,561.2326539000496,561.2326539000496,561.2326539000496,561.2326539000496,561.2326539000496,561.2326539000496,65,61,45,27,45,60,561.2326539000496,562.9341775998473,,,,,,,,,,,,,,,,,,,,３０３,f,２５,2023-05-18_10h13.42.050,RL,2022.2.5,59.82099166643925,
41,37,54,64,0,90,90,90,,,,,,,,None,562.9341775998473,562.9341775998473,562.9341775998473,562.9341775998473,562.9341775998473,562.9341775998473,j,0.2725845000240952,563.2344110000413,563.2344110000413,563.2344110000413,563.2344110000413,563.2344110000413,563.2344110000413,563.5340129998513,564.6839202998672,564.6839202998672,564.6839202998672,564.6839202998672,564.6839202998672,564.6839202998672,564.6839202998672,564.6839202998672,564.6839202998672,564.6839202998672,564.6839202998672,564.6839202998672,564.6839202998672,564.6839202998672,566.1321612999309,566.1321612999309,566.1321612999309,566.1321612999309,566.1321612999309,566.1321612999309,566.1321612999309,64,54,41,37,37,60,566.1321612999309,567.6998029998504,,,,,,,,,,,,,,,,,,,,３０３,f,２５,2023-05-18_10h13.42.050,RL,2022.2.5,59.82099166643925,
34,29,56,65,0,91,91,91,,,,,,,,None,567.6998029998504,567.6998029998504,567.6998029998504,567.6998029998504,567.6998029998504,567.6998029998504,r,0.403514500008896,568.1336618000641,568.1336618000641,568.1336618000641,568.1336618000641,568.1336618000641,568.1336618000641,568.4168886998668,569.4661890999414,569.4830755998846,569.4830755998846,569.4830755998846,569.4830755998846,569.4830755998846,569.4830755998846,569.4830755998846,569.4830755998846,569.4830755998846,569.4830755998846,569.4830755998846,569.4830755998846,569.4830755998846,570.8310852998402,570.8310852998402,570.8310852998402,570.8310852998402,570.8310852998402,570.8310852998402,570.8310852998402,65,56,34,29,56,60,570.8310852998402,572.7487496000249,,,,,,,,,,,,,,,,,,,,３０３,f,２５,2023-05-18_10h13.42.050,RL,2022.2.5,59.82099166643925,
36,36,54,62,0,92,92,92,,,,,,,,None,572.7487496000249,572.7487496000249,572.7487496000249,572.7487496000249,572.7487496000249,572.7487496000249,f,0.6008719000965357,573.3879318998661,573.3879318998661,573.3879318998661,573.3879318998661,573.3879318998661,573.3879318998661,573.6658133999445,574.8820646998938,574.8988607998472,574.8988607998472,574.8988607998472,574.8988607998472,574.8988607998472,574.8988607998472,574.8988607998472,574.8988607998472,574.8988607998472,574.8988607998472,574.8988607998472,574.8988607998472,574.8988607998472,576.4141287000384,576.4141287000384,576.4141287000384,576.4141287000384,576.4141287000384,576.4141287000384,576.4141287000384,62,54,36,36,62,60,576.4141287000384,578.0310736999381,,,,,,,,,,,,,,,,,,,,３０３,f,２５,2023-05-18_10h13.42.050,RL,2022.2.5,59.82099166643925,
45,39,53,64,0,93,93,93,,,,,,,,None,578.0310736999381,578.0310736999381,578.0310736999381,578.0310736999381,578.0310736999381,578.0310736999381,f,0.2859861000906676,578.3528358999174,578.3528358999174,578.3528358999174,578.3528358999174,578.3528358999174,578.3528358999174,578.6316074999049,580.3142684998456,580.3310330999084,580.3310330999084,580.3310330999084,580.3310330999084,580.3310330999084,580.3310330999084,580.3310330999084,580.3310330999084,580.3310330999084,580.3310330999084,580.3310330999084,580.3310330999084,580.3310330999084,582.312625200022,582.312625200022,582.312625200022,582.312625200022,582.312625200022,582.312625200022,582.312625200022,64,53,45,39,64,60,582.312625200022,583.8302328998689,,,,,,,,,,,,,,,,,,,,３０３,f,２５,2023-05-18_10h13.42.050,RL,2022.2.5,59.82099166643925,
48,34,49,55,0,94,94,94,,,,,,,,None,583.8302328998689,583.8302328998689,583.8302328998689,583.8302328998689,583.8302328998689,583.8302328998689,f,0.2765106000006199,584.1306533999741,584.1306533999741,584.1306533999741,584.1306533999741,584.1306533999741,584.1306533999741,584.4140486998949,585.3804059000686,585.397106199991,585.397106199991,585.397106199991,585.397106199991,585.397106199991,585.397106199991,585.397106199991,585.397106199991,585.397106199991,585.397106199991,585.397106199991,585.397106199991,585.397106199991,586.661647999892,586.661647999892,586.661647999892,586.661647999892,586.661647999892,586.661647999892,586.661647999892,55,49,48,34,55,60,586.661647999892,588.6465696999803,,,,,,,,,,,,,,,,,,,,３０３,f,２５,2023-05-18_10h13.42.050,RL,2022.2.5,59.82099166643925,
56,35,49,59,0,95,95,95,,,,,,,,None,588.6465696999803,588.6465696999803,588.6465696999803,588.6465696999803,588.6465696999803,588.6465696999803,f,0.2577557999175042,588.9302729999181,588.9302729999181,588.9302729999181,588.9302729999181,588.9302729999181,588.9302729999181,589.230140700005,590.4462258999702,590.4462258999702,590.4462258999702,590.4462258999702,590.4462258999702,590.4462258999702,590.4462258999702,590.4462258999702,590.4462258999702,590.4462258999702,590.4462258999702,590.4462258999702,590.4462258999702,590.4462258999702,591.9609085998964,591.9609085998964,591.9609085998964,591.9609085998964,591.9609085998964,591.9609085998964,591.9609085998964,59,49,56,35,59,60,591.9609085998964,593.7287953998893,,,,,,,,,,,,,,,,,,,,３０３,f,２５,2023-05-18_10h13.42.050,RL,2022.2.5,59.82099166643925,
53,45,45,51,0,96,96,96,,,,,,,,None,593.7287953998893,593.7287953998893,593.7287953998893,593.7287953998893,593.7287953998893,593.7287953998893,r,0.30823319987393916,594.0623569998425,594.0623569998425,594.0623569998425,594.0623569998425,594.0623569998425,594.0623569998425,594.3458296000026,595.2457888000645,595.261952099856,595.261952099856,595.261952099856,595.261952099856,595.261952099856,595.261952099856,595.261952099856,595.261952099856,595.261952099856,595.261952099856,595.261952099856,595.261952099856,595.261952099856,596.4603188000619,596.4603188000619,596.4603188000619,596.4603188000619,596.4603188000619,596.4603188000619,596.4603188000619,51,45,53,45,45,60,596.4603188000619,598.2941802998539,,,,,,,,,,,,,,,,,,,,３０３,f,２５,2023-05-18_10h13.42.050,RL,2022.2.5,59.82099166643925,
48,39,51,62,0,97,97,97,,,,,,,,None,598.2941802998539,598.2941802998539,598.2941802998539,598.2941802998539,598.2941802998539,598.2941802998539,f,0.28970309998840094,598.6113751998637,598.6113751998637,598.6113751998637,598.6113751998637,598.6113751998637,598.6113751998637,598.9113793999422,600.6777069999371,600.6777069999371,600.6777069999371,600.6777069999371,600.6777069999371,600.6777069999371,600.6777069999371,600.6777069999371,600.6777069999371,600.6777069999371,600.6777069999371,600.6777069999371,600.6777069999371,600.6777069999371,602.7421486999374,602.7421486999374,602.7421486999374,602.7421486999374,602.7421486999374,602.7421486999374,602.7421486999374,62,51,48,39,62,60,602.7421486999374,604.5096956999041,,,,,,,,,,,,,,,,,,,,３０３,f,２５,2023-05-18_10h13.42.050,RL,2022.2.5,59.82099166643925,
48,37,51,55,0,98,98,98,,,,,,,,None,604.5096956999041,604.5096956999041,604.5096956999041,604.5096956999041,604.5096956999041,604.5096956999041,f,0.3400129000656307,604.8787654000334,604.8787654000334,604.8787654000334,604.8787654000334,604.8787654000334,604.8787654000334,605.1772495000623,606.5099805998616,606.5099805998616,606.5099805998616,606.5099805998616,606.5099805998616,606.5099805998616,606.5099805998616,606.5099805998616,606.5099805998616,606.5099805998616,606.5099805998616,606.5099805998616,606.5099805998616,606.5099805998616,608.1413298000116,608.1413298000116,608.1413298000116,608.1413298000116,608.1413298000116,608.1413298000116,608.1413298000116,55,51,48,37,55,60,608.1413298000116,609.8425197999459,,,,,,,,,,,,,,,,,,,,３０３,f,２５,2023-05-18_10h13.42.050,RL,2022.2.5,59.82099166643925,
54,35,50,57,0,99,99,99,,,,,,,,None,609.8425197999459,609.8425197999459,609.8425197999459,609.8425197999459,609.8425197999459,609.8425197999459,j,0.26176220015622675,610.1261914998759,610.1261914998759,610.1261914998759,610.1261914998759,610.1261914998759,610.1261914998759,610.4092625998892,612.2592509000096,612.2757424998563,612.2757424998563,612.2757424998563,612.2757424998563,612.2757424998563,612.2757424998563,612.2757424998563,612.2757424998563,612.2757424998563,612.2757424998563,612.2757424998563,612.2757424998563,612.2757424998563,614.4239941998385,614.4239941998385,614.4239941998385,614.4239941998385,614.4239941998385,614.4239941998385,614.4239941998385,57,50,54,35,35,60,614.4239941998385,615.9916544998996,,,,,,,,,,,,,,,,,,,,３０３,f,２５,2023-05-18_10h13.42.050,RL,2022.2.5,59.82099166643925,
48,37,37,54,0,100,100,100,,,,,,,,None,615.9916544998996,615.9916544998996,615.9916544998996,615.9916544998996,615.9916544998996,615.9916544998996,f,0.2902379999868572,616.3108407000545,616.3108407000545,616.3108407000545,616.3108407000545,616.3108407000545,616.3108407000545,616.6081757999491,618.3911915000062,618.3911915000062,618.3911915000062,618.3911915000062,618.3911915000062,618.3911915000062,618.3911915000062,618.3911915000062,618.3911915000062,618.3911915000062,618.3911915000062,618.3911915000062,618.3911915000062,618.3911915000062,620.4726499000099,620.4726499000099,620.4726499000099,620.4726499000099,620.4726499000099,620.4726499000099,620.4726499000099,54,37,48,37,54,60,620.4726499000099,622.0236688998993,,,,,,,,,,,,,,,,,,,,３０３,f,２５,2023-05-18_10h13.42.050,RL,2022.2.5,59.82099166643925,
48,44,41,61,0,101,101,101,,,,,,,,None,622.0236688998993,622.0236688998993,622.0236688998993,622.0236688998993,622.0236688998993,622.0236688998993,r,0.2637365001719445,622.3079627000261,622.3079627000261,622.3079627000261,622.3079627000261,622.3079627000261,622.3079627000261,622.5908693999518,623.6405322998762,623.6573917998467,623.6573917998467,623.6573917998467,623.6573917998467,623.6573917998467,623.6573917998467,623.6573917998467,623.6573917998467,623.6573917998467,623.6573917998467,623.6573917998467,623.6573917998467,623.6573917998467,625.005313700065,625.005313700065,625.005313700065,625.005313700065,625.005313700065,625.005313700065,625.005313700065,61,41,48,44,41,60,625.005313700065,626.8725391000044,,,,,,,,,,,,,,,,,,,,３０３,f,２５,2023-05-18_10h13.42.050,RL,2022.2.5,59.82099166643925,
45,49,33,60,0,102,102,102,,,,,,,,None,626.8725391000044,626.8725391000044,626.8725391000044,626.8725391000044,626.8725391000044,626.8725391000044,f,0.1823211999144405,627.0735442000441,627.0735442000441,627.0735442000441,627.0735442000441,627.0735442000441,627.0735442000441,627.3564040998463,628.8394013999496,628.8566189999692,628.8566189999692,628.8566189999692,628.8566189999692,628.8566189999692,628.8566189999692,628.8566189999692,628.8566189999692,628.8566189999692,628.8566189999692,628.8566189999692,628.8566189999692,628.8566189999692,630.6377866999246,630.6377866999246,630.6377866999246,630.6377866999246,630.6377866999246,630.6377866999246,630.6377866999246,60,33,45,49,60,60,630.6377866999246,632.5885823999997,,,,,,,,,,,,,,,,,,,,３０３,f,２５,2023-05-18_10h13.42.050,RL,2022.2.5,59.82099166643925,
36,33,28,50,0,103,103,103,,,,,,,,None,632.5885823999997,632.5885823999997,632.5885823999997,632.5885823999997,632.5885823999997,632.5885823999997,i,0.3556067000608891,632.9721768000163,632.9721768000163,632.9721768000163,632.9721768000163,632.9721768000163,632.9721768000163,633.2553824998904,634.5388455998618,634.5550112000201,634.5550112000201,634.5550112000201,634.5550112000201,634.5550112000201,634.5550112000201,634.5550112000201,634.5550112000201,634.5550112000201,634.5550112000201,634.5550112000201,634.5550112000201,634.5550112000201,636.1367411999963,636.1367411999963,636.1367411999963,636.1367411999963,636.1367411999963,636.1367411999963,636.1367411999963,50,28,36,33,36,60,636.1367411999963,637.8372199998703,,,,,,,,,,,,,,,,,,,,３０３,f,２５,2023-05-18_10h13.42.050,RL,2022.2.5,59.82099166643925,
45,33,36,60,0,104,104,104,,,,,,,,None,637.8372199998703,637.8372199998703,637.8372199998703,637.8372199998703,637.8372199998703,637.8372199998703,i,0.4141179998405278,638.2712932999711,638.2712932999711,638.2712932999711,638.2712932999711,638.2712932999711,638.2712932999711,638.5548072999809,640.154571000021,640.1708009999711,640.1708009999711,640.1708009999711,640.1708009999711,640.1708009999711,640.1708009999711,640.1708009999711,640.1708009999711,640.1708009999711,640.1708009999711,640.1708009999711,640.1708009999711,640.1708009999711,642.0688135998789,642.0688135998789,642.0688135998789,642.0688135998789,642.0688135998789,642.0688135998789,642.0688135998789,60,36,45,33,45,60,642.0688135998789,643.9366297000088,,,,,,,,,,,,,,,,,,,,３０３,f,２５,2023-05-18_10h13.42.050,RL,2022.2.5,59.82099166643925,
46,35,38,56,0,105,105,105,,,,,,,,None,643.9366297000088,643.9366297000088,643.9366297000088,643.9366297000088,643.9366297000088,643.9366297000088,f,0.3017048998735845,644.274208900053,644.274208900053,644.274208900053,644.274208900053,644.274208900053,644.274208900053,644.5539520999882,645.6035571999382,645.636829999974,645.636829999974,645.636829999974,645.636829999974,645.636829999974,645.636829999974,645.636829999974,645.636829999974,645.636829999974,645.636829999974,645.636829999974,645.636829999974,645.636829999974,646.9850313998759,646.9850313998759,646.9850313998759,646.9850313998759,646.9850313998759,646.9850313998759,646.9850313998759,56,38,46,35,56,60,646.9850313998759,648.8019350999966,,,,,,,,,,,,,,,,,,,,３０３,f,２５,2023-05-18_10h13.42.050,RL,2022.2.5,59.82099166643925,
42,47,41,50,0,106,106,106,,,,,,,,None,648.8019350999966,648.8019350999966,648.8019350999966,648.8019350999966,648.8019350999966,648.8019350999966,f,0.2918540998362005,649.1196443999652,649.1196443999652,649.1196443999652,649.1196443999652,649.1196443999652,649.1196443999652,649.4024455000181,650.3356647000182,650.3523678998463,650.3523678998463,650.3523678998463,650.3523678998463,650.3523678998463,650.3523678998463,650.3523678998463,650.3523678998463,650.3523678998463,650.3523678998463,650.3523678998463,650.3523678998463,650.3523678998463,651.5835768000688,651.5835768000688,651.5835768000688,651.5835768000688,651.5835768000688,651.5835768000688,651.5835768000688,50,41,42,47,50,60,651.5835768000688,653.5852997999173,,,,,,,,,,,,,,,,,,,,３０３,f,２５,2023-05-18_10h13.42.050,RL,2022.2.5,59.82099166643925,
47,29,41,50,0,107,107,107,,,,,,,,None,653.5852997999173,653.5852997999173,653.5852997999173,653.5852997999173,653.5852997999173,653.5852997999173,f,0.2959201999474317,653.9041557998862,653.9041557998862,653.9041557998862,653.9041557998862,653.9041557998862,653.9041557998862,654.1855722998735,655.2353064999916,655.2684098999016,655.2684098999016,655.2684098999016,655.2684098999016,655.2684098999016,655.2684098999016,655.2684098999016,655.2684098999016,655.2684098999016,655.2684098999016,655.2684098999016,655.2684098999016,655.2684098999016,656.6165505999234,656.6165505999234,656.6165505999234,656.6165505999234,656.6165505999234,656.6165505999234,656.6165505999234,50,41,47,29,50,60,656.6165505999234,658.3837502999231,,,,,,,,,,,,,,,,,,,,３０３,f,２５,2023-05-18_10h13.42.050,RL,2022.2.5,59.82099166643925,
49,35,43,57,0,108,108,108,,,,,,,,None,658.3837502999231,658.3837502999231,658.3837502999231,658.3837502999231,658.3837502999231,658.3837502999231,r,0.25644510006532073,658.6692901998758,658.6692901998758,658.6692901998758,658.6692901998758,658.6692901998758,658.6692901998758,658.9675413998775,659.8507353998721,659.8507353998721,659.8507353998721,659.8507353998721,659.8507353998721,659.8507353998721,659.8507353998721,659.8507353998721,659.8507353998721,659.8507353998721,659.8507353998721,659.8507353998721,659.8507353998721,659.8507353998721,661.0325551999267,661.0325551999267,661.0325551999267,661.0325551999267,661.0325551999267,661.0325551999267,661.0325551999267,57,43,49,35,43,60,661.0325551999267,662.8329846998677,,,,,,,,,,,,,,,,,,,,３０３,f,２５,2023-05-18_10h13.42.050,RL,2022.2.5,59.82099166643925,
43,37,46,51,0,109,109,109,,,,,,,,None,662.8329846998677,662.8329846998677,662.8329846998677,662.8329846998677,662.8329846998677,662.8329846998677,j,0.2672327999025583,663.142458899878,663.142458899878,663.142458899878,663.142458899878,663.142458899878,663.142458899878,663.4172251999844,664.4503629999235,664.4670483998489,664.4670483998489,664.4670483998489,664.4670483998489,664.4670483998489,664.4670483998489,664.4670483998489,664.4670483998489,664.4670483998489,664.4670483998489,664.4670483998489,664.4670483998489,664.4670483998489,665.7978439999279,665.7978439999279,665.7978439999279,665.7978439999279,665.7978439999279,665.7978439999279,665.7978439999279,51,46,43,37,37,60,665.7978439999279,667.7322491998784,,,,,,,,,,,,,,,,,,,,３０３,f,２５,2023-05-18_10h13.42.050,RL,2022.2.5,59.82099166643925,
49,34,51,60,0,110,110,110,,,,,,,,None,667.7322491998784,667.7322491998784,667.7322491998784,667.7322491998784,667.7322491998784,667.7322491998784,f,0.5123342000879347,668.2677422000561,668.2677422000561,668.2677422000561,668.2677422000561,668.2677422000561,668.2677422000561,668.5494206000585,670.2492184999865,670.265446400037,670.265446400037,670.265446400037,670.265446400037,670.265446400037,670.265446400037,670.265446400037,670.265446400037,670.265446400037,670.265446400037,670.265446400037,670.265446400037,670.265446400037,672.2636269000359,672.2636269000359,672.2636269000359,672.2636269000359,672.2636269000359,672.2636269000359,672.2636269000359,60,51,49,34,60,60,672.2636269000359,674.0984833000693,,,,,,,,,,,,,,,,,,,,３０３,f,２５,2023-05-18_10h13.42.050,RL,2022.2.5,59.82099166643925,
47,45,43,59,0,111,111,111,,,,,,,,None,674.0984833000693,674.0984833000693,674.0984833000693,674.0984833000693,674.0984833000693,674.0984833000693,f,0.3518705000169575,674.4851003999356,674.4851003999356,674.4851003999356,674.4851003999356,674.4851003999356,674.4851003999356,674.7654075999744,676.1313060999382,676.1479906998575,676.1479906998575,676.1479906998575,676.1479906998575,676.1479906998575,676.1479906998575,676.1479906998575,676.1479906998575,676.1479906998575,676.1479906998575,676.1479906998575,676.1479906998575,676.1479906998575,677.8128809998743,677.8128809998743,677.8128809998743,677.8128809998743,677.8128809998743,677.8128809998743,677.8128809998743,59,43,47,45,59,60,677.8128809998743,679.3636590000242,,,,,,,,,,,,,,,,,,,,３０３,f,２５,2023-05-18_10h13.42.050,RL,2022.2.5,59.82099166643925,
63,42,53,54,0,112,112,112,,,,,,,,None,679.3636590000242,679.3636590000242,679.3636590000242,679.3636590000242,679.3636590000242,679.3636590000242,f,0.2859551999717951,679.6853048000485,679.6853048000485,679.6853048000485,679.6853048000485,679.6853048000485,679.6853048000485,679.9640207998455,681.2474972000346,681.263821600005,681.263821600005,681.263821600005,681.263821600005,681.263821600005,681.263821600005,681.263821600005,681.263821600005,681.263821600005,681.263821600005,681.263821600005,681.263821600005,681.263821600005,682.8446575000416,682.8446575000416,682.8446575000416,682.8446575000416,682.8446575000416,682.8446575000416,682.8446575000416,54,53,63,42,54,60,682.8446575000416,684.5961015999783,,,,,,,,,,,,,,,,,,,,３０３,f,２５,2023-05-18_10h13.42.050,RL,2022.2.5,59.82099166643925,
58,42,49,58,0,113,113,113,,,,,,,,None,684.5961015999783,684.5961015999783,684.5961015999783,684.5961015999783,684.5961015999783,684.5961015999783,f,0.3578367999289185,684.9799509998411,684.9799509998411,684.9799509998411,684.9799509998411,684.9799509998411,684.9799509998411,685.2629871000536,686.379337699851,686.3962218998931,686.3962218998931,686.3962218998931,686.3962218998931,686.3962218998931,686.3962218998931,686.3962218998931,686.3962218998931,686.3962218998931,686.3962218998931,686.3962218998931,686.3962218998931,686.3962218998931,687.8108679000288,687.8108679000288,687.8108679000288,687.8108679000288,687.8108679000288,687.8108679000288,687.8108679000288,58,49,58,42,58,60,687.8108679000288,689.7118344998453,,,,,,,,,,,,,,,,,,,,３０３,f,２５,2023-05-18_10h13.42.050,RL,2022.2.5,59.82099166643925,
62,49,50,57,0,114,114,114,,,,,,,,None,689.7118344998453,689.7118344998453,689.7118344998453,689.7118344998453,689.7118344998453,689.7118344998453,f,0.360598900122568,690.0959012999665,690.0959012999665,690.0959012999665,690.0959012999665,690.0959012999665,690.0959012999665,690.3787956999149,691.1953747998923,691.211845499929,691.211845499929,691.211845499929,691.211845499929,691.211845499929,691.211845499929,691.211845499929,691.211845499929,691.211845499929,691.211845499929,691.211845499929,691.211845499929,691.211845499929,692.326718499884,692.326718499884,692.326718499884,692.326718499884,692.326718499884,692.326718499884,692.326718499884,57,50,62,49,57,60,692.326718499884,694.0776927999686,,,,,,,,,,,,,,,,,,,,３０３,f,２５,2023-05-18_10h13.42.050,RL,2022.2.5,59.82099166643925,
58,36,45,51,0,115,115,115,,,,,,,,None,694.0776927999686,694.0776927999686,694.0776927999686,694.0776927999686,694.0776927999686,694.0776927999686,j,0.29762359987944365,694.3947709000204,694.3947709000204,694.3947709000204,694.3947709000204,694.3947709000204,694.3947709000204,694.6781425999943,695.9116654999088,695.9282614998519,695.9282614998519,695.9282614998519,695.9282614998519,695.9282614998519,695.9282614998519,695.9282614998519,695.9282614998519,695.9282614998519,695.9282614998519,695.9282614998519,695.9282614998519,695.9282614998519,697.4594837999903,697.4594837999903,697.4594837999903,697.4594837999903,697.4594837999903,697.4594837999903,697.4594837999903,51,45,58,36,36,60,697.4594837999903,699.3102464999538,,,,,,,,,,,,,,,,,,,,３０３,f,２５,2023-05-18_10h13.42.050,RL,2022.2.5,59.82099166643925,
58,45,48,55,0,116,116,116,,,,,,,,None,699.3102464999538,699.3102464999538,699.3102464999538,699.3102464999538,699.3102464999538,699.3102464999538,j,0.3942335001192987,699.729788800003,699.729788800003,699.729788800003,699.729788800003,699.729788800003,699.729788800003,700.0107477998827,701.0271648999769,701.0438083000481,701.0438083000481,701.0438083000481,701.0438083000481,701.0438083000481,701.0438083000481,701.0438083000481,701.0438083000481,701.0438083000481,701.0438083000481,701.0438083000481,701.0438083000481,701.0438083000481,702.3586534999777,702.3586534999777,702.3586534999777,702.3586534999777,702.3586534999777,702.3586534999777,702.3586534999777,55,48,58,45,45,60,702.3586534999777,704.3429175000638,,,,,,,,,,,,,,,,,,,,３０３,f,２５,2023-05-18_10h13.42.050,RL,2022.2.5,59.82099166643925,
60,43,46,56,0,117,117,117,,,,,,,,None,704.3429175000638,704.3429175000638,704.3429175000638,704.3429175000638,704.3429175000638,704.3429175000638,f,0.2959344000555575,704.6599089999218,704.6599089999218,704.6599089999218,704.6599089999218,704.6599089999218,704.6599089999218,704.9594636999536,706.5760888999794,706.5760888999794,706.5760888999794,706.5760888999794,706.5760888999794,706.5760888999794,706.5760888999794,706.5760888999794,706.5760888999794,706.5760888999794,706.5760888999794,706.5760888999794,706.5760888999794,706.5760888999794,708.4907768999692,708.4907768999692,708.4907768999692,708.4907768999692,708.4907768999692,708.4907768999692,708.4907768999692,56,46,60,43,56,60,708.4907768999692,710.1249982998706,,,,,,,,,,,,,,,,,,,,３０３,f,２５,2023-05-18_10h13.42.050,RL,2022.2.5,59.82099166643925,
65,46,52,43,0,118,118,118,,,,,,,,None,710.1249982998706,710.1249982998706,710.1249982998706,710.1249982998706,710.1249982998706,710.1249982998706,f,0.2719712001271546,710.4266003000084,710.4266003000084,710.4266003000084,710.4266003000084,710.4266003000084,710.4266003000084,710.7255402998999,712.1417652000673,712.1417652000673,712.1417652000673,712.1417652000673,712.1417652000673,712.1417652000673,712.1417652000673,712.1417652000673,712.1417652000673,712.1417652000673,712.1417652000673,712.1417652000673,712.1417652000673,712.1417652000673,713.8562151999213,713.8562151999213,713.8562151999213,713.8562151999213,713.8562151999213,713.8562151999213,713.8562151999213,43,52,65,46,43,60,713.8562151999213,715.757595299976,,,,,,,,,,,,,,,,,,,,３０３,f,２５,2023-05-18_10h13.42.050,RL,2022.2.5,59.82099166643925,
62,40,46,52,0,119,119,119,,,,,,,,None,715.757595299976,715.757595299976,715.757595299976,715.757595299976,715.757595299976,715.757595299976,i,0.291015800088644,716.0744797000661,716.0744797000661,716.0744797000661,716.0744797000661,716.0744797000661,716.0744797000661,716.3745605000295,717.8572839000262,717.8572839000262,717.8572839000262,717.8572839000262,717.8572839000262,717.8572839000262,717.8572839000262,717.8572839000262,717.8572839000262,717.8572839000262,717.8572839000262,717.8572839000262,717.8572839000262,717.8572839000262,719.6386841998901,719.6386841998901,719.6386841998901,719.6386841998901,719.6386841998901,719.6386841998901,719.6386841998901,52,46,62,40,62,60,719.6386841998901,721.4567076999228,,,,,,,,,,,,,,,,,,,,３０３,f,２５,2023-05-18_10h13.42.050,RL,2022.2.5,59.82099166643925,
59,39,58,44,0,120,120,120,,,,,,,,None,721.4567076999228,721.4567076999228,721.4567076999228,721.4567076999228,721.4567076999228,721.4567076999228,i,0.46918449993245304,721.9628165999893,721.9628165999893,721.9628165999893,721.9628165999893,721.9628165999893,721.9628165999893,722.2404903999995,723.5227822000161,723.5395633999724,723.5395633999724,723.5395633999724,723.5395633999724,723.5395633999724,723.5395633999724,723.5395633999724,723.5395633999724,723.5395633999724,723.5395633999724,723.5395633999724,723.5395633999724,723.5395633999724,725.1210532998666,725.1210532998666,725.1210532998666,725.1210532998666,725.1210532998666,725.1210532998666,725.1210532998666,44,58,59,39,59,60,725.1210532998666,726.7716621998698,,,,,,,,,,,,,,,,,,,,３０３,f,２５,2023-05-18_10h13.42.050,RL,2022.2.5,59.82099166643925,
