arm1,arm2,arm3,arm4,trials.thisRepN,trials.thisTrialN,trials.thisN,trials.thisIndex,instru_img1.started,instru_resp.started,instru_resp.keys,instru_resp.rt,image_2.started,text_2.started,fixbefore_2.started,rest_response.keys,red.started,green.started,yellow.started,blue.started,choose_bandit.started,Fixation.started,choose_bandit.keys,choose_bandit.rt,black.started,red_2.started,green_2.started,yellow_2.started,blue_2.started,fixation_2.started,docs.started,docs.stopped,black.stopped,red_2.stopped,green_2.stopped,yellow_2.stopped,blue_2.stopped,fixation_2.stopped,black_com.started,reward_sub.started,reward__sub.started,red_compare.started,green_com.started,yellow_com.started,blue_com.started,black_com.stopped,reward_sub.stopped,reward__sub.stopped,red_compare.stopped,green_com.stopped,yellow_com.stopped,blue_com.stopped,rewardred,rewardyellow,rewardblue,rewardgreen,subchoose,expectation,intertrialfix.started,intertrialfix.stopped,red.stopped,green.stopped,yellow.stopped,blue.stopped,choose_bandit.stopped,Fixation.stopped,bigx.started,bigx.stopped,rest_image.started,rest_response.started,rest_response.rt,image_expect_after.started,text_exp_after.started,image_expect_after.stopped,text_exp_after.stopped,image.started,key_resp.started,key_resp.keys,key_resp.rt,participant,Gender,Age,date,expName,psychopyVersion,frameRate,
,,,,,,,,22.396157700000003,22.396157700000003,space,28.78538850000001,,,,,,,,,,,,,,,,,,,,,,,,,,,,,,,,,,,,,,,,,,,,,,,,,,,,,,,,,,,,,,,,,,,,３０４,f,２３,2023-05-18_10h49.16.002,RL,2022.2.5,59.98148971227583,
23,49,57,49,0,0,0,0,,,,,51.2055199,51.2055199,56.219792600000005,None,57.2220719,57.2220719,57.2220719,57.2220719,57.2220719,57.2220719,f,0.602497800000009,57.8845383,57.8845383,57.8845383,57.8845383,57.8845383,57.8845383,58.154650200000006,59.7877419,59.8218363,59.8218363,59.8218363,59.8218363,59.8218363,59.8218363,59.8218363,59.8218363,59.8218363,59.8218363,59.8218363,59.8218363,59.8218363,61.81648700000001,61.81648700000001,61.81648700000001,61.81648700000001,61.81648700000001,61.81648700000001,61.81648700000001,23,49,49,57,23,70,61.81648700000001,63.75308100000001,,,,,,,,,,,,,,,,,,,,３０４,f,２３,2023-05-18_10h49.16.002,RL,2022.2.5,59.98148971227583,
31,50,52,58,0,1,1,1,,,,,,,,None,63.75308100000001,63.75308100000001,63.75308100000001,63.75308100000001,63.75308100000001,63.75308100000001,i,1.0883189999999985,64.8703888,64.8703888,64.8703888,64.8703888,64.8703888,64.8703888,65.1530785,66.38658550000001,66.4119811,66.4119811,66.4119811,66.4119811,66.4119811,66.4119811,66.4119811,66.4119811,66.4119811,66.4119811,66.4119811,66.4119811,66.4119811,67.9346161,67.9346161,67.9346161,67.9346161,67.9346161,67.9346161,67.9346161,31,50,58,52,58,70,67.9346161,69.45265400000001,,,,,,,,,,,,,,,,,,,,３０４,f,２３,2023-05-18_10h49.16.002,RL,2022.2.5,59.98148971227583,
33,47,49,48,0,2,2,2,,,,,,,,None,69.45265400000001,69.45265400000001,69.45265400000001,69.45265400000001,69.45265400000001,69.45265400000001,r,0.5931299000000081,70.07577400000001,70.07577400000001,70.07577400000001,70.07577400000001,70.07577400000001,70.07577400000001,70.3525406,71.5355962,71.5523885,71.5523885,71.5523885,71.5523885,71.5523885,71.5523885,71.5523885,71.5523885,71.5523885,71.5523885,71.5523885,71.5523885,71.5523885,73.0170136,73.0170136,73.0170136,73.0170136,73.0170136,73.0170136,73.0170136,33,47,48,49,47,70,73.0170136,74.9178887,,,,,,,,,,,,,,,,,,,,３０４,f,２３,2023-05-18_10h49.16.002,RL,2022.2.5,59.98148971227583,
22,52,57,50,0,3,3,3,,,,,,,,None,74.9178887,74.9178887,74.9178887,74.9178887,74.9178887,74.9178887,i,0.3983776999999975,75.3429036,75.3429036,75.3429036,75.3429036,75.3429036,75.3429036,75.6183549,77.01796250000001,77.0367471,77.0367471,77.0367471,77.0367471,77.0367471,77.0367471,77.0367471,77.0367471,77.0367471,77.0367471,77.0367471,77.0367471,77.0367471,78.73252980000001,78.73252980000001,78.73252980000001,78.73252980000001,78.73252980000001,78.73252980000001,78.73252980000001,22,52,50,57,50,70,78.73252980000001,80.5169398,,,,,,,,,,,,,,,,,,,,３０４,f,２３,2023-05-18_10h49.16.002,RL,2022.2.5,59.98148971227583,
27,52,60,61,0,4,4,4,,,,,,,,None,80.5169398,80.5169398,80.5169398,80.5169398,80.5169398,80.5169398,j,0.6104801999999978,81.1584899,81.1584899,81.1584899,81.1584899,81.1584899,81.1584899,81.4336783,82.5503594,82.58368490000001,82.58368490000001,82.58368490000001,82.58368490000001,82.58368490000001,82.58368490000001,82.58368490000001,82.58368490000001,82.58368490000001,82.58368490000001,82.58368490000001,82.58368490000001,82.58368490000001,83.9984812,83.9984812,83.9984812,83.9984812,83.9984812,83.9984812,83.9984812,27,52,61,60,60,70,83.9984812,85.89973619999999,,,,,,,,,,,,,,,,,,,,３０４,f,２３,2023-05-18_10h49.16.002,RL,2022.2.5,59.98148971227583,
30,53,66,55,0,5,5,5,,,,,,,,None,85.89973619999999,85.89973619999999,85.89973619999999,85.89973619999999,85.89973619999999,85.89973619999999,r,0.5622922999999957,86.4925745,86.4925745,86.4925745,86.4925745,86.4925745,86.4925745,86.76667300000001,88.71610110000002,88.75358920000001,88.75358920000001,88.75358920000001,88.75358920000001,88.75358920000001,88.75358920000001,88.75358920000001,88.75358920000001,88.75358920000001,88.75358920000001,88.75358920000001,88.75358920000001,88.75358920000001,90.9968181,90.9968181,90.9968181,90.9968181,90.9968181,90.9968181,90.9968181,30,53,55,66,53,70,90.9968181,92.9483526,,,,,,,,,,,,,,,,,,,,３０４,f,２３,2023-05-18_10h49.16.002,RL,2022.2.5,59.98148971227583,
32,55,63,55,0,6,6,6,,,,,,,,None,92.9483526,92.9483526,92.9483526,92.9483526,92.9483526,92.9483526,r,0.40257109999998875,93.3874494,93.3874494,93.3874494,93.3874494,93.3874494,93.3874494,93.66537000000001,94.8652005,94.8818605,94.8818605,94.8818605,94.8818605,94.8818605,94.8818605,94.8818605,94.8818605,94.8818605,94.8818605,94.8818605,94.8818605,94.8818605,96.3797517,96.3797517,96.3797517,96.3797517,96.3797517,96.3797517,96.3797517,32,55,55,63,55,70,96.3797517,98.0640969,,,,,,,,,,,,,,,,,,,,３０４,f,２３,2023-05-18_10h49.16.002,RL,2022.2.5,59.98148971227583,
31,42,76,54,0,7,7,7,,,,,,,,None,98.0640969,98.0640969,98.0640969,98.0640969,98.0640969,98.0640969,j,1.1212540999999874,99.2155361,99.2155361,99.2155361,99.2155361,99.2155361,99.2155361,99.4972728,100.7140994,100.73073889999999,100.73073889999999,100.73073889999999,100.73073889999999,100.73073889999999,100.73073889999999,100.73073889999999,100.73073889999999,100.73073889999999,100.73073889999999,100.73073889999999,100.73073889999999,100.73073889999999,102.2453579,102.2453579,102.2453579,102.2453579,102.2453579,102.2453579,102.2453579,31,42,54,76,76,70,102.2453579,103.89637570000001,,,,,,,,,,,,,,,,,,,,３０４,f,２３,2023-05-18_10h49.16.002,RL,2022.2.5,59.98148971227583,
30,60,69,63,0,8,8,8,,,,,,,,None,103.89637570000001,103.89637570000001,103.89637570000001,103.89637570000001,103.89637570000001,103.89637570000001,j,1.0543092000000058,104.9849128,104.9849128,104.9849128,104.9849128,104.9849128,104.9849128,105.26383249999999,106.07994800000002,106.117013,106.117013,106.117013,106.117013,106.117013,106.117013,106.117013,106.117013,106.117013,106.117013,106.117013,106.117013,106.117013,107.2443099,107.2443099,107.2443099,107.2443099,107.2443099,107.2443099,107.2443099,30,60,63,69,69,70,107.2443099,109.1454111,,,,,,,,,,,,,,,,,,,,３０４,f,２３,2023-05-18_10h49.16.002,RL,2022.2.5,59.98148971227583,
31,53,68,55,0,9,9,9,,,,,,,,None,109.1454111,109.1454111,109.1454111,109.1454111,109.1454111,109.1454111,j,1.1366093999999975,110.32267979999999,110.32267979999999,110.32267979999999,110.32267979999999,110.32267979999999,110.32267979999999,110.59563039999999,112.54495329999999,112.57831360000002,112.57831360000002,112.57831360000002,112.57831360000002,112.57831360000002,112.57831360000002,112.57831360000002,112.57831360000002,112.57831360000002,112.57831360000002,112.57831360000002,112.57831360000002,112.57831360000002,114.8260031,114.8260031,114.8260031,114.8260031,114.8260031,114.8260031,114.8260031,31,53,55,68,68,70,114.8260031,116.74404779999999,,,,,,,,,,,,,,,,,,,,３０４,f,２３,2023-05-18_10h49.16.002,RL,2022.2.5,59.98148971227583,
39,56,63,53,0,10,10,10,,,,,,,,None,116.74404779999999,116.74404779999999,116.74404779999999,116.74404779999999,116.74404779999999,116.74404779999999,f,0.3585368000000244,117.127957,117.127957,117.127957,117.127957,117.127957,117.127957,117.4109223,118.7938462,118.8104555,118.8104555,118.8104555,118.8104555,118.8104555,118.8104555,118.8104555,118.8104555,118.8104555,118.8104555,118.8104555,118.8104555,118.8104555,120.4919526,120.4919526,120.4919526,120.4919526,120.4919526,120.4919526,120.4919526,39,56,53,63,39,70,120.4919526,122.0099981,,,,,,,,,,,,,,,,,,,,３０４,f,２３,2023-05-18_10h49.16.002,RL,2022.2.5,59.98148971227583,
33,62,66,49,0,11,11,11,,,,,,,,None,122.0099981,122.0099981,122.0099981,122.0099981,122.0099981,122.0099981,i,0.6765058999999951,122.72208239999999,122.72208239999999,122.72208239999999,122.72208239999999,122.72208239999999,122.72208239999999,122.99321010000001,124.7931679,124.8262672,124.8262672,124.8262672,124.8262672,124.8262672,124.8262672,124.8262672,124.8262672,124.8262672,124.8262672,124.8262672,124.8262672,124.8262672,126.9242723,126.9242723,126.9242723,126.9242723,126.9242723,126.9242723,126.9242723,33,62,49,66,49,70,126.9242723,128.79199950000003,,,,,,,,,,,,,,,,,,,,３０４,f,２３,2023-05-18_10h49.16.002,RL,2022.2.5,59.98148971227583,
35,55,65,55,0,12,12,12,,,,,,,,None,128.79199950000003,128.79199950000003,128.79199950000003,128.79199950000003,128.79199950000003,128.79199950000003,r,0.9487206999999955,129.76860069999998,129.76860069999998,129.76860069999998,129.76860069999998,129.76860069999998,129.76860069999998,130.0420016,131.5417928,131.55867870000003,131.55867870000003,131.55867870000003,131.55867870000003,131.55867870000003,131.55867870000003,131.55867870000003,131.55867870000003,131.55867870000003,131.55867870000003,131.55867870000003,131.55867870000003,131.55867870000003,133.3565441,133.3565441,133.3565441,133.3565441,133.3565441,133.3565441,133.3565441,35,55,55,65,55,70,133.3565441,135.00762530000003,,,,,,,,,,,,,,,,,,,,３０４,f,２３,2023-05-18_10h49.16.002,RL,2022.2.5,59.98148971227583,
39,53,66,53,0,13,13,13,,,,,,,,None,135.00762530000003,135.00762530000003,135.00762530000003,135.00762530000003,135.00762530000003,135.00762530000003,f,0.786898199999996,135.83314389999998,135.83314389999998,135.83314389999998,135.83314389999998,135.83314389999998,135.83314389999998,136.12451500000003,137.4075636,137.4242853,137.4242853,137.4242853,137.4242853,137.4242853,137.4242853,137.4242853,137.4242853,137.4242853,137.4242853,137.4242853,137.4242853,137.4242853,139.0054928,139.0054928,139.0054928,139.0054928,139.0054928,139.0054928,139.0054928,39,53,53,66,39,70,139.0054928,140.9399017,,,,,,,,,,,,,,,,,,,,３０４,f,２３,2023-05-18_10h49.16.002,RL,2022.2.5,59.98148971227583,
46,52,77,53,0,14,14,14,,,,,,,,None,140.9399017,140.9399017,140.9399017,140.9399017,140.9399017,140.9399017,i,1.4354653000000042,142.4134001,142.4134001,142.4134001,142.4134001,142.4134001,142.4134001,142.6900048,144.1066631,144.13994150000002,144.13994150000002,144.13994150000002,144.13994150000002,144.13994150000002,144.13994150000002,144.13994150000002,144.13994150000002,144.13994150000002,144.13994150000002,144.13994150000002,144.13994150000002,144.13994150000002,145.85429520000002,145.85429520000002,145.85429520000002,145.85429520000002,145.85429520000002,145.85429520000002,145.85429520000002,46,52,53,77,53,70,145.85429520000002,147.7216995,,,,,,,,,,,,,,,,,,,,３０４,f,２３,2023-05-18_10h49.16.002,RL,2022.2.5,59.98148971227583,
45,58,75,54,0,15,15,15,,,,,,,,None,147.7216995,147.7216995,147.7216995,147.7216995,147.7216995,147.7216995,j,0.8813011999999958,148.6284121,148.6284121,148.6284121,148.6284121,148.6284121,148.6284121,148.922348,150.8054275,150.8054275,150.8054275,150.8054275,150.8054275,150.8054275,150.8054275,150.8054275,150.8054275,150.8054275,150.8054275,150.8054275,150.8054275,150.8054275,152.98638929999998,152.98638929999998,152.98638929999998,152.98638929999998,152.98638929999998,152.98638929999998,152.98638929999998,45,58,54,75,75,70,152.98638929999998,154.5208308,,,,,,,,,,,,,,,,,,,,３０４,f,２３,2023-05-18_10h49.16.002,RL,2022.2.5,59.98148971227583,
43,52,71,57,0,16,16,16,,,,,,,,None,154.5208308,154.5208308,154.5208308,154.5208308,154.5208308,154.5208308,j,0.6891332000000148,155.25002949999998,155.25002949999998,155.25002949999998,155.25002949999998,155.25002949999998,155.25002949999998,155.52104300000002,157.48729860000003,157.52206489999998,157.52206489999998,157.52206489999998,157.52206489999998,157.52206489999998,157.52206489999998,157.52206489999998,157.52206489999998,157.52206489999998,157.52206489999998,157.52206489999998,157.52206489999998,157.52206489999998,159.7854554,159.7854554,159.7854554,159.7854554,159.7854554,159.7854554,159.7854554,43,52,57,71,71,70,159.7854554,161.50277690000001,,,,,,,,,,,,,,,,,,,,３０４,f,２３,2023-05-18_10h49.16.002,RL,2022.2.5,59.98148971227583,
41,61,68,57,0,17,17,17,,,,,,,,None,161.50277690000001,161.50277690000001,161.50277690000001,161.50277690000001,161.50277690000001,161.50277690000001,i,0.43347640000001775,161.9805766,161.9805766,161.9805766,161.9805766,161.9805766,161.9805766,162.26975629999998,164.036427,164.0528736,164.0528736,164.0528736,164.0528736,164.0528736,164.0528736,164.0528736,164.0528736,164.0528736,164.0528736,164.0528736,164.0528736,164.0528736,166.11737240000002,166.11737240000002,166.11737240000002,166.11737240000002,166.11737240000002,166.11737240000002,166.11737240000002,41,61,57,68,57,70,166.11737240000002,167.68547060000003,,,,,,,,,,,,,,,,,,,,３０４,f,２３,2023-05-18_10h49.16.002,RL,2022.2.5,59.98148971227583,
43,59,70,57,0,18,18,18,,,,,,,,None,167.68547060000003,167.68547060000003,167.68547060000003,167.68547060000003,167.68547060000003,167.68547060000003,j,0.6463322000000176,168.35898600000002,168.35898600000002,168.35898600000002,168.35898600000002,168.35898600000002,168.35898600000002,168.6356864,170.1021273,170.12195150000002,170.12195150000002,170.12195150000002,170.12195150000002,170.12195150000002,170.12195150000002,170.12195150000002,170.12195150000002,170.12195150000002,170.12195150000002,170.12195150000002,170.12195150000002,170.12195150000002,171.88336470000002,171.88336470000002,171.88336470000002,171.88336470000002,171.88336470000002,171.88336470000002,171.88336470000002,43,59,57,70,70,70,171.88336470000002,173.8673779,,,,,,,,,,,,,,,,,,,,３０４,f,２３,2023-05-18_10h49.16.002,RL,2022.2.5,59.98148971227583,
47,57,71,63,0,19,19,19,,,,,,,,None,173.8673779,173.8673779,173.8673779,173.8673779,173.8673779,173.8673779,f,0.6049943000000155,174.507902,174.507902,174.507902,174.507902,174.507902,174.507902,174.78449310000002,176.06752160000002,176.08431410000003,176.08431410000003,176.08431410000003,176.08431410000003,176.08431410000003,176.08431410000003,176.08431410000003,176.08431410000003,176.08431410000003,176.08431410000003,176.08431410000003,176.08431410000003,176.08431410000003,177.66535349999998,177.66535349999998,177.66535349999998,177.66535349999998,177.66535349999998,177.66535349999998,177.66535349999998,47,57,63,71,47,70,177.66535349999998,179.59989330000002,,,,,,,,,,,,,,,,,,,,３０４,f,２３,2023-05-18_10h49.16.002,RL,2022.2.5,59.98148971227583,
45,65,73,53,0,20,20,20,,,,,,,,None,179.59989330000002,179.59989330000002,179.59989330000002,179.59989330000002,179.59989330000002,179.59989330000002,j,0.6077459999999917,180.2383203,180.2383203,180.2383203,180.2383203,180.2383203,180.2383203,180.5166344,182.21616190000003,182.2331711,182.2331711,182.2331711,182.2331711,182.2331711,182.2331711,182.2331711,182.2331711,182.2331711,182.2331711,182.2331711,182.2331711,182.2331711,184.2313501,184.2313501,184.2313501,184.2313501,184.2313501,184.2313501,184.2313501,45,65,53,73,73,70,184.2313501,185.8820568,,,,,,,,,,,,,,,,,,,,３０４,f,２３,2023-05-18_10h49.16.002,RL,2022.2.5,59.98148971227583,
43,59,68,57,0,21,21,21,,,,,,,,None,185.8820568,185.8820568,185.8820568,185.8820568,185.8820568,185.8820568,j,1.293025599999993,187.2053029,187.2053029,187.2053029,187.2053029,187.2053029,187.2053029,187.48225209999998,188.51523229999998,188.53181060000003,188.53181060000003,188.53181060000003,188.53181060000003,188.53181060000003,188.53181060000003,188.53181060000003,188.53181060000003,188.53181060000003,188.53181060000003,188.53181060000003,188.53181060000003,188.53181060000003,189.8633077,189.8633077,189.8633077,189.8633077,189.8633077,189.8633077,189.8633077,43,59,57,68,68,70,189.8633077,191.5145147,,,,,,,,,,,,,,,,,,,,３０４,f,２３,2023-05-18_10h49.16.002,RL,2022.2.5,59.98148971227583,
48,62,69,56,0,22,22,22,,,,,,,,None,191.5145147,191.5145147,191.5145147,191.5145147,191.5145147,191.5145147,r,0.5935123000000146,192.13707649999998,192.13707649999998,192.13707649999998,192.13707649999998,192.13707649999998,192.13707649999998,192.4148813,194.11417469999998,194.133756,194.133756,194.133756,194.133756,194.133756,194.133756,194.133756,194.133756,194.133756,194.133756,194.133756,194.133756,194.133756,196.12891330000002,196.12891330000002,196.12891330000002,196.12891330000002,196.12891330000002,196.12891330000002,196.12891330000002,48,62,56,69,62,70,196.12891330000002,197.84675520000002,,,,,,,,,,,,,,,,,,,,３０４,f,２３,2023-05-18_10h49.16.002,RL,2022.2.5,59.98148971227583,
40,66,69,64,0,23,23,23,,,,,,,,None,197.84675520000002,197.84675520000002,197.84675520000002,197.84675520000002,197.84675520000002,197.84675520000002,j,0.8021064000000138,198.69210400000003,198.69210400000003,198.69210400000003,198.69210400000003,198.69210400000003,198.69210400000003,198.9633399,200.329862,200.36332600000003,200.36332600000003,200.36332600000003,200.36332600000003,200.36332600000003,200.36332600000003,200.36332600000003,200.36332600000003,200.36332600000003,200.36332600000003,200.36332600000003,200.36332600000003,200.36332600000003,202.02796039999998,202.02796039999998,202.02796039999998,202.02796039999998,202.02796039999998,202.02796039999998,202.02796039999998,40,66,64,69,69,70,202.02796039999998,203.5789709,,,,,,,,,,,,,,,,,,,,３０４,f,２３,2023-05-18_10h49.16.002,RL,2022.2.5,59.98148971227583,
37,70,68,57,0,24,24,24,,,,,,,,None,203.5789709,203.5789709,203.5789709,203.5789709,203.5789709,203.5789709,i,0.6021253000000115,204.22695620000002,204.22695620000002,204.22695620000002,204.22695620000002,204.22695620000002,204.22695620000002,204.4957215,206.12893509999998,206.1622441,206.1622441,206.1622441,206.1622441,206.1622441,206.1622441,206.1622441,206.1622441,206.1622441,206.1622441,206.1622441,206.1622441,206.1622441,208.09355470000003,208.09355470000003,208.09355470000003,208.09355470000003,208.09355470000003,208.09355470000003,208.09355470000003,37,70,57,68,57,70,208.09355470000003,209.72815760000003,,,,,,,,,,,,,,,,,,,,３０４,f,２３,2023-05-18_10h49.16.002,RL,2022.2.5,59.98148971227583,
37,70,62,54,0,25,25,25,,,,,,,,None,209.72815760000003,209.72815760000003,209.72815760000003,209.72815760000003,209.72815760000003,209.72815760000003,j,0.7542080999999996,210.51889640000002,210.51889640000002,210.51889640000002,210.51889640000002,210.51889640000002,210.51889640000002,210.7947618,211.66141270000003,211.67832199999998,211.67832199999998,211.67832199999998,211.67832199999998,211.67832199999998,211.67832199999998,211.67832199999998,211.67832199999998,211.67832199999998,211.67832199999998,211.67832199999998,211.67832199999998,211.67832199999998,212.84279450000002,212.84279450000002,212.84279450000002,212.84279450000002,212.84279450000002,212.84279450000002,212.84279450000002,37,70,54,62,62,70,212.84279450000002,214.56060049999996,,,,,,,,,,,,,,,,,,,,３０４,f,２３,2023-05-18_10h49.16.002,RL,2022.2.5,59.98148971227583,
35,72,69,60,0,26,26,26,,,,,,,,None,214.56060049999996,214.56060049999996,214.56060049999996,214.56060049999996,214.56060049999996,214.56060049999996,f,0.7067097999999987,215.29721059999997,215.29721059999997,215.29721059999997,215.29721059999997,215.29721059999997,215.29721059999997,215.5775332,216.8772381,216.910577,216.910577,216.910577,216.910577,216.910577,216.910577,216.910577,216.910577,216.910577,216.910577,216.910577,216.910577,216.910577,218.50845019999997,218.50845019999997,218.50845019999997,218.50845019999997,218.50845019999997,218.50845019999997,218.50845019999997,35,72,60,69,35,70,218.50845019999997,220.30957539999997,,,,,,,,,,,,,,,,,,,,３０４,f,２３,2023-05-18_10h49.16.002,RL,2022.2.5,59.98148971227583,
39,62,50,67,0,27,27,27,,,,,,,,None,220.30957539999997,220.30957539999997,220.30957539999997,220.30957539999997,220.30957539999997,220.30957539999997,j,0.5009411999999998,220.84773239999998,220.84773239999998,220.84773239999998,220.84773239999998,220.84773239999998,220.84773239999998,221.12632859999997,222.5760431,222.592875,222.592875,222.592875,222.592875,222.592875,222.592875,222.592875,222.592875,222.592875,222.592875,222.592875,222.592875,222.592875,224.3408384,224.3408384,224.3408384,224.3408384,224.3408384,224.3408384,224.3408384,39,62,67,50,50,70,224.3408384,226.14182669999997,,,,,,,,,,,,,,,,,,,,３０４,f,２３,2023-05-18_10h49.16.002,RL,2022.2.5,59.98148971227583,
50,65,57,55,0,28,28,28,,,,,,,,None,226.14182669999997,226.14182669999997,226.14182669999997,226.14182669999997,226.14182669999997,226.14182669999997,None,,,,,,,,,,,,,,,,,,,,,,,,,,,,,,50,65,55,57,0,70,233.6561916,235.45681439999998,227.6557603,227.6557603,227.6557603,227.6557603,227.6557603,227.6557603,227.6557603,233.6561916,,,,,,,,,,,,３０４,f,２３,2023-05-18_10h49.16.002,RL,2022.2.5,59.98148971227583,
41,66,55,49,0,29,29,29,,,,,,,,None,235.45681439999998,235.45681439999998,235.45681439999998,235.45681439999998,235.45681439999998,235.45681439999998,r,0.3321834999999851,235.83361689999998,235.83361689999998,235.83361689999998,235.83361689999998,235.83361689999998,235.83361689999998,236.1070866,237.0737398,237.1072021,237.1072021,237.1072021,237.1072021,237.1072021,237.1072021,237.1072021,237.1072021,237.1072021,237.1072021,237.1072021,237.1072021,237.1072021,238.3717165,238.3717165,238.3717165,238.3717165,238.3717165,238.3717165,238.3717165,41,66,49,55,66,70,238.3717165,240.1394373,,,,,,,,,,,,,,,,,,,,３０４,f,２３,2023-05-18_10h49.16.002,RL,2022.2.5,59.98148971227583,
51,66,51,60,0,30,30,30,,,,,,,,None,240.1394373,240.1394373,240.1394373,240.1394373,240.1394373,240.1394373,j,0.629012399999965,240.79345439999997,240.79345439999997,240.79345439999997,240.79345439999997,240.79345439999997,240.79345439999997,241.07295799999997,242.43934869999998,242.4560919,242.4560919,242.4560919,242.4560919,242.4560919,242.4560919,242.4560919,242.4560919,242.4560919,242.4560919,242.4560919,242.4560919,242.4560919,244.1206661,244.1206661,244.1206661,244.1206661,244.1206661,244.1206661,244.1206661,51,66,60,51,51,70,244.1206661,245.65526119999998,,,,,,,,,,,,,,,,,,,,３０４,f,２３,2023-05-18_10h49.16.002,RL,2022.2.5,59.98148971227583,
39,63,49,47,0,31,31,31,,,,,,,,None,245.65526119999998,245.65526119999998,245.65526119999998,245.65526119999998,245.65526119999998,245.65526119999998,r,0.8049440000000345,246.49937159999996,246.49937159999996,246.49937159999996,246.49937159999996,246.49937159999996,246.49937159999996,246.77191169999998,247.7720771,247.8059758,247.8059758,247.8059758,247.8059758,247.8059758,247.8059758,247.8059758,247.8059758,247.8059758,247.8059758,247.8059758,247.8059758,247.8059758,249.103111,249.103111,249.103111,249.103111,249.103111,249.103111,249.103111,39,63,47,49,63,70,249.103111,250.73773519999997,,,,,,,,,,,,,,,,,,,,３０４,f,２３,2023-05-18_10h49.16.002,RL,2022.2.5,59.98148971227583,
41,67,64,60,0,32,32,32,,,,,,,,None,250.73773519999997,250.73773519999997,250.73773519999997,250.73773519999997,250.73773519999997,250.73773519999997,i,0.4695162000000437,251.2448746,251.2448746,251.2448746,251.2448746,251.2448746,251.2448746,251.52111259999998,253.47102569999998,253.48761969999998,253.48761969999998,253.48761969999998,253.48761969999998,253.48761969999998,253.48761969999998,253.48761969999998,253.48761969999998,253.48761969999998,253.48761969999998,253.48761969999998,253.48761969999998,253.48761969999998,255.735188,255.735188,255.735188,255.735188,255.735188,255.735188,255.735188,41,67,60,64,60,70,255.735188,257.6225368,,,,,,,,,,,,,,,,,,,,３０４,f,２３,2023-05-18_10h49.16.002,RL,2022.2.5,59.98148971227583,
38,58,64,53,0,33,33,33,,,,,,,,None,257.6225368,257.6225368,257.6225368,257.6225368,257.6225368,257.6225368,f,0.43742739999999003,258.0943951,258.0943951,258.0943951,258.0943951,258.0943951,258.0943951,258.3700242,259.3530532,259.3699368,259.3699368,259.3699368,259.3699368,259.3699368,259.3699368,259.3699368,259.3699368,259.3699368,259.3699368,259.3699368,259.3699368,259.3699368,260.6508511,260.6508511,260.6508511,260.6508511,260.6508511,260.6508511,260.6508511,38,58,53,64,38,70,260.6508511,262.1856727,,,,,,,,,,,,,,,,,,,,３０４,f,２３,2023-05-18_10h49.16.002,RL,2022.2.5,59.98148971227583,
45,58,60,57,0,34,34,34,,,,,,,,None,262.1856727,262.1856727,262.1856727,262.1856727,262.1856727,262.1856727,i,0.5537458999999672,262.7739019,262.7739019,262.7739019,262.7739019,262.7739019,262.7739019,263.05246239999997,264.41898249999997,264.4372921,264.4372921,264.4372921,264.4372921,264.4372921,264.4372921,264.4372921,264.4372921,264.4372921,264.4372921,264.4372921,264.4372921,264.4372921,266.10017669999996,266.10017669999996,266.10017669999996,266.10017669999996,266.10017669999996,266.10017669999996,266.10017669999996,45,58,57,60,57,70,266.10017669999996,267.83471299999997,,,,,,,,,,,,,,,,,,,,３０４,f,２３,2023-05-18_10h49.16.002,RL,2022.2.5,59.98148971227583,
39,59,60,55,0,35,35,35,,,,,,,,None,267.83471299999997,267.83471299999997,267.83471299999997,267.83471299999997,267.83471299999997,267.83471299999997,r,0.5211383999999839,268.3916238,268.3916238,268.3916238,268.3916238,268.3916238,268.3916238,268.66832619999997,269.76792689999996,269.8014431,269.8014431,269.8014431,269.8014431,269.8014431,269.8014431,269.8014431,269.8014431,269.8014431,269.8014431,269.8014431,269.8014431,269.8014431,271.19897349999997,271.19897349999997,271.19897349999997,271.19897349999997,271.19897349999997,271.19897349999997,271.19897349999997,39,59,55,60,59,70,271.19897349999997,273.1837528,,,,,,,,,,,,,,,,,,,,３０４,f,２３,2023-05-18_10h49.16.002,RL,2022.2.5,59.98148971227583,
33,62,54,48,0,36,36,36,,,,,,,,None,273.1837528,273.1837528,273.1837528,273.1837528,273.1837528,273.1837528,j,0.4824714999999742,273.690569,273.690569,273.690569,273.690569,273.690569,273.690569,273.9671872,275.43358739999996,275.4671364,275.4671364,275.4671364,275.4671364,275.4671364,275.4671364,275.4671364,275.4671364,275.4671364,275.4671364,275.4671364,275.4671364,275.4671364,277.2316558,277.2316558,277.2316558,277.2316558,277.2316558,277.2316558,277.2316558,33,62,48,54,54,70,277.2316558,278.8162031,,,,,,,,,,,,,,,,,,,,３０４,f,２３,2023-05-18_10h49.16.002,RL,2022.2.5,59.98148971227583,
38,56,59,42,0,37,37,37,,,,,,,,None,278.8162031,278.8162031,278.8162031,278.8162031,278.8162031,278.8162031,f,0.33297319999996944,279.1915709,279.1915709,279.1915709,279.1915709,279.1915709,279.1915709,279.4662075,280.44922809999997,280.4659569,280.4659569,280.4659569,280.4659569,280.4659569,280.4659569,280.4659569,280.4659569,280.4659569,280.4659569,280.4659569,280.4659569,280.4659569,281.73085449999996,281.73085449999996,281.73085449999996,281.73085449999996,281.73085449999996,281.73085449999996,281.73085449999996,38,56,42,59,38,70,281.73085449999996,283.3483955,,,,,,,,,,,,,,,,,,,,３０４,f,２３,2023-05-18_10h49.16.002,RL,2022.2.5,59.98148971227583,
32,49,62,46,0,38,38,38,,,,,,,,None,283.3483955,283.3483955,283.3483955,283.3483955,283.3483955,283.3483955,i,0.5559048000000075,283.94191939999996,283.94191939999996,283.94191939999996,283.94191939999996,283.94191939999996,283.94191939999996,284.2153459,285.3649651,285.3817157,285.3817157,285.3817157,285.3817157,285.3817157,285.3817157,285.3817157,285.3817157,285.3817157,285.3817157,285.3817157,285.3817157,285.3817157,286.8298679,286.8298679,286.8298679,286.8298679,286.8298679,286.8298679,286.8298679,32,49,46,62,46,70,286.8298679,288.6977415,,,,,,,,,,,,,,,,,,,,３０４,f,２３,2023-05-18_10h49.16.002,RL,2022.2.5,59.98148971227583,
26,58,68,44,0,39,39,39,,,,,,,,None,288.6977415,288.6977415,288.6977415,288.6977415,288.6977415,288.6977415,r,0.8452698999999484,289.5763025,289.5763025,289.5763025,289.5763025,289.5763025,289.5763025,289.8477347,291.4474371,291.4643079,291.4643079,291.4643079,291.4643079,291.4643079,291.4643079,291.4643079,291.4643079,291.4643079,291.4643079,291.4643079,291.4643079,291.4643079,293.3621904,293.3621904,293.3621904,293.3621904,293.3621904,293.3621904,293.3621904,26,58,44,68,58,70,293.3621904,295.3465991,,,,,,,,,,,,,,,,,,,,３０４,f,２３,2023-05-18_10h49.16.002,RL,2022.2.5,59.98148971227583,
30,52,72,46,0,40,40,40,,,,,,,,None,295.3465991,295.3465991,295.3465991,295.3465991,295.3465991,295.3465991,r,0.4876059000000055,295.8706347,295.8706347,295.8706347,295.8706347,295.8706347,295.8706347,296.1465512,297.0299141,297.046514,297.046514,297.046514,297.046514,297.046514,297.046514,297.046514,297.046514,297.046514,297.046514,297.046514,297.046514,297.046514,298.2278844,298.2278844,298.2278844,298.2278844,298.2278844,298.2278844,298.2278844,30,52,46,72,52,70,298.2278844,299.7458458,,,,,,,,,,,,,,,,,,,,３０４,f,２３,2023-05-18_10h49.16.002,RL,2022.2.5,59.98148971227583,
33,68,64,49,0,41,41,41,,,,,,,,None,299.7458458,299.7458458,299.7458458,299.7458458,299.7458458,299.7458458,j,0.433123299999977,300.2160818,300.2160818,300.2160818,300.2160818,300.2160818,300.2160818,300.4960508,301.412489,301.4291488,301.4291488,301.4291488,301.4291488,301.4291488,301.4291488,301.4291488,301.4291488,301.4291488,301.4291488,301.4291488,301.4291488,301.4291488,302.6439082,302.6439082,302.6439082,302.6439082,302.6439082,302.6439082,302.6439082,33,68,49,64,64,70,302.6439082,304.31164029999997,,,,,,,,,,,,,,,,,,,,３０４,f,２３,2023-05-18_10h49.16.002,RL,2022.2.5,59.98148971227583,
41,61,68,47,0,42,42,42,,,,,,,,None,304.31164029999997,304.31164029999997,304.31164029999997,304.31164029999997,304.31164029999997,304.31164029999997,j,0.8549319999999625,305.2034632,305.2034632,305.2034632,305.2034632,305.2034632,305.2034632,305.4783905,306.7617332,306.7783309,306.7783309,306.7783309,306.7783309,306.7783309,306.7783309,306.7783309,306.7783309,306.7783309,306.7783309,306.7783309,306.7783309,306.7783309,308.3600374,308.3600374,308.3600374,308.3600374,308.3600374,308.3600374,308.3600374,41,61,47,68,68,70,308.3600374,310.29483569999996,,,,,,,,,,,,,,,,,,,,３０４,f,２３,2023-05-18_10h49.16.002,RL,2022.2.5,59.98148971227583,
47,60,70,49,0,43,43,43,,,,,,,,None,310.29483569999996,310.29483569999996,310.29483569999996,310.29483569999996,310.29483569999996,310.29483569999996,j,0.4736307999999667,310.798046,310.798046,310.798046,310.798046,310.798046,310.798046,311.0775088,312.7605195,312.77741019999996,312.77741019999996,312.77741019999996,312.77741019999996,312.77741019999996,312.77741019999996,312.77741019999996,312.77741019999996,312.77741019999996,312.77741019999996,312.77741019999996,312.77741019999996,312.77741019999996,314.75896639999996,314.75896639999996,314.75896639999996,314.75896639999996,314.75896639999996,314.75896639999996,314.75896639999996,47,60,49,70,70,70,314.75896639999996,316.6093854,,,,,,,,,,,,,,,,,,,,３０４,f,２３,2023-05-18_10h49.16.002,RL,2022.2.5,59.98148971227583,
50,57,66,50,0,44,44,44,,,,,,,,None,316.6093854,316.6093854,316.6093854,316.6093854,316.6093854,316.6093854,j,0.5480247999999506,317.1805717,317.1805717,317.1805717,317.1805717,317.1805717,317.1805717,317.4762073,319.4592967,319.4592967,319.4592967,319.4592967,319.4592967,319.4592967,319.4592967,319.4592967,319.4592967,319.4592967,319.4592967,319.4592967,319.4592967,319.4592967,321.7404982,321.7404982,321.7404982,321.7404982,321.7404982,321.7404982,321.7404982,50,57,50,66,66,70,321.7404982,323.6253978,,,,,,,,,,,,,,,,,,,,３０４,f,２３,2023-05-18_10h49.16.002,RL,2022.2.5,59.98148971227583,
54,57,65,45,0,45,45,45,,,,,,,,None,323.6253978,323.6253978,323.6253978,323.6253978,323.6253978,323.6253978,i,0.45731239999997797,324.12288,324.12288,324.12288,324.12288,324.12288,324.12288,324.4085927,326.1249381,326.14147579999997,326.14147579999997,326.14147579999997,326.14147579999997,326.14147579999997,326.14147579999997,326.14147579999997,326.14147579999997,326.14147579999997,326.14147579999997,326.14147579999997,326.14147579999997,326.14147579999997,328.15593029999997,328.15593029999997,328.15593029999997,328.15593029999997,328.15593029999997,328.15593029999997,328.15593029999997,54,57,45,65,45,70,328.15593029999997,329.8740514,,,,,,,,,,,,,,,,,,,,３０４,f,２３,2023-05-18_10h49.16.002,RL,2022.2.5,59.98148971227583,
46,65,67,39,0,46,46,46,,,,,,,,None,329.8740514,329.8740514,329.8740514,329.8740514,329.8740514,329.8740514,j,0.4066707000000065,330.30771419999996,330.30771419999996,330.30771419999996,330.30771419999996,330.30771419999996,330.30771419999996,330.5905281,331.4906668,331.5072912,331.5072912,331.5072912,331.5072912,331.5072912,331.5072912,331.5072912,331.5072912,331.5072912,331.5072912,331.5072912,331.5072912,331.5072912,332.7055259,332.7055259,332.7055259,332.7055259,332.7055259,332.7055259,332.7055259,46,65,39,67,67,70,332.7055259,334.35663439999996,,,,,,,,,,,,,,,,,,,,３０４,f,２３,2023-05-18_10h49.16.002,RL,2022.2.5,59.98148971227583,
49,64,68,47,0,47,47,47,,,,,,,,None,334.35663439999996,334.35663439999996,334.35663439999996,334.35663439999996,334.35663439999996,334.35663439999996,j,0.6063105000000064,334.9970737,334.9970737,334.9970737,334.9970737,334.9970737,334.9970737,335.2903804,336.7232768,336.7232768,336.7232768,336.7232768,336.7232768,336.7232768,336.7232768,336.7232768,336.7232768,336.7232768,336.7232768,336.7232768,336.7232768,336.7232768,338.45476529999996,338.45476529999996,338.45476529999996,338.45476529999996,338.45476529999996,338.45476529999996,338.45476529999996,49,64,47,68,68,70,338.45476529999996,340.3555215,,,,,,,,,,,,,,,,,,,,３０４,f,２３,2023-05-18_10h49.16.002,RL,2022.2.5,59.98148971227583,
53,67,68,52,0,48,48,48,,,,,,,,None,340.3555215,340.3555215,340.3555215,340.3555215,340.3555215,340.3555215,j,0.57583249999999,340.95877459999997,340.95877459999997,340.95877459999997,340.95877459999997,340.95877459999997,340.95877459999997,341.2387912,342.10562699999997,342.1226863,342.1226863,342.1226863,342.1226863,342.1226863,342.1226863,342.1226863,342.1226863,342.1226863,342.1226863,342.1226863,342.1226863,342.1226863,343.28683889999996,343.28683889999996,343.28683889999996,343.28683889999996,343.28683889999996,343.28683889999996,343.28683889999996,53,67,52,68,68,70,343.28683889999996,344.804674,,,,,,,,,,,,,,,,,,,,３０４,f,２３,2023-05-18_10h49.16.002,RL,2022.2.5,59.98148971227583,
54,48,60,48,0,49,49,49,,,,,,,,None,344.804674,344.804674,344.804674,344.804674,344.804674,344.804674,j,0.6859230000000025,345.5264211,345.5264211,345.5264211,345.5264211,345.5264211,345.5264211,345.80481779999997,346.8879568,346.9046568,346.9046568,346.9046568,346.9046568,346.9046568,346.9046568,346.9046568,346.9046568,346.9046568,346.9046568,346.9046568,346.9046568,346.9046568,348.2871776,348.2871776,348.2871776,348.2871776,348.2871776,348.2871776,348.2871776,54,48,48,60,60,70,348.2871776,350.1869641,,,,,,,,,,,,,,,,,,,,３０４,f,２３,2023-05-18_10h49.16.002,RL,2022.2.5,59.98148971227583,
61,58,73,57,0,50,50,50,,,,,,,,None,350.1869641,350.1869641,350.1869641,350.1869641,350.1869641,350.1869641,r,0.462247399999967,350.67654419999997,350.67654419999997,350.67654419999997,350.67654419999997,350.67654419999997,350.67654419999997,350.9710383,352.0544936,352.0544936,352.0544936,352.0544936,352.0544936,352.0544936,352.0544936,352.0544936,352.0544936,352.0544936,352.0544936,352.0544936,352.0544936,352.0544936,353.43512849999996,353.43512849999996,353.43512849999996,353.43512849999996,353.43512849999996,353.43512849999996,353.43512849999996,61,58,57,73,58,70,353.43512849999996,355.43597669999997,,,,,,,,,,,,,,,,,,,,３０４,f,２３,2023-05-18_10h49.16.002,RL,2022.2.5,59.98148971227583,
59,57,67,56,0,51,51,51,,,,,,,,None,355.43597669999997,355.43597669999997,355.43597669999997,355.43597669999997,355.43597669999997,355.43597669999997,r,0.5984505000000127,356.05708039999996,356.05708039999996,356.05708039999996,356.05708039999996,356.05708039999996,356.05708039999996,356.3361902,357.502525,357.5193103,357.5193103,357.5193103,357.5193103,357.5193103,357.5193103,357.5193103,357.5193103,357.5193103,357.5193103,357.5193103,357.5193103,357.5193103,358.98390059999997,358.98390059999997,358.98390059999997,358.98390059999997,358.98390059999997,358.98390059999997,358.98390059999997,59,57,56,67,57,70,358.98390059999997,360.6685624,,,,,,,,,,,,,,,,,,,,３０４,f,２３,2023-05-18_10h49.16.002,RL,2022.2.5,59.98148971227583,
56,54,66,62,0,52,52,52,,,,,,,,None,360.6685624,360.6685624,360.6685624,360.6685624,360.6685624,360.6685624,j,0.3992044999999962,361.1070004,361.1070004,361.1070004,361.1070004,361.1070004,361.1070004,361.3851868,363.2015828,363.23509989999997,363.23509989999997,363.23509989999997,363.23509989999997,363.23509989999997,363.23509989999997,363.23509989999997,363.23509989999997,363.23509989999997,363.23509989999997,363.23509989999997,363.23509989999997,363.23509989999997,365.3497005,365.3497005,365.3497005,365.3497005,365.3497005,365.3497005,365.3497005,56,54,62,66,66,70,365.3497005,367.267352,,,,,,,,,,,,,,,,,,,,３０４,f,２３,2023-05-18_10h49.16.002,RL,2022.2.5,59.98148971227583,
62,52,62,53,0,53,53,53,,,,,,,,None,367.267352,367.267352,367.267352,367.267352,367.267352,367.267352,j,0.3714345999999864,367.6738205,367.6738205,367.6738205,367.6738205,367.6738205,367.6738205,367.9508729,369.2339082,369.2508355,369.2508355,369.2508355,369.2508355,369.2508355,369.2508355,369.2508355,369.2508355,369.2508355,369.2508355,369.2508355,369.2508355,369.2508355,370.8318371,370.8318371,370.8318371,370.8318371,370.8318371,370.8318371,370.8318371,62,52,53,62,62,70,370.8318371,372.7996055,,,,,,,,,,,,,,,,,,,,３０４,f,２３,2023-05-18_10h49.16.002,RL,2022.2.5,59.98148971227583,
59,52,61,55,0,54,54,54,,,,,,,,None,372.7996055,372.7996055,372.7996055,372.7996055,372.7996055,372.7996055,f,0.44062589999998636,373.2731791,373.2731791,373.2731791,373.2731791,373.2731791,373.2731791,373.5499769,375.449571,375.4827386,375.4827386,375.4827386,375.4827386,375.4827386,375.4827386,375.4827386,375.4827386,375.4827386,375.4827386,375.4827386,375.4827386,375.4827386,377.6808919,377.6808919,377.6808919,377.6808919,377.6808919,377.6808919,377.6808919,59,52,55,61,59,70,377.6808919,379.2319026,,,,,,,,,,,,,,,,,,,,３０４,f,２３,2023-05-18_10h49.16.002,RL,2022.2.5,59.98148971227583,
52,52,60,46,0,55,55,55,,,,,,,,None,379.2319026,379.2319026,379.2319026,379.2319026,379.2319026,379.2319026,i,0.5009029999999939,379.7658889,379.7658889,379.7658889,379.7658889,379.7658889,379.7658889,380.0487459,382.0486807,382.0651669,382.0651669,382.0651669,382.0651669,382.0651669,382.0651669,382.0651669,382.0651669,382.0651669,382.0651669,382.0651669,382.0651669,382.0651669,384.36321269999996,384.36321269999996,384.36321269999996,384.36321269999996,384.36321269999996,384.36321269999996,384.36321269999996,52,52,46,60,46,70,384.36321269999996,386.04776219999997,,,,,,,,,,,,,,,,,,,,３０４,f,２３,2023-05-18_10h49.16.002,RL,2022.2.5,59.98148971227583,
60,53,55,48,0,56,56,56,,,,,,,,None,386.04776219999997,386.04776219999997,386.04776219999997,386.04776219999997,386.04776219999997,386.04776219999997,f,0.3491452000000095,386.4370836,386.4370836,386.4370836,386.4370836,386.4370836,386.4370836,386.7143936,388.2975797,388.3306429,388.3306429,388.3306429,388.3306429,388.3306429,388.3306429,388.3306429,388.3306429,388.3306429,388.3306429,388.3306429,388.3306429,388.3306429,390.211977,390.211977,390.211977,390.211977,390.211977,390.211977,390.211977,60,53,48,55,60,70,390.211977,392.11323,,,,,,,,,,,,,,,,,,,,３０４,f,２３,2023-05-18_10h49.16.002,RL,2022.2.5,59.98148971227583,
58,50,65,44,0,57,57,57,,,,,,,,None,392.11323,392.11323,392.11323,392.11323,392.11323,392.11323,j,0.8521252000000459,393.01136479999997,393.01136479999997,393.01136479999997,393.01136479999997,393.01136479999997,393.01136479999997,393.2796901,394.5627293,394.5961122,394.5961122,394.5961122,394.5961122,394.5961122,394.5961122,394.5961122,394.5961122,394.5961122,394.5961122,394.5961122,394.5961122,394.5961122,396.1775371,396.1775371,396.1775371,396.1775371,396.1775371,396.1775371,396.1775371,58,50,44,65,65,70,396.1775371,397.8121375,,,,,,,,,,,,,,,,,,,,３０４,f,２３,2023-05-18_10h49.16.002,RL,2022.2.5,59.98148971227583,
59,59,62,51,0,58,58,58,,,,,,,,None,397.8121375,397.8121375,397.8121375,397.8121375,397.8121375,397.8121375,j,0.71853619999996,398.5684376,398.5684376,398.5684376,398.5684376,398.5684376,398.5684376,398.8619213,400.82904379999997,400.9770317,400.9770317,400.9770317,400.9770317,400.9770317,400.9770317,400.9770317,400.9770317,400.9770317,400.9770317,400.9770317,400.9770317,400.9770317,403.2431102,403.2431102,403.2431102,403.2431102,403.2431102,403.2431102,403.2431102,59,59,51,62,62,70,403.2431102,405.0611424,,,,,,,,,,,,,,,,,,,,３０４,f,２３,2023-05-18_10h49.16.002,RL,2022.2.5,59.98148971227583,
58,62,58,43,0,59,59,59,,,,,,,,None,405.0611424,405.0611424,405.0611424,405.0611424,405.0611424,405.0611424,j,0.36388149999999087,405.4475384,405.4475384,405.4475384,405.4475384,405.4475384,405.4475384,405.7276904,407.3111641,407.344206,407.344206,407.344206,407.344206,407.344206,407.344206,407.344206,407.344206,407.344206,407.344206,407.344206,407.344206,407.344206,409.2253757,409.2253757,409.2253757,409.2253757,409.2253757,409.2253757,409.2253757,58,62,43,58,58,70,409.2253757,410.82663709999997,,,,,,,,,,,,,,,,,,,,３０４,f,２３,2023-05-18_10h49.16.002,RL,2022.2.5,59.98148971227583,
67,64,63,55,0,60,60,60,,,,,,,,None,410.82663709999997,410.82663709999997,410.82663709999997,410.82663709999997,410.82663709999997,410.82663709999997,r,0.5571067999999855,411.4102909,411.4102909,411.4102909,411.4102909,411.4102909,411.4102909,411.6935681,413.0437325,413.06104419999997,413.06104419999997,413.06104419999997,413.06104419999997,413.06104419999997,413.06104419999997,413.06104419999997,413.06104419999997,413.06104419999997,413.06104419999997,413.06104419999997,413.06104419999997,413.06104419999997,414.7079084,414.7079084,414.7079084,414.7079084,414.7079084,414.7079084,414.7079084,67,64,55,63,64,70,414.7079084,416.3420168,,,,,,,,,,,,,,,,,,,,３０４,f,２３,2023-05-18_10h49.16.002,RL,2022.2.5,59.98148971227583,
56,61,62,38,0,61,61,61,,,,,,,,None,416.3420168,416.3420168,416.3420168,416.3420168,416.3420168,416.3420168,r,0.6804617999999891,417.0511915,417.0511915,417.0511915,417.0511915,417.0511915,417.0511915,417.325633,418.2605219,418.2920893,418.2920893,418.2920893,418.2920893,418.2920893,418.2920893,418.2920893,418.2920893,418.2920893,418.2920893,418.2920893,418.2920893,418.2920893,419.52392199999997,419.52392199999997,419.52392199999997,419.52392199999997,419.52392199999997,419.52392199999997,419.52392199999997,56,61,38,62,61,70,419.52392199999997,421.4250708,,,,,,,,,,,,,,,,,,,,３０４,f,２３,2023-05-18_10h49.16.002,RL,2022.2.5,59.98148971227583,
57,61,66,48,0,62,62,62,,,,,,,,None,421.4250708,421.4250708,421.4250708,421.4250708,421.4250708,421.4250708,i,0.687408400000038,422.15263139999996,422.15263139999996,422.15263139999996,422.15263139999996,422.15263139999996,422.15263139999996,422.4247266,424.05846429999997,424.07454509999997,424.07454509999997,424.07454509999997,424.07454509999997,424.07454509999997,424.07454509999997,424.07454509999997,424.07454509999997,424.07454509999997,424.07454509999997,424.07454509999997,424.07454509999997,424.07454509999997,426.00608539999996,426.00608539999996,426.00608539999996,426.00608539999996,426.00608539999996,426.00608539999996,426.00608539999996,57,61,48,66,48,70,426.00608539999996,427.7738768,,,,,,,,,,,,,,,,,,,,３０４,f,２３,2023-05-18_10h49.16.002,RL,2022.2.5,59.98148971227583,
52,58,65,52,0,63,63,63,,,,,,,,None,427.7738768,427.7738768,427.7738768,427.7738768,427.7738768,427.7738768,f,0.34573760000000675,428.1441529,428.1441529,428.1441529,428.1441529,428.1441529,428.1441529,428.4405628,429.7734358,429.7734358,429.7734358,429.7734358,429.7734358,429.7734358,429.7734358,429.7734358,429.7734358,429.7734358,429.7734358,429.7734358,429.7734358,429.7734358,431.4052153,431.4052153,431.4052153,431.4052153,431.4052153,431.4052153,431.4052153,52,58,52,65,52,70,431.4052153,433.0059761,,,,,,,,,,,,,,,,,,,,３０４,f,２３,2023-05-18_10h49.16.002,RL,2022.2.5,59.98148971227583,
51,59,68,53,0,64,64,64,,,,,,,,None,433.0059761,433.0059761,433.0059761,433.0059761,433.0059761,433.0059761,j,0.7696076999999946,433.8181912,433.8181912,433.8181912,433.8181912,433.8181912,433.8181912,434.0894167,435.4726785,435.505729,435.505729,435.505729,435.505729,435.505729,435.505729,435.505729,435.505729,435.505729,435.505729,435.505729,435.505729,435.505729,437.18733729999997,437.18733729999997,437.18733729999997,437.18733729999997,437.18733729999997,437.18733729999997,437.18733729999997,51,59,53,68,68,70,437.18733729999997,439.171855,,,,,,,,,,,,,,,,,,,,３０４,f,２３,2023-05-18_10h49.16.002,RL,2022.2.5,59.98148971227583,
51,56,71,56,0,65,65,65,,,,,,,,None,439.171855,439.171855,439.171855,439.171855,439.171855,439.171855,j,0.7887579000000073,439.9977518,439.9977518,439.9977518,439.9977518,439.9977518,439.9977518,440.2716661,441.9551065,441.9880746,441.9880746,441.9880746,441.9880746,441.9880746,441.9880746,441.9880746,441.9880746,441.9880746,441.9880746,441.9880746,441.9880746,441.9880746,443.96947869999997,443.96947869999997,443.96947869999997,443.96947869999997,443.96947869999997,443.96947869999997,443.96947869999997,51,56,56,71,71,70,443.96947869999997,445.83743649999997,,,,,,,,,,,,,,,,,,,,３０４,f,２３,2023-05-18_10h49.16.002,RL,2022.2.5,59.98148971227583,
47,57,69,52,0,66,66,66,,,,,,,,None,445.83743649999997,445.83743649999997,445.83743649999997,445.83743649999997,445.83743649999997,445.83743649999997,j,0.5137753000000203,446.3784094,446.3784094,446.3784094,446.3784094,446.3784094,446.3784094,446.6540399,447.5206677,447.5369751,447.5369751,447.5369751,447.5369751,447.5369751,447.5369751,447.5369751,447.5369751,447.5369751,447.5369751,447.5369751,447.5369751,447.5369751,448.70162949999997,448.70162949999997,448.70162949999997,448.70162949999997,448.70162949999997,448.70162949999997,448.70162949999997,47,57,52,69,69,70,448.70162949999997,450.2201534,,,,,,,,,,,,,,,,,,,,３０４,f,２３,2023-05-18_10h49.16.002,RL,2022.2.5,59.98148971227583,
48,58,73,48,0,67,67,67,,,,,,,,None,450.2201534,450.2201534,450.2201534,450.2201534,450.2201534,450.2201534,j,0.7763929999999846,451.02849169999996,451.02849169999996,451.02849169999996,451.02849169999996,451.02849169999996,451.02849169999996,451.30306609999997,452.5363781,452.5530402,452.5530402,452.5530402,452.5530402,452.5530402,452.5530402,452.5530402,452.5530402,452.5530402,452.5530402,452.5530402,452.5530402,452.5530402,454.08474259999997,454.08474259999997,454.08474259999997,454.08474259999997,454.08474259999997,454.08474259999997,454.08474259999997,48,58,48,73,73,70,454.08474259999997,455.8686487,,,,,,,,,,,,,,,,,,,,３０４,f,２３,2023-05-18_10h49.16.002,RL,2022.2.5,59.98148971227583,
54,62,66,44,0,68,68,68,,,,,,,,None,455.8686487,455.8686487,455.8686487,455.8686487,455.8686487,455.8686487,j,0.4828299000000129,456.3692569,456.3692569,456.3692569,456.3692569,456.3692569,456.3692569,456.6519653,458.5024754,458.5186329,458.5186329,458.5186329,458.5186329,458.5186329,458.5186329,458.5186329,458.5186329,458.5186329,458.5186329,458.5186329,458.5186329,458.5186329,460.6666985,460.6666985,460.6666985,460.6666985,460.6666985,460.6666985,460.6666985,54,62,44,66,66,70,460.6666985,462.3511633,,,,,,,,,,,,,,,,,,,,３０４,f,２３,2023-05-18_10h49.16.002,RL,2022.2.5,59.98148971227583,
52,63,65,46,0,69,69,69,,,,,,,,None,462.3511633,462.3511633,462.3511633,462.3511633,462.3511633,462.3511633,r,0.3317116999999712,462.7073977,462.7073977,462.7073977,462.7073977,462.7073977,462.7073977,463.001243,464.7507857,464.7507857,464.7507857,464.7507857,464.7507857,464.7507857,464.7507857,464.7507857,464.7507857,464.7507857,464.7507857,464.7507857,464.7507857,464.7507857,466.7988103,466.7988103,466.7988103,466.7988103,466.7988103,466.7988103,466.7988103,52,63,46,65,63,70,466.7988103,468.4831526,,,,,,,,,,,,,,,,,,,,３０４,f,２３,2023-05-18_10h49.16.002,RL,2022.2.5,59.98148971227583,
55,60,70,56,0,70,70,70,,,,,,,,None,468.4831526,468.4831526,468.4831526,468.4831526,468.4831526,468.4831526,j,0.46199669999998605,468.9702446,468.9702446,468.9702446,468.9702446,468.9702446,468.9702446,469.25029420000004,471.05005249999994,471.0663635,471.0663635,471.0663635,471.0663635,471.0663635,471.0663635,471.0663635,471.0663635,471.0663635,471.0663635,471.0663635,471.0663635,471.0663635,473.16432849999995,473.16432849999995,473.16432849999995,473.16432849999995,473.16432849999995,473.16432849999995,473.16432849999995,55,60,56,70,70,70,473.16432849999995,475.09901699999995,,,,,,,,,,,,,,,,,,,,３０４,f,２３,2023-05-18_10h49.16.002,RL,2022.2.5,59.98148971227583,
54,54,60,48,0,71,71,71,,,,,,,,None,475.09901699999995,475.09901699999995,475.09901699999995,475.09901699999995,475.09901699999995,475.09901699999995,j,0.688533600000028,475.8216249,475.8216249,475.8216249,475.8216249,475.8216249,475.8216249,476.09893289999997,478.09885089999995,478.13213879999995,478.13213879999995,478.13213879999995,478.13213879999995,478.13213879999995,478.13213879999995,478.13213879999995,478.13213879999995,478.13213879999995,478.13213879999995,478.13213879999995,478.13213879999995,478.13213879999995,480.43017679999997,480.43017679999997,480.43017679999997,480.43017679999997,480.43017679999997,480.43017679999997,480.43017679999997,54,54,48,60,60,70,480.43017679999997,482.2307923,,,,,,,,,,,,,,,,,,,,３０４,f,２３,2023-05-18_10h49.16.002,RL,2022.2.5,59.98148971227583,
60,52,71,59,0,72,72,72,,,,,,,,None,482.2307923,482.2307923,482.2307923,482.2307923,482.2307923,482.2307923,j,0.5458161000000246,482.8037519,482.8037519,482.8037519,482.8037519,482.8037519,482.8037519,483.09754059999995,484.4142896,484.4311323,484.4311323,484.4311323,484.4311323,484.4311323,484.4311323,484.4311323,484.4311323,484.4311323,484.4311323,484.4311323,484.4311323,484.4311323,486.0457687,486.0457687,486.0457687,486.0457687,486.0457687,486.0457687,486.0457687,60,52,59,71,71,70,486.0457687,487.96324450000003,,,,,,,,,,,,,,,,,,,,３０４,f,２３,2023-05-18_10h49.16.002,RL,2022.2.5,59.98148971227583,
51,54,69,64,0,73,73,73,,,,,,,,None,487.96324450000003,487.96324450000003,487.96324450000003,487.96324450000003,487.96324450000003,487.96324450000003,j,0.4763459000000694,488.47042830000004,488.47042830000004,488.47042830000004,488.47042830000004,488.47042830000004,488.47042830000004,488.7632342,489.6468835,489.66304970000004,489.66304970000004,489.66304970000004,489.66304970000004,489.66304970000004,489.66304970000004,489.66304970000004,489.66304970000004,489.66304970000004,489.66304970000004,489.66304970000004,489.66304970000004,489.66304970000004,490.8448751,490.8448751,490.8448751,490.8448751,490.8448751,490.8448751,490.8448751,51,54,64,69,69,70,490.8448751,492.37893419999995,,,,,,,,,,,,,,,,,,,,３０４,f,２３,2023-05-18_10h49.16.002,RL,2022.2.5,59.98148971227583,
51,47,75,53,0,74,74,74,,,,,,,,None,492.37893419999995,492.37893419999995,492.37893419999995,492.37893419999995,492.37893419999995,492.37893419999995,j,0.6464803000000074,493.05007800000004,493.05007800000004,493.05007800000004,493.05007800000004,493.05007800000004,493.05007800000004,493.32927290000003,495.02920320000004,495.0458561,495.0458561,495.0458561,495.0458561,495.0458561,495.0458561,495.0458561,495.0458561,495.0458561,495.0458561,495.0458561,495.0458561,495.0458561,497.043827,497.043827,497.043827,497.043827,497.043827,497.043827,497.043827,51,47,53,75,75,70,497.043827,498.7932824,,,,,,,,,,,,,,,,,,,,３０４,f,２３,2023-05-18_10h49.16.002,RL,2022.2.5,59.98148971227583,
50,48,76,56,0,75,75,75,,,,,,,,q,520.257768,520.257768,520.257768,520.257768,520.257768,520.257768,j,1.084446400000047,521.381654,521.381654,521.381654,521.381654,521.381654,521.381654,521.6576708,522.9404687,522.9570520000001,522.9570520000001,522.9570520000001,522.9570520000001,522.9570520000001,522.9570520000001,522.9570520000001,522.9570520000001,522.9570520000001,522.9570520000001,522.9570520000001,522.9570520000001,522.9570520000001,524.5222942,524.5222942,524.5222942,524.5222942,524.5222942,524.5222942,524.5222942,50,48,56,76,76,70,524.5222942,526.0397842000001,,,,,,,,,498.7932824,498.7932824,16.4252831,515.2422264,515.2422264,520.257768,520.257768,,,,,３０４,f,２３,2023-05-18_10h49.16.002,RL,2022.2.5,59.98148971227583,
54,52,75,69,0,76,76,76,,,,,,,,None,526.0397842000001,526.0397842000001,526.0397842000001,526.0397842000001,526.0397842000001,526.0397842000001,r,0.5720654000000422,526.6447792,526.6447792,526.6447792,526.6447792,526.6447792,526.6447792,526.9232916000001,528.0568215000001,528.0730409,528.0730409,528.0730409,528.0730409,528.0730409,528.0730409,528.0730409,528.0730409,528.0730409,528.0730409,528.0730409,528.0730409,528.0730409,529.504711,529.504711,529.504711,529.504711,529.504711,529.504711,529.504711,54,52,69,75,52,70,529.504711,531.4391756,,,,,,,,,,,,,,,,,,,,３０４,f,２３,2023-05-18_10h49.16.002,RL,2022.2.5,59.98148971227583,
55,54,77,66,0,77,77,77,,,,,,,,None,531.4391756,531.4391756,531.4391756,531.4391756,531.4391756,531.4391756,j,0.39877899999999045,531.8596622,531.8596622,531.8596622,531.8596622,531.8596622,531.8596622,532.1561340000001,533.2894482,533.3054634,533.3054634,533.3054634,533.3054634,533.3054634,533.3054634,533.3054634,533.3054634,533.3054634,533.3054634,533.3054634,533.3054634,533.3054634,534.7372104000001,534.7372104000001,534.7372104000001,534.7372104000001,534.7372104000001,534.7372104000001,534.7372104000001,55,54,66,77,77,70,534.7372104000001,536.2880913,,,,,,,,,,,,,,,,,,,,３０４,f,２３,2023-05-18_10h49.16.002,RL,2022.2.5,59.98148971227583,
59,53,70,67,0,78,78,78,,,,,,,,None,536.2880913,536.2880913,536.2880913,536.2880913,536.2880913,536.2880913,j,0.6769696000000067,536.9989808,536.9989808,536.9989808,536.9989808,536.9989808,536.9989808,537.2883965000001,538.571632,538.571632,538.571632,538.571632,538.571632,538.571632,538.571632,538.571632,538.571632,538.571632,538.571632,538.571632,538.571632,538.571632,540.152585,540.152585,540.152585,540.152585,540.152585,540.152585,540.152585,59,53,67,70,70,70,540.152585,541.8874821,,,,,,,,,,,,,,,,,,,,３０４,f,２３,2023-05-18_10h49.16.002,RL,2022.2.5,59.98148971227583,
48,50,66,59,0,79,79,79,,,,,,,,None,541.8874821,541.8874821,541.8874821,541.8874821,541.8874821,541.8874821,j,0.48805289999995694,542.4084081000001,542.4084081000001,542.4084081000001,542.4084081000001,542.4084081000001,542.4084081000001,542.6875432,543.787176,543.8037004,543.8037004,543.8037004,543.8037004,543.8037004,543.8037004,543.8037004,543.8037004,543.8037004,543.8037004,543.8037004,543.8037004,543.8037004,545.2018676,545.2018676,545.2018676,545.2018676,545.2018676,545.2018676,545.2018676,48,50,59,66,66,70,545.2018676,546.9366559,,,,,,,,,,,,,,,,,,,,３０４,f,２３,2023-05-18_10h49.16.002,RL,2022.2.5,59.98148971227583,
54,52,72,60,0,80,80,80,,,,,,,,None,546.9366559,546.9366559,546.9366559,546.9366559,546.9366559,546.9366559,f,0.44164580000006026,547.4061024,547.4061024,547.4061024,547.4061024,547.4061024,547.4061024,547.6866889,549.0529985000001,549.0695581,549.0695581,549.0695581,549.0695581,549.0695581,549.0695581,549.0695581,549.0695581,549.0695581,549.0695581,549.0695581,549.0695581,549.0695581,550.7344936000001,550.7344936000001,550.7344936000001,550.7344936000001,550.7344936000001,550.7344936000001,550.7344936000001,54,52,60,72,54,70,550.7344936000001,552.6357212,,,,,,,,,,,,,,,,,,,,３０４,f,２３,2023-05-18_10h49.16.002,RL,2022.2.5,59.98148971227583,
41,49,62,64,0,81,81,81,,,,,,,,None,552.6357212,552.6357212,552.6357212,552.6357212,552.6357212,552.6357212,j,0.4924298999999337,553.15615,553.15615,553.15615,553.15615,553.15615,553.15615,553.4351626,555.3689069000001,555.4017536,555.4017536,555.4017536,555.4017536,555.4017536,555.4017536,555.4017536,555.4017536,555.4017536,555.4017536,555.4017536,555.4017536,555.4017536,557.633052,557.633052,557.633052,557.633052,557.633052,557.633052,557.633052,41,49,64,62,62,70,557.633052,559.2508214000001,,,,,,,,,,,,,,,,,,,,３０４,f,２３,2023-05-18_10h49.16.002,RL,2022.2.5,59.98148971227583,
36,48,66,59,0,82,82,82,,,,,,,,None,559.2508214000001,559.2508214000001,559.2508214000001,559.2508214000001,559.2508214000001,559.2508214000001,i,0.5290194000000383,559.8039572,559.8039572,559.8039572,559.8039572,559.8039572,559.8039572,560.0842475000001,561.7504397,561.7671347,561.7671347,561.7671347,561.7671347,561.7671347,561.7671347,561.7671347,561.7671347,561.7671347,561.7671347,561.7671347,561.7671347,561.7671347,563.7318933,563.7318933,563.7318933,563.7318933,563.7318933,563.7318933,563.7318933,36,48,59,66,59,70,563.7318933,565.6161348,,,,,,,,,,,,,,,,,,,,３０４,f,２３,2023-05-18_10h49.16.002,RL,2022.2.5,59.98148971227583,
42,45,64,57,0,83,83,83,,,,,,,,None,565.6161348,565.6161348,565.6161348,565.6161348,565.6161348,565.6161348,j,0.4185008999999127,566.0723491,566.0723491,566.0723491,566.0723491,566.0723491,566.0723491,566.3498751000001,567.4332249,567.449461,567.449461,567.449461,567.449461,567.449461,567.449461,567.449461,567.449461,567.449461,567.449461,567.449461,567.449461,567.449461,568.8314834,568.8314834,568.8314834,568.8314834,568.8314834,568.8314834,568.8314834,42,45,57,64,64,70,568.8314834,570.4991436,,,,,,,,,,,,,,,,,,,,３０４,f,２３,2023-05-18_10h49.16.002,RL,2022.2.5,59.98148971227583,
46,50,60,66,0,84,84,84,,,,,,,,None,570.4991436,570.4991436,570.4991436,570.4991436,570.4991436,570.4991436,j,0.5730356000000256,571.1033647,571.1033647,571.1033647,571.1033647,571.1033647,571.1033647,571.3822464000001,573.1822525,573.1988116,573.1988116,573.1988116,573.1988116,573.1988116,573.1988116,573.1988116,573.1988116,573.1988116,573.1988116,573.1988116,573.1988116,573.1988116,575.296948,575.296948,575.296948,575.296948,575.296948,575.296948,575.296948,46,50,66,60,60,70,575.296948,577.2476997,,,,,,,,,,,,,,,,,,,,３０４,f,２３,2023-05-18_10h49.16.002,RL,2022.2.5,59.98148971227583,
43,51,53,63,0,85,85,85,,,,,,,,None,577.2476997,577.2476997,577.2476997,577.2476997,577.2476997,577.2476997,r,0.34059369999999944,577.6233822,577.6233822,577.6233822,577.6233822,577.6233822,577.6233822,577.8976569,579.7308095000001,579.7473717,579.7473717,579.7473717,579.7473717,579.7473717,579.7473717,579.7473717,579.7473717,579.7473717,579.7473717,579.7473717,579.7473717,579.7473717,581.8784618000001,581.8784618000001,581.8784618000001,581.8784618000001,581.8784618000001,581.8784618000001,581.8784618000001,43,51,63,53,51,70,581.8784618000001,583.4627895000001,,,,,,,,,,,,,,,,,,,,３０４,f,２３,2023-05-18_10h49.16.002,RL,2022.2.5,59.98148971227583,
50,43,59,62,0,86,86,86,,,,,,,,None,583.4627895000001,583.4627895000001,583.4627895000001,583.4627895000001,583.4627895000001,583.4627895000001,j,0.368278299999929,583.8679013000001,583.8679013000001,583.8679013000001,583.8679013000001,583.8679013000001,583.8679013000001,584.1466939000001,585.2629206,585.2796893000001,585.2796893000001,585.2796893000001,585.2796893000001,585.2796893000001,585.2796893000001,585.2796893000001,585.2796893000001,585.2796893000001,585.2796893000001,585.2796893000001,585.2796893000001,585.2796893000001,586.6945158000001,586.6945158000001,586.6945158000001,586.6945158000001,586.6945158000001,586.6945158000001,586.6945158000001,50,43,62,59,59,70,586.6945158000001,588.5455426000001,,,,,,,,,,,,,,,,,,,,３０４,f,２３,2023-05-18_10h49.16.002,RL,2022.2.5,59.98148971227583,
51,39,58,63,0,87,87,87,,,,,,,,None,588.5455426000001,588.5455426000001,588.5455426000001,588.5455426000001,588.5455426000001,588.5455426000001,f,0.5391815000000406,589.1178439,589.1178439,589.1178439,589.1178439,589.1178439,589.1178439,589.3954314,590.9621141,590.9955265000001,590.9955265000001,590.9955265000001,590.9955265000001,590.9955265000001,590.9955265000001,590.9955265000001,590.9955265000001,590.9955265000001,590.9955265000001,590.9955265000001,590.9955265000001,590.9955265000001,592.8601651,592.8601651,592.8601651,592.8601651,592.8601651,592.8601651,592.8601651,51,39,63,58,51,70,592.8601651,594.5276337,,,,,,,,,,,,,,,,,,,,３０４,f,２３,2023-05-18_10h49.16.002,RL,2022.2.5,59.98148971227583,
41,37,63,57,0,88,88,88,,,,,,,,None,594.5276337,594.5276337,594.5276337,594.5276337,594.5276337,594.5276337,i,0.628718000000049,595.1834505,595.1834505,595.1834505,595.1834505,595.1834505,595.1834505,595.4616243,596.3946998,596.4278273,596.4278273,596.4278273,596.4278273,596.4278273,596.4278273,596.4278273,596.4278273,596.4278273,596.4278273,596.4278273,596.4278273,596.4278273,597.6597161000001,597.6597161000001,597.6597161000001,597.6597161000001,597.6597161000001,597.6597161000001,597.6597161000001,41,37,57,63,57,70,597.6597161000001,599.5104154,,,,,,,,,,,,,,,,,,,,３０４,f,２３,2023-05-18_10h49.16.002,RL,2022.2.5,59.98148971227583,
45,27,61,65,0,89,89,89,,,,,,,,None,599.5104154,599.5104154,599.5104154,599.5104154,599.5104154,599.5104154,i,0.6094648999999208,600.1510682,600.1510682,600.1510682,600.1510682,600.1510682,600.1510682,600.4272956000001,601.8268894,601.8437674,601.8437674,601.8437674,601.8437674,601.8437674,601.8437674,601.8437674,601.8437674,601.8437674,601.8437674,601.8437674,601.8437674,601.8437674,603.5422201,603.5422201,603.5422201,603.5422201,603.5422201,603.5422201,603.5422201,45,27,65,61,65,70,603.5422201,605.1593075000001,,,,,,,,,,,,,,,,,,,,３０４,f,２３,2023-05-18_10h49.16.002,RL,2022.2.5,59.98148971227583,
41,37,54,64,0,90,90,90,,,,,,,,None,605.1593075000001,605.1593075000001,605.1593075000001,605.1593075000001,605.1593075000001,605.1593075000001,i,0.4997568000000001,605.6822515,605.6822515,605.6822515,605.6822515,605.6822515,605.6822515,605.9762342,607.2926443,607.2926443,607.2926443,607.2926443,607.2926443,607.2926443,607.2926443,607.2926443,607.2926443,607.2926443,607.2926443,607.2926443,607.2926443,607.2926443,608.9071541000001,608.9071541000001,608.9071541000001,608.9071541000001,608.9071541000001,608.9071541000001,608.9071541000001,41,37,64,54,64,70,608.9071541000001,610.7083902,,,,,,,,,,,,,,,,,,,,３０４,f,２３,2023-05-18_10h49.16.002,RL,2022.2.5,59.98148971227583,
34,29,56,65,0,91,91,91,,,,,,,,None,610.7083902,610.7083902,610.7083902,610.7083902,610.7083902,610.7083902,j,0.5190256000000772,611.2632947000001,611.2632947000001,611.2632947000001,611.2632947000001,611.2632947000001,611.2632947000001,611.5417758000001,612.3584002,612.3754227000001,612.3754227000001,612.3754227000001,612.3754227000001,612.3754227000001,612.3754227000001,612.3754227000001,612.3754227000001,612.3754227000001,612.3754227000001,612.3754227000001,612.3754227000001,612.3754227000001,613.490169,613.490169,613.490169,613.490169,613.490169,613.490169,613.490169,34,29,65,56,56,70,613.490169,615.157512,,,,,,,,,,,,,,,,,,,,３０４,f,２３,2023-05-18_10h49.16.002,RL,2022.2.5,59.98148971227583,
36,36,54,62,0,92,92,92,,,,,,,,None,615.157512,615.157512,615.157512,615.157512,615.157512,615.157512,i,0.5336818999999196,615.7148979000001,615.7148979000001,615.7148979000001,615.7148979000001,615.7148979000001,615.7148979000001,616.0077716000001,617.4409396000001,617.4578456,617.4578456,617.4578456,617.4578456,617.4578456,617.4578456,617.4578456,617.4578456,617.4578456,617.4578456,617.4578456,617.4578456,617.4578456,619.1887841,619.1887841,619.1887841,619.1887841,619.1887841,619.1887841,619.1887841,36,36,62,54,62,70,619.1887841,620.8066893,,,,,,,,,,,,,,,,,,,,３０４,f,２３,2023-05-18_10h49.16.002,RL,2022.2.5,59.98148971227583,
45,39,53,64,0,93,93,93,,,,,,,,None,620.8066893,620.8066893,620.8066893,620.8066893,620.8066893,620.8066893,i,0.39559269999995195,621.2332179,621.2332179,621.2332179,621.2332179,621.2332179,621.2332179,621.5068584,622.7235699,622.7564983000001,622.7564983000001,622.7564983000001,622.7564983000001,622.7564983000001,622.7564983000001,622.7564983000001,622.7564983000001,622.7564983000001,622.7564983000001,622.7564983000001,622.7564983000001,622.7564983000001,624.2715449000001,624.2715449000001,624.2715449000001,624.2715449000001,624.2715449000001,624.2715449000001,624.2715449000001,45,39,64,53,64,70,624.2715449000001,625.9061126,,,,,,,,,,,,,,,,,,,,３０４,f,２３,2023-05-18_10h49.16.002,RL,2022.2.5,59.98148971227583,
48,34,49,55,0,94,94,94,,,,,,,,None,625.9061126,625.9061126,625.9061126,625.9061126,625.9061126,625.9061126,r,0.33558909999999287,626.2747097,626.2747097,626.2747097,626.2747097,626.2747097,626.2747097,626.5559849,627.8225018,627.8392130000001,627.8392130000001,627.8392130000001,627.8392130000001,627.8392130000001,627.8392130000001,627.8392130000001,627.8392130000001,627.8392130000001,627.8392130000001,627.8392130000001,627.8392130000001,627.8392130000001,629.4042062000001,629.4042062000001,629.4042062000001,629.4042062000001,629.4042062000001,629.4042062000001,629.4042062000001,48,34,55,49,34,70,629.4042062000001,631.2048121,,,,,,,,,,,,,,,,,,,,３０４,f,２３,2023-05-18_10h49.16.002,RL,2022.2.5,59.98148971227583,
56,35,49,59,0,95,95,95,,,,,,,,None,631.2048121,631.2048121,631.2048121,631.2048121,631.2048121,631.2048121,i,0.2935264999999845,631.5285023,631.5285023,631.5285023,631.5285023,631.5285023,631.5285023,631.8053833,633.33851,633.3550463,633.3550463,633.3550463,633.3550463,633.3550463,633.3550463,633.3550463,633.3550463,633.3550463,633.3550463,633.3550463,633.3550463,633.3550463,635.1861692,635.1861692,635.1861692,635.1861692,635.1861692,635.1861692,635.1861692,56,35,59,49,59,70,635.1861692,636.870265,,,,,,,,,,,,,,,,,,,,３０４,f,２３,2023-05-18_10h49.16.002,RL,2022.2.5,59.98148971227583,
53,45,45,51,0,96,96,96,,,,,,,,None,636.870265,636.870265,636.870265,636.870265,636.870265,636.870265,i,0.3995962999999847,637.289571,637.289571,637.289571,637.289571,637.289571,637.289571,637.587758,638.7872144,638.804201,638.804201,638.804201,638.804201,638.804201,638.804201,638.804201,638.804201,638.804201,638.804201,638.804201,638.804201,638.804201,640.3020158,640.3020158,640.3020158,640.3020158,640.3020158,640.3020158,640.3020158,53,45,51,45,51,70,640.3020158,642.2029936,,,,,,,,,,,,,,,,,,,,３０４,f,２３,2023-05-18_10h49.16.002,RL,2022.2.5,59.98148971227583,
48,39,51,62,0,97,97,97,,,,,,,,None,642.2029936,642.2029936,642.2029936,642.2029936,642.2029936,642.2029936,f,0.3286372999999685,642.5542249,642.5542249,642.5542249,642.5542249,642.5542249,642.5542249,642.8365254,644.1868846000001,644.2028324,644.2028324,644.2028324,644.2028324,644.2028324,644.2028324,644.2028324,644.2028324,644.2028324,644.2028324,644.2028324,644.2028324,644.2028324,645.8510366,645.8510366,645.8510366,645.8510366,645.8510366,645.8510366,645.8510366,48,39,62,51,48,70,645.8510366,647.6689158,,,,,,,,,,,,,,,,,,,,３０４,f,２３,2023-05-18_10h49.16.002,RL,2022.2.5,59.98148971227583,
48,37,51,55,0,98,98,98,,,,,,,,None,647.6689158,647.6689158,647.6689158,647.6689158,647.6689158,647.6689158,j,0.4951055000000224,648.1904133,648.1904133,648.1904133,648.1904133,648.1904133,648.1904133,648.4856041,649.6686781000001,649.6854931,649.6854931,649.6854931,649.6854931,649.6854931,649.6854931,649.6854931,649.6854931,649.6854931,649.6854931,649.6854931,649.6854931,649.6854931,651.1667343,651.1667343,651.1667343,651.1667343,651.1667343,651.1667343,651.1667343,48,37,55,51,51,70,651.1667343,652.7844180000001,,,,,,,,,,,,,,,,,,,,３０４,f,２３,2023-05-18_10h49.16.002,RL,2022.2.5,59.98148971227583,
54,35,50,57,0,99,99,99,,,,,,,,None,652.7844180000001,652.7844180000001,652.7844180000001,652.7844180000001,652.7844180000001,652.7844180000001,r,0.431401400000027,653.2405608,653.2405608,653.2405608,653.2405608,653.2405608,653.2405608,653.5181101000001,654.5346676,654.5512696000001,654.5512696000001,654.5512696000001,654.5512696000001,654.5512696000001,654.5512696000001,654.5512696000001,654.5512696000001,654.5512696000001,654.5512696000001,654.5512696000001,654.5512696000001,654.5512696000001,655.8657618000001,655.8657618000001,655.8657618000001,655.8657618000001,655.8657618000001,655.8657618000001,655.8657618000001,54,35,57,50,35,70,655.8657618000001,657.4002104,,,,,,,,,,,,,,,,,,,,３０４,f,２３,2023-05-18_10h49.16.002,RL,2022.2.5,59.98148971227583,
48,37,37,54,0,100,100,100,,,,,,,,None,657.4002104,657.4002104,657.4002104,657.4002104,657.4002104,657.4002104,i,0.3384702999999263,657.7710901,657.7710901,657.7710901,657.7710901,657.7710901,657.7710901,658.0506117,659.3670898,659.3836725000001,659.3836725000001,659.3836725000001,659.3836725000001,659.3836725000001,659.3836725000001,659.3836725000001,659.3836725000001,659.3836725000001,659.3836725000001,659.3836725000001,659.3836725000001,659.3836725000001,660.9982969,660.9982969,660.9982969,660.9982969,660.9982969,660.9982969,660.9982969,48,37,54,37,54,70,660.9982969,662.7823575,,,,,,,,,,,,,,,,,,,,３０４,f,２３,2023-05-18_10h49.16.002,RL,2022.2.5,59.98148971227583,
48,44,41,61,0,101,101,101,,,,,,,,None,662.7823575,662.7823575,662.7823575,662.7823575,662.7823575,662.7823575,i,0.47991369999999733,663.2946119000001,663.2946119000001,663.2946119000001,663.2946119000001,663.2946119000001,663.2946119000001,663.5826056000001,664.74899,664.7659574,664.7659574,664.7659574,664.7659574,664.7659574,664.7659574,664.7659574,664.7659574,664.7659574,664.7659574,664.7659574,664.7659574,664.7659574,666.2308614000001,666.2308614000001,666.2308614000001,666.2308614000001,666.2308614000001,666.2308614000001,666.2308614000001,48,44,61,41,61,70,666.2308614000001,668.0485042,,,,,,,,,,,,,,,,,,,,３０４,f,２３,2023-05-18_10h49.16.002,RL,2022.2.5,59.98148971227583,
45,49,33,60,0,102,102,102,,,,,,,,None,668.0485042,668.0485042,668.0485042,668.0485042,668.0485042,668.0485042,i,0.5240684999999985,668.6065337,668.6065337,668.6065337,668.6065337,668.6065337,668.6065337,668.8821522000001,670.0318819,670.0482963000001,670.0482963000001,670.0482963000001,670.0482963000001,670.0482963000001,670.0482963000001,670.0482963000001,670.0482963000001,670.0482963000001,670.0482963000001,670.0482963000001,670.0482963000001,670.0482963000001,671.496423,671.496423,671.496423,671.496423,671.496423,671.496423,671.496423,45,49,60,33,60,70,671.496423,673.0142810000001,,,,,,,,,,,,,,,,,,,,３０４,f,２３,2023-05-18_10h49.16.002,RL,2022.2.5,59.98148971227583,
36,33,28,50,0,103,103,103,,,,,,,,None,673.0142810000001,673.0142810000001,673.0142810000001,673.0142810000001,673.0142810000001,673.0142810000001,i,0.8845882000000529,673.9338418000001,673.9338418000001,673.9338418000001,673.9338418000001,673.9338418000001,673.9338418000001,674.2146951000001,675.1643866000001,675.1976174,675.1976174,675.1976174,675.1976174,675.1976174,675.1976174,675.1976174,675.1976174,675.1976174,675.1976174,675.1976174,675.1976174,675.1976174,676.4456686000001,676.4456686000001,676.4456686000001,676.4456686000001,676.4456686000001,676.4456686000001,676.4456686000001,36,33,50,28,50,70,676.4456686000001,678.1966006,,,,,,,,,,,,,,,,,,,,３０４,f,２３,2023-05-18_10h49.16.002,RL,2022.2.5,59.98148971227583,
45,33,36,60,0,104,104,104,,,,,,,,None,678.1966006,678.1966006,678.1966006,678.1966006,678.1966006,678.1966006,f,0.280247999999915,678.5012835,678.5012835,678.5012835,678.5012835,678.5012835,678.5012835,678.7803814,680.4967561000001,680.5136224,680.5136224,680.5136224,680.5136224,680.5136224,680.5136224,680.5136224,680.5136224,680.5136224,680.5136224,680.5136224,680.5136224,680.5136224,682.5281165,682.5281165,682.5281165,682.5281165,682.5281165,682.5281165,682.5281165,45,33,60,36,45,70,682.5281165,684.1954727000001,,,,,,,,,,,,,,,,,,,,３０４,f,２３,2023-05-18_10h49.16.002,RL,2022.2.5,59.98148971227583,
46,35,38,56,0,105,105,105,,,,,,,,None,684.1954727000001,684.1954727000001,684.1954727000001,684.1954727000001,684.1954727000001,684.1954727000001,f,0.6350075999999945,684.877974,684.877974,684.877974,684.877974,684.877974,684.877974,685.1461177,686.4289917000001,686.4624746000001,686.4624746000001,686.4624746000001,686.4624746000001,686.4624746000001,686.4624746000001,686.4624746000001,686.4624746000001,686.4624746000001,686.4624746000001,686.4624746000001,686.4624746000001,686.4624746000001,688.0434424,688.0434424,688.0434424,688.0434424,688.0434424,688.0434424,688.0434424,46,35,56,38,46,70,688.0434424,689.6782123,,,,,,,,,,,,,,,,,,,,３０４,f,２３,2023-05-18_10h49.16.002,RL,2022.2.5,59.98148971227583,
42,47,41,50,0,106,106,106,,,,,,,,None,689.6782123,689.6782123,689.6782123,689.6782123,689.6782123,689.6782123,i,0.3034505000000536,690.0182748000001,690.0182748000001,690.0182748000001,690.0182748000001,690.0182748000001,690.0182748000001,690.2948798,691.7115692000001,691.7448366000001,691.7448366000001,691.7448366000001,691.7448366000001,691.7448366000001,691.7448366000001,691.7448366000001,691.7448366000001,691.7448366000001,691.7448366000001,691.7448366000001,691.7448366000001,691.7448366000001,693.459153,693.459153,693.459153,693.459153,693.459153,693.459153,693.459153,42,47,50,41,50,70,693.459153,695.0437805,,,,,,,,,,,,,,,,,,,,３０４,f,２３,2023-05-18_10h49.16.002,RL,2022.2.5,59.98148971227583,
47,29,41,50,0,107,107,107,,,,,,,,None,695.0437805,695.0437805,695.0437805,695.0437805,695.0437805,695.0437805,j,0.37893819999999323,695.4458807000001,695.4458807000001,695.4458807000001,695.4458807000001,695.4458807000001,695.4458807000001,695.7274136000001,697.2770507,697.2937856000001,697.2937856000001,697.2937856000001,697.2937856000001,697.2937856000001,697.2937856000001,697.2937856000001,697.2937856000001,697.2937856000001,697.2937856000001,697.2937856000001,697.2937856000001,697.2937856000001,699.1423591,699.1423591,699.1423591,699.1423591,699.1423591,699.1423591,699.1423591,47,29,50,41,41,70,699.1423591,700.8431192,,,,,,,,,,,,,,,,,,,,３０４,f,２３,2023-05-18_10h49.16.002,RL,2022.2.5,59.98148971227583,
49,35,43,57,0,108,108,108,,,,,,,,None,700.8431192,700.8431192,700.8431192,700.8431192,700.8431192,700.8431192,i,0.4539773999999852,701.3368810000001,701.3368810000001,701.3368810000001,701.3368810000001,701.3368810000001,701.3368810000001,701.6097876,702.6094879000001,702.6428275000001,702.6428275000001,702.6428275000001,702.6428275000001,702.6428275000001,702.6428275000001,702.6428275000001,702.6428275000001,702.6428275000001,702.6428275000001,702.6428275000001,702.6428275000001,702.6428275000001,703.9412149000001,703.9412149000001,703.9412149000001,703.9412149000001,703.9412149000001,703.9412149000001,703.9412149000001,49,35,57,43,57,70,703.9412149000001,705.6256808,,,,,,,,,,,,,,,,,,,,３０４,f,２３,2023-05-18_10h49.16.002,RL,2022.2.5,59.98148971227583,
43,37,46,51,0,109,109,109,,,,,,,,None,705.6256808,705.6256808,705.6256808,705.6256808,705.6256808,705.6256808,i,0.5782887999999957,706.2317519000001,706.2317519000001,706.2317519000001,706.2317519000001,706.2317519000001,706.2317519000001,706.5088773,707.9591783000001,707.9754522000001,707.9754522000001,707.9754522000001,707.9754522000001,707.9754522000001,707.9754522000001,707.9754522000001,707.9754522000001,707.9754522000001,707.9754522000001,707.9754522000001,707.9754522000001,707.9754522000001,709.7236773000001,709.7236773000001,709.7236773000001,709.7236773000001,709.7236773000001,709.7236773000001,709.7236773000001,43,37,51,46,51,70,709.7236773000001,711.4078495,,,,,,,,,,,,,,,,,,,,３０４,f,２３,2023-05-18_10h49.16.002,RL,2022.2.5,59.98148971227583,
49,34,51,60,0,110,110,110,,,,,,,,None,711.4078495,711.4078495,711.4078495,711.4078495,711.4078495,711.4078495,i,0.47442160000002787,711.9102942000001,711.9102942000001,711.9102942000001,711.9102942000001,711.9102942000001,711.9102942000001,712.1911151,713.8077265000001,713.8242717,713.8242717,713.8242717,713.8242717,713.8242717,713.8242717,713.8242717,713.8242717,713.8242717,713.8242717,713.8242717,713.8242717,713.8242717,715.7390423,715.7390423,715.7390423,715.7390423,715.7390423,715.7390423,715.7390423,49,34,60,51,60,70,715.7390423,717.339961,,,,,,,,,,,,,,,,,,,,３０４,f,２３,2023-05-18_10h49.16.002,RL,2022.2.5,59.98148971227583,
47,45,43,59,0,111,111,111,,,,,,,,None,717.339961,717.339961,717.339961,717.339961,717.339961,717.339961,r,0.2718253000000459,717.6422984000001,717.6422984000001,717.6422984000001,717.6422984000001,717.6422984000001,717.6422984000001,717.9236877000001,719.3904708,719.4069153,719.4069153,719.4069153,719.4069153,719.4069153,719.4069153,719.4069153,719.4069153,719.4069153,719.4069153,719.4069153,719.4069153,719.4069153,721.1711467,721.1711467,721.1711467,721.1711467,721.1711467,721.1711467,721.1711467,47,45,59,43,45,70,721.1711467,722.8389753,,,,,,,,,,,,,,,,,,,,３０４,f,２３,2023-05-18_10h49.16.002,RL,2022.2.5,59.98148971227583,
63,42,53,54,0,112,112,112,,,,,,,,None,722.8389753,722.8389753,722.8389753,722.8389753,722.8389753,722.8389753,i,0.3228960000000143,723.1944153000001,723.1944153000001,723.1944153000001,723.1944153000001,723.1944153000001,723.1944153000001,723.4725976000001,725.4060578000001,725.4389116000001,725.4389116000001,725.4389116000001,725.4389116000001,725.4389116000001,725.4389116000001,725.4389116000001,725.4389116000001,725.4389116000001,725.4389116000001,725.4389116000001,725.4389116000001,725.4389116000001,727.6702121000001,727.6702121000001,727.6702121000001,727.6702121000001,727.6702121000001,727.6702121000001,727.6702121000001,63,42,54,53,54,70,727.6702121000001,729.2215337,,,,,,,,,,,,,,,,,,,,３０４,f,２３,2023-05-18_10h49.16.002,RL,2022.2.5,59.98148971227583,
58,42,49,58,0,113,113,113,,,,,,,,None,729.2215337,729.2215337,729.2215337,729.2215337,729.2215337,729.2215337,f,0.3193102000000181,729.5764360000001,729.5764360000001,729.5764360000001,729.5764360000001,729.5764360000001,729.5764360000001,729.8713975000001,730.7877064,730.7877064,730.7877064,730.7877064,730.7877064,730.7877064,730.7877064,730.7877064,730.7877064,730.7877064,730.7877064,730.7877064,730.7877064,730.7877064,732.0032862,732.0032862,732.0032862,732.0032862,732.0032862,732.0032862,732.0032862,58,42,58,49,58,70,732.0032862,733.5204416,,,,,,,,,,,,,,,,,,,,３０４,f,２３,2023-05-18_10h49.16.002,RL,2022.2.5,59.98148971227583,
62,49,50,57,0,114,114,114,,,,,,,,None,733.5204416,733.5204416,733.5204416,733.5204416,733.5204416,733.5204416,i,0.5358907999999474,734.0926749,734.0926749,734.0926749,734.0926749,734.0926749,734.0926749,734.3707478,735.7872891000001,735.8052912,735.8052912,735.8052912,735.8052912,735.8052912,735.8052912,735.8052912,735.8052912,735.8052912,735.8052912,735.8052912,735.8052912,735.8052912,737.5186124,737.5186124,737.5186124,737.5186124,737.5186124,737.5186124,737.5186124,62,49,57,50,57,70,737.5186124,739.4025626,,,,,,,,,,,,,,,,,,,,３０４,f,２３,2023-05-18_10h49.16.002,RL,2022.2.5,59.98148971227583,
58,36,45,51,0,115,115,115,,,,,,,,None,739.4025626,739.4025626,739.4025626,739.4025626,739.4025626,739.4025626,f,0.8207326999998941,740.2581841,740.2581841,740.2581841,740.2581841,740.2581841,740.2581841,740.5360734000001,742.5031778,742.5194284,742.5194284,742.5194284,742.5194284,742.5194284,742.5194284,742.5194284,742.5194284,742.5194284,742.5194284,742.5194284,742.5194284,742.5194284,744.7844692,744.7844692,744.7844692,744.7844692,744.7844692,744.7844692,744.7844692,58,36,51,45,58,70,744.7844692,746.4849319,,,,,,,,,,,,,,,,,,,,３０４,f,２３,2023-05-18_10h49.16.002,RL,2022.2.5,59.98148971227583,
58,45,48,55,0,116,116,116,,,,,,,,None,746.4849319,746.4849319,746.4849319,746.4849319,746.4849319,746.4849319,j,0.71667089999994,747.2256049,747.2256049,747.2256049,747.2256049,747.2256049,747.2256049,747.5184368,748.8182158000001,748.8182158000001,748.8182158000001,748.8182158000001,748.8182158000001,748.8182158000001,748.8182158000001,748.8182158000001,748.8182158000001,748.8182158000001,748.8182158000001,748.8182158000001,748.8182158000001,748.8182158000001,750.4158504000001,750.4158504000001,750.4158504000001,750.4158504000001,750.4158504000001,750.4158504000001,750.4158504000001,58,45,55,48,48,70,750.4158504000001,752.2173412000001,,,,,,,,,,,,,,,,,,,,３０４,f,２３,2023-05-18_10h49.16.002,RL,2022.2.5,59.98148971227583,
60,43,46,56,0,117,117,117,,,,,,,,None,752.2173412000001,752.2173412000001,752.2173412000001,752.2173412000001,752.2173412000001,752.2173412000001,f,0.34726630000000114,752.5857403,752.5857403,752.5857403,752.5857403,752.5857403,752.5857403,752.8673312000001,754.7838833000001,754.8008687,754.8008687,754.8008687,754.8008687,754.8008687,754.8008687,754.8008687,754.8008687,754.8008687,754.8008687,754.8008687,754.8008687,754.8008687,757.0155134,757.0155134,757.0155134,757.0155134,757.0155134,757.0155134,757.0155134,60,43,56,46,60,70,757.0155134,758.8325616000001,,,,,,,,,,,,,,,,,,,,３０４,f,２３,2023-05-18_10h49.16.002,RL,2022.2.5,59.98148971227583,
65,46,52,43,0,118,118,118,,,,,,,,None,758.8325616000001,758.8325616000001,758.8325616000001,758.8325616000001,758.8325616000001,758.8325616000001,f,0.6294115999999121,759.4884369,759.4884369,759.4884369,759.4884369,759.4884369,759.4884369,759.7828951,761.5828607000001,761.5828607000001,761.5828607000001,761.5828607000001,761.5828607000001,761.5828607000001,761.5828607000001,761.5828607000001,761.5828607000001,761.5828607000001,761.5828607000001,761.5828607000001,761.5828607000001,761.5828607000001,763.6807231,763.6807231,763.6807231,763.6807231,763.6807231,763.6807231,763.6807231,65,46,43,52,65,70,763.6807231,765.4318363000001,,,,,,,,,,,,,,,,,,,,３０４,f,２３,2023-05-18_10h49.16.002,RL,2022.2.5,59.98148971227583,
62,40,46,52,0,119,119,119,,,,,,,,None,765.4318363000001,765.4318363000001,765.4318363000001,765.4318363000001,765.4318363000001,765.4318363000001,f,0.42345929999999044,765.8908893,765.8908893,765.8908893,765.8908893,765.8908893,765.8908893,766.1655079000001,768.0317531000001,768.0649595000001,768.0649595000001,768.0649595000001,768.0649595000001,768.0649595000001,768.0649595000001,768.0649595000001,768.0649595000001,768.0649595000001,768.0649595000001,768.0649595000001,768.0649595000001,768.0649595000001,770.2294106,770.2294106,770.2294106,770.2294106,770.2294106,770.2294106,770.2294106,62,40,52,46,62,70,770.2294106,771.9470550000001,,,,,,,,,,,,,,,,,,,,３０４,f,２３,2023-05-18_10h49.16.002,RL,2022.2.5,59.98148971227583,
59,39,58,44,0,120,120,120,,,,,,,,None,771.9470550000001,771.9470550000001,771.9470550000001,771.9470550000001,771.9470550000001,771.9470550000001,i,0.44468240000003334,772.4168321000001,772.4168321000001,772.4168321000001,772.4168321000001,772.4168321000001,772.4168321000001,772.697175,774.5805036,774.5972230000001,774.5972230000001,774.5972230000001,774.5972230000001,774.5972230000001,774.5972230000001,774.5972230000001,774.5972230000001,774.5972230000001,774.5972230000001,774.5972230000001,774.5972230000001,774.5972230000001,776.7781583000001,776.7781583000001,776.7781583000001,776.7781583000001,776.7781583000001,776.7781583000001,776.7781583000001,59,39,44,58,44,70,776.7781583000001,778.6126708,,,,,,,,,,,,,,,,,,,,３０４,f,２３,2023-05-18_10h49.16.002,RL,2022.2.5,59.98148971227583,
62,50,51,48,0,121,121,121,,,,,,,,None,778.6126708,778.6126708,778.6126708,778.6126708,778.6126708,778.6126708,f,0.4201656999999841,779.0701101000001,779.0701101000001,779.0701101000001,779.0701101000001,779.0701101000001,779.0701101000001,779.3462263,780.9461019,780.9791546,780.9791546,780.9791546,780.9791546,780.9791546,780.9791546,780.9791546,780.9791546,780.9791546,780.9791546,780.9791546,780.9791546,780.9791546,782.8773551,782.8773551,782.8773551,782.8773551,782.8773551,782.8773551,782.8773551,62,50,48,51,62,70,782.8773551,784.4617247,,,,,,,,,,,,,,,,,,,,３０４,f,２３,2023-05-18_10h49.16.002,RL,2022.2.5,59.98148971227583,
63,38,58,44,0,122,122,122,,,,,,,,None,784.4617247,784.4617247,784.4617247,784.4617247,784.4617247,784.4617247,r,0.6071322999999893,785.0974481000001,785.0974481000001,785.0974481000001,785.0974481000001,785.0974481000001,785.0974481000001,785.378461,787.0284511000001,787.0449989,787.0449989,787.0449989,787.0449989,787.0449989,787.0449989,787.0449989,787.0449989,787.0449989,787.0449989,787.0449989,787.0449989,787.0449989,788.9930064,788.9930064,788.9930064,788.9930064,788.9930064,788.9930064,788.9930064,63,38,44,58,38,70,788.9930064,790.5775808000001,,,,,,,,,,,,,,,,,,,,３０４,f,２３,2023-05-18_10h49.16.002,RL,2022.2.5,59.98148971227583,
52,36,56,49,0,123,123,123,,,,,,,,None,790.5775808000001,790.5775808000001,790.5775808000001,790.5775808000001,790.5775808000001,790.5775808000001,f,0.3560377000000017,790.9642318,790.9642318,790.9642318,790.9642318,790.9642318,790.9642318,791.2442145,792.9775239,792.9937832,792.9937832,792.9937832,792.9937832,792.9937832,792.9937832,792.9937832,792.9937832,792.9937832,792.9937832,792.9937832,792.9937832,792.9937832,795.0252075000001,795.0252075000001,795.0252075000001,795.0252075000001,795.0252075000001,795.0252075000001,795.0252075000001,52,36,49,56,52,70,795.0252075000001,796.9597395000001,,,,,,,,,,,,,,,,,,,,３０４,f,２３,2023-05-18_10h49.16.002,RL,2022.2.5,59.98148971227583,
69,35,48,45,0,124,124,124,,,,,,,,None,796.9597395000001,796.9597395000001,796.9597395000001,796.9597395000001,796.9597395000001,796.9597395000001,j,0.4424469999999019,797.4330028,797.4330028,797.4330028,797.4330028,797.4330028,797.4330028,797.7259190000001,799.7098714,799.7258564,799.7258564,799.7258564,799.7258564,799.7258564,799.7258564,799.7258564,799.7258564,799.7258564,799.7258564,799.7258564,799.7258564,799.7258564,802.0076589,802.0076589,802.0076589,802.0076589,802.0076589,802.0076589,802.0076589,69,35,45,48,48,70,802.0076589,803.8749138000001,,,,,,,,,,,,,,,,,,,,３０４,f,２３,2023-05-18_10h49.16.002,RL,2022.2.5,59.98148971227583,
64,37,58,49,0,125,125,125,,,,,,,,None,803.8749138000001,803.8749138000001,803.8749138000001,803.8749138000001,803.8749138000001,803.8749138000001,i,0.502783999999906,804.4147700000001,804.4147700000001,804.4147700000001,804.4147700000001,804.4147700000001,804.4147700000001,804.6918727000001,806.4584667,806.4746082,806.4746082,806.4746082,806.4746082,806.4746082,806.4746082,806.4746082,806.4746082,806.4746082,806.4746082,806.4746082,806.4746082,806.4746082,808.5400062,808.5400062,808.5400062,808.5400062,808.5400062,808.5400062,808.5400062,64,37,49,58,49,70,808.5400062,810.206992,,,,,,,,,,,,,,,,,,,,３０４,f,２３,2023-05-18_10h49.16.002,RL,2022.2.5,59.98148971227583,
62,32,48,45,0,126,126,126,,,,,,,,None,810.206992,810.206992,810.206992,810.206992,810.206992,810.206992,f,0.41206290000002355,810.6447973,810.6447973,810.6447973,810.6447973,810.6447973,810.6447973,810.9238402000001,811.8070172,811.8408177,811.8408177,811.8408177,811.8408177,811.8408177,811.8408177,811.8408177,811.8408177,811.8408177,811.8408177,811.8408177,811.8408177,811.8408177,813.0220725,813.0220725,813.0220725,813.0220725,813.0220725,813.0220725,813.0220725,62,32,45,48,62,70,813.0220725,814.6563597,,,,,,,,,,,,,,,,,,,,３０４,f,２３,2023-05-18_10h49.16.002,RL,2022.2.5,59.98148971227583,
53,49,55,43,0,127,127,127,,,,,,,,None,814.6563597,814.6563597,814.6563597,814.6563597,814.6563597,814.6563597,f,0.375158899999974,815.0619443,815.0619443,815.0619443,815.0619443,815.0619443,815.0619443,815.3398768000001,817.1569856000001,817.1729876,817.1729876,817.1729876,817.1729876,817.1729876,817.1729876,817.1729876,817.1729876,817.1729876,817.1729876,817.1729876,817.1729876,817.1729876,819.2881083000001,819.2881083000001,819.2881083000001,819.2881083000001,819.2881083000001,819.2881083000001,819.2881083000001,53,49,43,55,53,70,819.2881083000001,820.9388979,,,,,,,,,,,,,,,,,,,,３０４,f,２３,2023-05-18_10h49.16.002,RL,2022.2.5,59.98148971227583,
56,46,56,44,0,128,128,128,,,,,,,,None,820.9388979,820.9388979,820.9388979,820.9388979,820.9388979,820.9388979,i,0.35998510000001716,821.3250884,821.3250884,821.3250884,821.3250884,821.3250884,821.3250884,821.6056167,823.1720259,823.2053312,823.2053312,823.2053312,823.2053312,823.2053312,823.2053312,823.2053312,823.2053312,823.2053312,823.2053312,823.2053312,823.2053312,823.2053312,825.0869169,825.0869169,825.0869169,825.0869169,825.0869169,825.0869169,825.0869169,56,46,44,56,44,70,825.0869169,826.620971,,,,,,,,,,,,,,,,,,,,３０４,f,２３,2023-05-18_10h49.16.002,RL,2022.2.5,59.98148971227583,
65,47,55,47,0,129,129,129,,,,,,,,None,826.620971,826.620971,826.620971,826.620971,826.620971,826.620971,i,0.5558851000000686,827.2151112,827.2151112,827.2151112,827.2151112,827.2151112,827.2151112,827.5047281000001,829.2708391,829.2877753,829.2877753,829.2877753,829.2877753,829.2877753,829.2877753,829.2877753,829.2877753,829.2877753,829.2877753,829.2877753,829.2877753,829.2877753,831.3521809,831.3521809,831.3521809,831.3521809,831.3521809,831.3521809,831.3521809,65,47,47,55,47,70,831.3521809,833.1869191000001,,,,,,,,,,,,,,,,,,,,３０４,f,２３,2023-05-18_10h49.16.002,RL,2022.2.5,59.98148971227583,
62,37,66,44,0,130,130,130,,,,,,,,None,833.1869191000001,833.1869191000001,833.1869191000001,833.1869191000001,833.1869191000001,833.1869191000001,i,0.4255208000000721,833.6390794,833.6390794,833.6390794,833.6390794,833.6390794,833.6390794,833.9201231000001,835.5392889000001,835.5556731,835.5556731,835.5556731,835.5556731,835.5556731,835.5556731,835.5556731,835.5556731,835.5556731,835.5556731,835.5556731,835.5556731,835.5556731,837.4678611,837.4678611,837.4678611,837.4678611,837.4678611,837.4678611,837.4678611,62,37,44,66,44,70,837.4678611,839.1520894,,,,,,,,,,,,,,,,,,,,３０４,f,２３,2023-05-18_10h49.16.002,RL,2022.2.5,59.98148971227583,
59,43,53,41,0,131,131,131,,,,,,,,None,839.1520894,839.1520894,839.1520894,839.1520894,839.1520894,839.1520894,f,0.3129592999999886,839.4894392,839.4894392,839.4894392,839.4894392,839.4894392,839.4894392,839.7858705000001,841.1354655,841.1354655,841.1354655,841.1354655,841.1354655,841.1354655,841.1354655,841.1354655,841.1354655,841.1354655,841.1354655,841.1354655,841.1354655,841.1354655,842.784136,842.784136,842.784136,842.784136,842.784136,842.784136,842.784136,59,43,41,53,59,70,842.784136,844.6013338,,,,,,,,,,,,,,,,,,,,３０４,f,２３,2023-05-18_10h49.16.002,RL,2022.2.5,59.98148971227583,
59,46,47,52,0,132,132,132,,,,,,,,None,844.6013338,844.6013338,844.6013338,844.6013338,844.6013338,844.6013338,f,0.42638770000007753,845.0546799,845.0546799,845.0546799,845.0546799,845.0546799,845.0546799,845.3347566,847.284576,847.3177595000001,847.3177595000001,847.3177595000001,847.3177595000001,847.3177595000001,847.3177595000001,847.3177595000001,847.3177595000001,847.3177595000001,847.3177595000001,847.3177595000001,847.3177595000001,847.3177595000001,849.5660491000001,849.5660491000001,849.5660491000001,849.5660491000001,849.5660491000001,849.5660491000001,849.5660491000001,59,46,52,47,59,70,849.5660491000001,851.3504680000001,,,,,,,,,,,,,,,,,,,,３０４,f,２３,2023-05-18_10h49.16.002,RL,2022.2.5,59.98148971227583,
50,50,35,53,0,133,133,133,,,,,,,,None,851.3504680000001,851.3504680000001,851.3504680000001,851.3504680000001,851.3504680000001,851.3504680000001,f,0.3346910000000207,851.7213035000001,851.7213035000001,851.7213035000001,851.7213035000001,851.7213035000001,851.7213035000001,852.0002391,853.1999562000001,853.2168334,853.2168334,853.2168334,853.2168334,853.2168334,853.2168334,853.2168334,853.2168334,853.2168334,853.2168334,853.2168334,853.2168334,853.2168334,854.7149882,854.7149882,854.7149882,854.7149882,854.7149882,854.7149882,854.7149882,50,50,53,35,50,70,854.7149882,856.3490573,,,,,,,,,,,,,,,,,,,,３０４,f,２３,2023-05-18_10h49.16.002,RL,2022.2.5,59.98148971227583,
64,53,43,46,0,134,134,134,,,,,,,,None,856.3490573,856.3490573,856.3490573,856.3490573,856.3490573,856.3490573,f,0.4707318999999188,856.8541591000001,856.8541591000001,856.8541591000001,856.8541591000001,856.8541591000001,856.8541591000001,857.1326479,858.2159932000001,858.2326602,858.2326602,858.2326602,858.2326602,858.2326602,858.2326602,858.2326602,858.2326602,858.2326602,858.2326602,858.2326602,858.2326602,858.2326602,859.6142603000001,859.6142603000001,859.6142603000001,859.6142603000001,859.6142603000001,859.6142603000001,859.6142603000001,64,53,46,43,64,70,859.6142603000001,861.4985089,,,,,,,,,,,,,,,,,,,,３０４,f,２３,2023-05-18_10h49.16.002,RL,2022.2.5,59.98148971227583,
59,47,45,48,0,135,135,135,,,,,,,,None,861.4985089,861.4985089,861.4985089,861.4985089,861.4985089,861.4985089,f,0.4640628999999308,861.9898789,861.9898789,861.9898789,861.9898789,861.9898789,861.9898789,862.2819744000001,864.214647,864.214647,864.214647,864.214647,864.214647,864.214647,864.214647,864.214647,864.214647,864.214647,864.214647,864.214647,864.214647,864.214647,866.4463841,866.4463841,866.4463841,866.4463841,866.4463841,866.4463841,866.4463841,59,47,48,45,59,70,866.4463841,868.2309521000001,,,,,,,,,,,,,,,,,,,,３０４,f,２３,2023-05-18_10h49.16.002,RL,2022.2.5,59.98148971227583,
52,50,45,56,0,136,136,136,,,,,,,,None,868.2309521000001,868.2309521000001,868.2309521000001,868.2309521000001,868.2309521000001,868.2309521000001,i,0.38218240000003334,868.6358614000001,868.6358614000001,868.6358614000001,868.6358614000001,868.6358614000001,868.6358614000001,868.9307649000001,870.0135967,870.0306254000001,870.0306254000001,870.0306254000001,870.0306254000001,870.0306254000001,870.0306254000001,870.0306254000001,870.0306254000001,870.0306254000001,870.0306254000001,870.0306254000001,870.0306254000001,870.0306254000001,871.4115285,871.4115285,871.4115285,871.4115285,871.4115285,871.4115285,871.4115285,52,50,56,45,56,70,871.4115285,873.0126331,,,,,,,,,,,,,,,,,,,,３０４,f,２３,2023-05-18_10h49.16.002,RL,2022.2.5,59.98148971227583,
60,41,38,54,0,137,137,137,,,,,,,,None,873.0126331,873.0126331,873.0126331,873.0126331,873.0126331,873.0126331,f,0.5928855999999314,873.6395059,873.6395059,873.6395059,873.6395059,873.6395059,873.6395059,873.9128638000001,875.3128303000001,875.3460786,875.3460786,875.3460786,875.3460786,875.3460786,875.3460786,875.3460786,875.3460786,875.3460786,875.3460786,875.3460786,875.3460786,875.3460786,877.0441098,877.0441098,877.0441098,877.0441098,877.0441098,877.0441098,877.0441098,60,41,54,38,60,70,877.0441098,878.9452950000001,,,,,,,,,,,,,,,,,,,,３０４,f,２３,2023-05-18_10h49.16.002,RL,2022.2.5,59.98148971227583,
63,49,35,57,0,138,138,138,,,,,,,,None,878.9452950000001,878.9452950000001,878.9452950000001,878.9452950000001,878.9452950000001,878.9452950000001,f,0.3844716999999491,879.3709811,879.3709811,879.3709811,879.3709811,879.3709811,879.3709811,879.6620473,881.4785148000001,881.4951910000001,881.4951910000001,881.4951910000001,881.4951910000001,881.4951910000001,881.4951910000001,881.4951910000001,881.4951910000001,881.4951910000001,881.4951910000001,881.4951910000001,881.4951910000001,881.4951910000001,883.6099205,883.6099205,883.6099205,883.6099205,883.6099205,883.6099205,883.6099205,63,49,57,35,63,70,883.6099205,885.4106328,,,,,,,,,,,,,,,,,,,,３０４,f,２３,2023-05-18_10h49.16.002,RL,2022.2.5,59.98148971227583,
62,44,34,47,0,139,139,139,,,,,,,,None,885.4106328,885.4106328,885.4106328,885.4106328,885.4106328,885.4106328,f,0.36762180000005173,885.8197184,885.8197184,885.8197184,885.8197184,885.8197184,885.8197184,886.1110833,886.9271102,886.9437988000001,886.9437988000001,886.9437988000001,886.9437988000001,886.9437988000001,886.9437988000001,886.9437988000001,886.9437988000001,886.9437988000001,886.9437988000001,886.9437988000001,886.9437988000001,886.9437988000001,888.0588386000001,888.0588386000001,888.0588386000001,888.0588386000001,888.0588386000001,888.0588386000001,888.0588386000001,62,44,47,34,62,70,888.0588386000001,889.8766784000001,,,,,,,,,,,,,,,,,,,,３０４,f,２３,2023-05-18_10h49.16.002,RL,2022.2.5,59.98148971227583,
65,49,30,49,0,140,140,140,,,,,,,,None,889.8766784000001,889.8766784000001,889.8766784000001,889.8766784000001,889.8766784000001,889.8766784000001,r,0.4363010999999233,890.3491896,890.3491896,890.3491896,890.3491896,890.3491896,890.3491896,890.6268909,891.9767799,891.9936083,891.9936083,891.9936083,891.9936083,891.9936083,891.9936083,891.9936083,891.9936083,891.9936083,891.9936083,891.9936083,891.9936083,891.9936083,893.6411597,893.6411597,893.6411597,893.6411597,893.6411597,893.6411597,893.6411597,65,49,49,30,49,70,893.6411597,895.1591946000001,,,,,,,,,,,,,,,,,,,,３０４,f,２３,2023-05-18_10h49.16.002,RL,2022.2.5,59.98148971227583,
75,45,22,42,0,141,141,141,,,,,,,,None,895.1591946000001,895.1591946000001,895.1591946000001,895.1591946000001,895.1591946000001,895.1591946000001,f,0.34608060000005025,895.5310582000001,895.5310582000001,895.5310582000001,895.5310582000001,895.5310582000001,895.5310582000001,895.809436,896.9922367,897.0258514000001,897.0258514000001,897.0258514000001,897.0258514000001,897.0258514000001,897.0258514000001,897.0258514000001,897.0258514000001,897.0258514000001,897.0258514000001,897.0258514000001,897.0258514000001,897.0258514000001,898.5072828000001,898.5072828000001,898.5072828000001,898.5072828000001,898.5072828000001,898.5072828000001,898.5072828000001,75,45,42,22,75,70,898.5072828000001,900.0580611,,,,,,,,,,,,,,,,,,,,３０４,f,２３,2023-05-18_10h49.16.002,RL,2022.2.5,59.98148971227583,
70,51,22,40,0,142,142,142,,,,,,,,None,900.0580611,900.0580611,900.0580611,900.0580611,900.0580611,900.0580611,f,0.3747951999999941,900.4645145000001,900.4645145000001,900.4645145000001,900.4645145000001,900.4645145000001,900.4645145000001,900.7417452000001,902.6250080000001,902.6414716,902.6414716,902.6414716,902.6414716,902.6414716,902.6414716,902.6414716,902.6414716,902.6414716,902.6414716,902.6414716,902.6414716,902.6414716,904.8231378,904.8231378,904.8231378,904.8231378,904.8231378,904.8231378,904.8231378,70,51,40,22,70,70,904.8231378,906.4739974,,,,,,,,,,,,,,,,,,,,３０４,f,２３,2023-05-18_10h49.16.002,RL,2022.2.5,59.98148971227583,
71,51,25,44,0,143,143,143,,,,,,,,None,906.4739974,906.4739974,906.4739974,906.4739974,906.4739974,906.4739974,f,0.6195619999999735,907.1316861,907.1316861,907.1316861,907.1316861,907.1316861,907.1316861,907.4073050000001,909.2905316,909.3070712,909.3070712,909.3070712,909.3070712,909.3070712,909.3070712,909.3070712,909.3070712,909.3070712,909.3070712,909.3070712,909.3070712,909.3070712,911.4884127,911.4884127,911.4884127,911.4884127,911.4884127,911.4884127,911.4884127,71,51,44,25,71,70,911.4884127,913.1558546,,,,,,,,,,,,,,,,,,,,３０４,f,２３,2023-05-18_10h49.16.002,RL,2022.2.5,59.98148971227583,
74,48,23,42,0,144,144,144,,,,,,,,None,913.1558546,913.1558546,913.1558546,913.1558546,913.1558546,913.1558546,f,0.6436025000000427,913.8285508,913.8285508,913.8285508,913.8285508,913.8285508,913.8285508,914.106295,916.0060388,916.0225718,916.0225718,916.0225718,916.0225718,916.0225718,916.0225718,916.0225718,916.0225718,916.0225718,916.0225718,916.0225718,916.0225718,916.0225718,918.2205019,918.2205019,918.2205019,918.2205019,918.2205019,918.2205019,918.2205019,74,48,42,23,74,70,918.2205019,920.1715767000001,,,,,,,,,,,,,,,,,,,,３０４,f,２３,2023-05-18_10h49.16.002,RL,2022.2.5,59.98148971227583,
65,49,20,43,0,145,145,145,,,,,,,,None,920.1715767000001,920.1715767000001,920.1715767000001,920.1715767000001,920.1715767000001,920.1715767000001,f,0.3362849999999753,920.5407672,920.5407672,920.5407672,920.5407672,920.5407672,920.5407672,920.8218368,922.7715126,922.8048872,922.8048872,922.8048872,922.8048872,922.8048872,922.8048872,922.8048872,922.8048872,922.8048872,922.8048872,922.8048872,922.8048872,922.8048872,925.0524720000001,925.0524720000001,925.0524720000001,925.0524720000001,925.0524720000001,925.0524720000001,925.0524720000001,65,49,43,20,65,70,925.0524720000001,926.6374020000001,,,,,,,,,,,,,,,,,,,,３０４,f,２３,2023-05-18_10h49.16.002,RL,2022.2.5,59.98148971227583,
66,50,22,31,0,146,146,146,,,,,,,,None,926.6374020000001,926.6374020000001,926.6374020000001,926.6374020000001,926.6374020000001,926.6374020000001,f,0.5012620999999626,927.1760812,927.1760812,927.1760812,927.1760812,927.1760812,927.1760812,927.4537210000001,928.2703689,928.2868826,928.2868826,928.2868826,928.2868826,928.2868826,928.2868826,928.2868826,928.2868826,928.2868826,928.2868826,928.2868826,928.2868826,928.2868826,929.4021184000001,929.4021184000001,929.4021184000001,929.4021184000001,929.4021184000001,929.4021184000001,929.4021184000001,66,50,31,22,66,70,929.4021184000001,931.3863149,,,,,,,,,,,,,,,,,,,,３０４,f,２３,2023-05-18_10h49.16.002,RL,2022.2.5,59.98148971227583,
60,42,18,38,0,147,147,147,,,,,,,,None,931.3863149,931.3863149,931.3863149,931.3863149,931.3863149,931.3863149,f,0.764473100000032,932.1767942,932.1767942,932.1767942,932.1767942,932.1767942,932.1767942,932.4697490000001,934.0864988000001,934.1060996,934.1060996,934.1060996,934.1060996,934.1060996,934.1060996,934.1060996,934.1060996,934.1060996,934.1060996,934.1060996,934.1060996,934.1060996,936.0342015,936.0342015,936.0342015,936.0342015,936.0342015,936.0342015,936.0342015,60,42,38,18,60,70,936.0342015,937.7352092000001,,,,,,,,,,,,,,,,,,,,３０４,f,２３,2023-05-18_10h49.16.002,RL,2022.2.5,59.98148971227583,
