arm1,arm2,arm3,arm4,trials.thisRepN,trials.thisTrialN,trials.thisN,trials.thisIndex,instru_img1.started,instru_resp.started,instru_resp.keys,instru_resp.rt,image_2.started,text_2.started,fixbefore_2.started,rest_response.keys,red.started,green.started,yellow.started,blue.started,choose_bandit.started,Fixation.started,choose_bandit.keys,choose_bandit.rt,black.started,red_2.started,green_2.started,yellow_2.started,blue_2.started,fixation_2.started,docs.started,docs.stopped,black.stopped,red_2.stopped,green_2.stopped,yellow_2.stopped,blue_2.stopped,fixation_2.stopped,black_com.started,reward_sub.started,reward__sub.started,red_compare.started,green_com.started,yellow_com.started,blue_com.started,black_com.stopped,reward_sub.stopped,reward__sub.stopped,red_compare.stopped,green_com.stopped,yellow_com.stopped,blue_com.stopped,rewardred,rewardyellow,rewardblue,rewardgreen,subchoose,expectation,intertrialfix.started,intertrialfix.stopped,rest_image.started,rest_response.started,rest_response.rt,image_expect_after.started,text_exp_after.started,image_expect_after.stopped,text_exp_after.stopped,image.started,key_resp.started,key_resp.keys,key_resp.rt,participant,Gender,Age,date,expName,psychopyVersion,frameRate,
,,,,,,,,33.755447900000036,33.755447900000036,space,12.835291599999891,,,,,,,,,,,,,,,,,,,,,,,,,,,,,,,,,,,,,,,,,,,,,,,,,,,,,,,,,,,,３０５,f,２０,2023-05-18_11h45.20.979,RL,2022.2.5,60.118300792346325,
44,47,48,59,0,0,0,0,,,,,46.623922199999924,46.623922199999924,51.633557999999994,None,52.65946159999976,52.65946159999976,52.65946159999976,52.65946159999976,52.65946159999976,52.65946159999976,r,0.7970696000002135,53.493640199999845,53.493640199999845,53.493640199999845,53.493640199999845,53.493640199999845,53.493640199999845,53.78755860000001,55.63484840000001,55.654090500000166,55.654090500000166,55.654090500000166,55.654090500000166,55.654090500000166,55.654090500000166,55.654090500000166,55.654090500000166,55.654090500000166,55.654090500000166,55.654090500000166,55.654090500000166,55.654090500000166,57.843383099999755,57.843383099999755,57.843383099999755,57.843383099999755,57.843383099999755,57.843383099999755,57.843383099999755,48,44,59,47,44,60,57.843383099999755,59.583886299999904,,,,,,,,,,,,３０５,f,２０,2023-05-18_11h45.20.979,RL,2022.2.5,60.118300792346325,
37,47,54,51,0,1,1,1,,,,,,,,None,59.583886299999904,59.583886299999904,59.583886299999904,59.583886299999904,59.583886299999904,59.583886299999904,i,0.29167980000011084,59.90170780000017,59.90170780000017,59.90170780000017,59.90170780000017,59.90170780000017,59.90170780000017,60.200560100000075,62.09986769999978,62.09986769999978,62.09986769999978,62.09986769999978,62.09986769999978,62.09986769999978,62.09986769999978,62.09986769999978,62.09986769999978,62.09986769999978,62.09986769999978,62.09986769999978,62.09986769999978,62.09986769999978,64.29801910000015,64.29801910000015,64.29801910000015,64.29801910000015,64.29801910000015,64.29801910000015,64.29801910000015,54,37,51,47,51,60,64.29801910000015,66.03246679999984,,,,,,,,,,,,３０５,f,２０,2023-05-18_11h45.20.979,RL,2022.2.5,60.118300792346325,
43,56,52,50,0,2,2,2,,,,,,,,None,66.03246679999984,66.03246679999984,66.03246679999984,66.03246679999984,66.03246679999984,66.03246679999984,i,0.2556282000000465,66.32136319999972,66.32136319999972,66.32136319999972,66.32136319999972,66.32136319999972,66.32136319999972,66.59980749999977,67.5163078999999,67.54900439999983,67.54900439999983,67.54900439999983,67.54900439999983,67.54900439999983,67.54900439999983,67.54900439999983,67.54900439999983,67.54900439999983,67.54900439999983,67.54900439999983,67.54900439999983,67.54900439999983,68.76396710000017,68.76396710000017,68.76396710000017,68.76396710000017,68.76396710000017,68.76396710000017,68.76396710000017,52,43,50,56,50,60,68.76396710000017,70.58194790000016,,,,,,,,,,,,３０５,f,２０,2023-05-18_11h45.20.979,RL,2022.2.5,60.118300792346325,
41,60,49,64,0,3,3,3,,,,,,,,None,70.58194790000016,70.58194790000016,70.58194790000016,70.58194790000016,70.58194790000016,70.58194790000016,j,0.38909160000002885,71.00109710000015,71.00109710000015,71.00109710000015,71.00109710000015,71.00109710000015,71.00109710000015,71.29850510000006,72.46471629999996,72.46471629999996,72.46471629999996,72.46471629999996,72.46471629999996,72.46471629999996,72.46471629999996,72.46471629999996,72.46471629999996,72.46471629999996,72.46471629999996,72.46471629999996,72.46471629999996,72.46471629999996,73.92978540000013,73.92978540000013,73.92978540000013,73.92978540000013,73.92978540000013,73.92978540000013,73.92978540000013,49,41,64,60,60,60,73.92978540000013,75.89757789999976,,,,,,,,,,,,３０５,f,２０,2023-05-18_11h45.20.979,RL,2022.2.5,60.118300792346325,
37,56,58,56,0,4,4,4,,,,,,,,None,75.89757789999976,75.89757789999976,75.89757789999976,75.89757789999976,75.89757789999976,75.89757789999976,f,0.2458443000000443,76.16650609999988,76.16650609999988,76.16650609999988,76.16650609999988,76.16650609999988,76.16650609999988,76.44830760000013,77.96419639999976,77.98049839999976,77.98049839999976,77.98049839999976,77.98049839999976,77.98049839999976,77.98049839999976,77.98049839999976,77.98049839999976,77.98049839999976,77.98049839999976,77.98049839999976,77.98049839999976,77.98049839999976,79.79537149999987,79.79537149999987,79.79537149999987,79.79537149999987,79.79537149999987,79.79537149999987,79.79537149999987,58,37,56,56,58,60,79.79537149999987,81.73011229999975,,,,,,,,,,,,３０５,f,２０,2023-05-18_11h45.20.979,RL,2022.2.5,60.118300792346325,
42,51,58,57,0,5,5,5,,,,,,,,None,81.73011229999975,81.73011229999975,81.73011229999975,81.73011229999975,81.73011229999975,81.73011229999975,j,0.28404470000032234,82.050835,82.050835,82.050835,82.050835,82.050835,82.050835,82.34715740000001,84.22943420000001,84.22943420000001,84.22943420000001,84.22943420000001,84.22943420000001,84.22943420000001,84.22943420000001,84.22943420000001,84.22943420000001,84.22943420000001,84.22943420000001,84.22943420000001,84.22943420000001,84.22943420000001,86.41081970000005,86.41081970000005,86.41081970000005,86.41081970000005,86.41081970000005,86.41081970000005,86.41081970000005,58,42,57,51,51,60,86.41081970000005,88.14516939999976,,,,,,,,,,,,３０５,f,２０,2023-05-18_11h45.20.979,RL,2022.2.5,60.118300792346325,
35,52,64,49,0,6,6,6,,,,,,,,None,88.14516939999976,88.14516939999976,88.14516939999976,88.14516939999976,88.14516939999976,88.14516939999976,i,0.5309683000000405,88.69584410000016,88.69584410000016,88.69584410000016,88.69584410000016,88.69584410000016,88.69584410000016,88.97878219999984,90.34566889999996,90.36169250000012,90.36169250000012,90.36169250000012,90.36169250000012,90.36169250000012,90.36169250000012,90.36169250000012,90.36169250000012,90.36169250000012,90.36169250000012,90.36169250000012,90.36169250000012,90.36169250000012,92.02695259999973,92.02695259999973,92.02695259999973,92.02695259999973,92.02695259999973,92.02695259999973,92.02695259999973,64,35,49,52,49,60,92.02695259999973,93.8281164,,,,,,,,,,,,３０５,f,２０,2023-05-18_11h45.20.979,RL,2022.2.5,60.118300792346325,
44,48,62,60,0,7,7,7,,,,,,,,None,93.8281164,93.8281164,93.8281164,93.8281164,93.8281164,93.8281164,r,0.30205309999973906,94.16317029999982,94.16317029999982,94.16317029999982,94.16317029999982,94.16317029999982,94.16317029999982,94.46145320000005,95.84464819999994,95.84464819999994,95.84464819999994,95.84464819999994,95.84464819999994,95.84464819999994,95.84464819999994,95.84464819999994,95.84464819999994,95.84464819999994,95.84464819999994,95.84464819999994,95.84464819999994,95.84464819999994,97.52581669999972,97.52581669999972,97.52581669999972,97.52581669999972,97.52581669999972,97.52581669999972,97.52581669999972,62,44,60,48,44,60,97.52581669999972,99.10996269999987,,,,,,,,,,,,３０５,f,２０,2023-05-18_11h45.20.979,RL,2022.2.5,60.118300792346325,
35,51,58,52,0,8,8,8,,,,,,,,None,99.10996269999987,99.10996269999987,99.10996269999987,99.10996269999987,99.10996269999987,99.10996269999987,f,0.2592208999999457,99.39401929999985,99.39401929999985,99.39401929999985,99.39401929999985,99.39401929999985,99.39401929999985,99.67695309999999,100.81050189999996,100.82734040000014,100.82734040000014,100.82734040000014,100.82734040000014,100.82734040000014,100.82734040000014,100.82734040000014,100.82734040000014,100.82734040000014,100.82734040000014,100.82734040000014,100.82734040000014,100.82734040000014,102.25814790000004,102.25814790000004,102.25814790000004,102.25814790000004,102.25814790000004,102.25814790000004,102.25814790000004,58,35,52,51,58,60,102.25814790000004,103.95951749999995,,,,,,,,,,,,３０５,f,２０,2023-05-18_11h45.20.979,RL,2022.2.5,60.118300792346325,
38,48,55,51,0,9,9,9,,,,,,,,None,103.95951749999995,103.95951749999995,103.95951749999995,103.95951749999995,103.95951749999995,103.95951749999995,i,0.3823568000002524,104.36146569999983,104.36146569999983,104.36146569999983,104.36146569999983,104.36146569999983,104.36146569999983,104.64262250000002,105.79314879999993,105.80955110000014,105.80955110000014,105.80955110000014,105.80955110000014,105.80955110000014,105.80955110000014,105.80955110000014,105.80955110000014,105.80955110000014,105.80955110000014,105.80955110000014,105.80955110000014,105.80955110000014,107.25776670000005,107.25776670000005,107.25776670000005,107.25776670000005,107.25776670000005,107.25776670000005,107.25776670000005,55,38,51,48,51,60,107.25776670000005,108.8417129999998,,,,,,,,,,,,３０５,f,２０,2023-05-18_11h45.20.979,RL,2022.2.5,60.118300792346325,
36,40,57,53,0,10,10,10,,,,,,,,None,108.8417129999998,108.8417129999998,108.8417129999998,108.8417129999998,108.8417129999998,108.8417129999998,j,0.4868316000001869,109.35906470000009,109.35906470000009,109.35906470000009,109.35906470000009,109.35906470000009,109.35906470000009,109.65888580000001,110.7582966,110.7582966,110.7582966,110.7582966,110.7582966,110.7582966,110.7582966,110.7582966,110.7582966,110.7582966,110.7582966,110.7582966,110.7582966,110.7582966,112.15644190000012,112.15644190000012,112.15644190000012,112.15644190000012,112.15644190000012,112.15644190000012,112.15644190000012,57,36,53,40,40,60,112.15644190000012,113.79075409999996,,,,,,,,,,,,３０５,f,２０,2023-05-18_11h45.20.979,RL,2022.2.5,60.118300792346325,
42,44,58,60,0,11,11,11,,,,,,,,None,113.79075409999996,113.79075409999996,113.79075409999996,113.79075409999996,113.79075409999996,113.79075409999996,j,0.34227850000024773,114.15814199999977,114.15814199999977,114.15814199999977,114.15814199999977,114.15814199999977,114.15814199999977,114.44149620000007,115.5579475999998,115.57441199999994,115.57441199999994,115.57441199999994,115.57441199999994,115.57441199999994,115.57441199999994,115.57441199999994,115.57441199999994,115.57441199999994,115.57441199999994,115.57441199999994,115.57441199999994,115.57441199999994,116.98896979999972,116.98896979999972,116.98896979999972,116.98896979999972,116.98896979999972,116.98896979999972,116.98896979999972,58,42,60,44,44,60,116.98896979999972,118.98985450000009,,,,,,,,,,,,３０５,f,２０,2023-05-18_11h45.20.979,RL,2022.2.5,60.118300792346325,
43,41,53,57,0,12,12,12,,,,,,,,None,118.98985450000009,118.98985450000009,118.98985450000009,118.98985450000009,118.98985450000009,118.98985450000009,j,0.2510793999999805,119.27799839999989,119.27799839999989,119.27799839999989,119.27799839999989,119.27799839999989,119.27799839999989,119.55696780000017,120.80704590000005,120.8236667000001,120.8236667000001,120.8236667000001,120.8236667000001,120.8236667000001,120.8236667000001,120.8236667000001,120.8236667000001,120.8236667000001,120.8236667000001,120.8236667000001,120.8236667000001,120.8236667000001,122.37153129999979,122.37153129999979,122.37153129999979,122.37153129999979,122.37153129999979,122.37153129999979,122.37153129999979,53,43,57,41,41,60,122.37153129999979,124.3391431,,,,,,,,,,,,３０５,f,２０,2023-05-18_11h45.20.979,RL,2022.2.5,60.118300792346325,
44,37,54,60,0,13,13,13,,,,,,,,None,124.3391431,124.3391431,124.3391431,124.3391431,124.3391431,124.3391431,f,0.24159549999967567,124.60639059999994,124.60639059999994,124.60639059999994,124.60639059999994,124.60639059999994,124.60639059999994,124.88986859999977,126.05558699999983,126.0727453999998,126.0727453999998,126.0727453999998,126.0727453999998,126.0727453999998,126.0727453999998,126.0727453999998,126.0727453999998,126.0727453999998,126.0727453999998,126.0727453999998,126.0727453999998,126.0727453999998,127.53704139999991,127.53704139999991,127.53704139999991,127.53704139999991,127.53704139999991,127.53704139999991,127.53704139999991,54,44,60,37,54,60,127.53704139999991,129.38827979999996,,,,,,,,,,,,３０５,f,２０,2023-05-18_11h45.20.979,RL,2022.2.5,60.118300792346325,
57,47,55,55,0,14,14,14,,,,,,,,None,129.38827979999996,129.38827979999996,129.38827979999996,129.38827979999996,129.38827979999996,129.38827979999996,f,0.2264165999999932,129.64026209999975,129.64026209999975,129.64026209999975,129.64026209999975,129.64026209999975,129.64026209999975,129.93829770000002,131.15495469999996,131.1717632,131.1717632,131.1717632,131.1717632,131.1717632,131.1717632,131.1717632,131.1717632,131.1717632,131.1717632,131.1717632,131.1717632,131.1717632,132.6864915000001,132.6864915000001,132.6864915000001,132.6864915000001,132.6864915000001,132.6864915000001,132.6864915000001,55,57,55,47,55,60,132.6864915000001,134.35444310000003,,,,,,,,,,,,３０５,f,２０,2023-05-18_11h45.20.979,RL,2022.2.5,60.118300792346325,
44,53,55,55,0,15,15,15,,,,,,,,None,134.35444310000003,134.35444310000003,134.35444310000003,134.35444310000003,134.35444310000003,134.35444310000003,f,0.2611369999999624,134.64209900000014,134.64209900000014,134.64209900000014,134.64209900000014,134.64209900000014,134.64209900000014,134.92145500000015,135.88777889999983,135.90438240000003,135.90438240000003,135.90438240000003,135.90438240000003,135.90438240000003,135.90438240000003,135.90438240000003,135.90438240000003,135.90438240000003,135.90438240000003,135.90438240000003,135.90438240000003,135.90438240000003,137.1689449999999,137.1689449999999,137.1689449999999,137.1689449999999,137.1689449999999,137.1689449999999,137.1689449999999,55,44,55,53,55,60,137.1689449999999,138.95341610000014,,,,,,,,,,,,３０５,f,２０,2023-05-18_11h45.20.979,RL,2022.2.5,60.118300792346325,
51,43,63,55,0,16,16,16,,,,,,,,None,138.95341610000014,138.95341610000014,138.95341610000014,138.95341610000014,138.95341610000014,138.95341610000014,f,0.22324150000031295,139.20388830000002,139.20388830000002,139.20388830000002,139.20388830000002,139.20388830000002,139.20388830000002,139.50341930000013,140.68673050000007,140.68673050000007,140.68673050000007,140.68673050000007,140.68673050000007,140.68673050000007,140.68673050000007,140.68673050000007,140.68673050000007,140.68673050000007,140.68673050000007,140.68673050000007,140.68673050000007,140.68673050000007,142.16784580000012,142.16784580000012,142.16784580000012,142.16784580000012,142.16784580000012,142.16784580000012,142.16784580000012,63,51,55,43,63,60,142.16784580000012,144.0689567999998,,,,,,,,,,,,３０５,f,２０,2023-05-18_11h45.20.979,RL,2022.2.5,60.118300792346325,
47,33,53,59,0,17,17,17,,,,,,,,None,144.0689567999998,144.0689567999998,144.0689567999998,144.0689567999998,144.0689567999998,144.0689567999998,f,0.2307980000000498,144.31964419999986,144.31964419999986,144.31964419999986,144.31964419999986,144.31964419999986,144.31964419999986,144.61974929999997,145.4691426999998,145.4691426999998,145.4691426999998,145.4691426999998,145.4691426999998,145.4691426999998,145.4691426999998,145.4691426999998,145.4691426999998,145.4691426999998,145.4691426999998,145.4691426999998,145.4691426999998,145.4691426999998,146.61760790000017,146.61760790000017,146.61760790000017,146.61760790000017,146.61760790000017,146.61760790000017,146.61760790000017,53,47,59,33,53,60,146.61760790000017,148.16868220000015,,,,,,,,,,,,３０５,f,２０,2023-05-18_11h45.20.979,RL,2022.2.5,60.118300792346325,
53,42,54,53,0,18,18,18,,,,,,,,None,148.16868220000015,148.16868220000015,148.16868220000015,148.16868220000015,148.16868220000015,148.16868220000015,r,0.26884249999966414,148.47224359999973,148.47224359999973,148.47224359999973,148.47224359999973,148.47224359999973,148.47224359999973,148.75221520000014,149.88546730000007,149.90193689999978,149.90193689999978,149.90193689999978,149.90193689999978,149.90193689999978,149.90193689999978,149.90193689999978,149.90193689999978,149.90193689999978,149.90193689999978,149.90193689999978,149.90193689999978,149.90193689999978,151.33361409999998,151.33361409999998,151.33361409999998,151.33361409999998,151.33361409999998,151.33361409999998,151.33361409999998,54,53,53,42,53,60,151.33361409999998,153.11753950000002,,,,,,,,,,,,３０５,f,２０,2023-05-18_11h45.20.979,RL,2022.2.5,60.118300792346325,
60,43,51,52,0,19,19,19,,,,,,,,None,153.11753950000002,153.11753950000002,153.11753950000002,153.11753950000002,153.11753950000002,153.11753950000002,i,0.5884997999996813,153.7388633999999,153.7388633999999,153.7388633999999,153.7388633999999,153.7388633999999,153.7388633999999,154.01802610000004,155.5338830999999,155.55045100000007,155.55045100000007,155.55045100000007,155.55045100000007,155.55045100000007,155.55045100000007,155.55045100000007,155.55045100000007,155.55045100000007,155.55045100000007,155.55045100000007,155.55045100000007,155.55045100000007,157.36499300000014,157.36499300000014,157.36499300000014,157.36499300000014,157.36499300000014,157.36499300000014,157.36499300000014,51,60,52,43,52,60,157.36499300000014,159.09946050000008,,,,,,,,,,,,３０５,f,２０,2023-05-18_11h45.20.979,RL,2022.2.5,60.118300792346325,
54,43,49,57,0,20,20,20,,,,,,,,None,159.09946050000008,159.09946050000008,159.09946050000008,159.09946050000008,159.09946050000008,159.09946050000008,f,0.2582561999997779,159.3839085999998,159.3839085999998,159.3839085999998,159.3839085999998,159.3839085999998,159.3839085999998,159.66658150000012,160.84987409999985,160.86641090000012,160.86641090000012,160.86641090000012,160.86641090000012,160.86641090000012,160.86641090000012,160.86641090000012,160.86641090000012,160.86641090000012,160.86641090000012,160.86641090000012,160.86641090000012,160.86641090000012,162.3476182999998,162.3476182999998,162.3476182999998,162.3476182999998,162.3476182999998,162.3476182999998,162.3476182999998,49,54,57,43,49,60,162.3476182999998,164.28213789999973,,,,,,,,,,,,３０５,f,２０,2023-05-18_11h45.20.979,RL,2022.2.5,60.118300792346325,
51,41,44,46,0,21,21,21,,,,,,,,None,164.28213789999973,164.28213789999973,164.28213789999973,164.28213789999973,164.28213789999973,164.28213789999973,r,0.21351929999991626,164.51705549999997,164.51705549999997,164.51705549999997,164.51705549999997,164.51705549999997,164.51705549999997,164.79890369999976,166.33219599999984,166.3656114999999,166.3656114999999,166.3656114999999,166.3656114999999,166.3656114999999,166.3656114999999,166.3656114999999,166.3656114999999,166.3656114999999,166.3656114999999,166.3656114999999,166.3656114999999,166.3656114999999,168.19683510000004,168.19683510000004,168.19683510000004,168.19683510000004,168.19683510000004,168.19683510000004,168.19683510000004,44,51,46,41,51,60,168.19683510000004,169.83115420000013,,,,,,,,,,,,３０５,f,２０,2023-05-18_11h45.20.979,RL,2022.2.5,60.118300792346325,
55,40,56,46,0,22,22,22,,,,,,,,None,169.83115420000013,169.83115420000013,169.83115420000013,169.83115420000013,169.83115420000013,169.83115420000013,i,0.34518789999992805,170.19910609999988,170.19910609999988,170.19910609999988,170.19910609999988,170.19910609999988,170.19910609999988,170.49794100000008,172.34764339999992,172.34764339999992,172.34764339999992,172.34764339999992,172.34764339999992,172.34764339999992,172.34764339999992,172.34764339999992,172.34764339999992,172.34764339999992,172.34764339999992,172.34764339999992,172.34764339999992,172.34764339999992,174.4954247999999,174.4954247999999,174.4954247999999,174.4954247999999,174.4954247999999,174.4954247999999,174.4954247999999,56,55,46,40,46,60,174.4954247999999,176.41380260000005,,,,,,,,,,,,３０５,f,２０,2023-05-18_11h45.20.979,RL,2022.2.5,60.118300792346325,
49,49,57,45,0,23,23,23,,,,,,,,None,176.41380260000005,176.41380260000005,176.41380260000005,176.41380260000005,176.41380260000005,176.41380260000005,f,0.34653530000014143,176.7829382,176.7829382,176.7829382,176.7829382,176.7829382,176.7829382,177.08027619999984,177.89650399999982,177.89650399999982,177.89650399999982,177.89650399999982,177.89650399999982,177.89650399999982,177.89650399999982,177.89650399999982,177.89650399999982,177.89650399999982,177.89650399999982,177.89650399999982,177.89650399999982,177.89650399999982,179.01140619999978,179.01140619999978,179.01140619999978,179.01140619999978,179.01140619999978,179.01140619999978,179.01140619999978,57,49,45,49,57,60,179.01140619999978,180.72985590000008,,,,,,,,,,,,３０５,f,２０,2023-05-18_11h45.20.979,RL,2022.2.5,60.118300792346325,
58,43,52,44,0,24,24,24,,,,,,,,None,180.72985590000008,180.72985590000008,180.72985590000008,180.72985590000008,180.72985590000008,180.72985590000008,r,0.651436200000262,181.41307370000004,181.41307370000004,181.41307370000004,181.41307370000004,181.41307370000004,181.41307370000004,181.69645230000015,183.21284479999986,183.22922190000008,183.22922190000008,183.22922190000008,183.22922190000008,183.22922190000008,183.22922190000008,183.22922190000008,183.22922190000008,183.22922190000008,183.22922190000008,183.22922190000008,183.22922190000008,183.22922190000008,185.04452390000006,185.04452390000006,185.04452390000006,185.04452390000006,185.04452390000006,185.04452390000006,185.04452390000006,52,58,44,43,58,60,185.04452390000006,186.57832999999982,,,,,,,,,,,,３０５,f,２０,2023-05-18_11h45.20.979,RL,2022.2.5,60.118300792346325,
52,40,48,54,0,25,25,25,,,,,,,,None,186.57832999999982,186.57832999999982,186.57832999999982,186.57832999999982,186.57832999999982,186.57832999999982,f,0.29432619999988674,186.89626899999985,186.89626899999985,186.89626899999985,186.89626899999985,186.89626899999985,186.89626899999985,187.19520299999976,188.01179249999996,188.01179249999996,188.01179249999996,188.01179249999996,188.01179249999996,188.01179249999996,188.01179249999996,188.01179249999996,188.01179249999996,188.01179249999996,188.01179249999996,188.01179249999996,188.01179249999996,188.01179249999996,189.12660909999977,189.12660909999977,189.12660909999977,189.12660909999977,189.12660909999977,189.12660909999977,189.12660909999977,48,52,54,40,48,60,189.12660909999977,190.89483380000001,,,,,,,,,,,,３０５,f,２０,2023-05-18_11h45.20.979,RL,2022.2.5,60.118300792346325,
47,47,52,48,0,26,26,26,,,,,,,,None,190.89483380000001,190.89483380000001,190.89483380000001,190.89483380000001,190.89483380000001,190.89483380000001,r,0.5968180999998367,191.5114493000001,191.5114493000001,191.5114493000001,191.5114493000001,191.5114493000001,191.5114493000001,191.79453030000013,193.76106919999984,193.77756069999987,193.77756069999987,193.77756069999987,193.77756069999987,193.77756069999987,193.77756069999987,193.77756069999987,193.77756069999987,193.77756069999987,193.77756069999987,193.77756069999987,193.77756069999987,193.77756069999987,196.04185659999985,196.04185659999985,196.04185659999985,196.04185659999985,196.04185659999985,196.04185659999985,196.04185659999985,52,47,48,47,47,60,196.04185659999985,197.79277030000003,,,,,,,,,,,,３０５,f,２０,2023-05-18_11h45.20.979,RL,2022.2.5,60.118300792346325,
53,42,49,51,0,27,27,27,,,,,,,,None,197.79277030000003,197.79277030000003,197.79277030000003,197.79277030000003,197.79277030000003,197.79277030000003,i,0.24321520000012242,198.06176909999976,198.06176909999976,198.06176909999976,198.06176909999976,198.06176909999976,198.06176909999976,198.34337199999982,200.11008649999985,200.12606619999997,200.12606619999997,200.12606619999997,200.12606619999997,200.12606619999997,200.12606619999997,200.12606619999997,200.12606619999997,200.12606619999997,200.12606619999997,200.12606619999997,200.12606619999997,200.12606619999997,202.1744877000001,202.1744877000001,202.1744877000001,202.1744877000001,202.1744877000001,202.1744877000001,202.1744877000001,49,53,51,42,51,60,202.1744877000001,203.9085055999999,,,,,,,,,,,,３０５,f,２０,2023-05-18_11h45.20.979,RL,2022.2.5,60.118300792346325,
47,40,56,48,0,28,28,28,,,,,,,,None,203.9085055999999,203.9085055999999,203.9085055999999,203.9085055999999,203.9085055999999,203.9085055999999,j,0.32323790000009467,204.26142249999975,204.26142249999975,204.26142249999975,204.26142249999975,204.26142249999975,204.26142249999975,204.55910349999976,205.4920972,205.5085881,205.5085881,205.5085881,205.5085881,205.5085881,205.5085881,205.5085881,205.5085881,205.5085881,205.5085881,205.5085881,205.5085881,205.5085881,206.74023839999973,206.74023839999973,206.74023839999973,206.74023839999973,206.74023839999973,206.74023839999973,206.74023839999973,56,47,48,40,40,60,206.74023839999973,208.25779199999988,,,,,,,,,,,,３０５,f,２０,2023-05-18_11h45.20.979,RL,2022.2.5,60.118300792346325,
46,41,59,53,0,29,29,29,,,,,,,,None,208.25779199999988,208.25779199999988,208.25779199999988,208.25779199999988,208.25779199999988,208.25779199999988,f,0.5152631000000838,208.79342880000013,208.79342880000013,208.79342880000013,208.79342880000013,208.79342880000013,208.79342880000013,209.07515319999993,210.9414867999999,210.95756389999997,210.95756389999997,210.95756389999997,210.95756389999997,210.95756389999997,210.95756389999997,210.95756389999997,210.95756389999997,210.95756389999997,210.95756389999997,210.95756389999997,210.95756389999997,210.95756389999997,213.1220757000001,213.1220757000001,213.1220757000001,213.1220757000001,213.1220757000001,213.1220757000001,213.1220757000001,59,46,53,41,59,60,213.1220757000001,214.80682739999975,,,,,,,,,,,,３０５,f,２０,2023-05-18_11h45.20.979,RL,2022.2.5,60.118300792346325,
54,44,56,45,0,30,30,30,,,,,,,,None,214.80682739999975,214.80682739999975,214.80682739999975,214.80682739999975,214.80682739999975,214.80682739999975,r,0.2843233000003238,215.13301009999986,215.13301009999986,215.13301009999986,215.13301009999986,215.13301009999986,215.13301009999986,215.4072424000001,217.40713079999978,217.4401416999999,217.4401416999999,217.4401416999999,217.4401416999999,217.4401416999999,217.4401416999999,217.4401416999999,217.4401416999999,217.4401416999999,217.4401416999999,217.4401416999999,217.4401416999999,217.4401416999999,219.73807249999982,219.73807249999982,219.73807249999982,219.73807249999982,219.73807249999982,219.73807249999982,219.73807249999982,56,54,45,44,54,60,219.73807249999982,221.65579660000003,,,,,,,,,,,,３０５,f,２０,2023-05-18_11h45.20.979,RL,2022.2.5,60.118300792346325,
51,42,55,44,0,31,31,31,,,,,,,,None,221.65579660000003,221.65579660000003,221.65579660000003,221.65579660000003,221.65579660000003,221.65579660000003,f,0.2536261000000195,221.94058489999998,221.94058489999998,221.94058489999998,221.94058489999998,221.94058489999998,221.94058489999998,222.2391263999998,223.22232799999983,223.22232799999983,223.22232799999983,223.22232799999983,223.22232799999983,223.22232799999983,223.22232799999983,223.22232799999983,223.22232799999983,223.22232799999983,223.22232799999983,223.22232799999983,223.22232799999983,223.22232799999983,224.50405390000014,224.50405390000014,224.50405390000014,224.50405390000014,224.50405390000014,224.50405390000014,224.50405390000014,55,51,44,42,55,60,224.50405390000014,226.4215180000001,,,,,,,,,,,,３０５,f,２０,2023-05-18_11h45.20.979,RL,2022.2.5,60.118300792346325,
51,43,62,44,0,32,32,32,,,,,,,,None,226.4215180000001,226.4215180000001,226.4215180000001,226.4215180000001,226.4215180000001,226.4215180000001,i,0.23821730000008756,226.68889579999995,226.68889579999995,226.68889579999995,226.68889579999995,226.68889579999995,226.68889579999995,226.97188989999995,228.10497669999995,228.12139260000004,228.12139260000004,228.12139260000004,228.12139260000004,228.12139260000004,228.12139260000004,228.12139260000004,228.12139260000004,228.12139260000004,228.12139260000004,228.12139260000004,228.12139260000004,228.12139260000004,229.55314689999977,229.55314689999977,229.55314689999977,229.55314689999977,229.55314689999977,229.55314689999977,229.55314689999977,62,51,44,43,44,60,229.55314689999977,231.4036412999999,,,,,,,,,,,,３０５,f,２０,2023-05-18_11h45.20.979,RL,2022.2.5,60.118300792346325,
61,38,40,44,0,33,33,33,,,,,,,,None,231.4036412999999,231.4036412999999,231.4036412999999,231.4036412999999,231.4036412999999,231.4036412999999,r,0.4607915999999932,231.88992319999988,231.88992319999988,231.88992319999988,231.88992319999988,231.88992319999988,231.88992319999988,232.17091389999996,233.25382979999995,233.27095969999982,233.27095969999982,233.27095969999982,233.27095969999982,233.27095969999982,233.27095969999982,233.27095969999982,233.27095969999982,233.27095969999982,233.27095969999982,233.27095969999982,233.27095969999982,233.27095969999982,234.65169830000013,234.65169830000013,234.65169830000013,234.65169830000013,234.65169830000013,234.65169830000013,234.65169830000013,40,61,44,38,61,60,234.65169830000013,236.21997759999977,,,,,,,,,,,,３０５,f,２０,2023-05-18_11h45.20.979,RL,2022.2.5,60.118300792346325,
46,33,46,55,0,34,34,34,,,,,,,,None,236.21997759999977,236.21997759999977,236.21997759999977,236.21997759999977,236.21997759999977,236.21997759999977,f,0.4180917999997291,236.67387980000012,236.67387980000012,236.67387980000012,236.67387980000012,236.67387980000012,236.67387980000012,236.9530918999999,238.90304890000016,238.91943979999996,238.91943979999996,238.91943979999996,238.91943979999996,238.91943979999996,238.91943979999996,238.91943979999996,238.91943979999996,238.91943979999996,238.91943979999996,238.91943979999996,238.91943979999996,238.91943979999996,241.1675126,241.1675126,241.1675126,241.1675126,241.1675126,241.1675126,241.1675126,46,46,55,33,46,60,241.1675126,242.71862229999988,,,,,,,,,,,,３０５,f,２０,2023-05-18_11h45.20.979,RL,2022.2.5,60.118300792346325,
66,30,46,61,0,35,35,35,,,,,,,,None,242.71862229999988,242.71862229999988,242.71862229999988,242.71862229999988,242.71862229999988,242.71862229999988,j,0.2759049999999661,243.01964229999976,243.01964229999976,243.01964229999976,243.01964229999976,243.01964229999976,243.01964229999976,243.30272950000017,244.7018637000001,244.7184499,244.7184499,244.7184499,244.7184499,244.7184499,244.7184499,244.7184499,244.7184499,244.7184499,244.7184499,244.7184499,244.7184499,244.7184499,246.41659179999988,246.41659179999988,246.41659179999988,246.41659179999988,246.41659179999988,246.41659179999988,246.41659179999988,46,66,61,30,30,60,246.41659179999988,248.3345046999998,,,,,,,,,,,,３０５,f,２０,2023-05-18_11h45.20.979,RL,2022.2.5,60.118300792346325,
58,36,37,56,0,36,36,36,,,,,,,,None,248.3345046999998,248.3345046999998,248.3345046999998,248.3345046999998,248.3345046999998,248.3345046999998,r,0.4260896999999204,248.78724969999985,248.78724969999985,248.78724969999985,248.78724969999985,248.78724969999985,248.78724969999985,249.0846532999999,250.93392489999997,250.93392489999997,250.93392489999997,250.93392489999997,250.93392489999997,250.93392489999997,250.93392489999997,250.93392489999997,250.93392489999997,250.93392489999997,250.93392489999997,250.93392489999997,250.93392489999997,250.93392489999997,253.08234760000005,253.08234760000005,253.08234760000005,253.08234760000005,253.08234760000005,253.08234760000005,253.08234760000005,37,58,56,36,58,60,253.08234760000005,254.8830042999998,,,,,,,,,,,,３０５,f,２０,2023-05-18_11h45.20.979,RL,2022.2.5,60.118300792346325,
59,31,58,59,0,37,37,37,,,,,,,,None,254.8830042999998,254.8830042999998,254.8830042999998,254.8830042999998,254.8830042999998,254.8830042999998,r,0.2534744999998111,255.17110289999982,255.17110289999982,255.17110289999982,255.17110289999982,255.17110289999982,255.17110289999982,255.46710970000004,256.5667625000001,256.5834504999998,256.5834504999998,256.5834504999998,256.5834504999998,256.5834504999998,256.5834504999998,256.5834504999998,256.5834504999998,256.5834504999998,256.5834504999998,256.5834504999998,256.5834504999998,256.5834504999998,257.98137020000013,257.98137020000013,257.98137020000013,257.98137020000013,257.98137020000013,257.98137020000013,257.98137020000013,58,59,59,31,59,60,257.98137020000013,259.79932210000015,,,,,,,,,,,,３０５,f,２０,2023-05-18_11h45.20.979,RL,2022.2.5,60.118300792346325,
56,33,45,63,0,38,38,38,,,,,,,,None,259.79932210000015,259.79932210000015,259.79932210000015,259.79932210000015,259.79932210000015,259.79932210000015,r,0.24368969999977708,260.0663476999998,260.0663476999998,260.0663476999998,260.0663476999998,260.0663476999998,260.0663476999998,260.34914560000016,262.04915040000014,262.0657891999999,262.0657891999999,262.0657891999999,262.0657891999999,262.0657891999999,262.0657891999999,262.0657891999999,262.0657891999999,262.0657891999999,262.0657891999999,262.0657891999999,262.0657891999999,262.0657891999999,264.0640078000001,264.0640078000001,264.0640078000001,264.0640078000001,264.0640078000001,264.0640078000001,264.0640078000001,45,56,63,33,56,60,264.0640078000001,265.6813280000001,,,,,,,,,,,,３０５,f,２０,2023-05-18_11h45.20.979,RL,2022.2.5,60.118300792346325,
56,29,47,70,0,39,39,39,,,,,,,,None,265.6813280000001,265.6813280000001,265.6813280000001,265.6813280000001,265.6813280000001,265.6813280000001,r,0.255011100000047,265.96521970000003,265.96521970000003,265.96521970000003,265.96521970000003,265.96521970000003,265.96521970000003,266.26524770000015,267.9977497,267.9977497,267.9977497,267.9977497,267.9977497,267.9977497,267.9977497,267.9977497,267.9977497,267.9977497,267.9977497,267.9977497,267.9977497,267.9977497,270.0292768999998,270.0292768999998,270.0292768999998,270.0292768999998,270.0292768999998,270.0292768999998,270.0292768999998,47,56,70,29,56,60,270.0292768999998,271.94701840000016,,,,,,,,,,,,３０５,f,２０,2023-05-18_11h45.20.979,RL,2022.2.5,60.118300792346325,
57,37,55,62,0,40,40,40,,,,,,,,None,271.94701840000016,271.94701840000016,271.94701840000016,271.94701840000016,271.94701840000016,271.94701840000016,r,0.23575949999985824,272.21855270000015,272.21855270000015,272.21855270000015,272.21855270000015,272.21855270000015,272.21855270000015,272.49745759999996,274.26377479999974,274.2800994999998,274.2800994999998,274.2800994999998,274.2800994999998,274.2800994999998,274.2800994999998,274.2800994999998,274.2800994999998,274.2800994999998,274.2800994999998,274.2800994999998,274.2800994999998,274.2800994999998,276.3451076000001,276.3451076000001,276.3451076000001,276.3451076000001,276.3451076000001,276.3451076000001,276.3451076000001,55,57,62,37,57,60,276.3451076000001,278.3126293999999,,,,,,,,,,,,３０５,f,２０,2023-05-18_11h45.20.979,RL,2022.2.5,60.118300792346325,
48,48,55,80,0,41,41,41,,,,,,,,None,278.3126293999999,278.3126293999999,278.3126293999999,278.3126293999999,278.3126293999999,278.3126293999999,r,0.24530179999965185,278.5829318000001,278.5829318000001,278.5829318000001,278.5829318000001,278.5829318000001,278.5829318000001,278.86262869999973,280.24616530000003,280.2627785999998,280.2627785999998,280.2627785999998,280.2627785999998,280.2627785999998,280.2627785999998,280.2627785999998,280.2627785999998,280.2627785999998,280.2627785999998,280.2627785999998,280.2627785999998,280.2627785999998,281.9441060999998,281.9441060999998,281.9441060999998,281.9441060999998,281.9441060999998,281.9441060999998,281.9441060999998,55,48,80,48,48,60,281.9441060999998,283.91139369999973,,,,,,,,,,,,３０５,f,２０,2023-05-18_11h45.20.979,RL,2022.2.5,60.118300792346325,
44,37,59,66,0,42,42,42,,,,,,,,None,283.91139369999973,283.91139369999973,283.91139369999973,283.91139369999973,283.91139369999973,283.91139369999973,f,0.35717750000003434,284.29801339999995,284.29801339999995,284.29801339999995,284.29801339999995,284.29801339999995,284.29801339999995,284.57824709999977,285.84461729999975,285.8618495999999,285.8618495999999,285.8618495999999,285.8618495999999,285.8618495999999,285.8618495999999,285.8618495999999,285.8618495999999,285.8618495999999,285.8618495999999,285.8618495999999,285.8618495999999,285.8618495999999,287.4266668,287.4266668,287.4266668,287.4266668,287.4266668,287.4266668,287.4266668,59,44,66,37,59,60,287.4266668,289.3106809000001,,,,,,,,,,,,３０５,f,２０,2023-05-18_11h45.20.979,RL,2022.2.5,60.118300792346325,
47,44,45,70,0,43,43,43,,,,,,,,None,289.3106809000001,289.3106809000001,289.3106809000001,289.3106809000001,289.3106809000001,289.3106809000001,f,0.2796988000000056,289.61512649999986,289.61512649999986,289.61512649999986,289.61512649999986,289.61512649999986,289.61512649999986,289.8945727,290.7607916000002,290.77711050000016,290.77711050000016,290.77711050000016,290.77711050000016,290.77711050000016,290.77711050000016,290.77711050000016,290.77711050000016,290.77711050000016,290.77711050000016,290.77711050000016,290.77711050000016,290.77711050000016,291.9415776999999,291.9415776999999,291.9415776999999,291.9415776999999,291.9415776999999,291.9415776999999,291.9415776999999,45,47,70,44,45,60,291.9415776999999,293.72680059999993,,,,,,,,,,,,３０５,f,２０,2023-05-18_11h45.20.979,RL,2022.2.5,60.118300792346325,
55,36,49,69,0,44,44,44,,,,,,,,None,293.72680059999993,293.72680059999993,293.72680059999993,293.72680059999993,293.72680059999993,293.72680059999993,r,0.25306529999988925,294.0103005000001,294.0103005000001,294.0103005000001,294.0103005000001,294.0103005000001,294.0103005000001,294.2932608000001,295.7936801000001,295.81000689999973,295.81000689999973,295.81000689999973,295.81000689999973,295.81000689999973,295.81000689999973,295.81000689999973,295.81000689999973,295.81000689999973,295.81000689999973,295.81000689999973,295.81000689999973,295.81000689999973,297.60764960000006,297.60764960000006,297.60764960000006,297.60764960000006,297.60764960000006,297.60764960000006,297.60764960000006,49,55,69,36,55,60,297.60764960000006,299.4089822000001,,,,,,,,,,,,３０５,f,２０,2023-05-18_11h45.20.979,RL,2022.2.5,60.118300792346325,
53,43,45,65,0,45,45,45,,,,,,,,None,299.4089822000001,299.4089822000001,299.4089822000001,299.4089822000001,299.4089822000001,299.4089822000001,r,0.2912443999998686,299.72818099999995,299.72818099999995,299.72818099999995,299.72818099999995,299.72818099999995,299.72818099999995,300.00975019999987,301.97529729999997,301.99188649999996,301.99188649999996,301.99188649999996,301.99188649999996,301.99188649999996,301.99188649999996,301.99188649999996,301.99188649999996,301.99188649999996,301.99188649999996,301.99188649999996,301.99188649999996,301.99188649999996,304.25681669999994,304.25681669999994,304.25681669999994,304.25681669999994,304.25681669999994,304.25681669999994,304.25681669999994,45,53,65,43,53,60,304.25681669999994,305.85812179999994,,,,,,,,,,,,３０５,f,２０,2023-05-18_11h45.20.979,RL,2022.2.5,60.118300792346325,
40,47,44,79,0,46,46,46,,,,,,,,None,305.85812179999994,305.85812179999994,305.85812179999994,305.85812179999994,305.85812179999994,305.85812179999994,r,0.26603350000004866,306.1415670000001,306.1415670000001,306.1415670000001,306.1415670000001,306.1415670000001,306.1415670000001,306.4245012000001,307.30773969999973,307.32431339999994,307.32431339999994,307.32431339999994,307.32431339999994,307.32431339999994,307.32431339999994,307.32431339999994,307.32431339999994,307.32431339999994,307.32431339999994,307.32431339999994,307.32431339999994,307.32431339999994,308.50610689999985,308.50610689999985,308.50610689999985,308.50610689999985,308.50610689999985,308.50610689999985,308.50610689999985,44,40,79,47,40,60,308.50610689999985,310.4402356999999,,,,,,,,,,,,３０５,f,２０,2023-05-18_11h45.20.979,RL,2022.2.5,60.118300792346325,
49,44,47,68,0,47,47,47,,,,,,,,None,310.4402356999999,310.4402356999999,310.4402356999999,310.4402356999999,310.4402356999999,310.4402356999999,i,0.4096679999997832,310.8739264000001,310.8739264000001,310.8739264000001,310.8739264000001,310.8739264000001,310.8739264000001,311.15725870000006,313.0734914999998,313.0901742000001,313.0901742000001,313.0901742000001,313.0901742000001,313.0901742000001,313.0901742000001,313.0901742000001,313.0901742000001,313.0901742000001,313.0901742000001,313.0901742000001,313.0901742000001,313.0901742000001,315.30489469999975,315.30489469999975,315.30489469999975,315.30489469999975,315.30489469999975,315.30489469999975,315.30489469999975,47,49,68,44,68,60,315.30489469999975,316.9389391999998,,,,,,,,,,,,３０５,f,２０,2023-05-18_11h45.20.979,RL,2022.2.5,60.118300792346325,
48,48,50,80,0,48,48,48,,,,,,,,None,316.9389391999998,316.9389391999998,316.9389391999998,316.9389391999998,316.9389391999998,316.9389391999998,i,0.3197016999997686,317.29722360000005,317.29722360000005,317.29722360000005,317.29722360000005,317.29722360000005,317.29722360000005,317.5728484000001,318.6889793999999,318.7056781000001,318.7056781000001,318.7056781000001,318.7056781000001,318.7056781000001,318.7056781000001,318.7056781000001,318.7056781000001,318.7056781000001,318.7056781000001,318.7056781000001,318.7056781000001,318.7056781000001,320.1200236999998,320.1200236999998,320.1200236999998,320.1200236999998,320.1200236999998,320.1200236999998,320.1200236999998,50,48,80,48,80,60,320.1200236999998,322.10476389999985,,,,,,,,,,,,３０５,f,２０,2023-05-18_11h45.20.979,RL,2022.2.5,60.118300792346325,
41,42,52,85,0,49,49,49,,,,,,,,None,322.10476389999985,322.10476389999985,322.10476389999985,322.10476389999985,322.10476389999985,322.10476389999985,i,0.23400309999988167,322.37477439999975,322.37477439999975,322.37477439999975,322.37477439999975,322.37477439999975,322.37477439999975,322.65502289999995,323.85481470000013,323.87162499999977,323.87162499999977,323.87162499999977,323.87162499999977,323.87162499999977,323.87162499999977,323.87162499999977,323.87162499999977,323.87162499999977,323.87162499999977,323.87162499999977,323.87162499999977,323.87162499999977,325.3693263,325.3693263,325.3693263,325.3693263,325.3693263,325.3693263,325.3693263,52,41,85,42,85,60,325.3693263,327.1371072000002,,,,,,,,,,,,３０５,f,２０,2023-05-18_11h45.20.979,RL,2022.2.5,60.118300792346325,
50,38,53,78,0,50,50,50,,,,,,,,None,327.1371072000002,327.1371072000002,327.1371072000002,327.1371072000002,327.1371072000002,327.1371072000002,i,0.33615740000004735,327.5043076000002,327.5043076000002,327.5043076000002,327.5043076000002,327.5043076000002,327.5043076000002,327.78736059999983,329.25387139999975,329.27040279999983,329.27040279999983,329.27040279999983,329.27040279999983,329.27040279999983,329.27040279999983,329.27040279999983,329.27040279999983,329.27040279999983,329.27040279999983,329.27040279999983,329.27040279999983,329.27040279999983,331.03504840000005,331.03504840000005,331.03504840000005,331.03504840000005,331.03504840000005,331.03504840000005,331.03504840000005,53,50,78,38,78,60,331.03504840000005,332.9030278,,,,,,,,,,,,３０５,f,２０,2023-05-18_11h45.20.979,RL,2022.2.5,60.118300792346325,
57,53,48,76,0,51,51,51,,,,,,,,None,332.9030278,332.9030278,332.9030278,332.9030278,332.9030278,332.9030278,i,0.2539000000001579,333.18660339999997,333.18660339999997,333.18660339999997,333.18660339999997,333.18660339999997,333.18660339999997,333.4697538999999,334.28654289999986,334.30302410000013,334.30302410000013,334.30302410000013,334.30302410000013,334.30302410000013,334.30302410000013,334.30302410000013,334.30302410000013,334.30302410000013,334.30302410000013,334.30302410000013,334.30302410000013,334.30302410000013,335.41779719999977,335.41779719999977,335.41779719999977,335.41779719999977,335.41779719999977,335.41779719999977,335.41779719999977,48,57,76,53,76,60,335.41779719999977,337.3853134000001,,,,,,,,,,,,３０５,f,２０,2023-05-18_11h45.20.979,RL,2022.2.5,60.118300792346325,
41,54,67,64,0,52,52,52,,,,,,,,None,337.3853134000001,337.3853134000001,337.3853134000001,337.3853134000001,337.3853134000001,337.3853134000001,i,0.23554090000016004,337.6558037,337.6558037,337.6558037,337.6558037,337.6558037,337.6558037,337.9358367,339.5686649999998,339.6019523,339.6019523,339.6019523,339.6019523,339.6019523,339.6019523,339.6019523,339.6019523,339.6019523,339.6019523,339.6019523,339.6019523,339.6019523,341.53333810000004,341.53333810000004,341.53333810000004,341.53333810000004,341.53333810000004,341.53333810000004,341.53333810000004,67,41,64,54,64,60,341.53333810000004,343.0844185000001,,,,,,,,,,,,３０５,f,２０,2023-05-18_11h45.20.979,RL,2022.2.5,60.118300792346325,
45,53,63,65,0,53,53,53,,,,,,,,None,343.0844185000001,343.0844185000001,343.0844185000001,343.0844185000001,343.0844185000001,343.0844185000001,i,0.384385199999997,343.5085469999999,343.5085469999999,343.5085469999999,343.5085469999999,343.5085469999999,343.5085469999999,343.80150189999995,344.78509299999996,344.8011551999998,344.8011551999998,344.8011551999998,344.8011551999998,344.8011551999998,344.8011551999998,344.8011551999998,344.8011551999998,344.8011551999998,344.8011551999998,344.8011551999998,344.8011551999998,344.8011551999998,346.08286640000006,346.08286640000006,346.08286640000006,346.08286640000006,346.08286640000006,346.08286640000006,346.08286640000006,63,45,65,53,65,60,346.08286640000006,348.05016350000005,,,,,,,,,,,,３０５,f,２０,2023-05-18_11h45.20.979,RL,2022.2.5,60.118300792346325,
49,49,63,57,0,54,54,54,,,,,,,,None,348.05016350000005,348.05016350000005,348.05016350000005,348.05016350000005,348.05016350000005,348.05016350000005,i,0.31795130000000427,348.403198,348.403198,348.403198,348.403198,348.403198,348.403198,348.6838981000001,350.51689899999974,350.5336149,350.5336149,350.5336149,350.5336149,350.5336149,350.5336149,350.5336149,350.5336149,350.5336149,350.5336149,350.5336149,350.5336149,350.5336149,352.6646866000001,352.6646866000001,352.6646866000001,352.6646866000001,352.6646866000001,352.6646866000001,352.6646866000001,63,49,57,49,57,60,352.6646866000001,354.2992098999998,,,,,,,,,,,,３０５,f,２０,2023-05-18_11h45.20.979,RL,2022.2.5,60.118300792346325,
59,45,52,74,0,55,55,55,,,,,,,,None,354.2992098999998,354.2992098999998,354.2992098999998,354.2992098999998,354.2992098999998,354.2992098999998,f,0.39665229999991425,354.71630479999976,354.71630479999976,354.71630479999976,354.71630479999976,354.71630479999976,354.71630479999976,354.9995389999999,356.13242630000013,356.1491753,356.1491753,356.1491753,356.1491753,356.1491753,356.1491753,356.1491753,356.1491753,356.1491753,356.1491753,356.1491753,356.1491753,356.1491753,357.58041349999985,357.58041349999985,357.58041349999985,357.58041349999985,357.58041349999985,357.58041349999985,357.58041349999985,52,59,74,45,52,60,357.58041349999985,359.1982886999999,,,,,,,,,,,,３０５,f,２０,2023-05-18_11h45.20.979,RL,2022.2.5,60.118300792346325,
48,38,49,66,0,56,56,56,,,,,,,,None,359.1982886999999,359.1982886999999,359.1982886999999,359.1982886999999,359.1982886999999,359.1982886999999,r,0.5623458999998547,359.78393989999995,359.78393989999995,359.78393989999995,359.78393989999995,359.78393989999995,359.78393989999995,360.0821995000001,361.1984779999998,361.1984779999998,361.1984779999998,361.1984779999998,361.1984779999998,361.1984779999998,361.1984779999998,361.1984779999998,361.1984779999998,361.1984779999998,361.1984779999998,361.1984779999998,361.1984779999998,361.1984779999998,362.6130847999998,362.6130847999998,362.6130847999998,362.6130847999998,362.6130847999998,362.6130847999998,362.6130847999998,49,48,66,38,48,60,362.6130847999998,364.53056689999994,,,,,,,,,,,,３０５,f,２０,2023-05-18_11h45.20.979,RL,2022.2.5,60.118300792346325,
58,44,40,70,0,57,57,57,,,,,,,,None,364.53056689999994,364.53056689999994,364.53056689999994,364.53056689999994,364.53056689999994,364.53056689999994,i,0.22525769999992917,364.7812804,364.7812804,364.7812804,364.7812804,364.7812804,364.7812804,365.08104779999985,366.92164120000007,366.92164120000007,366.92164120000007,366.92164120000007,366.92164120000007,366.92164120000007,366.92164120000007,366.92164120000007,366.92164120000007,366.92164120000007,366.92164120000007,366.92164120000007,366.92164120000007,366.92164120000007,369.01193939999985,369.01193939999985,369.01193939999985,369.01193939999985,369.01193939999985,369.01193939999985,369.01193939999985,40,58,70,44,70,60,369.01193939999985,370.5965106999997,,,,,,,,,,,,３０５,f,２０,2023-05-18_11h45.20.979,RL,2022.2.5,60.118300792346325,
46,43,32,80,0,58,58,58,,,,,,,,None,370.5965106999997,370.5965106999997,370.5965106999997,370.5965106999997,370.5965106999997,370.5965106999997,i,0.22616040000002613,370.8487147000001,370.8487147000001,370.8487147000001,370.8487147000001,370.8487147000001,370.8487147000001,371.1304199000001,372.2300901999997,372.24659629999996,372.24659629999996,372.24659629999996,372.24659629999996,372.24659629999996,372.24659629999996,372.24659629999996,372.24659629999996,372.24659629999996,372.24659629999996,372.24659629999996,372.24659629999996,372.24659629999996,373.64462449999974,373.64462449999974,373.64462449999974,373.64462449999974,373.64462449999974,373.64462449999974,373.64462449999974,32,46,80,43,80,60,373.64462449999974,375.5459044999998,,,,,,,,,,,,３０５,f,２０,2023-05-18_11h45.20.979,RL,2022.2.5,60.118300792346325,
50,53,49,78,0,59,59,59,,,,,,,,None,375.5459044999998,375.5459044999998,375.5459044999998,375.5459044999998,375.5459044999998,375.5459044999998,i,0.4447219000003315,376.0126153000001,376.0126153000001,376.0126153000001,376.0126153000001,376.0126153000001,376.0126153000001,376.29657129999987,377.6123926999999,377.62926530000004,377.62926530000004,377.62926530000004,377.62926530000004,377.62926530000004,377.62926530000004,377.62926530000004,377.62926530000004,377.62926530000004,377.62926530000004,377.62926530000004,377.62926530000004,377.62926530000004,379.24366759999975,379.24366759999975,379.24366759999975,379.24366759999975,379.24366759999975,379.24366759999975,379.24366759999975,49,50,78,53,78,60,379.24366759999975,381.0781925000001,,,,,,,,,,,,３０５,f,２０,2023-05-18_11h45.20.979,RL,2022.2.5,60.118300792346325,
61,50,42,81,0,60,60,60,,,,,,,,None,381.0781925000001,381.0781925000001,381.0781925000001,381.0781925000001,381.0781925000001,381.0781925000001,i,0.452112599999964,381.5674439999998,381.5674439999998,381.5674439999998,381.5674439999998,381.5674439999998,381.5674439999998,381.86161489999995,382.79484479999974,382.8114768999999,382.8114768999999,382.8114768999999,382.8114768999999,382.8114768999999,382.8114768999999,382.8114768999999,382.8114768999999,382.8114768999999,382.8114768999999,382.8114768999999,382.8114768999999,382.8114768999999,384.0431801999998,384.0431801999998,384.0431801999998,384.0431801999998,384.0431801999998,384.0431801999998,384.0431801999998,42,61,81,50,81,60,384.0431801999998,385.96034899999995,,,,,,,,,,,,３０５,f,２０,2023-05-18_11h45.20.979,RL,2022.2.5,60.118300792346325,
66,53,47,74,0,61,61,61,,,,,,,,None,385.96034899999995,385.96034899999995,385.96034899999995,385.96034899999995,385.96034899999995,385.96034899999995,i,0.29455430000007254,386.28101890000016,386.28101890000016,386.28101890000016,386.28101890000016,386.28101890000016,386.28101890000016,386.5775773999999,388.34406809999973,388.3603057,388.3603057,388.3603057,388.3603057,388.3603057,388.3603057,388.3603057,388.3603057,388.3603057,388.3603057,388.3603057,388.3603057,388.3603057,390.42532679999977,390.42532679999977,390.42532679999977,390.42532679999977,390.42532679999977,390.42532679999977,390.42532679999977,47,66,74,53,74,60,390.42532679999977,392.30969849999974,,,,,,,,,,,,３０５,f,２０,2023-05-18_11h45.20.979,RL,2022.2.5,60.118300792346325,
55,44,45,73,0,62,62,62,,,,,,,,None,392.30969849999974,392.30969849999974,392.30969849999974,392.30969849999974,392.30969849999974,392.30969849999974,i,0.4318425000001298,392.7644789000001,392.7644789000001,392.7644789000001,392.7644789000001,392.7644789000001,392.7644789000001,393.04296799999975,394.89287000000013,394.90956959999994,394.90956959999994,394.90956959999994,394.90956959999994,394.90956959999994,394.90956959999994,394.90956959999994,394.90956959999994,394.90956959999994,394.90956959999994,394.90956959999994,394.90956959999994,394.90956959999994,397.0575097000001,397.0575097000001,397.0575097000001,397.0575097000001,397.0575097000001,397.0575097000001,397.0575097000001,45,55,73,44,73,60,397.0575097000001,398.725097,,,,,,,,,,,,３０５,f,２０,2023-05-18_11h45.20.979,RL,2022.2.5,60.118300792346325,
69,53,53,68,0,63,63,63,,,,,,,,None,398.725097,398.725097,398.725097,398.725097,398.725097,398.725097,i,0.45619780000015453,399.20895100000007,399.20895100000007,399.20895100000007,399.20895100000007,399.20895100000007,399.20895100000007,399.4922821,401.25815869999997,401.2747844999999,401.2747844999999,401.2747844999999,401.2747844999999,401.2747844999999,401.2747844999999,401.2747844999999,401.2747844999999,401.2747844999999,401.2747844999999,401.2747844999999,401.2747844999999,401.2747844999999,403.3391888000001,403.3391888000001,403.3391888000001,403.3391888000001,403.3391888000001,403.3391888000001,403.3391888000001,53,69,68,53,68,60,403.3391888000001,405.22379279999996,,,,,,,,,,,,３０５,f,２０,2023-05-18_11h45.20.979,RL,2022.2.5,60.118300792346325,
70,50,45,67,0,64,64,64,,,,,,,,None,405.22379279999996,405.22379279999996,405.22379279999996,405.22379279999996,405.22379279999996,405.22379279999996,i,0.43699500000002445,405.69172279999975,405.69172279999975,405.69172279999975,405.69172279999975,405.69172279999975,405.69172279999975,405.9741678999999,407.15731099999994,407.1737296000001,407.1737296000001,407.1737296000001,407.1737296000001,407.1737296000001,407.1737296000001,407.1737296000001,407.1737296000001,407.1737296000001,407.1737296000001,407.1737296000001,407.1737296000001,407.1737296000001,408.6554182,408.6554182,408.6554182,408.6554182,408.6554182,408.6554182,408.6554182,45,70,67,50,67,60,408.6554182,410.60618639999984,,,,,,,,,,,,３０５,f,２０,2023-05-18_11h45.20.979,RL,2022.2.5,60.118300792346325,
63,45,50,59,0,65,65,65,,,,,,,,None,410.60618639999984,410.60618639999984,410.60618639999984,410.60618639999984,410.60618639999984,410.60618639999984,i,0.26495100000011007,410.89042949999975,410.89042949999975,410.89042949999975,410.89042949999975,410.89042949999975,410.89042949999975,411.1732447999998,412.8397550999998,412.8731327999999,412.8731327999999,412.8731327999999,412.8731327999999,412.8731327999999,412.8731327999999,412.8731327999999,412.8731327999999,412.8731327999999,412.8731327999999,412.8731327999999,412.8731327999999,412.8731327999999,414.8541771,414.8541771,414.8541771,414.8541771,414.8541771,414.8541771,414.8541771,50,63,59,45,59,60,414.8541771,416.4891035999999,,,,,,,,,,,,３０５,f,２０,2023-05-18_11h45.20.979,RL,2022.2.5,60.118300792346325,
63,50,51,53,0,66,66,66,,,,,,,,None,416.4891035999999,416.4891035999999,416.4891035999999,416.4891035999999,416.4891035999999,416.4891035999999,j,0.9119984999997541,417.4223327999998,417.4223327999998,417.4223327999998,417.4223327999998,417.4223327999998,417.4223327999998,417.7222775,419.3719566999998,419.3719566999998,419.3719566999998,419.3719566999998,419.3719566999998,419.3719566999998,419.3719566999998,419.3719566999998,419.3719566999998,419.3719566999998,419.3719566999998,419.3719566999998,419.3719566999998,419.3719566999998,421.31984909999983,421.31984909999983,421.31984909999983,421.31984909999983,421.31984909999983,421.31984909999983,421.31984909999983,51,63,53,50,50,60,421.31984909999983,423.0374234000001,,,,,,,,,,,,３０５,f,２０,2023-05-18_11h45.20.979,RL,2022.2.5,60.118300792346325,
61,41,45,52,0,67,67,67,,,,,,,,None,423.0374234000001,423.0374234000001,423.0374234000001,423.0374234000001,423.0374234000001,423.0374234000001,r,0.5600142999996933,423.62138000000004,423.62138000000004,423.62138000000004,423.62138000000004,423.62138000000004,423.62138000000004,423.90401359999987,425.32046260000016,425.3372239,425.3372239,425.3372239,425.3372239,425.3372239,425.3372239,425.3372239,425.3372239,425.3372239,425.3372239,425.3372239,425.3372239,425.3372239,427.0523100999999,427.0523100999999,427.0523100999999,427.0523100999999,427.0523100999999,427.0523100999999,427.0523100999999,45,61,52,41,61,60,427.0523100999999,428.60328990000016,,,,,,,,,,,,３０５,f,２０,2023-05-18_11h45.20.979,RL,2022.2.5,60.118300792346325,
56,37,45,52,0,68,68,68,,,,,,,,None,428.60328990000016,428.60328990000016,428.60328990000016,428.60328990000016,428.60328990000016,428.60328990000016,f,0.41929309999977704,429.0539826999998,429.0539826999998,429.0539826999998,429.0539826999998,429.0539826999998,429.0539826999998,429.33642869999994,431.003162,431.02007079999976,431.02007079999976,431.02007079999976,431.02007079999976,431.02007079999976,431.02007079999976,431.02007079999976,431.02007079999976,431.02007079999976,431.02007079999976,431.02007079999976,431.02007079999976,431.02007079999976,432.98434769999994,432.98434769999994,432.98434769999994,432.98434769999994,432.98434769999994,432.98434769999994,432.98434769999994,45,56,52,37,45,60,432.98434769999994,434.5520330999998,,,,,,,,,,,,３０５,f,２０,2023-05-18_11h45.20.979,RL,2022.2.5,60.118300792346325,
52,47,49,55,0,69,69,69,,,,,,,,None,434.5520330999998,434.5520330999998,434.5520330999998,434.5520330999998,434.5520330999998,434.5520330999998,r,0.6443749999998545,435.2206255000001,435.2206255000001,435.2206255000001,435.2206255000001,435.2206255000001,435.2206255000001,435.5023621,437.41894409999986,437.43534739999996,437.43534739999996,437.43534739999996,437.43534739999996,437.43534739999996,437.43534739999996,437.43534739999996,437.43534739999996,437.43534739999996,437.43534739999996,437.43534739999996,437.43534739999996,437.43534739999996,439.6493243,439.6493243,439.6493243,439.6493243,439.6493243,439.6493243,439.6493243,49,52,55,47,52,60,439.6493243,441.56763779999983,,,,,,,,,,,,３０５,f,２０,2023-05-18_11h45.20.979,RL,2022.2.5,60.118300792346325,
50,41,54,51,0,70,70,70,,,,,,,,None,441.56763779999983,441.56763779999983,441.56763779999983,441.56763779999983,441.56763779999983,441.56763779999983,i,0.25379919999977574,441.8516017000002,441.8516017000002,441.8516017000002,441.8516017000002,441.8516017000002,441.8516017000002,442.13461770000004,443.70072709999977,443.7178027,443.7178027,443.7178027,443.7178027,443.7178027,443.7178027,443.7178027,443.7178027,443.7178027,443.7178027,443.7178027,443.7178027,443.7178027,445.58248049999975,445.58248049999975,445.58248049999975,445.58248049999975,445.58248049999975,445.58248049999975,445.58248049999975,54,50,51,41,51,60,445.58248049999975,447.3167263999999,,,,,,,,,,,,３０５,f,２０,2023-05-18_11h45.20.979,RL,2022.2.5,60.118300792346325,
52,38,46,49,0,71,71,71,,,,,,,,None,447.3167263999999,447.3167263999999,447.3167263999999,447.3167263999999,447.3167263999999,447.3167263999999,j,0.4537958000000799,447.80046429999993,447.80046429999993,447.80046429999993,447.80046429999993,447.80046429999993,447.80046429999993,448.0834669999999,450.0165287,450.03282809999973,450.03282809999973,450.03282809999973,450.03282809999973,450.03282809999973,450.03282809999973,450.03282809999973,450.03282809999973,450.03282809999973,450.03282809999973,450.03282809999973,450.03282809999973,450.03282809999973,452.2643432,452.2643432,452.2643432,452.2643432,452.2643432,452.2643432,452.2643432,46,52,49,38,38,60,452.2643432,454.09872799999994,,,,,,,,,,,,３０５,f,２０,2023-05-18_11h45.20.979,RL,2022.2.5,60.118300792346325,
52,45,41,52,0,72,72,72,,,,,,,,None,454.09872799999994,454.09872799999994,454.09872799999994,454.09872799999994,454.09872799999994,454.09872799999994,i,0.31971530000009807,454.4491935000001,454.4491935000001,454.4491935000001,454.4491935000001,454.4491935000001,454.4491935000001,454.7324948999999,456.19868659999975,456.2150496999998,456.2150496999998,456.2150496999998,456.2150496999998,456.2150496999998,456.2150496999998,456.2150496999998,456.2150496999998,456.2150496999998,456.2150496999998,456.2150496999998,456.2150496999998,456.2150496999998,457.980317,457.980317,457.980317,457.980317,457.980317,457.980317,457.980317,41,52,52,45,52,60,457.980317,459.7141714999998,,,,,,,,,,,,３０５,f,２０,2023-05-18_11h45.20.979,RL,2022.2.5,60.118300792346325,
44,37,40,51,0,73,73,73,,,,,,,,None,459.7141714999998,459.7141714999998,459.7141714999998,459.7141714999998,459.7141714999998,459.7141714999998,f,0.44165419999990263,460.1814008000001,460.1814008000001,460.1814008000001,460.1814008000001,460.1814008000001,460.1814008000001,460.46502789999977,462.04775919999975,462.0642619,462.0642619,462.0642619,462.0642619,462.0642619,462.0642619,462.0642619,462.0642619,462.0642619,462.0642619,462.0642619,462.0642619,462.0642619,463.9453979,463.9453979,463.9453979,463.9453979,463.9453979,463.9453979,463.9453979,40,44,51,37,40,60,463.9453979,465.58006969999997,,,,,,,,,,,,３０５,f,２０,2023-05-18_11h45.20.979,RL,2022.2.5,60.118300792346325,
47,35,41,51,0,74,74,74,,,,,,,,None,465.58006969999997,465.58006969999997,465.58006969999997,465.58006969999997,465.58006969999997,465.58006969999997,r,0.39620060000015656,465.99920440000005,465.99920440000005,465.99920440000005,465.99920440000005,465.99920440000005,465.99920440000005,466.2801488,468.0300060999998,468.0466443,468.0466443,468.0466443,468.0466443,468.0466443,468.0466443,468.0466443,468.0466443,468.0466443,468.0466443,468.0466443,468.0466443,468.0466443,470.09451409999974,470.09451409999974,470.09451409999974,470.09451409999974,470.09451409999974,470.09451409999974,470.09451409999974,41,47,51,35,47,60,470.09451409999974,471.99478199999976,,,,,,,,,,,,３０５,f,２０,2023-05-18_11h45.20.979,RL,2022.2.5,60.118300792346325,
44,37,40,47,0,75,75,75,,,,,,,,q,487.1763756999999,487.1763756999999,487.1763756999999,487.1763756999999,487.1763756999999,487.1763756999999,r,1.371752000000015,488.58103059999985,488.58103059999985,488.58103059999985,488.58103059999985,488.58103059999985,488.58103059999985,488.8764405000002,490.5448047,490.5448047,490.5448047,490.5448047,490.5448047,490.5448047,490.5448047,490.5448047,490.5448047,490.5448047,490.5448047,490.5448047,490.5448047,490.5448047,492.50749640000004,492.50749640000004,492.50749640000004,492.50749640000004,492.50749640000004,492.50749640000004,492.50749640000004,40,44,47,37,44,60,492.50749640000004,494.0919331,471.99478199999976,471.99478199999976,10.135369900000114,482.1612414000001,482.1612414000001,487.1763756999999,487.1763756999999,,,,,３０５,f,２０,2023-05-18_11h45.20.979,RL,2022.2.5,60.118300792346325,
52,36,42,42,0,76,76,76,,,,,,,,None,494.0919331,494.0919331,494.0919331,494.0919331,494.0919331,494.0919331,i,0.33198870000023817,494.4477582999998,494.4477582999998,494.4477582999998,494.4477582999998,494.4477582999998,494.4477582999998,494.72557289999986,496.3251360999998,496.34166259999984,496.34166259999984,496.34166259999984,496.34166259999984,496.34166259999984,496.34166259999984,496.34166259999984,496.34166259999984,496.34166259999984,496.34166259999984,496.34166259999984,496.34166259999984,496.34166259999984,498.2398905,498.2398905,498.2398905,498.2398905,498.2398905,498.2398905,498.2398905,42,52,42,36,42,60,498.2398905,500.2405235000001,,,,,,,,,,,,３０５,f,２０,2023-05-18_11h45.20.979,RL,2022.2.5,60.118300792346325,
42,37,42,34,0,77,77,77,,,,,,,,None,500.2405235000001,500.2405235000001,500.2405235000001,500.2405235000001,500.2405235000001,500.2405235000001,j,0.4062611999997898,500.67551939999976,500.67551939999976,500.67551939999976,500.67551939999976,500.67551939999976,500.67551939999976,500.9743989999997,502.45706370000016,502.45706370000016,502.45706370000016,502.45706370000016,502.45706370000016,502.45706370000016,502.45706370000016,502.45706370000016,502.45706370000016,502.45706370000016,502.45706370000016,502.45706370000016,502.45706370000016,502.45706370000016,504.23855909999975,504.23855909999975,504.23855909999975,504.23855909999975,504.23855909999975,504.23855909999975,504.23855909999975,42,42,34,37,37,60,504.23855909999975,506.1233136000001,,,,,,,,,,,,３０５,f,２０,2023-05-18_11h45.20.979,RL,2022.2.5,60.118300792346325,
40,36,46,45,0,78,78,78,,,,,,,,None,506.1233136000001,506.1233136000001,506.1233136000001,506.1233136000001,506.1233136000001,506.1233136000001,f,0.6654936999998426,506.81036700000004,506.81036700000004,506.81036700000004,506.81036700000004,506.81036700000004,506.81036700000004,507.0901638,508.1232190999999,508.13989170000013,508.13989170000013,508.13989170000013,508.13989170000013,508.13989170000013,508.13989170000013,508.13989170000013,508.13989170000013,508.13989170000013,508.13989170000013,508.13989170000013,508.13989170000013,508.13989170000013,509.47106269999995,509.47106269999995,509.47106269999995,509.47106269999995,509.47106269999995,509.47106269999995,509.47106269999995,46,40,45,36,46,60,509.47106269999995,511.18868840000005,,,,,,,,,,,,３０５,f,２０,2023-05-18_11h45.20.979,RL,2022.2.5,60.118300792346325,
53,34,45,38,0,79,79,79,,,,,,,,None,511.18868840000005,511.18868840000005,511.18868840000005,511.18868840000005,511.18868840000005,511.18868840000005,f,0.45265450000033525,511.67635599999994,511.67635599999994,511.67635599999994,511.67635599999994,511.67635599999994,511.67635599999994,511.9559442999998,513.6390310000002,513.6554378000001,513.6554378000001,513.6554378000001,513.6554378000001,513.6554378000001,513.6554378000001,513.6554378000001,513.6554378000001,513.6554378000001,513.6554378000001,513.6554378000001,513.6554378000001,513.6554378000001,515.6370277000001,515.6370277000001,515.6370277000001,515.6370277000001,515.6370277000001,515.6370277000001,515.6370277000001,45,53,38,34,45,60,515.6370277000001,517.2378651999998,,,,,,,,,,,,３０５,f,２０,2023-05-18_11h45.20.979,RL,2022.2.5,60.118300792346325,
41,41,42,34,0,80,80,80,,,,,,,,None,517.2378651999998,517.2378651999998,517.2378651999998,517.2378651999998,517.2378651999998,517.2378651999998,i,0.4770123000002968,517.7420667000001,517.7420667000001,517.7420667000001,517.7420667000001,517.7420667000001,517.7420667000001,518.0211875,519.8872732,519.9043034000001,519.9043034000001,519.9043034000001,519.9043034000001,519.9043034000001,519.9043034000001,519.9043034000001,519.9043034000001,519.9043034000001,519.9043034000001,519.9043034000001,519.9043034000001,519.9043034000001,522.0689419999999,522.0689419999999,522.0689419999999,522.0689419999999,522.0689419999999,522.0689419999999,522.0689419999999,42,41,34,41,34,60,522.0689419999999,523.7532283,,,,,,,,,,,,３０５,f,２０,2023-05-18_11h45.20.979,RL,2022.2.5,60.118300792346325,
53,34,52,34,0,81,81,81,,,,,,,,None,523.7532283,523.7532283,523.7532283,523.7532283,523.7532283,523.7532283,r,0.6617517999998199,524.4397881,524.4397881,524.4397881,524.4397881,524.4397881,524.4397881,524.7200008,526.4198741,526.4367499999998,526.4367499999998,526.4367499999998,526.4367499999998,526.4367499999998,526.4367499999998,526.4367499999998,526.4367499999998,526.4367499999998,526.4367499999998,526.4367499999998,526.4367499999998,526.4367499999998,528.4340452000001,528.4340452000001,528.4340452000001,528.4340452000001,528.4340452000001,528.4340452000001,528.4340452000001,52,53,34,34,53,60,528.4340452000001,530.2687344000001,,,,,,,,,,,,３０５,f,２０,2023-05-18_11h45.20.979,RL,2022.2.5,60.118300792346325,
54,35,42,41,0,82,82,82,,,,,,,,None,530.2687344000001,530.2687344000001,530.2687344000001,530.2687344000001,530.2687344000001,530.2687344000001,r,0.29337630000009085,530.5860893999998,530.5860893999998,530.5860893999998,530.5860893999998,530.5860893999998,530.5860893999998,530.8689178999998,531.7855306000001,531.8025917999998,531.8025917999998,531.8025917999998,531.8025917999998,531.8025917999998,531.8025917999998,531.8025917999998,531.8025917999998,531.8025917999998,531.8025917999998,531.8025917999998,531.8025917999998,531.8025917999998,533.0173556999998,533.0173556999998,533.0173556999998,533.0173556999998,533.0173556999998,533.0173556999998,533.0173556999998,42,54,41,35,54,60,533.0173556999998,534.7682421,,,,,,,,,,,,３０５,f,２０,2023-05-18_11h45.20.979,RL,2022.2.5,60.118300792346325,
52,32,46,37,0,83,83,83,,,,,,,,None,534.7682421,534.7682421,534.7682421,534.7682421,534.7682421,534.7682421,r,0.3792974000002687,535.1684077,535.1684077,535.1684077,535.1684077,535.1684077,535.1684077,535.4515062,537.1516370999998,537.1680820000001,537.1680820000001,537.1680820000001,537.1680820000001,537.1680820000001,537.1680820000001,537.1680820000001,537.1680820000001,537.1680820000001,537.1680820000001,537.1680820000001,537.1680820000001,537.1680820000001,539.1656391000001,539.1656391000001,539.1656391000001,539.1656391000001,539.1656391000001,539.1656391000001,539.1656391000001,46,52,37,32,52,60,539.1656391000001,540.9004660999999,,,,,,,,,,,,３０５,f,２０,2023-05-18_11h45.20.979,RL,2022.2.5,60.118300792346325,
48,35,38,41,0,84,84,84,,,,,,,,None,540.9004660999999,540.9004660999999,540.9004660999999,540.9004660999999,540.9004660999999,540.9004660999999,r,0.27724450000005163,541.2008633999999,541.2008633999999,541.2008633999999,541.2008633999999,541.2008633999999,541.2008633999999,541.4838040999998,543.1332830000001,543.1499232000001,543.1499232000001,543.1499232000001,543.1499232000001,543.1499232000001,543.1499232000001,543.1499232000001,543.1499232000001,543.1499232000001,543.1499232000001,543.1499232000001,543.1499232000001,543.1499232000001,545.0978641000002,545.0978641000002,545.0978641000002,545.0978641000002,545.0978641000002,545.0978641000002,545.0978641000002,38,48,41,35,48,60,545.0978641000002,547.0155509000001,,,,,,,,,,,,３０５,f,２０,2023-05-18_11h45.20.979,RL,2022.2.5,60.118300792346325,
48,46,33,41,0,85,85,85,,,,,,,,None,547.0155509000001,547.0155509000001,547.0155509000001,547.0155509000001,547.0155509000001,547.0155509000001,f,0.20571439999957875,547.2494244999998,547.2494244999998,547.2494244999998,547.2494244999998,547.2494244999998,547.2494244999998,547.5327840999998,549.3488377999997,549.3658135999999,549.3658135999999,549.3658135999999,549.3658135999999,549.3658135999999,549.3658135999999,549.3658135999999,549.3658135999999,549.3658135999999,549.3658135999999,549.3658135999999,549.3658135999999,549.3658135999999,551.4806494999998,551.4806494999998,551.4806494999998,551.4806494999998,551.4806494999998,551.4806494999998,551.4806494999998,33,48,41,46,33,60,551.4806494999998,553.1143693999998,,,,,,,,,,,,３０５,f,２０,2023-05-18_11h45.20.979,RL,2022.2.5,60.118300792346325,
45,38,40,40,0,86,86,86,,,,,,,,None,553.1143693999998,553.1143693999998,553.1143693999998,553.1143693999998,553.1143693999998,553.1143693999998,r,0.26381090000040786,553.3985939999998,553.3985939999998,553.3985939999998,553.3985939999998,553.3985939999998,553.3985939999998,553.6818862,554.9981597000001,555.0149633999999,555.0149633999999,555.0149633999999,555.0149633999999,555.0149633999999,555.0149633999999,555.0149633999999,555.0149633999999,555.0149633999999,555.0149633999999,555.0149633999999,555.0149633999999,555.0149633999999,556.6294994,556.6294994,556.6294994,556.6294994,556.6294994,556.6294994,556.6294994,40,45,40,38,45,60,556.6294994,558.3140002,,,,,,,,,,,,３０５,f,２０,2023-05-18_11h45.20.979,RL,2022.2.5,60.118300792346325,
48,40,34,35,0,87,87,87,,,,,,,,None,558.3140002,558.3140002,558.3140002,558.3140002,558.3140002,558.3140002,r,0.2587094000000434,558.5990765000001,558.5990765000001,558.5990765000001,558.5990765000001,558.5990765000001,558.5990765000001,558.8974113999998,560.5139106000001,560.5139106000001,560.5139106000001,560.5139106000001,560.5139106000001,560.5139106000001,560.5139106000001,560.5139106000001,560.5139106000001,560.5139106000001,560.5139106000001,560.5139106000001,560.5139106000001,560.5139106000001,562.4282336000001,562.4282336000001,562.4282336000001,562.4282336000001,562.4282336000001,562.4282336000001,562.4282336000001,34,48,35,40,48,60,562.4282336000001,564.2460962999999,,,,,,,,,,,,３０５,f,２０,2023-05-18_11h45.20.979,RL,2022.2.5,60.118300792346325,
50,46,47,36,0,88,88,88,,,,,,,,None,564.2460962999999,564.2460962999999,564.2460962999999,564.2460962999999,564.2460962999999,564.2460962999999,i,0.3075536999999713,564.5805012000001,564.5805012000001,564.5805012000001,564.5805012000001,564.5805012000001,564.5805012000001,564.8631838000001,566.7461990000002,566.7626691,566.7626691,566.7626691,566.7626691,566.7626691,566.7626691,566.7626691,566.7626691,566.7626691,566.7626691,566.7626691,566.7626691,566.7626691,568.9440669999999,568.9440669999999,568.9440669999999,568.9440669999999,568.9440669999999,568.9440669999999,568.9440669999999,47,50,36,46,36,60,568.9440669999999,570.7447459,,,,,,,,,,,,３０５,f,２０,2023-05-18_11h45.20.979,RL,2022.2.5,60.118300792346325,
47,42,43,38,0,89,89,89,,,,,,,,None,570.7447459,570.7447459,570.7447459,570.7447459,570.7447459,570.7447459,j,0.39821630000005825,571.1622637,571.1622637,571.1622637,571.1622637,571.1622637,571.1622637,571.4620876999998,573.1114091999998,573.1114091999998,573.1114091999998,573.1114091999998,573.1114091999998,573.1114091999998,573.1114091999998,573.1114091999998,573.1114091999998,573.1114091999998,573.1114091999998,573.1114091999998,573.1114091999998,573.1114091999998,575.0593545000002,575.0593545000002,575.0593545000002,575.0593545000002,575.0593545000002,575.0593545000002,575.0593545000002,43,47,38,42,42,60,575.0593545000002,576.9440464999998,,,,,,,,,,,,３０５,f,２０,2023-05-18_11h45.20.979,RL,2022.2.5,60.118300792346325,
42,53,49,49,0,90,90,90,,,,,,,,None,576.9440464999998,576.9440464999998,576.9440464999998,576.9440464999998,576.9440464999998,576.9440464999998,j,0.3678101999998944,577.3476030000002,577.3476030000002,577.3476030000002,577.3476030000002,577.3476030000002,577.3476030000002,577.6277261,578.5273032,578.5439876999999,578.5439876999999,578.5439876999999,578.5439876999999,578.5439876999999,578.5439876999999,578.5439876999999,578.5439876999999,578.5439876999999,578.5439876999999,578.5439876999999,578.5439876999999,578.5439876999999,579.7421564000001,579.7421564000001,579.7421564000001,579.7421564000001,579.7421564000001,579.7421564000001,579.7421564000001,49,42,49,53,53,60,579.7421564000001,581.3428414,,,,,,,,,,,,３０５,f,２０,2023-05-18_11h45.20.979,RL,2022.2.5,60.118300792346325,
49,44,36,47,0,91,91,91,,,,,,,,None,581.3428414,581.3428414,581.3428414,581.3428414,581.3428414,581.3428414,j,0.35169020000012097,581.7327316000001,581.7327316000001,581.7327316000001,581.7327316000001,581.7327316000001,581.7327316000001,582.0101506999999,583.9762897,583.9931247999998,583.9931247999998,583.9931247999998,583.9931247999998,583.9931247999998,583.9931247999998,583.9931247999998,583.9931247999998,583.9931247999998,583.9931247999998,583.9931247999998,583.9931247999998,583.9931247999998,586.2575047999999,586.2575047999999,586.2575047999999,586.2575047999999,586.2575047999999,586.2575047999999,586.2575047999999,36,49,47,44,44,60,586.2575047999999,587.7755938,,,,,,,,,,,,３０５,f,２０,2023-05-18_11h45.20.979,RL,2022.2.5,60.118300792346325,
57,48,36,56,0,92,92,92,,,,,,,,None,587.7755938,587.7755938,587.7755938,587.7755938,587.7755938,587.7755938,j,0.22662559999980658,588.0258669,588.0258669,588.0258669,588.0258669,588.0258669,588.0258669,588.3256117000001,589.5085236,589.5085236,589.5085236,589.5085236,589.5085236,589.5085236,589.5085236,589.5085236,589.5085236,589.5085236,589.5085236,589.5085236,589.5085236,589.5085236,590.9899427999999,590.9899427999999,590.9899427999999,590.9899427999999,590.9899427999999,590.9899427999999,590.9899427999999,36,57,56,48,48,60,590.9899427999999,592.6575081999999,,,,,,,,,,,,３０５,f,２０,2023-05-18_11h45.20.979,RL,2022.2.5,60.118300792346325,
45,38,37,48,0,93,93,93,,,,,,,,None,592.6575081999999,592.6575081999999,592.6575081999999,592.6575081999999,592.6575081999999,592.6575081999999,r,0.2661423999998078,592.9415018999998,592.9415018999998,592.9415018999998,592.9415018999998,592.9415018999998,592.9415018999998,593.2414813999999,594.5076779000001,594.5076779000001,594.5076779000001,594.5076779000001,594.5076779000001,594.5076779000001,594.5076779000001,594.5076779000001,594.5076779000001,594.5076779000001,594.5076779000001,594.5076779000001,594.5076779000001,594.5076779000001,596.0727876000001,596.0727876000001,596.0727876000001,596.0727876000001,596.0727876000001,596.0727876000001,596.0727876000001,37,45,48,38,45,60,596.0727876000001,597.9234459999998,,,,,,,,,,,,３０５,f,２０,2023-05-18_11h45.20.979,RL,2022.2.5,60.118300792346325,
53,44,37,53,0,94,94,94,,,,,,,,None,597.9234459999998,597.9234459999998,597.9234459999998,597.9234459999998,597.9234459999998,597.9234459999998,j,0.2204239000002417,598.1742205999999,598.1742205999999,598.1742205999999,598.1742205999999,598.1742205999999,598.1742205999999,598.4573347999999,600.2233999999999,600.2401282000001,600.2401282000001,600.2401282000001,600.2401282000001,600.2401282000001,600.2401282000001,600.2401282000001,600.2401282000001,600.2401282000001,600.2401282000001,600.2401282000001,600.2401282000001,600.2401282000001,602.3047080000001,602.3047080000001,602.3047080000001,602.3047080000001,602.3047080000001,602.3047080000001,602.3047080000001,37,53,53,44,44,60,602.3047080000001,604.0725898999999,,,,,,,,,,,,３０５,f,２０,2023-05-18_11h45.20.979,RL,2022.2.5,60.118300792346325,
49,48,46,57,0,95,95,95,,,,,,,,None,604.0725898999999,604.0725898999999,604.0725898999999,604.0725898999999,604.0725898999999,604.0725898999999,r,0.2647199999996701,604.3579998999999,604.3579998999999,604.3579998999999,604.3579998999999,604.3579998999999,604.3579998999999,604.6393491999997,605.9227823000001,605.9391439999999,605.9391439999999,605.9391439999999,605.9391439999999,605.9391439999999,605.9391439999999,605.9391439999999,605.9391439999999,605.9391439999999,605.9391439999999,605.9391439999999,605.9391439999999,605.9391439999999,607.5209135999999,607.5209135999999,607.5209135999999,607.5209135999999,607.5209135999999,607.5209135999999,607.5209135999999,46,49,57,48,49,60,607.5209135999999,609.3048134999999,,,,,,,,,,,,３０５,f,２０,2023-05-18_11h45.20.979,RL,2022.2.5,60.118300792346325,
54,47,35,56,0,96,96,96,,,,,,,,None,609.3048134999999,609.3048134999999,609.3048134999999,609.3048134999999,609.3048134999999,609.3048134999999,r,0.32657430000017484,609.6555183,609.6555183,609.6555183,609.6555183,609.6555183,609.6555183,609.9385926999998,611.8883666000002,611.9051955999998,611.9051955999998,611.9051955999998,611.9051955999998,611.9051955999998,611.9051955999998,611.9051955999998,611.9051955999998,611.9051955999998,611.9051955999998,611.9051955999998,611.9051955999998,611.9051955999998,614.1526625000001,614.1526625000001,614.1526625000001,614.1526625000001,614.1526625000001,614.1526625000001,614.1526625000001,35,54,56,47,54,60,614.1526625000001,616.0203421000001,,,,,,,,,,,,３０５,f,２０,2023-05-18_11h45.20.979,RL,2022.2.5,60.118300792346325,
56,58,27,49,0,97,97,97,,,,,,,,None,616.0203421000001,616.0203421000001,616.0203421000001,616.0203421000001,616.0203421000001,616.0203421000001,r,0.48762040000019624,616.5391276,616.5391276,616.5391276,616.5391276,616.5391276,616.5391276,616.8211136999998,618.7377111000001,618.7541065,618.7541065,618.7541065,618.7541065,618.7541065,618.7541065,618.7541065,618.7541065,618.7541065,618.7541065,618.7541065,618.7541065,618.7541065,620.9686351999999,620.9686351999999,620.9686351999999,620.9686351999999,620.9686351999999,620.9686351999999,620.9686351999999,27,56,49,58,56,60,620.9686351999999,622.8031403999998,,,,,,,,,,,,３０５,f,２０,2023-05-18_11h45.20.979,RL,2022.2.5,60.118300792346325,
56,60,33,43,0,98,98,98,,,,,,,,None,622.8031403999998,622.8031403999998,622.8031403999998,622.8031403999998,622.8031403999998,622.8031403999998,f,0.310519000000113,623.1363028000001,623.1363028000001,623.1363028000001,623.1363028000001,623.1363028000001,623.1363028000001,623.4199000999997,625.3858706000001,625.4024835,625.4024835,625.4024835,625.4024835,625.4024835,625.4024835,625.4024835,625.4024835,625.4024835,625.4024835,625.4024835,625.4024835,625.4024835,627.6674681,627.6674681,627.6674681,627.6674681,627.6674681,627.6674681,627.6674681,33,56,43,60,33,60,627.6674681,629.2516648000001,,,,,,,,,,,,３０５,f,２０,2023-05-18_11h45.20.979,RL,2022.2.5,60.118300792346325,
56,56,44,52,0,99,99,99,,,,,,,,None,629.2516648000001,629.2516648000001,629.2516648000001,629.2516648000001,629.2516648000001,629.2516648000001,i,0.8139808999999332,630.0853268999999,630.0853268999999,630.0853268999999,630.0853268999999,630.0853268999999,630.0853268999999,630.3851411,631.9014848000002,631.9014848000002,631.9014848000002,631.9014848000002,631.9014848000002,631.9014848000002,631.9014848000002,631.9014848000002,631.9014848000002,631.9014848000002,631.9014848000002,631.9014848000002,631.9014848000002,631.9014848000002,633.7160356999998,633.7160356999998,633.7160356999998,633.7160356999998,633.7160356999998,633.7160356999998,633.7160356999998,44,56,52,56,52,60,633.7160356999998,635.3671850999999,,,,,,,,,,,,３０５,f,２０,2023-05-18_11h45.20.979,RL,2022.2.5,60.118300792346325,
54,62,44,45,0,100,100,100,,,,,,,,None,635.3671850999999,635.3671850999999,635.3671850999999,635.3671850999999,635.3671850999999,635.3671850999999,r,0.5005639999999403,635.9055803000001,635.9055803000001,635.9055803000001,635.9055803000001,635.9055803000001,635.9055803000001,636.1839829999999,637.5506007999998,637.5670326999998,637.5670326999998,637.5670326999998,637.5670326999998,637.5670326999998,637.5670326999998,637.5670326999998,637.5670326999998,637.5670326999998,637.5670326999998,637.5670326999998,637.5670326999998,637.5670326999998,639.2321505999998,639.2321505999998,639.2321505999998,639.2321505999998,639.2321505999998,639.2321505999998,639.2321505999998,44,54,45,62,54,60,639.2321505999998,640.7996521999999,,,,,,,,,,,,３０５,f,２０,2023-05-18_11h45.20.979,RL,2022.2.5,60.118300792346325,
55,58,51,48,0,101,101,101,,,,,,,,None,640.7996521999999,640.7996521999999,640.7996521999999,640.7996521999999,640.7996521999999,640.7996521999999,i,0.4076711000002433,641.2351721999999,641.2351721999999,641.2351721999999,641.2351721999999,641.2351721999999,641.2351721999999,641.5338487999998,643.1493111999998,643.1493111999998,643.1493111999998,643.1493111999998,643.1493111999998,643.1493111999998,643.1493111999998,643.1493111999998,643.1493111999998,643.1493111999998,643.1493111999998,643.1493111999998,643.1493111999998,643.1493111999998,645.0645338999998,645.0645338999998,645.0645338999998,645.0645338999998,645.0645338999998,645.0645338999998,645.0645338999998,51,55,48,58,48,60,645.0645338999998,646.9487438000001,,,,,,,,,,,,３０５,f,２０,2023-05-18_11h45.20.979,RL,2022.2.5,60.118300792346325,
53,55,44,49,0,102,102,102,,,,,,,,None,646.9487438000001,646.9487438000001,646.9487438000001,646.9487438000001,646.9487438000001,646.9487438000001,j,0.33848900000020876,647.3154697,647.3154697,647.3154697,647.3154697,647.3154697,647.3154697,647.5988137999998,648.6987076999999,648.7154695999998,648.7154695999998,648.7154695999998,648.7154695999998,648.7154695999998,648.7154695999998,648.7154695999998,648.7154695999998,648.7154695999998,648.7154695999998,648.7154695999998,648.7154695999998,648.7154695999998,650.1132351000001,650.1132351000001,650.1132351000001,650.1132351000001,650.1132351000001,650.1132351000001,650.1132351000001,44,53,49,55,55,60,650.1132351000001,651.6977588999998,,,,,,,,,,,,３０５,f,２０,2023-05-18_11h45.20.979,RL,2022.2.5,60.118300792346325,
65,62,50,57,0,103,103,103,,,,,,,,None,651.6977588999998,651.6977588999998,651.6977588999998,651.6977588999998,651.6977588999998,651.6977588999998,j,0.6300599000001057,652.3494236000001,652.3494236000001,652.3494236000001,652.3494236000001,652.3494236000001,652.3494236000001,652.6480253999998,653.5645533000002,653.5645533000002,653.5645533000002,653.5645533000002,653.5645533000002,653.5645533000002,653.5645533000002,653.5645533000002,653.5645533000002,653.5645533000002,653.5645533000002,653.5645533000002,653.5645533000002,653.5645533000002,654.7790713999998,654.7790713999998,654.7790713999998,654.7790713999998,654.7790713999998,654.7790713999998,654.7790713999998,50,65,57,62,62,60,654.7790713999998,656.7630841999999,,,,,,,,,,,,３０５,f,２０,2023-05-18_11h45.20.979,RL,2022.2.5,60.118300792346325,
62,61,50,50,0,104,104,104,,,,,,,,None,656.7630841999999,656.7630841999999,656.7630841999999,656.7630841999999,656.7630841999999,656.7630841999999,j,0.2492064000002756,657.0305223999999,657.0305223999999,657.0305223999999,657.0305223999999,657.0305223999999,657.0305223999999,657.3305553,659.0134303999998,659.0134303999998,659.0134303999998,659.0134303999998,659.0134303999998,659.0134303999998,659.0134303999998,659.0134303999998,659.0134303999998,659.0134303999998,659.0134303999998,659.0134303999998,659.0134303999998,659.0134303999998,660.9945118999999,660.9945118999999,660.9945118999999,660.9945118999999,660.9945118999999,660.9945118999999,660.9945118999999,50,62,50,61,61,60,660.9945118999999,662.9959269000001,,,,,,,,,,,,３０５,f,２０,2023-05-18_11h45.20.979,RL,2022.2.5,60.118300792346325,
70,66,51,61,0,105,105,105,,,,,,,,None,662.9959269000001,662.9959269000001,662.9959269000001,662.9959269000001,662.9959269000001,662.9959269000001,j,0.30438009999988935,663.3294775999998,663.3294775999998,663.3294775999998,663.3294775999998,663.3294775999998,663.3294775999998,663.6132287999999,664.8625588,664.8788380000001,664.8788380000001,664.8788380000001,664.8788380000001,664.8788380000001,664.8788380000001,664.8788380000001,664.8788380000001,664.8788380000001,664.8788380000001,664.8788380000001,664.8788380000001,664.8788380000001,666.4267943,666.4267943,666.4267943,666.4267943,666.4267943,666.4267943,666.4267943,51,70,61,66,66,60,666.4267943,667.9619926999999,,,,,,,,,,,,３０５,f,２０,2023-05-18_11h45.20.979,RL,2022.2.5,60.118300792346325,
73,53,42,64,0,106,106,106,,,,,,,,None,667.9619926999999,667.9619926999999,667.9619926999999,667.9619926999999,667.9619926999999,667.9619926999999,j,0.2316659000002801,668.2124082999999,668.2124082999999,668.2124082999999,668.2124082999999,668.2124082999999,668.2124082999999,668.5120044999999,669.4950847,669.4950847,669.4950847,669.4950847,669.4950847,669.4950847,669.4950847,669.4950847,669.4950847,669.4950847,669.4950847,669.4950847,669.4950847,669.4950847,670.7764152999998,670.7764152999998,670.7764152999998,670.7764152999998,670.7764152999998,670.7764152999998,670.7764152999998,42,73,64,53,53,60,670.7764152999998,672.6939846999999,,,,,,,,,,,,３０５,f,２０,2023-05-18_11h45.20.979,RL,2022.2.5,60.118300792346325,
67,59,51,69,0,107,107,107,,,,,,,,None,672.6939846999999,672.6939846999999,672.6939846999999,672.6939846999999,672.6939846999999,672.6939846999999,r,0.29651430000012624,673.0121104,673.0121104,673.0121104,673.0121104,673.0121104,673.0121104,673.3110523999999,675.1939541000002,675.1939541000002,675.1939541000002,675.1939541000002,675.1939541000002,675.1939541000002,675.1939541000002,675.1939541000002,675.1939541000002,675.1939541000002,675.1939541000002,675.1939541000002,675.1939541000002,675.1939541000002,677.3756576000001,677.3756576000001,677.3756576000001,677.3756576000001,677.3756576000001,677.3756576000001,677.3756576000001,51,67,69,59,67,60,677.3756576000001,679.1264765999999,,,,,,,,,,,,３０５,f,２０,2023-05-18_11h45.20.979,RL,2022.2.5,60.118300792346325,
63,60,49,60,0,108,108,108,,,,,,,,None,679.1264765999999,679.1264765999999,679.1264765999999,679.1264765999999,679.1264765999999,679.1264765999999,r,0.29591389999995954,679.4449227,679.4449227,679.4449227,679.4449227,679.4449227,679.4449227,679.7433762000001,680.8096999999998,680.8096999999998,680.8096999999998,680.8096999999998,680.8096999999998,680.8096999999998,680.8096999999998,680.8096999999998,680.8096999999998,680.8096999999998,680.8096999999998,680.8096999999998,680.8096999999998,680.8096999999998,682.1746232999999,682.1746232999999,682.1746232999999,682.1746232999999,682.1746232999999,682.1746232999999,682.1746232999999,49,63,60,60,63,60,682.1746232999999,683.7922752,,,,,,,,,,,,３０５,f,２０,2023-05-18_11h45.20.979,RL,2022.2.5,60.118300792346325,
67,54,48,60,0,109,109,109,,,,,,,,None,683.7922752,683.7922752,683.7922752,683.7922752,683.7922752,683.7922752,r,0.28288259999999354,684.0937960000001,684.0937960000001,684.0937960000001,684.0937960000001,684.0937960000001,684.0937960000001,684.3923835999999,686.2423626999998,686.2423626999998,686.2423626999998,686.2423626999998,686.2423626999998,686.2423626999998,686.2423626999998,686.2423626999998,686.2423626999998,686.2423626999998,686.2423626999998,686.2423626999998,686.2423626999998,686.2423626999998,688.3904991999998,688.3904991999998,688.3904991999998,688.3904991999998,688.3904991999998,688.3904991999998,688.3904991999998,48,67,60,54,67,60,688.3904991999998,690.1077501,,,,,,,,,,,,３０５,f,２０,2023-05-18_11h45.20.979,RL,2022.2.5,60.118300792346325,
61,58,53,63,0,110,110,110,,,,,,,,None,690.1077501,690.1077501,690.1077501,690.1077501,690.1077501,690.1077501,r,0.171180600000298,690.3082488999999,690.3082488999999,690.3082488999999,690.3082488999999,690.3082488999999,690.3082488999999,690.5915832000001,691.441311,691.4577281000002,691.4577281000002,691.4577281000002,691.4577281000002,691.4577281000002,691.4577281000002,691.4577281000002,691.4577281000002,691.4577281000002,691.4577281000002,691.4577281000002,691.4577281000002,691.4577281000002,692.6063985999999,692.6063985999999,692.6063985999999,692.6063985999999,692.6063985999999,692.6063985999999,692.6063985999999,53,61,63,58,61,60,692.6063985999999,694.1567692999997,,,,,,,,,,,,３０５,f,２０,2023-05-18_11h45.20.979,RL,2022.2.5,60.118300792346325,
57,46,46,62,0,111,111,111,,,,,,,,None,694.1567692999997,694.1567692999997,694.1567692999997,694.1567692999997,694.1567692999997,694.1567692999997,r,0.33483739999974205,694.5272738999997,694.5272738999997,694.5272738999997,694.5272738999997,694.5272738999997,694.5272738999997,694.8075728999997,695.8070389999998,695.8237349999999,695.8237349999999,695.8237349999999,695.8237349999999,695.8237349999999,695.8237349999999,695.8237349999999,695.8237349999999,695.8237349999999,695.8237349999999,695.8237349999999,695.8237349999999,695.8237349999999,697.1218472999999,697.1218472999999,697.1218472999999,697.1218472999999,697.1218472999999,697.1218472999999,697.1218472999999,46,57,62,46,57,60,697.1218472999999,699.0565308999999,,,,,,,,,,,,３０５,f,２０,2023-05-18_11h45.20.979,RL,2022.2.5,60.118300792346325,
66,50,53,60,0,112,112,112,,,,,,,,None,699.0565308999999,699.0565308999999,699.0565308999999,699.0565308999999,699.0565308999999,699.0565308999999,i,0.25268370000003415,699.3440294999996,699.3440294999996,699.3440294999996,699.3440294999996,699.3440294999996,699.3440294999996,699.6231488999997,700.7899802999996,700.8062563999997,700.8062563999997,700.8062563999997,700.8062563999997,700.8062563999997,700.8062563999997,700.8062563999997,700.8062563999997,700.8062563999997,700.8062563999997,700.8062563999997,700.8062563999997,700.8062563999997,702.2709825999996,702.2709825999996,702.2709825999996,702.2709825999996,702.2709825999996,702.2709825999996,702.2709825999996,53,66,60,50,60,60,702.2709825999996,704.2385780999998,,,,,,,,,,,,３０５,f,２０,2023-05-18_11h45.20.979,RL,2022.2.5,60.118300792346325,
66,39,53,64,0,113,113,113,,,,,,,,None,704.2385780999998,704.2385780999998,704.2385780999998,704.2385780999998,704.2385780999998,704.2385780999998,j,0.3524495999999999,704.6297663,704.6297663,704.6297663,704.6297663,704.6297663,704.6297663,704.9058325999999,706.4551729,706.4883783,706.4883783,706.4883783,706.4883783,706.4883783,706.4883783,706.4883783,706.4883783,706.4883783,706.4883783,706.4883783,706.4883783,706.4883783,708.3367571000003,708.3367571000003,708.3367571000003,708.3367571000003,708.3367571000003,708.3367571000003,708.3367571000003,53,66,64,39,39,60,708.3367571000003,710.2042426000003,,,,,,,,,,,,３０５,f,２０,2023-05-18_11h45.20.979,RL,2022.2.5,60.118300792346325,
62,46,48,72,0,114,114,114,,,,,,,,None,710.2042426000003,710.2042426000003,710.2042426000003,710.2042426000003,710.2042426000003,710.2042426000003,r,0.5118821000005482,710.7381106999997,710.7381106999997,710.7381106999997,710.7381106999997,710.7381106999997,710.7381106999997,711.0209098999999,711.85464,711.8709714000001,711.8709714000001,711.8709714000001,711.8709714000001,711.8709714000001,711.8709714000001,711.8709714000001,711.8709714000001,711.8709714000001,711.8709714000001,711.8709714000001,711.8709714000001,711.8709714000001,713.0025314999998,713.0025314999998,713.0025314999998,713.0025314999998,713.0025314999998,713.0025314999998,713.0025314999998,48,62,72,46,62,60,713.0025314999998,714.5368184000004,,,,,,,,,,,,３０５,f,２０,2023-05-18_11h45.20.979,RL,2022.2.5,60.118300792346325,
67,38,57,69,0,115,115,115,,,,,,,,None,714.5368184000004,714.5368184000004,714.5368184000004,714.5368184000004,714.5368184000004,714.5368184000004,f,0.8624229999995805,715.4207985999997,715.4207985999997,715.4207985999997,715.4207985999997,715.4207985999997,715.4207985999997,715.7040540000003,716.7203339000002,716.7368653999997,716.7368653999997,716.7368653999997,716.7368653999997,716.7368653999997,716.7368653999997,716.7368653999997,716.7368653999997,716.7368653999997,716.7368653999997,716.7368653999997,716.7368653999997,716.7368653999997,718.0350475999999,718.0350475999999,718.0350475999999,718.0350475999999,718.0350475999999,718.0350475999999,718.0350475999999,57,67,69,38,57,60,718.0350475999999,720.0194225,,,,,,,,,,,,３０５,f,２０,2023-05-18_11h45.20.979,RL,2022.2.5,60.118300792346325,
70,33,47,68,0,116,116,116,,,,,,,,None,720.0194225,720.0194225,720.0194225,720.0194225,720.0194225,720.0194225,r,0.24734170000010636,720.2871552000001,720.2871552000001,720.2871552000001,720.2871552000001,720.2871552000001,720.2871552000001,720.5700298999996,721.9027702999997,721.9194732999999,721.9194732999999,721.9194732999999,721.9194732999999,721.9194732999999,721.9194732999999,721.9194732999999,721.9194732999999,721.9194732999999,721.9194732999999,721.9194732999999,721.9194732999999,721.9194732999999,723.5341038000001,723.5341038000001,723.5341038000001,723.5341038000001,723.5341038000001,723.5341038000001,723.5341038000001,47,70,68,33,70,60,723.5341038000001,725.3352888000004,,,,,,,,,,,,３０５,f,２０,2023-05-18_11h45.20.979,RL,2022.2.5,60.118300792346325,
79,38,56,70,0,117,117,117,,,,,,,,None,725.3352888000004,725.3352888000004,725.3352888000004,725.3352888000004,725.3352888000004,725.3352888000004,r,0.28310310000051686,725.6354980000001,725.6354980000001,725.6354980000001,725.6354980000001,725.6354980000001,725.6354980000001,725.9354202999998,726.9350661000003,726.9350661000003,726.9350661000003,726.9350661000003,726.9350661000003,726.9350661000003,726.9350661000003,726.9350661000003,726.9350661000003,726.9350661000003,726.9350661000003,726.9350661000003,726.9350661000003,726.9350661000003,728.2339489999999,728.2339489999999,728.2339489999999,728.2339489999999,728.2339489999999,728.2339489999999,728.2339489999999,56,79,70,38,79,60,728.2339489999999,730.1507481000003,,,,,,,,,,,,３０５,f,２０,2023-05-18_11h45.20.979,RL,2022.2.5,60.118300792346325,
77,36,54,70,0,118,118,118,,,,,,,,None,730.1507481000003,730.1507481000003,730.1507481000003,730.1507481000003,730.1507481000003,730.1507481000003,r,0.3771714999993492,730.5524571000001,730.5524571000001,730.5524571000001,730.5524571000001,730.5524571000001,730.5524571000001,730.8345301000004,732.0339207000002,732.0673961999996,732.0673961999996,732.0673961999996,732.0673961999996,732.0673961999996,732.0673961999996,732.0673961999996,732.0673961999996,732.0673961999996,732.0673961999996,732.0673961999996,732.0673961999996,732.0673961999996,733.5655390999996,733.5655390999996,733.5655390999996,733.5655390999996,733.5655390999996,733.5655390999996,733.5655390999996,54,77,70,36,77,60,733.5655390999996,735.1163238000004,,,,,,,,,,,,３０５,f,２０,2023-05-18_11h45.20.979,RL,2022.2.5,60.118300792346325,
70,33,58,77,0,119,119,119,,,,,,,,None,735.1163238000004,735.1163238000004,735.1163238000004,735.1163238000004,735.1163238000004,735.1163238000004,r,0.3121295999999347,735.4505452999997,735.4505452999997,735.4505452999997,735.4505452999997,735.4505452999997,735.4505452999997,735.7340278999995,737.1331943,737.1497551999996,737.1497551999996,737.1497551999996,737.1497551999996,737.1497551999996,737.1497551999996,737.1497551999996,737.1497551999996,737.1497551999996,737.1497551999996,737.1497551999996,737.1497551999996,737.1497551999996,738.8480990000003,738.8480990000003,738.8480990000003,738.8480990000003,738.8480990000003,738.8480990000003,738.8480990000003,58,70,77,33,70,60,738.8480990000003,740.3823913000001,,,,,,,,,,,,３０５,f,２０,2023-05-18_11h45.20.979,RL,2022.2.5,60.118300792346325,
71,40,61,64,0,120,120,120,,,,,,,,None,740.3823913000001,740.3823913000001,740.3823913000001,740.3823913000001,740.3823913000001,740.3823913000001,r,0.25541679999969347,740.6682396000001,740.6682396000001,740.6682396000001,740.6682396000001,740.6682396000001,740.6682396000001,740.9495959000001,741.9493712999997,741.9656481999996,741.9656481999996,741.9656481999996,741.9656481999996,741.9656481999996,741.9656481999996,741.9656481999996,741.9656481999996,741.9656481999996,741.9656481999996,741.9656481999996,741.9656481999996,741.9656481999996,743.2642912999995,743.2642912999995,743.2642912999995,743.2642912999995,743.2642912999995,743.2642912999995,743.2642912999995,61,71,64,40,71,60,743.2642912999995,745.2649095000002,,,,,,,,,,,,３０５,f,２０,2023-05-18_11h45.20.979,RL,2022.2.5,60.118300792346325,
67,28,55,73,0,121,121,121,,,,,,,,None,745.2649095000002,745.2649095000002,745.2649095000002,745.2649095000002,745.2649095000002,745.2649095000002,r,0.22338799999943149,745.5152437000002,745.5152437000002,745.5152437000002,745.5152437000002,745.5152437000002,745.5152437000002,745.7987034000002,747.5313651000001,747.5479193999995,747.5479193999995,747.5479193999995,747.5479193999995,747.5479193999995,747.5479193999995,747.5479193999995,747.5479193999995,747.5479193999995,747.5479193999995,747.5479193999995,747.5479193999995,747.5479193999995,749.5797427000002,749.5797427000002,749.5797427000002,749.5797427000002,749.5797427000002,749.5797427000002,749.5797427000002,55,67,73,28,67,60,749.5797427000002,751.3303499999997,,,,,,,,,,,,３０５,f,２０,2023-05-18_11h45.20.979,RL,2022.2.5,60.118300792346325,
64,39,56,66,0,122,122,122,,,,,,,,None,751.3303499999997,751.3303499999997,751.3303499999997,751.3303499999997,751.3303499999997,751.3303499999997,i,0.2939613000007739,751.6485836999996,751.6485836999996,751.6485836999996,751.6485836999996,751.6485836999996,751.6485836999996,751.9313825000004,753.2809260999998,753.2973435999997,753.2973435999997,753.2973435999997,753.2973435999997,753.2973435999997,753.2973435999997,753.2973435999997,753.2973435999997,753.2973435999997,753.2973435999997,753.2973435999997,753.2973435999997,753.2973435999997,754.9287214999999,754.9287214999999,754.9287214999999,754.9287214999999,754.9287214999999,754.9287214999999,754.9287214999999,56,64,66,39,66,60,754.9287214999999,756.9130604999996,,,,,,,,,,,,３０５,f,２０,2023-05-18_11h45.20.979,RL,2022.2.5,60.118300792346325,
68,34,61,69,0,123,123,123,,,,,,,,None,756.9130604999996,756.9130604999996,756.9130604999996,756.9130604999996,756.9130604999996,756.9130604999996,r,0.317659299999832,757.2703399999996,757.2703399999996,757.2703399999996,757.2703399999996,757.2703399999996,757.2703399999996,757.5469060999999,758.9796657000002,758.9962917999997,758.9962917999997,758.9962917999997,758.9962917999997,758.9962917999997,758.9962917999997,758.9962917999997,758.9962917999997,758.9962917999997,758.9962917999997,758.9962917999997,758.9962917999997,758.9962917999997,760.7278548999998,760.7278548999998,760.7278548999998,760.7278548999998,760.7278548999998,760.7278548999998,760.7278548999998,61,68,69,34,68,60,760.7278548999998,762.2783566000003,,,,,,,,,,,,３０５,f,２０,2023-05-18_11h45.20.979,RL,2022.2.5,60.118300792346325,
61,32,58,69,0,124,124,124,,,,,,,,None,762.2783566000003,762.2783566000003,762.2783566000003,762.2783566000003,762.2783566000003,762.2783566000003,r,0.40968960000009247,762.7166599999996,762.7166599999996,762.7166599999996,762.7166599999996,762.7166599999996,762.7166599999996,762.9956982999997,764.911987,764.9287115000002,764.9287115000002,764.9287115000002,764.9287115000002,764.9287115000002,764.9287115000002,764.9287115000002,764.9287115000002,764.9287115000002,764.9287115000002,764.9287115000002,764.9287115000002,764.9287115000002,767.1428407999997,767.1428407999997,767.1428407999997,767.1428407999997,767.1428407999997,767.1428407999997,767.1428407999997,58,61,69,32,61,60,767.1428407999997,769.0607468000003,,,,,,,,,,,,３０５,f,２０,2023-05-18_11h45.20.979,RL,2022.2.5,60.118300792346325,
