arm1,arm2,arm3,arm4,trials.thisRepN,trials.thisTrialN,trials.thisN,trials.thisIndex,instru_img1.started,instru_resp.started,instru_resp.keys,instru_resp.rt,image_2.started,text_2.started,image_2.stopped,text_2.stopped,fixbefore_2.started,fixbefore_2.stopped,rest_response.keys,red.started,green.started,yellow.started,blue.started,choose_bandit.started,Fixation.started,choose_bandit.keys,choose_bandit.rt,black.started,red_2.started,green_2.started,yellow_2.started,blue_2.started,fixation_2.started,docs.started,docs.stopped,black.stopped,red_2.stopped,green_2.stopped,yellow_2.stopped,blue_2.stopped,fixation_2.stopped,black_com.started,reward_sub.started,reward__sub.started,red_compare.started,green_com.started,yellow_com.started,blue_com.started,black_com.stopped,reward_sub.stopped,reward__sub.stopped,red_compare.stopped,green_com.stopped,yellow_com.stopped,blue_com.stopped,rewardred,rewardyellow,rewardblue,rewardgreen,subchoose,expectation,intertrialfix.started,intertrialfix.stopped,rest_image.started,rest_response.started,rest_response.rt,image_expect_after.started,text_exp_after.started,image_expect_after.stopped,text_exp_after.stopped,image.started,key_resp.started,key_resp.keys,key_resp.rt,participant,Gender,Age,date,expName,psychopyVersion,frameRate,
,,,,,,,,17.816621799998757,17.816621799998757,space,14.625874999999724,,,,,,,,,,,,,,,,,,,,,,,,,,,,,,,,,,,,,,,,,,,,,,,,,,,,,,,,,,,,,,,３０６,f,２３,2023-05-18_13h06.54.816,RL,2022.2.5,60.159132937911544,
44,47,48,59,0,0,0,0,,,,,32.463502399999925,32.463502399999925,37.463177199999336,37.463177199999336,37.463177199999336,38.46563059999971,None,38.46563059999971,38.46563059999971,38.46563059999971,38.46563059999971,38.46563059999971,38.46563059999971,j,0.8812925000001997,39.36905879999904,39.36905879999904,39.36905879999904,39.36905879999904,39.36905879999904,39.36905879999904,39.6644086999986,40.99748599999839,41.01663709999957,41.01663709999957,41.01663709999957,41.01663709999957,41.01663709999957,41.01663709999957,41.01663709999957,41.01663709999957,41.01663709999957,41.01663709999957,41.01663709999957,41.01663709999957,41.01663709999957,42.68189749999874,42.68189749999874,42.68189749999874,42.68189749999874,42.68189749999874,42.68189749999874,42.68189749999874,44,47,48,59,59,70,42.68189749999874,44.6631770999993,,,,,,,,,,,,３０６,f,２３,2023-05-18_13h06.54.816,RL,2022.2.5,60.159132937911544,
37,47,54,51,0,1,1,1,,,,,,,,,,,None,44.6631770999993,44.6631770999993,44.6631770999993,44.6631770999993,44.6631770999993,44.6631770999993,r,0.5806633000011061,45.26335459999973,45.26335459999973,45.26335459999973,45.26335459999973,45.26335459999973,45.26335459999973,45.546552199999496,46.87967169999865,46.89691479999965,46.89691479999965,46.89691479999965,46.89691479999965,46.89691479999965,46.89691479999965,46.89691479999965,46.89691479999965,46.89691479999965,46.89691479999965,46.89691479999965,46.89691479999965,46.89691479999965,48.52807059999941,48.52807059999941,48.52807059999941,48.52807059999941,48.52807059999941,48.52807059999941,48.52807059999941,37,47,54,51,47,70,48.52807059999941,50.27877919999992,,,,,,,,,,,,３０６,f,２３,2023-05-18_13h06.54.816,RL,2022.2.5,60.159132937911544,
43,56,52,50,0,2,2,2,,,,,,,,,,,None,50.27877919999992,50.27877919999992,50.27877919999992,50.27877919999992,50.27877919999992,50.27877919999992,f,0.5901587999996991,50.89616709999973,50.89616709999973,50.89616709999973,50.89616709999973,50.89616709999973,50.89616709999973,51.195527399999264,52.54486419999921,52.54486419999921,52.54486419999921,52.54486419999921,52.54486419999921,52.54486419999921,52.54486419999921,52.54486419999921,52.54486419999921,52.54486419999921,52.54486419999921,52.54486419999921,52.54486419999921,52.54486419999921,54.19302659999994,54.19302659999994,54.19302659999994,54.19302659999994,54.19302659999994,54.19302659999994,54.19302659999994,43,56,52,50,43,70,54.19302659999994,56.09460249999938,,,,,,,,,,,,３０６,f,２３,2023-05-18_13h06.54.816,RL,2022.2.5,60.159132937911544,
41,60,49,64,0,3,3,3,,,,,,,,,,,None,56.09460249999938,56.09460249999938,56.09460249999938,56.09460249999938,56.09460249999938,56.09460249999938,i,0.2974880000001576,56.41467409999859,56.41467409999859,56.41467409999859,56.41467409999859,56.41467409999859,56.41467409999859,56.69483559999935,58.67783829999826,58.71068749999904,58.71068749999904,58.71068749999904,58.71068749999904,58.71068749999904,58.71068749999904,58.71068749999904,58.71068749999904,58.71068749999904,58.71068749999904,58.71068749999904,58.71068749999904,58.71068749999904,60.99200109999947,60.99200109999947,60.99200109999947,60.99200109999947,60.99200109999947,60.99200109999947,60.99200109999947,41,60,49,64,49,70,60.99200109999947,62.726426499999434,,,,,,,,,,,,３０６,f,２３,2023-05-18_13h06.54.816,RL,2022.2.5,60.159132937911544,
37,56,58,56,0,4,4,4,,,,,,,,,,,None,62.726426499999434,62.726426499999434,62.726426499999434,62.726426499999434,62.726426499999434,62.726426499999434,j,0.44688850000056846,63.193772999999055,63.193772999999055,63.193772999999055,63.193772999999055,63.193772999999055,63.193772999999055,63.47674789999837,65.25978399999985,65.27663489999941,65.27663489999941,65.27663489999941,65.27663489999941,65.27663489999941,65.27663489999941,65.27663489999941,65.27663489999941,65.27663489999941,65.27663489999941,65.27663489999941,65.27663489999941,65.27663489999941,67.35742869999922,67.35742869999922,67.35742869999922,67.35742869999922,67.35742869999922,67.35742869999922,67.35742869999922,37,56,58,56,56,70,67.35742869999922,68.89231979999931,,,,,,,,,,,,３０６,f,２３,2023-05-18_13h06.54.816,RL,2022.2.5,60.159132937911544,
42,51,58,57,0,5,5,5,,,,,,,,,,,None,68.89231979999931,68.89231979999931,68.89231979999931,68.89231979999931,68.89231979999931,68.89231979999931,j,0.31349170000066806,69.22752019999825,69.22752019999825,69.22752019999825,69.22752019999825,69.22752019999825,69.22752019999825,69.50937879999947,71.49212609999995,71.50888909999958,71.50888909999958,71.50888909999958,71.50888909999958,71.50888909999958,71.50888909999958,71.50888909999958,71.50888909999958,71.50888909999958,71.50888909999958,71.50888909999958,71.50888909999958,71.50888909999958,73.79013119999945,73.79013119999945,73.79013119999945,73.79013119999945,73.79013119999945,73.79013119999945,73.79013119999945,42,51,58,57,57,70,73.79013119999945,75.39090169999872,,,,,,,,,,,,３０６,f,２３,2023-05-18_13h06.54.816,RL,2022.2.5,60.159132937911544,
35,52,64,49,0,6,6,6,,,,,,,,,,,None,75.39090169999872,75.39090169999872,75.39090169999872,75.39090169999872,75.39090169999872,75.39090169999872,j,0.558430999999473,75.9761882999992,75.9761882999992,75.9761882999992,75.9761882999992,75.9761882999992,75.9761882999992,76.2748460999992,77.1077725999985,77.1077725999985,77.1077725999985,77.1077725999985,77.1077725999985,77.1077725999985,77.1077725999985,77.1077725999985,77.1077725999985,77.1077725999985,77.1077725999985,77.1077725999985,77.1077725999985,77.1077725999985,78.23889879999842,78.23889879999842,78.23889879999842,78.23889879999842,78.23889879999842,78.23889879999842,78.23889879999842,35,52,64,49,49,70,78.23889879999842,79.97357429999829,,,,,,,,,,,,３０６,f,２３,2023-05-18_13h06.54.816,RL,2022.2.5,60.159132937911544,
44,48,62,60,0,7,7,7,,,,,,,,,,,None,79.97357429999829,79.97357429999829,79.97357429999829,79.97357429999829,79.97357429999829,79.97357429999829,i,1.0481205999985832,81.04135049999968,81.04135049999968,81.04135049999968,81.04135049999968,81.04135049999968,81.04135049999968,81.34014449999995,82.75636049999957,82.75636049999957,82.75636049999957,82.75636049999957,82.75636049999957,82.75636049999957,82.75636049999957,82.75636049999957,82.75636049999957,82.75636049999957,82.75636049999957,82.75636049999957,82.75636049999957,82.75636049999957,84.47156629999881,84.47156629999881,84.47156629999881,84.47156629999881,84.47156629999881,84.47156629999881,84.47156629999881,44,48,62,60,62,70,84.47156629999881,86.13929259999895,,,,,,,,,,,,３０６,f,２３,2023-05-18_13h06.54.816,RL,2022.2.5,60.159132937911544,
35,51,58,52,0,8,8,8,,,,,,,,,,,None,86.13929259999895,86.13929259999895,86.13929259999895,86.13929259999895,86.13929259999895,86.13929259999895,r,0.308819300000323,86.47290789999897,86.47290789999897,86.47290789999897,86.47290789999897,86.47290789999897,86.47290789999897,86.77271169999949,87.67248999999902,87.67248999999902,87.67248999999902,87.67248999999902,87.67248999999902,87.67248999999902,87.67248999999902,87.67248999999902,87.67248999999902,87.67248999999902,87.67248999999902,87.67248999999902,87.67248999999902,87.67248999999902,88.87062749999859,88.87062749999859,88.87062749999859,88.87062749999859,88.87062749999859,88.87062749999859,88.87062749999859,35,51,58,52,51,70,88.87062749999859,90.77174859999832,,,,,,,,,,,,３０６,f,２３,2023-05-18_13h06.54.816,RL,2022.2.5,60.159132937911544,
38,48,55,51,0,9,9,9,,,,,,,,,,,None,90.77174859999832,90.77174859999832,90.77174859999832,90.77174859999832,90.77174859999832,90.77174859999832,j,0.44258369999988645,91.23896859999877,91.23896859999877,91.23896859999877,91.23896859999877,91.23896859999877,91.23896859999877,91.52180809999845,92.38861349999934,92.40526059999866,92.40526059999866,92.40526059999866,92.40526059999866,92.40526059999866,92.40526059999866,92.40526059999866,92.40526059999866,92.40526059999866,92.40526059999866,92.40526059999866,92.40526059999866,92.40526059999866,93.5696398,93.5696398,93.5696398,93.5696398,93.5696398,93.5696398,93.5696398,38,48,55,51,51,70,93.5696398,95.50452210000003,,,,,,,,,,,,３０６,f,２３,2023-05-18_13h06.54.816,RL,2022.2.5,60.159132937911544,
36,40,57,53,0,10,10,10,,,,,,,,,,,None,95.50452210000003,95.50452210000003,95.50452210000003,95.50452210000003,95.50452210000003,95.50452210000003,r,0.25158379999993485,95.7954596999989,95.7954596999989,95.7954596999989,95.7954596999989,95.7954596999989,95.7954596999989,96.07112069999857,97.97071699999833,98.00378589999855,98.00378589999855,98.00378589999855,98.00378589999855,98.00378589999855,98.00378589999855,98.00378589999855,98.00378589999855,98.00378589999855,98.00378589999855,98.00378589999855,98.00378589999855,98.00378589999855,100.2020907999995,100.2020907999995,100.2020907999995,100.2020907999995,100.2020907999995,100.2020907999995,100.2020907999995,36,40,57,53,40,70,100.2020907999995,101.78642339999897,,,,,,,,,,,,３０６,f,２３,2023-05-18_13h06.54.816,RL,2022.2.5,60.159132937911544,
42,44,58,60,0,11,11,11,,,,,,,,,,,None,101.78642339999897,101.78642339999897,101.78642339999897,101.78642339999897,101.78642339999897,101.78642339999897,r,0.28075729999909527,102.08689929999855,102.08689929999855,102.08689929999855,102.08689929999855,102.08689929999855,102.08689929999855,102.3698833999988,104.31975829999828,104.33653849999973,104.33653849999973,104.33653849999973,104.33653849999973,104.33653849999973,104.33653849999973,104.33653849999973,104.33653849999973,104.33653849999973,104.33653849999973,104.33653849999973,104.33653849999973,104.33653849999973,106.58403589999944,106.58403589999944,106.58403589999944,106.58403589999944,106.58403589999944,106.58403589999944,106.58403589999944,42,44,58,60,44,70,106.58403589999944,108.5848391999989,,,,,,,,,,,,３０６,f,２３,2023-05-18_13h06.54.816,RL,2022.2.5,60.159132937911544,
43,41,53,57,0,12,12,12,,,,,,,,,,,None,108.5848391999989,108.5848391999989,108.5848391999989,108.5848391999989,108.5848391999989,108.5848391999989,r,0.31590979999964475,108.91981199999827,108.91981199999827,108.91981199999827,108.91981199999827,108.91981199999827,108.91981199999827,109.21864789999927,110.41828739999983,110.41828739999983,110.41828739999983,110.41828739999983,110.41828739999983,110.41828739999983,110.41828739999983,110.41828739999983,110.41828739999983,110.41828739999983,110.41828739999983,110.41828739999983,110.41828739999983,110.41828739999983,111.91671829999905,111.91671829999905,111.91671829999905,111.91671829999905,111.91671829999905,111.91671829999905,111.91671829999905,43,41,53,57,41,70,111.91671829999905,113.53460249999989,,,,,,,,,,,,３０６,f,２３,2023-05-18_13h06.54.816,RL,2022.2.5,60.159132937911544,
44,37,54,60,0,13,13,13,,,,,,,,,,,None,113.53460249999989,113.53460249999989,113.53460249999989,113.53460249999989,113.53460249999989,113.53460249999989,i,0.4280677000006108,113.98647299999902,113.98647299999902,113.98647299999902,113.98647299999902,113.98647299999902,113.98647299999902,114.26790249999976,115.85105359999943,115.86736189999829,115.86736189999829,115.86736189999829,115.86736189999829,115.86736189999829,115.86736189999829,115.86736189999829,115.86736189999829,115.86736189999829,115.86736189999829,115.86736189999829,115.86736189999829,115.86736189999829,117.7493461999984,117.7493461999984,117.7493461999984,117.7493461999984,117.7493461999984,117.7493461999984,117.7493461999984,44,37,54,60,54,70,117.7493461999984,119.66655379999975,,,,,,,,,,,,３０６,f,２３,2023-05-18_13h06.54.816,RL,2022.2.5,60.159132937911544,
57,47,55,55,0,14,14,14,,,,,,,,,,,None,119.66655379999975,119.66655379999975,119.66655379999975,119.66655379999975,119.66655379999975,119.66655379999975,i,0.3488782000003994,120.03365499999927,120.03365499999927,120.03365499999927,120.03365499999927,120.03365499999927,120.03365499999927,120.31665599999906,122.23327489999974,122.249474799999,122.249474799999,122.249474799999,122.249474799999,122.249474799999,122.249474799999,122.249474799999,122.249474799999,122.249474799999,122.249474799999,122.249474799999,122.249474799999,122.249474799999,124.4645075999997,124.4645075999997,124.4645075999997,124.4645075999997,124.4645075999997,124.4645075999997,124.4645075999997,57,47,55,55,55,70,124.4645075999997,126.31574199999886,,,,,,,,,,,,３０６,f,２３,2023-05-18_13h06.54.816,RL,2022.2.5,60.159132937911544,
44,53,55,55,0,15,15,15,,,,,,,,,,,None,126.31574199999886,126.31574199999886,126.31574199999886,126.31574199999886,126.31574199999886,126.31574199999886,j,0.27039130000048317,126.61597369999981,126.61597369999981,126.61597369999981,126.61597369999981,126.61597369999981,126.61597369999981,126.91577309999957,127.78231400000004,127.78231400000004,127.78231400000004,127.78231400000004,127.78231400000004,127.78231400000004,127.78231400000004,127.78231400000004,127.78231400000004,127.78231400000004,127.78231400000004,127.78231400000004,127.78231400000004,127.78231400000004,128.9470741999994,128.9470741999994,128.9470741999994,128.9470741999994,128.9470741999994,128.9470741999994,128.9470741999994,44,53,55,55,55,70,128.9470741999994,130.78146070000003,,,,,,,,,,,,３０６,f,２３,2023-05-18_13h06.54.816,RL,2022.2.5,60.159132937911544,
51,43,63,55,0,16,16,16,,,,,,,,,,,None,130.78146070000003,130.78146070000003,130.78146070000003,130.78146070000003,130.78146070000003,130.78146070000003,f,0.23621579999962705,131.0485878999989,131.0485878999989,131.0485878999989,131.0485878999989,131.0485878999989,131.0485878999989,131.33209519999946,132.41481909999857,132.43141469999864,132.43141469999864,132.43141469999864,132.43141469999864,132.43141469999864,132.43141469999864,132.43141469999864,132.43141469999864,132.43141469999864,132.43141469999864,132.43141469999864,132.43141469999864,132.43141469999864,133.81290829999853,133.81290829999853,133.81290829999853,133.81290829999853,133.81290829999853,133.81290829999853,133.81290829999853,51,43,63,55,51,70,133.81290829999853,135.6307971999995,,,,,,,,,,,,３０６,f,２３,2023-05-18_13h06.54.816,RL,2022.2.5,60.159132937911544,
47,33,53,59,0,17,17,17,,,,,,,,,,,None,135.6307971999995,135.6307971999995,135.6307971999995,135.6307971999995,135.6307971999995,135.6307971999995,j,0.26229609999973036,135.9155185999989,135.9155185999989,135.9155185999989,135.9155185999989,135.9155185999989,135.9155185999989,136.2145299999993,138.0971075999987,138.0971075999987,138.0971075999987,138.0971075999987,138.0971075999987,138.0971075999987,138.0971075999987,138.0971075999987,138.0971075999987,138.0971075999987,138.0971075999987,138.0971075999987,138.0971075999987,138.0971075999987,140.27865909999855,140.27865909999855,140.27865909999855,140.27865909999855,140.27865909999855,140.27865909999855,140.27865909999855,47,33,53,59,59,70,140.27865909999855,141.99597809999977,,,,,,,,,,,,３０６,f,２３,2023-05-18_13h06.54.816,RL,2022.2.5,60.159132937911544,
53,42,54,53,0,18,18,18,,,,,,,,,,,None,141.99597809999977,141.99597809999977,141.99597809999977,141.99597809999977,141.99597809999977,141.99597809999977,i,0.38856250000026193,142.41351759999998,142.41351759999998,142.41351759999998,142.41351759999998,142.41351759999998,142.41351759999998,142.69606769999882,144.14600149999933,144.1627211999985,144.1627211999985,144.1627211999985,144.1627211999985,144.1627211999985,144.1627211999985,144.1627211999985,144.1627211999985,144.1627211999985,144.1627211999985,144.1627211999985,144.1627211999985,144.1627211999985,145.91065379999964,145.91065379999964,145.91065379999964,145.91065379999964,145.91065379999964,145.91065379999964,145.91065379999964,53,42,54,53,54,70,145.91065379999964,147.57850449999933,,,,,,,,,,,,３０６,f,２３,2023-05-18_13h06.54.816,RL,2022.2.5,60.159132937911544,
60,43,51,52,0,19,19,19,,,,,,,,,,,None,147.57850449999933,147.57850449999933,147.57850449999933,147.57850449999933,147.57850449999933,147.57850449999933,j,0.4441624999999476,148.04553769999984,148.04553769999984,148.04553769999984,148.04553769999984,148.04553769999984,148.04553769999984,148.32862039999964,149.47836009999992,149.49491709999893,149.49491709999893,149.49491709999893,149.49491709999893,149.49491709999893,149.49491709999893,149.49491709999893,149.49491709999893,149.49491709999893,149.49491709999893,149.49491709999893,149.49491709999893,149.49491709999893,150.94310759999826,150.94310759999826,150.94310759999826,150.94310759999826,150.94310759999826,150.94310759999826,150.94310759999826,60,43,51,52,52,70,150.94310759999826,152.59429789999922,,,,,,,,,,,,３０６,f,２３,2023-05-18_13h06.54.816,RL,2022.2.5,60.159132937911544,
54,43,49,57,0,20,20,20,,,,,,,,,,,None,152.59429789999922,152.59429789999922,152.59429789999922,152.59429789999922,152.59429789999922,152.59429789999922,i,0.3510881000001973,152.98139229999833,152.98139229999833,152.98139229999833,152.98139229999833,152.98139229999833,152.98139229999833,153.26121089999833,154.094852799999,154.11131439999917,154.11131439999917,154.11131439999917,154.11131439999917,154.11131439999917,154.11131439999917,154.11131439999917,154.11131439999917,154.11131439999917,154.11131439999917,154.11131439999917,154.11131439999917,154.11131439999917,155.24233919999824,155.24233919999824,155.24233919999824,155.24233919999824,155.24233919999824,155.24233919999824,155.24233919999824,54,43,49,57,49,70,155.24233919999824,157.11050719999912,,,,,,,,,,,,３０６,f,２３,2023-05-18_13h06.54.816,RL,2022.2.5,60.159132937911544,
51,41,44,46,0,21,21,21,,,,,,,,,,,None,157.11050719999912,157.11050719999912,157.11050719999912,157.11050719999912,157.11050719999912,157.11050719999912,i,0.2111043000004429,157.34414259999903,157.34414259999903,157.34414259999903,157.34414259999903,157.34414259999903,157.34414259999903,157.62731859999985,159.02705969999988,159.0435970999988,159.0435970999988,159.0435970999988,159.0435970999988,159.0435970999988,159.0435970999988,159.0435970999988,159.0435970999988,159.0435970999988,159.0435970999988,159.0435970999988,159.0435970999988,159.0435970999988,160.74100709999948,160.74100709999948,160.74100709999948,160.74100709999948,160.74100709999948,160.74100709999948,160.74100709999948,51,41,44,46,44,70,160.74100709999948,162.57605089999925,,,,,,,,,,,,３０６,f,２３,2023-05-18_13h06.54.816,RL,2022.2.5,60.159132937911544,
55,40,56,46,0,22,22,22,,,,,,,,,,,None,162.57605089999925,162.57605089999925,162.57605089999925,162.57605089999925,162.57605089999925,162.57605089999925,r,0.46191019999969285,163.06169369999952,163.06169369999952,163.06169369999952,163.06169369999952,163.06169369999952,163.06169369999952,163.3427987999985,165.15894429999935,165.17550759999904,165.17550759999904,165.17550759999904,165.17550759999904,165.17550759999904,165.17550759999904,165.17550759999904,165.17550759999904,165.17550759999904,165.17550759999904,165.17550759999904,165.17550759999904,165.17550759999904,167.29035099999965,167.29035099999965,167.29035099999965,167.29035099999965,167.29035099999965,167.29035099999965,167.29035099999965,55,40,56,46,40,70,167.29035099999965,168.95782719999988,,,,,,,,,,,,３０６,f,２３,2023-05-18_13h06.54.816,RL,2022.2.5,60.159132937911544,
49,49,57,45,0,23,23,23,,,,,,,,,,,None,168.95782719999988,168.95782719999988,168.95782719999988,168.95782719999988,168.95782719999988,168.95782719999988,j,0.27981809999982943,169.26061459999983,169.26061459999983,169.26061459999983,169.26061459999983,169.26061459999983,169.26061459999983,169.54194479999933,171.07461729999886,171.0912644,171.0912644,171.0912644,171.0912644,171.0912644,171.0912644,171.0912644,171.0912644,171.0912644,171.0912644,171.0912644,171.0912644,171.0912644,172.92249139999876,172.92249139999876,172.92249139999876,172.92249139999876,172.92249139999876,172.92249139999876,172.92249139999876,49,49,57,45,45,70,172.92249139999876,174.69069249999848,,,,,,,,,,,,３０６,f,２３,2023-05-18_13h06.54.816,RL,2022.2.5,60.159132937911544,
58,43,52,44,0,24,24,24,,,,,,,,,,,None,174.69069249999848,174.69069249999848,174.69069249999848,174.69069249999848,174.69069249999848,174.69069249999848,j,0.36022480000065116,175.07603049999852,175.07603049999852,175.07603049999852,175.07603049999852,175.07603049999852,175.07603049999852,175.35756239999864,177.02376189999995,177.04027759999917,177.04027759999917,177.04027759999917,177.04027759999917,177.04027759999917,177.04027759999917,177.04027759999917,177.04027759999917,177.04027759999917,177.04027759999917,177.04027759999917,177.04027759999917,177.04027759999917,179.00488419999965,179.00488419999965,179.00488419999965,179.00488419999965,179.00488419999965,179.00488419999965,179.00488419999965,58,43,52,44,44,70,179.00488419999965,180.6893205999986,,,,,,,,,,,,３０６,f,２３,2023-05-18_13h06.54.816,RL,2022.2.5,60.159132937911544,
52,40,48,54,0,25,25,25,,,,,,,,,,,None,180.6893205999986,180.6893205999986,180.6893205999986,180.6893205999986,180.6893205999986,180.6893205999986,i,0.26647980000052485,180.99808569999914,180.99808569999914,180.99808569999914,180.99808569999914,180.99808569999914,180.99808569999914,181.27324169999883,182.30645259999983,182.3391372999995,182.3391372999995,182.3391372999995,182.3391372999995,182.3391372999995,182.3391372999995,182.3391372999995,182.3391372999995,182.3391372999995,182.3391372999995,182.3391372999995,182.3391372999995,182.3391372999995,183.67094779999934,183.67094779999934,183.67094779999934,183.67094779999934,183.67094779999934,183.67094779999934,183.67094779999934,52,40,48,54,48,70,183.67094779999934,185.32177049999882,,,,,,,,,,,,３０６,f,２３,2023-05-18_13h06.54.816,RL,2022.2.5,60.159132937911544,
47,47,52,48,0,26,26,26,,,,,,,,,,,None,185.32177049999882,185.32177049999882,185.32177049999882,185.32177049999882,185.32177049999882,185.32177049999882,r,0.31484920000002603,185.6575185999991,185.6575185999991,185.6575185999991,185.6575185999991,185.6575185999991,185.6575185999991,185.95538359999955,187.27200509999966,187.27200509999966,187.27200509999966,187.27200509999966,187.27200509999966,187.27200509999966,187.27200509999966,187.27200509999966,187.27200509999966,187.27200509999966,187.27200509999966,187.27200509999966,187.27200509999966,187.27200509999966,188.88668589999907,188.88668589999907,188.88668589999907,188.88668589999907,188.88668589999907,188.88668589999907,188.88668589999907,47,47,52,48,47,70,188.88668589999907,190.8372847999999,,,,,,,,,,,,３０６,f,２３,2023-05-18_13h06.54.816,RL,2022.2.5,60.159132937911544,
53,42,49,51,0,27,27,27,,,,,,,,,,,None,190.8372847999999,190.8372847999999,190.8372847999999,190.8372847999999,190.8372847999999,190.8372847999999,f,0.28866500000003725,191.15484679999827,191.15484679999827,191.15484679999827,191.15484679999827,191.15484679999827,191.15484679999827,191.4381618999996,192.92134749999968,192.93756009999925,192.93756009999925,192.93756009999925,192.93756009999925,192.93756009999925,192.93756009999925,192.93756009999925,192.93756009999925,192.93756009999925,192.93756009999925,192.93756009999925,192.93756009999925,192.93756009999925,194.7186649999985,194.7186649999985,194.7186649999985,194.7186649999985,194.7186649999985,194.7186649999985,194.7186649999985,53,42,49,51,53,70,194.7186649999985,196.30311079999956,,,,,,,,,,,,３０６,f,２３,2023-05-18_13h06.54.816,RL,2022.2.5,60.159132937911544,
47,40,56,48,0,28,28,28,,,,,,,,,,,None,196.30311079999956,196.30311079999956,196.30311079999956,196.30311079999956,196.30311079999956,196.30311079999956,i,0.24787319999995816,196.5722044999984,196.5722044999984,196.5722044999984,196.5722044999984,196.5722044999984,196.5722044999984,196.87062089999927,197.88689899999918,197.88689899999918,197.88689899999918,197.88689899999918,197.88689899999918,197.88689899999918,197.88689899999918,197.88689899999918,197.88689899999918,197.88689899999918,197.88689899999918,197.88689899999918,197.88689899999918,197.88689899999918,199.2016152999986,199.2016152999986,199.2016152999986,199.2016152999986,199.2016152999986,199.2016152999986,199.2016152999986,47,40,56,48,56,70,199.2016152999986,201.20229189999918,,,,,,,,,,,,３０６,f,２３,2023-05-18_13h06.54.816,RL,2022.2.5,60.159132937911544,
46,41,59,53,0,29,29,29,,,,,,,,,,,None,201.20229189999918,201.20229189999918,201.20229189999918,201.20229189999918,201.20229189999918,201.20229189999918,j,0.27884290000110923,201.50461769999856,201.50461769999856,201.50461769999856,201.50461769999856,201.50461769999856,201.50461769999856,201.80256519999966,203.76914539999962,203.76914539999962,203.76914539999962,203.76914539999962,203.76914539999962,203.76914539999962,203.76914539999962,203.76914539999962,203.76914539999962,203.76914539999962,203.76914539999962,203.76914539999962,203.76914539999962,203.76914539999962,206.033411299999,206.033411299999,206.033411299999,206.033411299999,206.033411299999,206.033411299999,206.033411299999,46,41,59,53,53,70,206.033411299999,207.85111629999847,,,,,,,,,,,,３０６,f,２３,2023-05-18_13h06.54.816,RL,2022.2.5,60.159132937911544,
54,44,56,45,0,30,30,30,,,,,,,,,,,None,207.85111629999847,207.85111629999847,207.85111629999847,207.85111629999847,207.85111629999847,207.85111629999847,r,0.2222885999999562,208.10327589999906,208.10327589999906,208.10327589999906,208.10327589999906,208.10327589999906,208.10327589999906,208.38520509999944,209.45151289999922,209.46805379999932,209.46805379999932,209.46805379999932,209.46805379999932,209.46805379999932,209.46805379999932,209.46805379999932,209.46805379999932,209.46805379999932,209.46805379999932,209.46805379999932,209.46805379999932,209.46805379999932,210.8330210999993,210.8330210999993,210.8330210999993,210.8330210999993,210.8330210999993,210.8330210999993,210.8330210999993,54,44,56,45,44,70,210.8330210999993,212.45029299999987,,,,,,,,,,,,３０６,f,２３,2023-05-18_13h06.54.816,RL,2022.2.5,60.159132937911544,
51,42,55,44,0,31,31,31,,,,,,,,,,,None,212.45029299999987,212.45029299999987,212.45029299999987,212.45029299999987,212.45029299999987,212.45029299999987,i,0.5548424999997223,213.03441380000004,213.03441380000004,213.03441380000004,213.03441380000004,213.03441380000004,213.03441380000004,213.31753639999988,214.38400509999883,214.4003604999998,214.4003604999998,214.4003604999998,214.4003604999998,214.4003604999998,214.4003604999998,214.4003604999998,214.4003604999998,214.4003604999998,214.4003604999998,214.4003604999998,214.4003604999998,214.4003604999998,215.76541299999917,215.76541299999917,215.76541299999917,215.76541299999917,215.76541299999917,215.76541299999917,215.76541299999917,51,42,55,44,55,70,215.76541299999917,217.69933479999963,,,,,,,,,,,,３０６,f,２３,2023-05-18_13h06.54.816,RL,2022.2.5,60.159132937911544,
51,43,62,44,0,32,32,32,,,,,,,,,,,None,217.69933479999963,217.69933479999963,217.69933479999963,217.69933479999963,217.69933479999963,217.69933479999963,j,0.20933450000120501,217.9358734999987,217.9358734999987,217.9358734999987,217.9358734999987,217.9358734999987,217.9358734999987,218.23333869999988,219.1662450999993,219.1662450999993,219.1662450999993,219.1662450999993,219.1662450999993,219.1662450999993,219.1662450999993,219.1662450999993,219.1662450999993,219.1662450999993,219.1662450999993,219.1662450999993,219.1662450999993,219.1662450999993,220.39800979999927,220.39800979999927,220.39800979999927,220.39800979999927,220.39800979999927,220.39800979999927,220.39800979999927,51,43,62,44,44,70,220.39800979999927,222.09917499999938,,,,,,,,,,,,３０６,f,２３,2023-05-18_13h06.54.816,RL,2022.2.5,60.159132937911544,
61,38,40,44,0,33,33,33,,,,,,,,,,,None,222.09917499999938,222.09917499999938,222.09917499999938,222.09917499999938,222.09917499999938,222.09917499999938,j,0.22541289999935543,222.34949689999848,222.34949689999848,222.34949689999848,222.34949689999848,222.34949689999848,222.34949689999848,222.64946619999864,223.81549259999883,223.81549259999883,223.81549259999883,223.81549259999883,223.81549259999883,223.81549259999883,223.81549259999883,223.81549259999883,223.81549259999883,223.81549259999883,223.81549259999883,223.81549259999883,223.81549259999883,223.81549259999883,225.28023349999967,225.28023349999967,225.28023349999967,225.28023349999967,225.28023349999967,225.28023349999967,225.28023349999967,61,38,40,44,44,70,225.28023349999967,227.1982973999984,,,,,,,,,,,,３０６,f,２３,2023-05-18_13h06.54.816,RL,2022.2.5,60.159132937911544,
46,33,46,55,0,34,34,34,,,,,,,,,,,None,227.1982973999984,227.1982973999984,227.1982973999984,227.1982973999984,227.1982973999984,227.1982973999984,j,0.3214712999997573,227.54979439999988,227.54979439999988,227.54979439999988,227.54979439999988,227.54979439999988,227.54979439999988,227.83159569999953,228.99830679999832,229.01482279999982,229.01482279999982,229.01482279999982,229.01482279999982,229.01482279999982,229.01482279999982,229.01482279999982,229.01482279999982,229.01482279999982,229.01482279999982,229.01482279999982,229.01482279999982,229.01482279999982,230.4798452999985,230.4798452999985,230.4798452999985,230.4798452999985,230.4798452999985,230.4798452999985,230.4798452999985,46,33,46,55,55,70,230.4798452999985,232.31352009999864,,,,,,,,,,,,３０６,f,２３,2023-05-18_13h06.54.816,RL,2022.2.5,60.159132937911544,
66,30,46,61,0,35,35,35,,,,,,,,,,,None,232.31352009999864,232.31352009999864,232.31352009999864,232.31352009999864,232.31352009999864,232.31352009999864,i,0.23630950000006123,232.58391309999934,232.58391309999934,232.58391309999934,232.58391309999934,232.58391309999934,232.58391309999934,232.86398269999881,234.8468073999993,234.86375439999938,234.86375439999938,234.86375439999938,234.86375439999938,234.86375439999938,234.86375439999938,234.86375439999938,234.86375439999938,234.86375439999938,234.86375439999938,234.86375439999938,234.86375439999938,234.86375439999938,237.14517149999847,237.14517149999847,237.14517149999847,237.14517149999847,237.14517149999847,237.14517149999847,237.14517149999847,66,30,46,61,46,70,237.14517149999847,238.77897999999914,,,,,,,,,,,,３０６,f,２３,2023-05-18_13h06.54.816,RL,2022.2.5,60.159132937911544,
58,36,37,56,0,36,36,36,,,,,,,,,,,None,238.77897999999914,238.77897999999914,238.77897999999914,238.77897999999914,238.77897999999914,238.77897999999914,f,0.21509470000091824,239.01407609999842,239.01407609999842,239.01407609999842,239.01407609999842,239.01407609999842,239.01407609999842,239.31287209999937,241.0123223999999,241.0123223999999,241.0123223999999,241.0123223999999,241.0123223999999,241.0123223999999,241.0123223999999,241.0123223999999,241.0123223999999,241.0123223999999,241.0123223999999,241.0123223999999,241.0123223999999,241.0123223999999,243.01072329999988,243.01072329999988,243.01072329999988,243.01072329999988,243.01072329999988,243.01072329999988,243.01072329999988,58,36,37,56,58,70,243.01072329999988,244.99525240000003,,,,,,,,,,,,３０６,f,２３,2023-05-18_13h06.54.816,RL,2022.2.5,60.159132937911544,
59,31,58,59,0,37,37,37,,,,,,,,,,,None,244.99525240000003,244.99525240000003,244.99525240000003,244.99525240000003,244.99525240000003,244.99525240000003,i,0.22045099999922968,245.24572679999983,245.24572679999983,245.24572679999983,245.24572679999983,245.24572679999983,245.24572679999983,245.5283686999992,246.97810559999925,246.99488609999935,246.99488609999935,246.99488609999935,246.99488609999935,246.99488609999935,246.99488609999935,246.99488609999935,246.99488609999935,246.99488609999935,246.99488609999935,246.99488609999935,246.99488609999935,246.99488609999935,248.74267419999887,248.74267419999887,248.74267419999887,248.74267419999887,248.74267419999887,248.74267419999887,248.74267419999887,59,31,58,59,58,70,248.74267419999887,250.46043119999922,,,,,,,,,,,,３０６,f,２３,2023-05-18_13h06.54.816,RL,2022.2.5,60.159132937911544,
56,33,45,63,0,38,38,38,,,,,,,,,,,None,250.46043119999922,250.46043119999922,250.46043119999922,250.46043119999922,250.46043119999922,250.46043119999922,j,0.295402900001136,250.77764519999982,250.77764519999982,250.77764519999982,250.77764519999982,250.77764519999982,250.77764519999982,251.0610459999989,252.64414979999856,252.6605456999987,252.6605456999987,252.6605456999987,252.6605456999987,252.6605456999987,252.6605456999987,252.6605456999987,252.6605456999987,252.6605456999987,252.6605456999987,252.6605456999987,252.6605456999987,252.6605456999987,254.54213319999872,254.54213319999872,254.54213319999872,254.54213319999872,254.54213319999872,254.54213319999872,254.54213319999872,56,33,45,63,63,70,254.54213319999872,256.4929945999993,,,,,,,,,,,,３０６,f,２３,2023-05-18_13h06.54.816,RL,2022.2.5,60.159132937911544,
56,29,47,70,0,39,39,39,,,,,,,,,,,None,256.4929945999993,256.4929945999993,256.4929945999993,256.4929945999993,256.4929945999993,256.4929945999993,r,0.2218248000008316,256.7446567999996,256.7446567999996,256.7446567999996,256.7446567999996,256.7446567999996,256.7446567999996,257.02686679999897,258.8760485999992,258.8926888999995,258.8926888999995,258.8926888999995,258.8926888999995,258.8926888999995,258.8926888999995,258.8926888999995,258.8926888999995,258.8926888999995,258.8926888999995,258.8926888999995,258.8926888999995,258.8926888999995,261.04032839999854,261.04032839999854,261.04032839999854,261.04032839999854,261.04032839999854,261.04032839999854,261.04032839999854,56,29,47,70,29,70,261.04032839999854,262.6083807999985,,,,,,,,,,,,３０６,f,２３,2023-05-18_13h06.54.816,RL,2022.2.5,60.159132937911544,
57,37,55,62,0,40,40,40,,,,,,,,,,,None,262.6083807999985,262.6083807999985,262.6083807999985,262.6083807999985,262.6083807999985,262.6083807999985,i,0.4931519000001572,263.12562759999855,263.12562759999855,263.12562759999855,263.12562759999855,263.12562759999855,263.12562759999855,263.40865439999834,264.4419805999987,264.45872710000003,264.45872710000003,264.45872710000003,264.45872710000003,264.45872710000003,264.45872710000003,264.45872710000003,264.45872710000003,264.45872710000003,264.45872710000003,264.45872710000003,264.45872710000003,264.45872710000003,265.78991179999866,265.78991179999866,265.78991179999866,265.78991179999866,265.78991179999866,265.78991179999866,265.78991179999866,57,37,55,62,55,70,265.78991179999866,267.65793569999914,,,,,,,,,,,,３０６,f,２３,2023-05-18_13h06.54.816,RL,2022.2.5,60.159132937911544,
48,48,55,80,0,41,41,41,,,,,,,,,,,None,267.65793569999914,267.65793569999914,267.65793569999914,267.65793569999914,267.65793569999914,267.65793569999914,j,0.3544705000003887,268.04293619999953,268.04293619999953,268.04293619999953,268.04293619999953,268.04293619999953,268.04293619999953,268.34124669999983,269.5246412999986,269.5409979999986,269.5409979999986,269.5409979999986,269.5409979999986,269.5409979999986,269.5409979999986,269.5409979999986,269.5409979999986,269.5409979999986,269.5409979999986,269.5409979999986,269.5409979999986,269.5409979999986,271.02241819999836,271.02241819999836,271.02241819999836,271.02241819999836,271.02241819999836,271.02241819999836,271.02241819999836,48,48,55,80,80,70,271.02241819999836,272.77321589999883,,,,,,,,,,,,３０６,f,２３,2023-05-18_13h06.54.816,RL,2022.2.5,60.159132937911544,
44,37,59,66,0,42,42,42,,,,,,,,,,,None,272.77321589999883,272.77321589999883,272.77321589999883,272.77321589999883,272.77321589999883,272.77321589999883,i,0.43027210000036575,273.2262837999988,273.2262837999988,273.2262837999988,273.2262837999988,273.2262837999988,273.2262837999988,273.50701879999906,274.32352059999903,274.35655529999894,274.35655529999894,274.35655529999894,274.35655529999894,274.35655529999894,274.35655529999894,274.35655529999894,274.35655529999894,274.35655529999894,274.35655529999894,274.35655529999894,274.35655529999894,274.35655529999894,275.47150319999855,275.47150319999855,275.47150319999855,275.47150319999855,275.47150319999855,275.47150319999855,275.47150319999855,44,37,59,66,59,70,275.47150319999855,277.0727610999984,,,,,,,,,,,,３０６,f,２３,2023-05-18_13h06.54.816,RL,2022.2.5,60.159132937911544,
47,44,45,70,0,43,43,43,,,,,,,,,,,None,277.0727610999984,277.0727610999984,277.0727610999984,277.0727610999984,277.0727610999984,277.0727610999984,f,0.22088309999890043,277.32360099999823,277.32360099999823,277.32360099999823,277.32360099999823,277.32360099999823,277.32360099999823,277.6061243999993,279.2393811999991,279.25632939999923,279.25632939999923,279.25632939999923,279.25632939999923,279.25632939999923,279.25632939999923,279.25632939999923,279.25632939999923,279.25632939999923,279.25632939999923,279.25632939999923,279.25632939999923,279.25632939999923,281.18752349999886,281.18752349999886,281.18752349999886,281.18752349999886,281.18752349999886,281.18752349999886,281.18752349999886,47,44,45,70,47,70,281.18752349999886,283.03840539999874,,,,,,,,,,,,３０６,f,２３,2023-05-18_13h06.54.816,RL,2022.2.5,60.159132937911544,
55,36,49,69,0,44,44,44,,,,,,,,,,,None,283.03840539999874,283.03840539999874,283.03840539999874,283.03840539999874,283.03840539999874,283.03840539999874,j,0.1487875000002532,283.2055995999999,283.2055995999999,283.2055995999999,283.2055995999999,283.2055995999999,283.2055995999999,283.48859359999915,284.62158139999883,284.63820609999857,284.63820609999857,284.63820609999857,284.63820609999857,284.63820609999857,284.63820609999857,284.63820609999857,284.63820609999857,284.63820609999857,284.63820609999857,284.63820609999857,284.63820609999857,284.63820609999857,286.06967579999946,286.06967579999946,286.06967579999946,286.06967579999946,286.06967579999946,286.06967579999946,286.06967579999946,55,36,49,69,69,70,286.06967579999946,288.03708109999934,,,,,,,,,,,,３０６,f,２３,2023-05-18_13h06.54.816,RL,2022.2.5,60.159132937911544,
53,43,45,65,0,45,45,45,,,,,,,,,,,None,288.03708109999934,288.03708109999934,288.03708109999934,288.03708109999934,288.03708109999934,288.03708109999934,j,0.21772280000004685,288.2917005999989,288.2917005999989,288.2917005999989,288.2917005999989,288.2917005999989,288.2917005999989,288.5871669999997,290.25409149999905,290.25409149999905,290.25409149999905,290.25409149999905,290.25409149999905,290.25409149999905,290.25409149999905,290.25409149999905,290.25409149999905,290.25409149999905,290.25409149999905,290.25409149999905,290.25409149999905,290.25409149999905,292.21902469999986,292.21902469999986,292.21902469999986,292.21902469999986,292.21902469999986,292.21902469999986,292.21902469999986,53,43,45,65,65,70,292.21902469999986,294.0532190999984,,,,,,,,,,,,３０６,f,２３,2023-05-18_13h06.54.816,RL,2022.2.5,60.159132937911544,
40,47,44,79,0,46,46,46,,,,,,,,,,,None,294.0532190999984,294.0532190999984,294.0532190999984,294.0532190999984,294.0532190999984,294.0532190999984,j,0.2062050000004092,294.28872259999844,294.28872259999844,294.28872259999844,294.28872259999844,294.28872259999844,294.28872259999844,294.58655,296.0530545999991,296.0530545999991,296.0530545999991,296.0530545999991,296.0530545999991,296.0530545999991,296.0530545999991,296.0530545999991,296.0530545999991,296.0530545999991,296.0530545999991,296.0530545999991,296.0530545999991,296.0530545999991,297.81765109999833,297.81765109999833,297.81765109999833,297.81765109999833,297.81765109999833,297.81765109999833,297.81765109999833,40,47,44,79,79,70,297.81765109999833,299.81846959999893,,,,,,,,,,,,３０６,f,２３,2023-05-18_13h06.54.816,RL,2022.2.5,60.159132937911544,
49,44,47,68,0,47,47,47,,,,,,,,,,,None,299.81846959999893,299.81846959999893,299.81846959999893,299.81846959999893,299.81846959999893,299.81846959999893,j,0.21782720000010158,300.0748730999985,300.0748730999985,300.0748730999985,300.0748730999985,300.0748730999985,300.0748730999985,300.35222239999894,302.2853189999987,302.31866269999955,302.31866269999955,302.31866269999955,302.31866269999955,302.31866269999955,302.31866269999955,302.31866269999955,302.31866269999955,302.31866269999955,302.31866269999955,302.31866269999955,302.31866269999955,302.31866269999955,304.5500493999989,304.5500493999989,304.5500493999989,304.5500493999989,304.5500493999989,304.5500493999989,304.5500493999989,49,44,47,68,68,70,304.5500493999989,306.4178237999986,,,,,,,,,,,,３０６,f,２３,2023-05-18_13h06.54.816,RL,2022.2.5,60.159132937911544,
48,48,50,80,0,48,48,48,,,,,,,,,,,None,306.4178237999986,306.4178237999986,306.4178237999986,306.4178237999986,306.4178237999986,306.4178237999986,j,0.25024459999985993,306.704952099999,306.704952099999,306.704952099999,306.704952099999,306.704952099999,306.704952099999,307.00130889999855,308.51752209999904,308.51752209999904,308.51752209999904,308.51752209999904,308.51752209999904,308.51752209999904,308.51752209999904,308.51752209999904,308.51752209999904,308.51752209999904,308.51752209999904,308.51752209999904,308.51752209999904,308.51752209999904,310.33193259999825,310.33193259999825,310.33193259999825,310.33193259999825,310.33193259999825,310.33193259999825,310.33193259999825,48,48,50,80,80,70,310.33193259999825,312.29987659999824,,,,,,,,,,,,３０６,f,２３,2023-05-18_13h06.54.816,RL,2022.2.5,60.159132937911544,
41,42,52,85,0,49,49,49,,,,,,,,,,,None,312.29987659999824,312.29987659999824,312.29987659999824,312.29987659999824,312.29987659999824,312.29987659999824,j,0.24855589999970107,312.56929820000005,312.56929820000005,312.56929820000005,312.56929820000005,312.56929820000005,312.56929820000005,312.86684029999924,313.9832968999999,313.9832968999999,313.9832968999999,313.9832968999999,313.9832968999999,313.9832968999999,313.9832968999999,313.9832968999999,313.9832968999999,313.9832968999999,313.9832968999999,313.9832968999999,313.9832968999999,313.9832968999999,315.39908849999847,315.39908849999847,315.39908849999847,315.39908849999847,315.39908849999847,315.39908849999847,315.39908849999847,41,42,52,85,85,70,315.39908849999847,317.06568699999843,,,,,,,,,,,,３０６,f,２３,2023-05-18_13h06.54.816,RL,2022.2.5,60.159132937911544,
50,38,53,78,0,50,50,50,,,,,,,,,,,None,317.06568699999843,317.06568699999843,317.06568699999843,317.06568699999843,317.06568699999843,317.06568699999843,j,0.4267813999995269,317.52081409999846,317.52081409999846,317.52081409999846,317.52081409999846,317.52081409999846,317.52081409999846,317.7996781999991,318.9993399999985,319.03215519999867,319.03215519999867,319.03215519999867,319.03215519999867,319.03215519999867,319.03215519999867,319.03215519999867,319.03215519999867,319.03215519999867,319.03215519999867,319.03215519999867,319.03215519999867,319.03215519999867,320.53046619999986,320.53046619999986,320.53046619999986,320.53046619999986,320.53046619999986,320.53046619999986,320.53046619999986,50,38,53,78,78,70,320.53046619999986,322.53133009999874,,,,,,,,,,,,３０６,f,２３,2023-05-18_13h06.54.816,RL,2022.2.5,60.159132937911544,
57,53,48,76,0,51,51,51,,,,,,,,,,,None,322.53133009999874,322.53133009999874,322.53133009999874,322.53133009999874,322.53133009999874,322.53133009999874,j,0.489210899999307,323.0537368999994,323.0537368999994,323.0537368999994,323.0537368999994,323.0537368999994,323.0537368999994,323.34863699999914,324.5317622999992,324.5317622999992,324.5317622999992,324.5317622999992,324.5317622999992,324.5317622999992,324.5317622999992,324.5317622999992,324.5317622999992,324.5317622999992,324.5317622999992,324.5317622999992,324.5317622999992,324.5317622999992,326.0131337999992,326.0131337999992,326.0131337999992,326.0131337999992,326.0131337999992,326.0131337999992,326.0131337999992,57,53,48,76,76,70,326.0131337999992,327.7637851999989,,,,,,,,,,,,３０６,f,２３,2023-05-18_13h06.54.816,RL,2022.2.5,60.159132937911544,
41,54,67,64,0,52,52,52,,,,,,,,,,,None,327.7637851999989,327.7637851999989,327.7637851999989,327.7637851999989,327.7637851999989,327.7637851999989,j,0.2970862999991368,328.084743899999,328.084743899999,328.084743899999,328.084743899999,328.084743899999,328.084743899999,328.36392839999826,330.3471092999989,330.3803283999987,330.3803283999987,330.3803283999987,330.3803283999987,330.3803283999987,330.3803283999987,330.3803283999987,330.3803283999987,330.3803283999987,330.3803283999987,330.3803283999987,330.3803283999987,330.3803283999987,332.66129699999874,332.66129699999874,332.66129699999874,332.66129699999874,332.66129699999874,332.66129699999874,332.66129699999874,41,54,67,64,64,70,332.66129699999874,334.3957782999987,,,,,,,,,,,,３０６,f,２３,2023-05-18_13h06.54.816,RL,2022.2.5,60.159132937911544,
45,53,63,65,0,53,53,53,,,,,,,,,,,None,334.3957782999987,334.3957782999987,334.3957782999987,334.3957782999987,334.3957782999987,334.3957782999987,j,0.28208340000128374,334.69761259999905,334.69761259999905,334.69761259999905,334.69761259999905,334.69761259999905,334.69761259999905,334.99642649999987,335.8461136999995,335.8461136999995,335.8461136999995,335.8461136999995,335.8461136999995,335.8461136999995,335.8461136999995,335.8461136999995,335.8461136999995,335.8461136999995,335.8461136999995,335.8461136999995,335.8461136999995,335.8461136999995,336.99413939999977,336.99413939999977,336.99413939999977,336.99413939999977,336.99413939999977,336.99413939999977,336.99413939999977,45,53,63,65,65,70,336.99413939999977,338.9455098999988,,,,,,,,,,,,３０６,f,２３,2023-05-18_13h06.54.816,RL,2022.2.5,60.159132937911544,
49,49,63,57,0,54,54,54,,,,,,,,,,,None,338.9455098999988,338.9455098999988,338.9455098999988,338.9455098999988,338.9455098999988,338.9455098999988,j,0.4567458000001352,339.4291024999984,339.4291024999984,339.4291024999984,339.4291024999984,339.4291024999984,339.4291024999984,339.7124112999991,341.56237039999905,341.5786716999992,341.5786716999992,341.5786716999992,341.5786716999992,341.5786716999992,341.5786716999992,341.5786716999992,341.5786716999992,341.5786716999992,341.5786716999992,341.5786716999992,341.5786716999992,341.5786716999992,343.7264292999989,343.7264292999989,343.7264292999989,343.7264292999989,343.7264292999989,343.7264292999989,343.7264292999989,49,49,63,57,57,70,343.7264292999989,345.56109709999873,,,,,,,,,,,,３０６,f,２３,2023-05-18_13h06.54.816,RL,2022.2.5,60.159132937911544,
59,45,52,74,0,55,55,55,,,,,,,,,,,None,345.56109709999873,345.56109709999873,345.56109709999873,345.56109709999873,345.56109709999873,345.56109709999873,i,0.20086910000100033,345.7974871999995,345.7974871999995,345.7974871999995,345.7974871999995,345.7974871999995,345.7974871999995,346.07809839999936,347.5108741999993,347.5274792,347.5274792,347.5274792,347.5274792,347.5274792,347.5274792,347.5274792,347.5274792,347.5274792,347.5274792,347.5274792,347.5274792,347.5274792,349.2585158999991,349.2585158999991,349.2585158999991,349.2585158999991,349.2585158999991,349.2585158999991,349.2585158999991,59,45,52,74,52,70,349.2585158999991,350.9093873999991,,,,,,,,,,,,３０６,f,２３,2023-05-18_13h06.54.816,RL,2022.2.5,60.159132937911544,
48,38,49,66,0,56,56,56,,,,,,,,,,,None,350.9093873999991,350.9093873999991,350.9093873999991,350.9093873999991,350.9093873999991,350.9093873999991,j,0.4233096000007208,351.36224989999937,351.36224989999937,351.36224989999937,351.36224989999937,351.36224989999937,351.36224989999937,351.64403349999884,353.07626600000003,353.0928412999983,353.0928412999983,353.0928412999983,353.0928412999983,353.0928412999983,353.0928412999983,353.0928412999983,353.0928412999983,353.0928412999983,353.0928412999983,353.0928412999983,353.0928412999983,353.0928412999983,354.80812979999973,354.80812979999973,354.80812979999973,354.80812979999973,354.80812979999973,354.80812979999973,354.80812979999973,48,38,49,66,66,70,354.80812979999973,356.77516099999957,,,,,,,,,,,,３０６,f,２３,2023-05-18_13h06.54.816,RL,2022.2.5,60.159132937911544,
58,44,40,70,0,57,57,57,,,,,,,,,,,None,356.77516099999957,356.77516099999957,356.77516099999957,356.77516099999957,356.77516099999957,356.77516099999957,j,0.30219819999911124,357.1094112999999,357.1094112999999,357.1094112999999,357.1094112999999,357.1094112999999,357.1094112999999,357.3922274999986,358.39206099999865,358.4503965999993,358.4503965999993,358.4503965999993,358.4503965999993,358.4503965999993,358.4503965999993,358.4503965999993,358.4503965999993,358.4503965999993,358.4503965999993,358.4503965999993,358.4503965999993,358.4503965999993,359.75689709999824,359.75689709999824,359.75689709999824,359.75689709999824,359.75689709999824,359.75689709999824,359.75689709999824,58,44,40,70,70,70,359.75689709999824,361.2909826999985,,,,,,,,,,,,３０６,f,２３,2023-05-18_13h06.54.816,RL,2022.2.5,60.159132937911544,
46,43,32,80,0,58,58,58,,,,,,,,,,,None,361.2909826999985,361.2909826999985,361.2909826999985,361.2909826999985,361.2909826999985,361.2909826999985,j,0.3263088000003336,361.64162269999906,361.64162269999906,361.64162269999906,361.64162269999906,361.64162269999906,361.64162269999906,361.9248917999994,363.6915449999997,363.7081600999991,363.7081600999991,363.7081600999991,363.7081600999991,363.7081600999991,363.7081600999991,363.7081600999991,363.7081600999991,363.7081600999991,363.7081600999991,363.7081600999991,363.7081600999991,363.7081600999991,365.77268899999945,365.77268899999945,365.77268899999945,365.77268899999945,365.77268899999945,365.77268899999945,365.77268899999945,46,43,32,80,80,70,365.77268899999945,367.6570594999994,,,,,,,,,,,,３０６,f,２３,2023-05-18_13h06.54.816,RL,2022.2.5,60.159132937911544,
50,53,49,78,0,59,59,59,,,,,,,,,,,None,367.6570594999994,367.6570594999994,367.6570594999994,367.6570594999994,367.6570594999994,367.6570594999994,j,0.31480549999832874,367.9913496999998,367.9913496999998,367.9913496999998,367.9913496999998,367.9913496999998,367.9913496999998,368.2904598999994,369.7403246999984,369.7403246999984,369.7403246999984,369.7403246999984,369.7403246999984,369.7403246999984,369.7403246999984,369.7403246999984,369.7403246999984,369.7403246999984,369.7403246999984,369.7403246999984,369.7403246999984,369.7403246999984,371.4878955999993,371.4878955999993,371.4878955999993,371.4878955999993,371.4878955999993,371.4878955999993,371.4878955999993,50,53,49,78,78,70,371.4878955999993,373.27246639999976,,,,,,,,,,,,３０６,f,２３,2023-05-18_13h06.54.816,RL,2022.2.5,60.159132937911544,
61,50,42,81,0,60,60,60,,,,,,,,,,,None,373.27246639999976,373.27246639999976,373.27246639999976,373.27246639999976,373.27246639999976,373.27246639999976,j,0.29394349999893166,373.58962989999964,373.58962989999964,373.58962989999964,373.58962989999964,373.58962989999964,373.58962989999964,373.8732599999985,375.6392948999983,375.6556385999993,375.6556385999993,375.6556385999993,375.6556385999993,375.6556385999993,375.6556385999993,375.6556385999993,375.6556385999993,375.6556385999993,375.6556385999993,375.6556385999993,375.6556385999993,375.6556385999993,377.7207690999985,377.7207690999985,377.7207690999985,377.7207690999985,377.7207690999985,377.7207690999985,377.7207690999985,61,50,42,81,81,70,377.7207690999985,379.7051410999993,,,,,,,,,,,,３０６,f,２３,2023-05-18_13h06.54.816,RL,2022.2.5,60.159132937911544,
66,53,47,74,0,61,61,61,,,,,,,,,,,None,379.7051410999993,379.7051410999993,379.7051410999993,379.7051410999993,379.7051410999993,379.7051410999993,j,0.2932163000004948,380.0218181,380.0218181,380.0218181,380.0218181,380.0218181,380.0218181,380.30500049999864,381.3213827999989,381.3382761999983,381.3382761999983,381.3382761999983,381.3382761999983,381.3382761999983,381.3382761999983,381.3382761999983,381.3382761999983,381.3382761999983,381.3382761999983,381.3382761999983,381.3382761999983,381.3382761999983,382.6527776999992,382.6527776999992,382.6527776999992,382.6527776999992,382.6527776999992,382.6527776999992,382.6527776999992,66,53,47,74,74,70,382.6527776999992,384.28788039999927,,,,,,,,,,,,３０６,f,２３,2023-05-18_13h06.54.816,RL,2022.2.5,60.159132937911544,
55,44,45,73,0,62,62,62,,,,,,,,,,,None,384.28788039999927,384.28788039999927,384.28788039999927,384.28788039999927,384.28788039999927,384.28788039999927,j,0.5471352999993542,384.85664859999997,384.85664859999997,384.85664859999997,384.85664859999997,384.85664859999997,384.85664859999997,385.1374632999996,386.2372765,386.2540756999988,386.2540756999988,386.2540756999988,386.2540756999988,386.2540756999988,386.2540756999988,386.2540756999988,386.2540756999988,386.2540756999988,386.2540756999988,386.2540756999988,386.2540756999988,386.2540756999988,387.6524486999988,387.6524486999988,387.6524486999988,387.6524486999988,387.6524486999988,387.6524486999988,387.6524486999988,55,44,45,73,73,70,387.6524486999988,389.5534115999999,,,,,,,,,,,,３０６,f,２３,2023-05-18_13h06.54.816,RL,2022.2.5,60.159132937911544,
69,53,53,68,0,63,63,63,,,,,,,,,,,None,389.5534115999999,389.5534115999999,389.5534115999999,389.5534115999999,389.5534115999999,389.5534115999999,j,0.41807390000030864,390.0066868999984,390.0066868999984,390.0066868999984,390.0066868999984,390.0066868999984,390.0066868999984,390.286831899999,391.2036460999989,391.21998769999846,391.21998769999846,391.21998769999846,391.21998769999846,391.21998769999846,391.21998769999846,391.21998769999846,391.21998769999846,391.21998769999846,391.21998769999846,391.21998769999846,391.21998769999846,391.21998769999846,392.4347863999992,392.4347863999992,392.4347863999992,392.4347863999992,392.4347863999992,392.4347863999992,392.4347863999992,69,53,53,68,68,70,392.4347863999992,394.20217239999874,,,,,,,,,,,,３０６,f,２３,2023-05-18_13h06.54.816,RL,2022.2.5,60.159132937911544,
70,50,45,67,0,64,64,64,,,,,,,,,,,None,394.20217239999874,394.20217239999874,394.20217239999874,394.20217239999874,394.20217239999874,394.20217239999874,j,0.3134027000014612,394.5390187999983,394.5390187999983,394.5390187999983,394.5390187999983,394.5390187999983,394.5390187999983,394.83616509999956,396.452453599999,396.452453599999,396.452453599999,396.452453599999,396.452453599999,396.452453599999,396.452453599999,396.452453599999,396.452453599999,396.452453599999,396.452453599999,396.452453599999,396.452453599999,396.452453599999,398.36726179999823,398.36726179999823,398.36726179999823,398.36726179999823,398.36726179999823,398.36726179999823,398.36726179999823,70,50,45,67,67,70,398.36726179999823,400.23480599999857,,,,,,,,,,,,３０６,f,２３,2023-05-18_13h06.54.816,RL,2022.2.5,60.159132937911544,
63,45,50,59,0,65,65,65,,,,,,,,,,,None,400.23480599999857,400.23480599999857,400.23480599999857,400.23480599999857,400.23480599999857,400.23480599999857,j,0.31705560000045807,400.58654690000003,400.58654690000003,400.58654690000003,400.58654690000003,400.58654690000003,400.58654690000003,400.8685429999987,402.86796129999857,402.88424869999835,402.88424869999835,402.88424869999835,402.88424869999835,402.88424869999835,402.88424869999835,402.88424869999835,402.88424869999835,402.88424869999835,402.88424869999835,402.88424869999835,402.88424869999835,402.88424869999835,405.1824614999987,405.1824614999987,405.1824614999987,405.1824614999987,405.1824614999987,405.1824614999987,405.1824614999987,63,45,50,59,59,70,405.1824614999987,406.7170654999991,,,,,,,,,,,,３０６,f,２３,2023-05-18_13h06.54.816,RL,2022.2.5,60.159132937911544,
63,50,51,53,0,66,66,66,,,,,,,,,,,None,406.7170654999991,406.7170654999991,406.7170654999991,406.7170654999991,406.7170654999991,406.7170654999991,j,0.4025137000007817,407.1602974999987,407.1602974999987,407.1602974999987,407.1602974999987,407.1602974999987,407.1602974999987,407.4338704999991,408.93321299999843,408.9502262999995,408.9502262999995,408.9502262999995,408.9502262999995,408.9502262999995,408.9502262999995,408.9502262999995,408.9502262999995,408.9502262999995,408.9502262999995,408.9502262999995,408.9502262999995,408.9502262999995,410.74850569999944,410.74850569999944,410.74850569999944,410.74850569999944,410.74850569999944,410.74850569999944,410.74850569999944,63,50,51,53,53,70,410.74850569999944,412.5659676999985,,,,,,,,,,,,３０６,f,２３,2023-05-18_13h06.54.816,RL,2022.2.5,60.159132937911544,
61,41,45,52,0,67,67,67,,,,,,,,,,,None,412.5659676999985,412.5659676999985,412.5659676999985,412.5659676999985,412.5659676999985,412.5659676999985,j,0.2910986999995657,412.8832588999994,412.8832588999994,412.8832588999994,412.8832588999994,412.8832588999994,412.8832588999994,413.18267549999837,414.98221569999987,414.98221569999987,414.98221569999987,414.98221569999987,414.98221569999987,414.98221569999987,414.98221569999987,414.98221569999987,414.98221569999987,414.98221569999987,414.98221569999987,414.98221569999987,414.98221569999987,414.98221569999987,417.08023279999907,417.08023279999907,417.08023279999907,417.08023279999907,417.08023279999907,417.08023279999907,417.08023279999907,61,41,45,52,52,70,417.08023279999907,419.04838329999984,,,,,,,,,,,,３０６,f,２３,2023-05-18_13h06.54.816,RL,2022.2.5,60.159132937911544,
56,37,45,52,0,68,68,68,,,,,,,,,,,None,419.04838329999984,419.04838329999984,419.04838329999984,419.04838329999984,419.04838329999984,419.04838329999984,j,0.28292920000058075,419.3707809999996,419.3707809999996,419.3707809999996,419.3707809999996,419.3707809999996,419.3707809999996,419.6653075999984,421.2644685999985,421.28101249999963,421.28101249999963,421.28101249999963,421.28101249999963,421.28101249999963,421.28101249999963,421.28101249999963,421.28101249999963,421.28101249999963,421.28101249999963,421.28101249999963,421.28101249999963,421.28101249999963,423.1791059999996,423.1791059999996,423.1791059999996,423.1791059999996,423.1791059999996,423.1791059999996,423.1791059999996,56,37,45,52,52,70,423.1791059999996,424.69730119999986,,,,,,,,,,,,３０６,f,２３,2023-05-18_13h06.54.816,RL,2022.2.5,60.159132937911544,
52,47,49,55,0,69,69,69,,,,,,,,,,,None,424.69730119999986,424.69730119999986,424.69730119999986,424.69730119999986,424.69730119999986,424.69730119999986,i,0.3355207000004157,425.0689274999986,425.0689274999986,425.0689274999986,425.0689274999986,425.0689274999986,425.0689274999986,425.34759139999915,427.2638367999989,427.29680609999923,427.29680609999923,427.29680609999923,427.29680609999923,427.29680609999923,427.29680609999923,427.29680609999923,427.29680609999923,427.29680609999923,427.29680609999923,427.29680609999923,427.29680609999923,427.29680609999923,429.51159669999834,429.51159669999834,429.51159669999834,429.51159669999834,429.51159669999834,429.51159669999834,429.51159669999834,52,47,49,55,49,70,429.51159669999834,431.4788550999983,,,,,,,,,,,,３０６,f,２３,2023-05-18_13h06.54.816,RL,2022.2.5,60.159132937911544,
50,41,54,51,0,70,70,70,,,,,,,,,,,None,431.4788550999983,431.4788550999983,431.4788550999983,431.4788550999983,431.4788550999983,431.4788550999983,f,0.2130589999997028,431.7133004999996,431.7133004999996,431.7133004999996,431.7133004999996,431.7133004999996,431.7133004999996,432.01310869999907,433.5290804999986,433.5290804999986,433.5290804999986,433.5290804999986,433.5290804999986,433.5290804999986,433.5290804999986,433.5290804999986,433.5290804999986,433.5290804999986,433.5290804999986,433.5290804999986,433.5290804999986,433.5290804999986,435.34371349999856,435.34371349999856,435.34371349999856,435.34371349999856,435.34371349999856,435.34371349999856,435.34371349999856,50,41,54,51,50,70,435.34371349999856,437.07842209999944,,,,,,,,,,,,３０６,f,２３,2023-05-18_13h06.54.816,RL,2022.2.5,60.159132937911544,
52,38,46,49,0,71,71,71,,,,,,,,,,,None,437.07842209999944,437.07842209999944,437.07842209999944,437.07842209999944,437.07842209999944,437.07842209999944,j,0.254553599999781,437.3620243999994,437.3620243999994,437.3620243999994,437.3620243999994,437.3620243999994,437.3620243999994,437.64543009999943,438.76170079999974,438.77831139999944,438.77831139999944,438.77831139999944,438.77831139999944,438.77831139999944,438.77831139999944,438.77831139999944,438.77831139999944,438.77831139999944,438.77831139999944,438.77831139999944,438.77831139999944,438.77831139999944,440.1928261999983,440.1928261999983,440.1928261999983,440.1928261999983,440.1928261999983,440.1928261999983,440.1928261999983,52,38,46,49,49,70,440.1928261999983,442.1770779999988,,,,,,,,,,,,３０６,f,２３,2023-05-18_13h06.54.816,RL,2022.2.5,60.159132937911544,
52,45,41,52,0,72,72,72,,,,,,,,,,,None,442.1770779999988,442.1770779999988,442.1770779999988,442.1770779999988,442.1770779999988,442.1770779999988,r,0.3300213000002259,442.5319280999993,442.5319280999993,442.5319280999993,442.5319280999993,442.5319280999993,442.5319280999993,442.81105919999936,443.97721809999894,444.0107047999991,444.0107047999991,444.0107047999991,444.0107047999991,444.0107047999991,444.0107047999991,444.0107047999991,444.0107047999991,444.0107047999991,444.0107047999991,444.0107047999991,444.0107047999991,444.0107047999991,445.4756361,445.4756361,445.4756361,445.4756361,445.4756361,445.4756361,445.4756361,52,45,41,52,45,70,445.4756361,447.39308189999974,,,,,,,,,,,,３０６,f,２３,2023-05-18_13h06.54.816,RL,2022.2.5,60.159132937911544,
44,37,40,51,0,73,73,73,,,,,,,,,,,None,447.39308189999974,447.39308189999974,447.39308189999974,447.39308189999974,447.39308189999974,447.39308189999974,i,0.37584050000077696,447.79549079999924,447.79549079999924,447.79549079999924,447.79549079999924,447.79549079999924,447.79549079999924,448.07663279999906,450.0261701999989,450.04286779999893,450.04286779999893,450.04286779999893,450.04286779999893,450.04286779999893,450.04286779999893,450.04286779999893,450.04286779999893,450.04286779999893,450.04286779999893,450.04286779999893,450.04286779999893,450.04286779999893,452.29086729999835,452.29086729999835,452.29086729999835,452.29086729999835,452.29086729999835,452.29086729999835,452.29086729999835,44,37,40,51,40,70,452.29086729999835,453.8253987999997,,,,,,,,,,,,３０６,f,２３,2023-05-18_13h06.54.816,RL,2022.2.5,60.159132937911544,
47,35,41,51,0,74,74,74,,,,,,,,,,,None,453.8253987999997,453.8253987999997,453.8253987999997,453.8253987999997,453.8253987999997,453.8253987999997,j,0.3266801999998279,454.17566499999884,454.17566499999884,454.17566499999884,454.17566499999884,454.17566499999884,454.17566499999884,454.45894079999925,456.0588394999995,456.0754290999994,456.0754290999994,456.0754290999994,456.0754290999994,456.0754290999994,456.0754290999994,456.0754290999994,456.0754290999994,456.0754290999994,456.0754290999994,456.0754290999994,456.0754290999994,456.0754290999994,457.9735198999988,457.9735198999988,457.9735198999988,457.9735198999988,457.9735198999988,457.9735198999988,457.9735198999988,47,35,41,51,51,70,457.9735198999988,459.5066707999995,,,,,,,,,,,,３０６,f,２３,2023-05-18_13h06.54.816,RL,2022.2.5,60.159132937911544,
44,37,40,47,0,75,75,75,,,,,,,,,,,q,475.6045033999999,475.6045033999999,475.6045033999999,475.6045033999999,475.6045033999999,475.6045033999999,i,0.5876513000002888,476.2265445999983,476.2265445999983,476.2265445999983,476.2265445999983,476.2265445999983,476.2265445999983,476.5055240999991,477.6884682,477.70513989999927,477.70513989999927,477.70513989999927,477.70513989999927,477.70513989999927,477.70513989999927,477.70513989999927,477.70513989999927,477.70513989999927,477.70513989999927,477.70513989999927,477.70513989999927,477.70513989999927,479.18629709999914,479.18629709999914,479.18629709999914,479.18629709999914,479.18629709999914,479.18629709999914,479.18629709999914,44,37,40,47,40,70,479.18629709999914,480.8375084999989,459.5066707999995,459.5066707999995,11.064026199999716,470.589747,470.589747,475.6045033999999,475.6045033999999,,,,,３０６,f,２３,2023-05-18_13h06.54.816,RL,2022.2.5,60.159132937911544,
52,36,42,42,0,76,76,76,,,,,,,,,,,None,480.8375084999989,480.8375084999989,480.8375084999989,480.8375084999989,480.8375084999989,480.8375084999989,j,0.32512950000091223,481.1925132999986,481.1925132999986,481.1925132999986,481.1925132999986,481.1925132999986,481.1925132999986,481.4876220999995,482.7538057999991,482.7538057999991,482.7538057999991,482.7538057999991,482.7538057999991,482.7538057999991,482.7538057999991,482.7538057999991,482.7538057999991,482.7538057999991,482.7538057999991,482.7538057999991,482.7538057999991,482.7538057999991,484.3019458999988,484.3019458999988,484.3019458999988,484.3019458999988,484.3019458999988,484.3019458999988,484.3019458999988,52,36,42,42,42,70,484.3019458999988,486.13619049999943,,,,,,,,,,,,３０６,f,２３,2023-05-18_13h06.54.816,RL,2022.2.5,60.159132937911544,
42,37,42,34,0,77,77,77,,,,,,,,,,,None,486.13619049999943,486.13619049999943,486.13619049999943,486.13619049999943,486.13619049999943,486.13619049999943,f,0.23762170000009064,486.4035372999988,486.4035372999988,486.4035372999988,486.4035372999988,486.4035372999988,486.4035372999988,486.6866205999995,487.55302969999866,487.56960979999894,487.56960979999894,487.56960979999894,487.56960979999894,487.56960979999894,487.56960979999894,487.56960979999894,487.56960979999894,487.56960979999894,487.56960979999894,487.56960979999894,487.56960979999894,487.56960979999894,488.73456799999985,488.73456799999985,488.73456799999985,488.73456799999985,488.73456799999985,488.73456799999985,488.73456799999985,42,37,42,34,42,70,488.73456799999985,490.46883779999916,,,,,,,,,,,,３０６,f,２３,2023-05-18_13h06.54.816,RL,2022.2.5,60.159132937911544,
40,36,46,45,0,78,78,78,,,,,,,,,,,None,490.46883779999916,490.46883779999916,490.46883779999916,490.46883779999916,490.46883779999916,490.46883779999916,r,0.26230149999901187,490.7528532999986,490.7528532999986,490.7528532999986,490.7528532999986,490.7528532999986,490.7528532999986,491.05246799999986,492.1523208999988,492.1523208999988,492.1523208999988,492.1523208999988,492.1523208999988,492.1523208999988,492.1523208999988,492.1523208999988,492.1523208999988,492.1523208999988,492.1523208999988,492.1523208999988,492.1523208999988,492.1523208999988,493.55047229999946,493.55047229999946,493.55047229999946,493.55047229999946,493.55047229999946,493.55047229999946,493.55047229999946,40,36,46,45,36,70,493.55047229999946,495.35127439999997,,,,,,,,,,,,３０６,f,２３,2023-05-18_13h06.54.816,RL,2022.2.5,60.159132937911544,
53,34,45,38,0,79,79,79,,,,,,,,,,,None,495.35127439999997,495.35127439999997,495.35127439999997,495.35127439999997,495.35127439999997,495.35127439999997,j,0.21829640000032668,495.6055850999983,495.6055850999983,495.6055850999983,495.6055850999983,495.6055850999983,495.6055850999983,495.88517369999863,497.80168539999977,497.83469389999846,497.83469389999846,497.83469389999846,497.83469389999846,497.83469389999846,497.83469389999846,497.83469389999846,497.83469389999846,497.83469389999846,497.83469389999846,497.83469389999846,497.83469389999846,497.83469389999846,500.04956649999986,500.04956649999986,500.04956649999986,500.04956649999986,500.04956649999986,500.04956649999986,500.04956649999986,53,34,45,38,38,70,500.04956649999986,501.6670514999987,,,,,,,,,,,,３０６,f,２３,2023-05-18_13h06.54.816,RL,2022.2.5,60.159132937911544,
41,41,42,34,0,80,80,80,,,,,,,,,,,None,501.6670514999987,501.6670514999987,501.6670514999987,501.6670514999987,501.6670514999987,501.6670514999987,i,0.26183190000119794,501.9508150999991,501.9508150999991,501.9508150999991,501.9508150999991,501.9508150999991,501.9508150999991,502.25094999999965,504.0175488999994,504.0175488999994,504.0175488999994,504.0175488999994,504.0175488999994,504.0175488999994,504.0175488999994,504.0175488999994,504.0175488999994,504.0175488999994,504.0175488999994,504.0175488999994,504.0175488999994,504.0175488999994,506.0813961999993,506.0813961999993,506.0813961999993,506.0813961999993,506.0813961999993,506.0813961999993,506.0813961999993,41,41,42,34,42,70,506.0813961999993,507.8828147999993,,,,,,,,,,,,３０６,f,２３,2023-05-18_13h06.54.816,RL,2022.2.5,60.159132937911544,
53,34,52,34,0,81,81,81,,,,,,,,,,,None,507.8828147999993,507.8828147999993,507.8828147999993,507.8828147999993,507.8828147999993,507.8828147999993,i,0.306750199999442,508.217804599999,508.217804599999,508.217804599999,508.217804599999,508.217804599999,508.217804599999,508.4996982999983,509.31620509999993,509.3326958999987,509.3326958999987,509.3326958999987,509.3326958999987,509.3326958999987,509.3326958999987,509.3326958999987,509.3326958999987,509.3326958999987,509.3326958999987,509.3326958999987,509.3326958999987,509.3326958999987,510.4472403999989,510.4472403999989,510.4472403999989,510.4472403999989,510.4472403999989,510.4472403999989,510.4472403999989,53,34,52,34,52,70,510.4472403999989,512.265319099999,,,,,,,,,,,,３０６,f,２３,2023-05-18_13h06.54.816,RL,2022.2.5,60.159132937911544,
54,35,42,41,0,82,82,82,,,,,,,,,,,None,512.265319099999,512.265319099999,512.265319099999,512.265319099999,512.265319099999,512.265319099999,i,0.26018800000019837,512.5489284999985,512.5489284999985,512.5489284999985,512.5489284999985,512.5489284999985,512.5489284999985,512.8320219999987,513.6655663999991,513.6820470999992,513.6820470999992,513.6820470999992,513.6820470999992,513.6820470999992,513.6820470999992,513.6820470999992,513.6820470999992,513.6820470999992,513.6820470999992,513.6820470999992,513.6820470999992,513.6820470999992,514.8137641999983,514.8137641999983,514.8137641999983,514.8137641999983,514.8137641999983,514.8137641999983,514.8137641999983,54,35,42,41,42,70,514.8137641999983,516.6477601999995,,,,,,,,,,,,３０６,f,２３,2023-05-18_13h06.54.816,RL,2022.2.5,60.159132937911544,
52,32,46,37,0,83,83,83,,,,,,,,,,,None,516.6477601999995,516.6477601999995,516.6477601999995,516.6477601999995,516.6477601999995,516.6477601999995,i,0.26659529999960796,516.9317716999994,516.9317716999994,516.9317716999994,516.9317716999994,516.9317716999994,516.9317716999994,517.2150534999982,519.1480167999998,519.1644370999984,519.1644370999984,519.1644370999984,519.1644370999984,519.1644370999984,519.1644370999984,519.1644370999984,519.1644370999984,519.1644370999984,519.1644370999984,519.1644370999984,519.1644370999984,519.1644370999984,521.3953452999995,521.3953452999995,521.3953452999995,521.3953452999995,521.3953452999995,521.3953452999995,521.3953452999995,52,32,46,37,46,70,521.3953452999995,523.0967019,,,,,,,,,,,,３０６,f,２３,2023-05-18_13h06.54.816,RL,2022.2.5,60.159132937911544,
48,35,38,41,0,84,84,84,,,,,,,,,,,None,523.0967019,523.0967019,523.0967019,523.0967019,523.0967019,523.0967019,i,0.29751199999918754,523.4158552999997,523.4158552999997,523.4158552999997,523.4158552999997,523.4158552999997,523.4158552999997,523.7133744999992,524.9800200999998,524.9800200999998,524.9800200999998,524.9800200999998,524.9800200999998,524.9800200999998,524.9800200999998,524.9800200999998,524.9800200999998,524.9800200999998,524.9800200999998,524.9800200999998,524.9800200999998,524.9800200999998,526.5448911999993,526.5448911999993,526.5448911999993,526.5448911999993,526.5448911999993,526.5448911999993,526.5448911999993,48,35,38,41,38,70,526.5448911999993,528.1958832,,,,,,,,,,,,３０６,f,２３,2023-05-18_13h06.54.816,RL,2022.2.5,60.159132937911544,
48,46,33,41,0,85,85,85,,,,,,,,,,,None,528.1958832,528.1958832,528.1958832,528.1958832,528.1958832,528.1958832,j,0.36880349999955797,528.6001534999996,528.6001534999996,528.6001534999996,528.6001534999996,528.6001534999996,528.6001534999996,528.8798151999999,530.3790241999995,530.3957396999995,530.3957396999995,530.3957396999995,530.3957396999995,530.3957396999995,530.3957396999995,530.3957396999995,530.3957396999995,530.3957396999995,530.3957396999995,530.3957396999995,530.3957396999995,530.3957396999995,532.193577,532.193577,532.193577,532.193577,532.193577,532.193577,532.193577,48,46,33,41,41,70,532.193577,533.9117241999993,,,,,,,,,,,,３０６,f,２３,2023-05-18_13h06.54.816,RL,2022.2.5,60.159132937911544,
45,38,40,40,0,86,86,86,,,,,,,,,,,None,533.9117241999993,533.9117241999993,533.9117241999993,533.9117241999993,533.9117241999993,533.9117241999993,j,0.26625659999990603,534.1951999999983,534.1951999999983,534.1951999999983,534.1951999999983,534.1951999999983,534.1951999999983,534.4953449999994,535.8113832999989,535.8113832999989,535.8113832999989,535.8113832999989,535.8113832999989,535.8113832999989,535.8113832999989,535.8113832999989,535.8113832999989,535.8113832999989,535.8113832999989,535.8113832999989,535.8113832999989,535.8113832999989,537.4263195999993,537.4263195999993,537.4263195999993,537.4263195999993,537.4263195999993,537.4263195999993,537.4263195999993,45,38,40,40,40,70,537.4263195999993,539.243896,,,,,,,,,,,,３０６,f,２３,2023-05-18_13h06.54.816,RL,2022.2.5,60.159132937911544,
48,40,34,35,0,87,87,87,,,,,,,,,,,None,539.243896,539.243896,539.243896,539.243896,539.243896,539.243896,j,0.20270589999927324,539.4793995999989,539.4793995999989,539.4793995999989,539.4793995999989,539.4793995999989,539.4793995999989,539.7777161999984,540.9274051999982,540.9274051999982,540.9274051999982,540.9274051999982,540.9274051999982,540.9274051999982,540.9274051999982,540.9274051999982,540.9274051999982,540.9274051999982,540.9274051999982,540.9274051999982,540.9274051999982,540.9274051999982,542.3756099999991,542.3756099999991,542.3756099999991,542.3756099999991,542.3756099999991,542.3756099999991,542.3756099999991,48,40,34,35,35,70,542.3756099999991,544.2431506999983,,,,,,,,,,,,３０６,f,２３,2023-05-18_13h06.54.816,RL,2022.2.5,60.159132937911544,
50,46,47,36,0,88,88,88,,,,,,,,,,,None,544.2431506999983,544.2431506999983,544.2431506999983,544.2431506999983,544.2431506999983,544.2431506999983,r,0.28536849999909464,544.5648241999988,544.5648241999988,544.5648241999988,544.5648241999988,544.5648241999988,544.5648241999988,544.8436146999993,546.1261090999997,546.1429241999995,546.1429241999995,546.1429241999995,546.1429241999995,546.1429241999995,546.1429241999995,546.1429241999995,546.1429241999995,546.1429241999995,546.1429241999995,546.1429241999995,546.1429241999995,546.1429241999995,547.7242993999989,547.7242993999989,547.7242993999989,547.7242993999989,547.7242993999989,547.7242993999989,547.7242993999989,50,46,47,36,46,70,547.7242993999989,549.5586938999986,,,,,,,,,,,,３０６,f,２３,2023-05-18_13h06.54.816,RL,2022.2.5,60.159132937911544,
47,42,43,38,0,89,89,89,,,,,,,,,,,None,549.5586938999986,549.5586938999986,549.5586938999986,549.5586938999986,549.5586938999986,549.5586938999986,f,0.36725359999945795,549.9589744999994,549.9589744999994,549.9589744999994,549.9589744999994,549.9589744999994,549.9589744999994,550.2426483999989,551.8919122999996,551.9085034,551.9085034,551.9085034,551.9085034,551.9085034,551.9085034,551.9085034,551.9085034,551.9085034,551.9085034,551.9085034,551.9085034,551.9085034,553.8568268999989,553.8568268999989,553.8568268999989,553.8568268999989,553.8568268999989,553.8568268999989,553.8568268999989,47,42,43,38,47,70,553.8568268999989,555.4745567999998,,,,,,,,,,,,３０６,f,２３,2023-05-18_13h06.54.816,RL,2022.2.5,60.159132937911544,
42,53,49,49,0,90,90,90,,,,,,,,,,,None,555.4745567999998,555.4745567999998,555.4745567999998,555.4745567999998,555.4745567999998,555.4745567999998,i,0.6662290999993274,556.1588194999986,556.1588194999986,556.1588194999986,556.1588194999986,556.1588194999986,556.1588194999986,556.4580879999994,558.3574816,558.3574816,558.3574816,558.3574816,558.3574816,558.3574816,558.3574816,558.3574816,558.3574816,558.3574816,558.3574816,558.3574816,558.3574816,558.3574816,560.5555127999996,560.5555127999996,560.5555127999996,560.5555127999996,560.5555127999996,560.5555127999996,560.5555127999996,42,53,49,49,49,70,560.5555127999996,562.206535199999,,,,,,,,,,,,３０６,f,２３,2023-05-18_13h06.54.816,RL,2022.2.5,60.159132937911544,
49,44,36,47,0,91,91,91,,,,,,,,,,,None,562.206535199999,562.206535199999,562.206535199999,562.206535199999,562.206535199999,562.206535199999,i,0.2820284999997966,562.5071488999984,562.5071488999984,562.5071488999984,562.5071488999984,562.5071488999984,562.5071488999984,562.7902225999987,563.7070512999999,563.7232678,563.7232678,563.7232678,563.7232678,563.7232678,563.7232678,563.7232678,563.7232678,563.7232678,563.7232678,563.7232678,563.7232678,563.7232678,564.9381396999997,564.9381396999997,564.9381396999997,564.9381396999997,564.9381396999997,564.9381396999997,564.9381396999997,49,44,36,47,36,70,564.9381396999997,566.9387603999985,,,,,,,,,,,,３０６,f,２３,2023-05-18_13h06.54.816,RL,2022.2.5,60.159132937911544,
57,48,36,56,0,92,92,92,,,,,,,,,,,None,566.9387603999985,566.9387603999985,566.9387603999985,566.9387603999985,566.9387603999985,566.9387603999985,j,0.2510062999990623,567.2298486,567.2298486,567.2298486,567.2298486,567.2298486,567.2298486,567.5225060999983,568.4724581999999,568.4724581999999,568.4724581999999,568.4724581999999,568.4724581999999,568.4724581999999,568.4724581999999,568.4724581999999,568.4724581999999,568.4724581999999,568.4724581999999,568.4724581999999,568.4724581999999,568.4724581999999,569.7208101999986,569.7208101999986,569.7208101999986,569.7208101999986,569.7208101999986,569.7208101999986,569.7208101999986,57,48,36,56,56,70,569.7208101999986,571.2384747999986,,,,,,,,,,,,３０６,f,２３,2023-05-18_13h06.54.816,RL,2022.2.5,60.159132937911544,
45,38,37,48,0,93,93,93,,,,,,,,,,,None,571.2384747999986,571.2384747999986,571.2384747999986,571.2384747999986,571.2384747999986,571.2384747999986,j,0.3880752000004577,571.6554347999991,571.6554347999991,571.6554347999991,571.6554347999991,571.6554347999991,571.6554347999991,571.9553431999993,572.7715787999987,572.7715787999987,572.7715787999987,572.7715787999987,572.7715787999987,572.7715787999987,572.7715787999987,572.7715787999987,572.7715787999987,572.7715787999987,572.7715787999987,572.7715787999987,572.7715787999987,572.7715787999987,573.8869443999993,573.8869443999993,573.8869443999993,573.8869443999993,573.8869443999993,573.8869443999993,573.8869443999993,45,38,37,48,48,70,573.8869443999993,575.6042835999997,,,,,,,,,,,,３０６,f,２３,2023-05-18_13h06.54.816,RL,2022.2.5,60.159132937911544,
53,44,37,53,0,94,94,94,,,,,,,,,,,None,575.6042835999997,575.6042835999997,575.6042835999997,575.6042835999997,575.6042835999997,575.6042835999997,j,0.33211710000068706,575.9560402999996,575.9560402999996,575.9560402999996,575.9560402999996,575.9560402999996,575.9560402999996,576.2375390999987,577.5373086,577.5539331999989,577.5539331999989,577.5539331999989,577.5539331999989,577.5539331999989,577.5539331999989,577.5539331999989,577.5539331999989,577.5539331999989,577.5539331999989,577.5539331999989,577.5539331999989,577.5539331999989,579.1525041999994,579.1525041999994,579.1525041999994,579.1525041999994,579.1525041999994,579.1525041999994,579.1525041999994,53,44,37,53,53,70,579.1525041999994,581.0865428999987,,,,,,,,,,,,３０６,f,２３,2023-05-18_13h06.54.816,RL,2022.2.5,60.159132937911544,
49,48,46,57,0,95,95,95,,,,,,,,,,,None,581.0865428999987,581.0865428999987,581.0865428999987,581.0865428999987,581.0865428999987,581.0865428999987,j,0.26793240000006335,581.3912508999983,581.3912508999983,581.3912508999983,581.3912508999983,581.3912508999983,581.3912508999983,581.6701073999993,582.9862803999986,583.0034183999996,583.0034183999996,583.0034183999996,583.0034183999996,583.0034183999996,583.0034183999996,583.0034183999996,583.0034183999996,583.0034183999996,583.0034183999996,583.0034183999996,583.0034183999996,583.0034183999996,584.617586299999,584.617586299999,584.617586299999,584.617586299999,584.617586299999,584.617586299999,584.617586299999,49,48,46,57,57,70,584.617586299999,586.4191763999988,,,,,,,,,,,,３０６,f,２３,2023-05-18_13h06.54.816,RL,2022.2.5,60.159132937911544,
54,47,35,56,0,96,96,96,,,,,,,,,,,None,586.4191763999988,586.4191763999988,586.4191763999988,586.4191763999988,586.4191763999988,586.4191763999988,j,0.3489568999993935,586.7884569999987,586.7884569999987,586.7884569999987,586.7884569999987,586.7884569999987,586.7884569999987,587.0858051999985,588.1689134999997,588.1689134999997,588.1689134999997,588.1689134999997,588.1689134999997,588.1689134999997,588.1689134999997,588.1689134999997,588.1689134999997,588.1689134999997,588.1689134999997,588.1689134999997,588.1689134999997,588.1689134999997,589.5502755999987,589.5502755999987,589.5502755999987,589.5502755999987,589.5502755999987,589.5502755999987,589.5502755999987,54,47,35,56,56,70,589.5502755999987,591.3351626999993,,,,,,,,,,,,３０６,f,２３,2023-05-18_13h06.54.816,RL,2022.2.5,60.159132937911544,
56,58,27,49,0,97,97,97,,,,,,,,,,,None,591.3351626999993,591.3351626999993,591.3351626999993,591.3351626999993,591.3351626999993,591.3351626999993,j,0.3468381999991834,591.7020704999995,591.7020704999995,591.7020704999995,591.7020704999995,591.7020704999995,591.7020704999995,592.001656299999,593.0847378999988,593.0847378999988,593.0847378999988,593.0847378999988,593.0847378999988,593.0847378999988,593.0847378999988,593.0847378999988,593.0847378999988,593.0847378999988,593.0847378999988,593.0847378999988,593.0847378999988,593.0847378999988,594.466171,594.466171,594.466171,594.466171,594.466171,594.466171,594.466171,56,58,27,49,49,70,594.466171,596.117214599999,,,,,,,,,,,,３０６,f,２３,2023-05-18_13h06.54.816,RL,2022.2.5,60.159132937911544,
56,60,33,43,0,98,98,98,,,,,,,,,,,None,596.117214599999,596.117214599999,596.117214599999,596.117214599999,596.117214599999,596.117214599999,j,0.4487713000016811,596.5845082999986,596.5845082999986,596.5845082999986,596.5845082999986,596.5845082999986,596.5845082999986,596.8677807999993,598.4504100999984,598.4671048,598.4671048,598.4671048,598.4671048,598.4671048,598.4671048,598.4671048,598.4671048,598.4671048,598.4671048,598.4671048,598.4671048,598.4671048,600.3483883999997,600.3483883999997,600.3483883999997,600.3483883999997,600.3483883999997,600.3483883999997,600.3483883999997,56,60,33,43,43,70,600.3483883999997,602.0330123999993,,,,,,,,,,,,３０６,f,２３,2023-05-18_13h06.54.816,RL,2022.2.5,60.159132937911544,
56,56,44,52,0,99,99,99,,,,,,,,,,,None,602.0330123999993,602.0330123999993,602.0330123999993,602.0330123999993,602.0330123999993,602.0330123999993,j,0.3198143000008713,602.3833483999988,602.3833483999988,602.3833483999988,602.3833483999988,602.3833483999988,602.3833483999988,602.6664173999998,604.4661434999998,604.4828467999996,604.4828467999996,604.4828467999996,604.4828467999996,604.4828467999996,604.4828467999996,604.4828467999996,604.4828467999996,604.4828467999996,604.4828467999996,604.4828467999996,604.4828467999996,604.4828467999996,606.5810917999988,606.5810917999988,606.5810917999988,606.5810917999988,606.5810917999988,606.5810917999988,606.5810917999988,56,56,44,52,52,70,606.5810917999988,608.1653595999996,,,,,,,,,,,,３０６,f,２３,2023-05-18_13h06.54.816,RL,2022.2.5,60.159132937911544,
54,62,44,45,0,100,100,100,,,,,,,,,,,None,608.1653595999996,608.1653595999996,608.1653595999996,608.1653595999996,608.1653595999996,608.1653595999996,j,0.49848129999918456,608.6823087999983,608.6823087999983,608.6823087999983,608.6823087999983,608.6823087999983,608.6823087999983,608.9655881999988,610.3485664999989,610.3651559999998,610.3651559999998,610.3651559999998,610.3651559999998,610.3651559999998,610.3651559999998,610.3651559999998,610.3651559999998,610.3651559999998,610.3651559999998,610.3651559999998,610.3651559999998,610.3651559999998,612.0463216999997,612.0463216999997,612.0463216999997,612.0463216999997,612.0463216999997,612.0463216999997,612.0463216999997,54,62,44,45,45,70,612.0463216999997,614.0306822999992,,,,,,,,,,,,３０６,f,２３,2023-05-18_13h06.54.816,RL,2022.2.5,60.159132937911544,
55,58,51,48,0,101,101,101,,,,,,,,,,,None,614.0306822999992,614.0306822999992,614.0306822999992,614.0306822999992,614.0306822999992,614.0306822999992,j,0.40940580000096816,614.4658232999991,614.4658232999991,614.4658232999991,614.4658232999991,614.4658232999991,614.4658232999991,614.7643993999991,616.5143239999998,616.5143239999998,616.5143239999998,616.5143239999998,616.5143239999998,616.5143239999998,616.5143239999998,616.5143239999998,616.5143239999998,616.5143239999998,616.5143239999998,616.5143239999998,616.5143239999998,616.5143239999998,618.5622291,618.5622291,618.5622291,618.5622291,618.5622291,618.5622291,618.5622291,55,58,51,48,48,70,618.5622291,620.5299024999986,,,,,,,,,,,,３０６,f,２３,2023-05-18_13h06.54.816,RL,2022.2.5,60.159132937911544,
53,55,44,49,0,102,102,102,,,,,,,,,,,None,620.5299024999986,620.5299024999986,620.5299024999986,620.5299024999986,620.5299024999986,620.5299024999986,j,0.5921262000010756,621.1500083999999,621.1500083999999,621.1500083999999,621.1500083999999,621.1500083999999,621.1500083999999,621.430018699999,622.4799773999985,622.4963841999997,622.4963841999997,622.4963841999997,622.4963841999997,622.4963841999997,622.4963841999997,622.4963841999997,622.4963841999997,622.4963841999997,622.4963841999997,622.4963841999997,622.4963841999997,622.4963841999997,623.8441285999997,623.8441285999997,623.8441285999997,623.8441285999997,623.8441285999997,623.8441285999997,623.8441285999997,53,55,44,49,49,70,623.8441285999997,625.8285612,,,,,,,,,,,,３０６,f,２３,2023-05-18_13h06.54.816,RL,2022.2.5,60.159132937911544,
65,62,50,57,0,103,103,103,,,,,,,,,,,None,625.8285612,625.8285612,625.8285612,625.8285612,625.8285612,625.8285612,j,0.2788729999992938,626.1300517,626.1300517,626.1300517,626.1300517,626.1300517,626.1300517,626.4125528999994,628.3958645999992,628.4122473999996,628.4122473999996,628.4122473999996,628.4122473999996,628.4122473999996,628.4122473999996,628.4122473999996,628.4122473999996,628.4122473999996,628.4122473999996,628.4122473999996,628.4122473999996,628.4122473999996,630.6936233999986,630.6936233999986,630.6936233999986,630.6936233999986,630.6936233999986,630.6936233999986,630.6936233999986,65,62,50,57,57,70,630.6936233999986,632.5442708999999,,,,,,,,,,,,３０６,f,２３,2023-05-18_13h06.54.816,RL,2022.2.5,60.159132937911544,
62,61,50,50,0,104,104,104,,,,,,,,,,,None,632.5442708999999,632.5442708999999,632.5442708999999,632.5442708999999,632.5442708999999,632.5442708999999,j,0.4047695000008389,632.9795317999997,632.9795317999997,632.9795317999997,632.9795317999997,632.9795317999997,632.9795317999997,633.2778647999985,635.2443409999996,635.2443409999996,635.2443409999996,635.2443409999996,635.2443409999996,635.2443409999996,635.2443409999996,635.2443409999996,635.2443409999996,635.2443409999996,635.2443409999996,635.2443409999996,635.2443409999996,635.2443409999996,637.5087019999992,637.5087019999992,637.5087019999992,637.5087019999992,637.5087019999992,637.5087019999992,637.5087019999992,62,61,50,50,50,70,637.5087019999992,639.1935244999986,,,,,,,,,,,,３０６,f,２３,2023-05-18_13h06.54.816,RL,2022.2.5,60.159132937911544,
70,66,51,61,0,105,105,105,,,,,,,,,,,None,639.1935244999986,639.1935244999986,639.1935244999986,639.1935244999986,639.1935244999986,639.1935244999986,j,0.2857020999999804,639.5158378999986,639.5158378999986,639.5158378999986,639.5158378999986,639.5158378999986,639.5158378999986,639.7936668999992,641.4934373999986,641.5097415,641.5097415,641.5097415,641.5097415,641.5097415,641.5097415,641.5097415,641.5097415,641.5097415,641.5097415,641.5097415,641.5097415,641.5097415,643.5079790999989,643.5079790999989,643.5079790999989,643.5079790999989,643.5079790999989,643.5079790999989,643.5079790999989,70,66,51,61,61,70,643.5079790999989,645.4586032999996,,,,,,,,,,,,３０６,f,２３,2023-05-18_13h06.54.816,RL,2022.2.5,60.159132937911544,
73,53,42,64,0,106,106,106,,,,,,,,,,,None,645.4586032999996,645.4586032999996,645.4586032999996,645.4586032999996,645.4586032999996,645.4586032999996,j,0.30760949999967124,645.7944325999997,645.7944325999997,645.7944325999997,645.7944325999997,645.7944325999997,645.7944325999997,646.092163199999,646.9086560999986,646.9086560999986,646.9086560999986,646.9086560999986,646.9086560999986,646.9086560999986,646.9086560999986,646.9086560999986,646.9086560999986,646.9086560999986,646.9086560999986,646.9086560999986,646.9086560999986,646.9086560999986,648.0237375999986,648.0237375999986,648.0237375999986,648.0237375999986,648.0237375999986,648.0237375999986,648.0237375999986,73,53,42,64,64,70,648.0237375999986,650.0077872999991,,,,,,,,,,,,３０６,f,２３,2023-05-18_13h06.54.816,RL,2022.2.5,60.159132937911544,
67,59,51,69,0,107,107,107,,,,,,,,,,,None,650.0077872999991,650.0077872999991,650.0077872999991,650.0077872999991,650.0077872999991,650.0077872999991,j,0.36892710000029183,650.4085317999998,650.4085317999998,650.4085317999998,650.4085317999998,650.4085317999998,650.4085317999998,650.6917576999986,651.8580536999998,651.8749931999992,651.8749931999992,651.8749931999992,651.8749931999992,651.8749931999992,651.8749931999992,651.8749931999992,651.8749931999992,651.8749931999992,651.8749931999992,651.8749931999992,651.8749931999992,651.8749931999992,653.3563913999988,653.3563913999988,653.3563913999988,653.3563913999988,653.3563913999988,653.3563913999988,653.3563913999988,67,59,51,69,69,70,653.3563913999988,654.9903764999999,,,,,,,,,,,,３０６,f,２３,2023-05-18_13h06.54.816,RL,2022.2.5,60.159132937911544,
63,60,49,60,0,108,108,108,,,,,,,,,,,None,654.9903764999999,654.9903764999999,654.9903764999999,654.9903764999999,654.9903764999999,654.9903764999999,j,0.3021117999996932,655.3241396999983,655.3241396999983,655.3241396999983,655.3241396999983,655.3241396999983,655.3241396999983,655.6072442999994,657.0238481999986,657.040563999999,657.040563999999,657.040563999999,657.040563999999,657.040563999999,657.040563999999,657.040563999999,657.040563999999,657.040563999999,657.040563999999,657.040563999999,657.040563999999,657.040563999999,658.7554706999999,658.7554706999999,658.7554706999999,658.7554706999999,658.7554706999999,658.7554706999999,658.7554706999999,63,60,49,60,60,70,658.7554706999999,660.622803799999,,,,,,,,,,,,３０６,f,２３,2023-05-18_13h06.54.816,RL,2022.2.5,60.159132937911544,
67,54,48,60,0,109,109,109,,,,,,,,,,,None,660.622803799999,660.622803799999,660.622803799999,660.622803799999,660.622803799999,660.622803799999,j,0.4228190000012546,661.0734630999996,661.0734630999996,661.0734630999996,661.0734630999996,661.0734630999996,661.0734630999996,661.3568171999996,663.1393679999983,663.1560531999985,663.1560531999985,663.1560531999985,663.1560531999985,663.1560531999985,663.1560531999985,663.1560531999985,663.1560531999985,663.1560531999985,663.1560531999985,663.1560531999985,663.1560531999985,663.1560531999985,665.2371991,665.2371991,665.2371991,665.2371991,665.2371991,665.2371991,665.2371991,67,54,48,60,60,70,665.2371991,667.2047874999989,,,,,,,,,,,,３０６,f,２３,2023-05-18_13h06.54.816,RL,2022.2.5,60.159132937911544,
61,58,53,63,0,110,110,110,,,,,,,,,,,None,667.2047874999989,667.2047874999989,667.2047874999989,667.2047874999989,667.2047874999989,667.2047874999989,j,0.259211000000505,667.4923888999983,667.4923888999983,667.4923888999983,667.4923888999983,667.4923888999983,667.4923888999983,667.7719603999994,669.2884256999987,669.3049887999987,669.3049887999987,669.3049887999987,669.3049887999987,669.3049887999987,669.3049887999987,669.3049887999987,669.3049887999987,669.3049887999987,669.3049887999987,669.3049887999987,669.3049887999987,669.3049887999987,671.1196875999995,671.1196875999995,671.1196875999995,671.1196875999995,671.1196875999995,671.1196875999995,671.1196875999995,61,58,53,63,63,70,671.1196875999995,672.9204013999988,,,,,,,,,,,,３０６,f,２３,2023-05-18_13h06.54.816,RL,2022.2.5,60.159132937911544,
57,46,46,62,0,111,111,111,,,,,,,,,,,None,672.9204013999988,672.9204013999988,672.9204013999988,672.9204013999988,672.9204013999988,672.9204013999988,j,0.5151617999999871,673.4592712999984,673.4592712999984,673.4592712999984,673.4592712999984,673.4592712999984,673.4592712999984,673.7544306,675.2540227999998,675.2710371999983,675.2710371999983,675.2710371999983,675.2710371999983,675.2710371999983,675.2710371999983,675.2710371999983,675.2710371999983,675.2710371999983,675.2710371999983,675.2710371999983,675.2710371999983,675.2710371999983,677.0684555999997,677.0684555999997,677.0684555999997,677.0684555999997,677.0684555999997,677.0684555999997,677.0684555999997,57,46,46,62,62,70,677.0684555999997,678.6032651999994,,,,,,,,,,,,３０６,f,２３,2023-05-18_13h06.54.816,RL,2022.2.5,60.159132937911544,
66,50,53,60,0,112,112,112,,,,,,,,,,,None,678.6032651999994,678.6032651999994,678.6032651999994,678.6032651999994,678.6032651999994,678.6032651999994,j,0.35392769999998563,678.9911284999998,678.9911284999998,678.9911284999998,678.9911284999998,678.9911284999998,678.9911284999998,679.2702568999994,680.4862034999987,680.5194603,680.5194603,680.5194603,680.5194603,680.5194603,680.5194603,680.5194603,680.5194603,680.5194603,680.5194603,680.5194603,680.5194603,680.5194603,682.0347524999997,682.0347524999997,682.0347524999997,682.0347524999997,682.0347524999997,682.0347524999997,682.0347524999997,66,50,53,60,60,70,682.0347524999997,683.6023058999999,,,,,,,,,,,,３０６,f,２３,2023-05-18_13h06.54.816,RL,2022.2.5,60.159132937911544,
66,39,53,64,0,113,113,113,,,,,,,,,,,None,683.6023058999999,683.6023058999999,683.6023058999999,683.6023058999999,683.6023058999999,683.6023058999999,i,0.2751028000002407,683.9033456999987,683.9033456999987,683.9033456999987,683.9033456999987,683.9033456999987,683.9033456999987,684.202145199999,685.68527,685.68527,685.68527,685.68527,685.68527,685.68527,685.68527,685.68527,685.68527,685.68527,685.68527,685.68527,685.68527,685.68527,687.4668156999996,687.4668156999996,687.4668156999996,687.4668156999996,687.4668156999996,687.4668156999996,687.4668156999996,66,39,53,64,53,70,687.4668156999996,689.0509521999993,,,,,,,,,,,,３０６,f,２３,2023-05-18_13h06.54.816,RL,2022.2.5,60.159132937911544,
62,46,48,72,0,114,114,114,,,,,,,,,,,None,689.0509521999993,689.0509521999993,689.0509521999993,689.0509521999993,689.0509521999993,689.0509521999993,j,0.2492193000016414,689.3184151999994,689.3184151999994,689.3184151999994,689.3184151999994,689.3184151999994,689.3184151999994,689.6014525999999,691.2179377999983,691.2345422999988,691.2345422999988,691.2345422999988,691.2345422999988,691.2345422999988,691.2345422999988,691.2345422999988,691.2345422999988,691.2345422999988,691.2345422999988,691.2345422999988,691.2345422999988,691.2345422999988,693.1493210999997,693.1493210999997,693.1493210999997,693.1493210999997,693.1493210999997,693.1493210999997,693.1493210999997,62,46,48,72,72,70,693.1493210999997,694.8001538999997,,,,,,,,,,,,３０６,f,２３,2023-05-18_13h06.54.816,RL,2022.2.5,60.159132937911544,
67,38,57,69,0,115,115,115,,,,,,,,,,,None,694.8001538999997,694.8001538999997,694.8001538999997,694.8001538999997,694.8001538999997,694.8001538999997,j,0.3123126000009506,695.1338102999998,695.1338102999998,695.1338102999998,695.1338102999998,695.1338102999998,695.1338102999998,695.4336579999999,696.5334764999989,696.5334764999989,696.5334764999989,696.5334764999989,696.5334764999989,696.5334764999989,696.5334764999989,696.5334764999989,696.5334764999989,696.5334764999989,696.5334764999989,696.5334764999989,696.5334764999989,696.5334764999989,697.9317704999994,697.9317704999994,697.9317704999994,697.9317704999994,697.9317704999994,697.9317704999994,697.9317704999994,67,38,57,69,69,70,697.9317704999994,699.7828922999997,,,,,,,,,,,,３０６,f,２３,2023-05-18_13h06.54.816,RL,2022.2.5,60.159132937911544,
70,33,47,68,0,116,116,116,,,,,,,,,,,None,699.7828922999997,699.7828922999997,699.7828922999997,699.7828922999997,699.7828922999997,699.7828922999997,j,0.4839460999992298,700.3063372999986,700.3063372999986,700.3063372999986,700.3063372999986,700.3063372999986,700.3063372999986,700.5829571999984,702.3490898,702.3823682999991,702.3823682999991,702.3823682999991,702.3823682999991,702.3823682999991,702.3823682999991,702.3823682999991,702.3823682999991,702.3823682999991,702.3823682999991,702.3823682999991,702.3823682999991,702.3823682999991,704.4470305999985,704.4470305999985,704.4470305999985,704.4470305999985,704.4470305999985,704.4470305999985,704.4470305999985,70,33,47,68,68,70,704.4470305999985,706.1983035999983,,,,,,,,,,,,３０６,f,２３,2023-05-18_13h06.54.816,RL,2022.2.5,60.159132937911544,
79,38,56,70,0,117,117,117,,,,,,,,,,,None,706.1983035999983,706.1983035999983,706.1983035999983,706.1983035999983,706.1983035999983,706.1983035999983,j,0.2765013000007457,706.5013133999983,706.5013133999983,706.5013133999983,706.5013133999983,706.5013133999983,706.5013133999983,706.7985303999994,708.2313766999996,708.2313766999996,708.2313766999996,708.2313766999996,708.2313766999996,708.2313766999996,708.2313766999996,708.2313766999996,708.2313766999996,708.2313766999996,708.2313766999996,708.2313766999996,708.2313766999996,708.2313766999996,709.9627721999987,709.9627721999987,709.9627721999987,709.9627721999987,709.9627721999987,709.9627721999987,709.9627721999987,79,38,56,70,70,70,709.9627721999987,711.8138504999988,,,,,,,,,,,,３０６,f,２３,2023-05-18_13h06.54.816,RL,2022.2.5,60.159132937911544,
77,36,54,70,0,118,118,118,,,,,,,,,,,None,711.8138504999988,711.8138504999988,711.8138504999988,711.8138504999988,711.8138504999988,711.8138504999988,j,0.2665718000007473,712.0979711,712.0979711,712.0979711,712.0979711,712.0979711,712.0979711,712.3973529999985,714.0304404999988,714.0304404999988,714.0304404999988,714.0304404999988,714.0304404999988,714.0304404999988,714.0304404999988,714.0304404999988,714.0304404999988,714.0304404999988,714.0304404999988,714.0304404999988,714.0304404999988,714.0304404999988,715.9616219,715.9616219,715.9616219,715.9616219,715.9616219,715.9616219,715.9616219,77,36,54,70,70,70,715.9616219,717.7797008999987,,,,,,,,,,,,３０６,f,２３,2023-05-18_13h06.54.816,RL,2022.2.5,60.159132937911544,
70,33,58,77,0,119,119,119,,,,,,,,,,,None,717.7797008999987,717.7797008999987,717.7797008999987,717.7797008999987,717.7797008999987,717.7797008999987,j,0.22837099999924249,718.0301769999987,718.0301769999987,718.0301769999987,718.0301769999987,718.0301769999987,718.0301769999987,718.3134035999992,720.2629699999998,720.2794378999988,720.2794378999988,720.2794378999988,720.2794378999988,720.2794378999988,720.2794378999988,720.2794378999988,720.2794378999988,720.2794378999988,720.2794378999988,720.2794378999988,720.2794378999988,720.2794378999988,722.5276138999998,722.5276138999998,722.5276138999998,722.5276138999998,722.5276138999998,722.5276138999998,722.5276138999998,70,33,58,77,77,70,722.5276138999998,724.0954867,,,,,,,,,,,,３０６,f,２３,2023-05-18_13h06.54.816,RL,2022.2.5,60.159132937911544,
71,40,61,64,0,120,120,120,,,,,,,,,,,None,724.0954867,724.0954867,724.0954867,724.0954867,724.0954867,724.0954867,j,0.2390746000000945,724.3657802999987,724.3657802999987,724.3657802999987,724.3657802999987,724.3657802999987,724.3657802999987,724.6454114999997,726.4117104999987,726.4451340999985,726.4451340999985,726.4451340999985,726.4451340999985,726.4451340999985,726.4451340999985,726.4451340999985,726.4451340999985,726.4451340999985,726.4451340999985,726.4451340999985,726.4451340999985,726.4451340999985,728.5096160999983,728.5096160999983,728.5096160999983,728.5096160999983,728.5096160999983,728.5096160999983,728.5096160999983,71,40,61,64,64,70,728.5096160999983,730.2771623999997,,,,,,,,,,,,３０６,f,２３,2023-05-18_13h06.54.816,RL,2022.2.5,60.159132937911544,
67,28,55,73,0,121,121,121,,,,,,,,,,,None,730.2771623999997,730.2771623999997,730.2771623999997,730.2771623999997,730.2771623999997,730.2771623999997,j,0.3180885000001581,730.6329368999995,730.6329368999995,730.6329368999995,730.6329368999995,730.6329368999995,730.6329368999995,730.9107882999997,732.5604881999989,732.5938478999997,732.5938478999997,732.5938478999997,732.5938478999997,732.5938478999997,732.5938478999997,732.5938478999997,732.5938478999997,732.5938478999997,732.5938478999997,732.5938478999997,732.5938478999997,732.5938478999997,734.5421358999993,734.5421358999993,734.5421358999993,734.5421358999993,734.5421358999993,734.5421358999993,734.5421358999993,67,28,55,73,73,70,734.5421358999993,736.2097617999989,,,,,,,,,,,,３０６,f,２３,2023-05-18_13h06.54.816,RL,2022.2.5,60.159132937911544,
