arm1,arm2,arm3,arm4,trials.thisRepN,trials.thisTrialN,trials.thisN,trials.thisIndex,instru_img1.started,instru_resp.started,instru_resp.keys,instru_resp.rt,image_2.started,text_2.started,image_2.stopped,text_2.stopped,fixbefore_2.started,fixbefore_2.stopped,rest_response.keys,red.started,green.started,yellow.started,blue.started,choose_bandit.started,Fixation.started,choose_bandit.keys,choose_bandit.rt,black.started,red_2.started,green_2.started,yellow_2.started,blue_2.started,fixation_2.started,docs.started,black.stopped,red_2.stopped,green_2.stopped,yellow_2.stopped,blue_2.stopped,fixation_2.stopped,docs.stopped,black_com.started,reward_sub.started,reward__sub.started,red_compare.started,green_com.started,yellow_com.started,blue_com.started,black_com.stopped,reward_sub.stopped,reward__sub.stopped,red_compare.stopped,green_com.stopped,yellow_com.stopped,blue_com.stopped,rewardred,rewardyellow,rewardblue,rewardgreen,subchoose,expectation,intertrialfix.started,intertrialfix.stopped,rest_image.started,rest_response.started,rest_response.rt,image_expect_after.started,text_exp_after.started,image_expect_after.stopped,text_exp_after.stopped,bigx.started,bigx.stopped,image.started,key_resp.started,key_resp.keys,key_resp.rt,participant,Gender,Age,date,expName,psychopyVersion,frameRate,
,,,,,,,,17.54178689999935,17.54178689999935,space,4.920077500000843,,,,,,,,,,,,,,,,,,,,,,,,,,,,,,,,,,,,,,,,,,,,,,,,,,,,,,,,,,,,,,,,,３０７,f,２６,2023-05-18_13h33.43.114,RL,2022.2.5,60.074744997546794,
34,39,68,57,0,0,0,0,,,,,22.479706399999486,22.479706399999486,27.4793525999994,27.4793525999994,27.4793525999994,28.482364600000437,None,28.482364600000437,28.482364600000437,28.482364600000437,28.482364600000437,28.482364600000437,28.482364600000437,f,0.36244430000078864,28.868257000000085,28.868257000000085,28.868257000000085,28.868257000000085,28.868257000000085,28.868257000000085,29.15581089999978,30.474161000000095,30.474161000000095,30.474161000000095,30.474161000000095,30.474161000000095,30.474161000000095,30.474161000000095,30.474161000000095,30.474161000000095,30.474161000000095,30.474161000000095,30.474161000000095,30.474161000000095,30.474161000000095,32.1225785000006,32.1225785000006,32.1225785000006,32.1225785000006,32.1225785000006,32.1225785000006,32.1225785000006,34,57,68,39,34,60,32.1225785000006,33.779809300000124,,,,,,,,,,,,,,３０７,f,２６,2023-05-18_13h33.43.114,RL,2022.2.5,60.074744997546794,
35,46,51,55,0,1,1,1,,,,,,,,,,,None,33.779809300000124,33.779809300000124,33.779809300000124,33.779809300000124,33.779809300000124,33.779809300000124,f,0.5305244999999559,34.33107799999925,34.33107799999925,34.33107799999925,34.33107799999925,34.33107799999925,34.33107799999925,34.61331240000072,36.22891390000041,36.22891390000041,36.22891390000041,36.22891390000041,36.22891390000041,36.22891390000041,36.2127361999992,36.22891390000041,36.22891390000041,36.22891390000041,36.22891390000041,36.22891390000041,36.22891390000041,36.22891390000041,38.12729500000023,38.12729500000023,38.12729500000023,38.12729500000023,38.12729500000023,38.12729500000023,38.12729500000023,35,55,51,46,35,60,38.12729500000023,39.678027800000564,,,,,,,,,,,,,,３０７,f,２６,2023-05-18_13h33.43.114,RL,2022.2.5,60.074744997546794,
34,45,47,56,0,2,2,2,,,,,,,,,,,None,39.678027800000564,39.678027800000564,39.678027800000564,39.678027800000564,39.678027800000564,39.678027800000564,f,0.9380569000004471,40.64900359999956,40.64900359999956,40.64900359999956,40.64900359999956,40.64900359999956,40.64900359999956,40.945105499999045,42.078057400000034,42.078057400000034,42.078057400000034,42.078057400000034,42.078057400000034,42.078057400000034,42.078057400000034,42.078057400000034,42.078057400000034,42.078057400000034,42.078057400000034,42.078057400000034,42.078057400000034,42.078057400000034,43.5093152999998,43.5093152999998,43.5093152999998,43.5093152999998,43.5093152999998,43.5093152999998,43.5093152999998,34,56,47,45,34,60,43.5093152999998,45.12758170000052,,,,,,,,,,,,,,３０７,f,２６,2023-05-18_13h33.43.114,RL,2022.2.5,60.074744997546794,
33,44,56,60,0,3,3,3,,,,,,,,,,,None,45.12758170000052,45.12758170000052,45.12758170000052,45.12758170000052,45.12758170000052,45.12758170000052,f,0.9044363000011799,46.063730699999724,46.063730699999724,46.063730699999724,46.063730699999724,46.063730699999724,46.063730699999724,46.344307800000024,47.82718340000065,47.82718340000065,47.82718340000065,47.82718340000065,47.82718340000065,47.82718340000065,47.810465500000646,47.82718340000065,47.82718340000065,47.82718340000065,47.82718340000065,47.82718340000065,47.82718340000065,47.82718340000065,49.59167440000056,49.59167440000056,49.59167440000056,49.59167440000056,49.59167440000056,49.59167440000056,49.59167440000056,33,60,56,44,33,60,49.59167440000056,51.19269290000011,,,,,,,,,,,,,,３０７,f,２６,2023-05-18_13h33.43.114,RL,2022.2.5,60.074744997546794,
30,45,58,55,0,4,4,4,,,,,,,,,,,None,51.19269290000011,51.19269290000011,51.19269290000011,51.19269290000011,51.19269290000011,51.19269290000011,f,0.8090689000000566,52.026430599999,52.026430599999,52.026430599999,52.026430599999,52.026430599999,52.026430599999,52.30978320000031,53.376048099999025,53.376048099999025,53.376048099999025,53.376048099999025,53.376048099999025,53.376048099999025,53.35962769999969,53.376048099999025,53.376048099999025,53.376048099999025,53.376048099999025,53.376048099999025,53.376048099999025,53.376048099999025,54.72428369999943,54.72428369999943,54.72428369999943,54.72428369999943,54.72428369999943,54.72428369999943,54.72428369999943,30,55,58,45,30,60,54.72428369999943,56.525434699999096,,,,,,,,,,,,,,３０７,f,２６,2023-05-18_13h33.43.114,RL,2022.2.5,60.074744997546794,
38,41,57,63,0,5,5,5,,,,,,,,,,,None,56.525434699999096,56.525434699999096,56.525434699999096,56.525434699999096,56.525434699999096,56.525434699999096,f,0.9317039000015939,57.47615029999906,57.47615029999906,57.47615029999906,57.47615029999906,57.47615029999906,57.47615029999906,57.77529999999933,59.27490410000064,59.27490410000064,59.27490410000064,59.27490410000064,59.27490410000064,59.27490410000064,59.258367700000235,59.27490410000064,59.27490410000064,59.27490410000064,59.27490410000064,59.27490410000064,59.27490410000064,59.27490410000064,61.056331100000534,61.056331100000534,61.056331100000534,61.056331100000534,61.056331100000534,61.056331100000534,61.056331100000534,38,63,57,41,38,60,61.056331100000534,62.87431459999971,,,,,,,,,,,,,,３０７,f,２６,2023-05-18_13h33.43.114,RL,2022.2.5,60.074744997546794,
27,43,52,62,0,6,6,6,,,,,,,,,,,None,62.87431459999971,62.87431459999971,62.87431459999971,62.87431459999971,62.87431459999971,62.87431459999971,f,1.041492799999105,63.94098739999936,63.94098739999936,63.94098739999936,63.94098739999936,63.94098739999936,63.94098739999936,64.2242755999996,65.39045350000015,65.39045350000015,65.39045350000015,65.39045350000015,65.39045350000015,65.39045350000015,65.3740214999998,65.39045350000015,65.39045350000015,65.39045350000015,65.39045350000015,65.39045350000015,65.39045350000015,65.39045350000015,66.83912710000004,66.83912710000004,66.83912710000004,66.83912710000004,66.83912710000004,66.83912710000004,66.83912710000004,27,62,52,43,27,60,66.83912710000004,68.57356129999971,,,,,,,,,,,,,,３０７,f,２６,2023-05-18_13h33.43.114,RL,2022.2.5,60.074744997546794,
41,44,49,70,0,7,7,7,,,,,,,,,,,None,68.57356129999971,68.57356129999971,68.57356129999971,68.57356129999971,68.57356129999971,68.57356129999971,f,1.2805889999999636,69.8748615000004,69.8748615000004,69.8748615000004,69.8748615000004,69.8748615000004,69.8748615000004,70.1568943000002,71.95593820000067,71.95593820000067,71.95593820000067,71.95593820000067,71.95593820000067,71.95593820000067,71.93973469999946,71.95593820000067,71.95593820000067,71.95593820000067,71.95593820000067,71.95593820000067,71.95593820000067,71.95593820000067,74.02096650000021,74.02096650000021,74.02096650000021,74.02096650000021,74.02096650000021,74.02096650000021,74.02096650000021,41,70,49,44,41,60,74.02096650000021,75.82164799999919,,,,,,,,,,,,,,３０７,f,２６,2023-05-18_13h33.43.114,RL,2022.2.5,60.074744997546794,
43,42,57,70,0,8,8,8,,,,,,,,,,,None,75.82164799999919,75.82164799999919,75.82164799999919,75.82164799999919,75.82164799999919,75.82164799999919,j,1.186477699999159,77.0388880999999,77.0388880999999,77.0388880999999,77.0388880999999,77.0388880999999,77.0388880999999,77.32214249999925,78.48824670000067,78.48824670000067,78.48824670000067,78.48824670000067,78.48824670000067,78.48824670000067,78.47212709999985,78.48824670000067,78.48824670000067,78.48824670000067,78.48824670000067,78.48824670000067,78.48824670000067,78.48824670000067,79.93644829999903,79.93644829999903,79.93644829999903,79.93644829999903,79.93644829999903,79.93644829999903,79.93644829999903,43,70,57,42,42,60,79.93644829999903,81.6874239000008,,,,,,,,,,,,,,３０７,f,２６,2023-05-18_13h33.43.114,RL,2022.2.5,60.074744997546794,
41,36,42,64,0,9,9,9,,,,,,,,,,,None,81.6874239000008,81.6874239000008,81.6874239000008,81.6874239000008,81.6874239000008,81.6874239000008,i,1.0561624000001757,82.7712448000002,82.7712448000002,82.7712448000002,82.7712448000002,82.7712448000002,82.7712448000002,83.05434839999907,84.90459569999985,84.90459569999985,84.90459569999985,84.90459569999985,84.90459569999985,84.90459569999985,84.88735690000067,84.90459569999985,84.90459569999985,84.90459569999985,84.90459569999985,84.90459569999985,84.90459569999985,84.90459569999985,87.03530259999934,87.03530259999934,87.03530259999934,87.03530259999934,87.03530259999934,87.03530259999934,87.03530259999934,41,64,42,36,42,60,87.03530259999934,88.93656519999968,,,,,,,,,,,,,,３０７,f,２６,2023-05-18_13h33.43.114,RL,2022.2.5,60.074744997546794,
42,47,55,62,0,10,10,10,,,,,,,,,,,None,88.93656519999968,88.93656519999968,88.93656519999968,88.93656519999968,88.93656519999968,88.93656519999968,r,0.49498289999974077,89.45336359999965,89.45336359999965,89.45336359999965,89.45336359999965,89.45336359999965,89.45336359999965,89.73699850000048,91.4859622999993,91.4859622999993,91.4859622999993,91.4859622999993,91.4859622999993,91.4859622999993,91.46949800000039,91.4859622999993,91.4859622999993,91.4859622999993,91.4859622999993,91.4859622999993,91.4859622999993,91.4859622999993,93.51782679999997,93.51782679999997,93.51782679999997,93.51782679999997,93.51782679999997,93.51782679999997,93.51782679999997,42,62,55,47,62,60,93.51782679999997,95.08523090000017,,,,,,,,,,,,,,３０７,f,２６,2023-05-18_13h33.43.114,RL,2022.2.5,60.074744997546794,
36,46,64,73,0,11,11,11,,,,,,,,,,,None,95.08523090000017,95.08523090000017,95.08523090000017,95.08523090000017,95.08523090000017,95.08523090000017,f,0.5948059999991528,95.70269170000029,95.70269170000029,95.70269170000029,95.70269170000029,95.70269170000029,95.70269170000029,96.0026969999999,97.40201909999996,97.40201909999996,97.40201909999996,97.40201909999996,97.40201909999996,97.40201909999996,97.40201909999996,97.40201909999996,97.40201909999996,97.40201909999996,97.40201909999996,97.40201909999996,97.40201909999996,97.40201909999996,99.10005420000016,99.10005420000016,99.10005420000016,99.10005420000016,99.10005420000016,99.10005420000016,99.10005420000016,36,73,64,46,36,60,99.10005420000016,100.76732520000041,,,,,,,,,,,,,,３０７,f,２６,2023-05-18_13h33.43.114,RL,2022.2.5,60.074744997546794,
34,48,59,73,0,12,12,12,,,,,,,,,,,None,100.76732520000041,100.76732520000041,100.76732520000041,100.76732520000041,100.76732520000041,100.76732520000041,r,1.2886357000006683,102.08466910000061,102.08466910000061,102.08466910000061,102.08466910000061,102.08466910000061,102.08466910000061,102.38452680000046,103.43411039999955,103.43411039999955,103.43411039999955,103.43411039999955,103.43411039999955,103.43411039999955,103.43411039999955,103.43411039999955,103.43411039999955,103.43411039999955,103.43411039999955,103.43411039999955,103.43411039999955,103.43411039999955,104.78213730000061,104.78213730000061,104.78213730000061,104.78213730000061,104.78213730000061,104.78213730000061,104.78213730000061,34,73,59,48,73,60,104.78213730000061,106.73374449999937,,,,,,,,,,,,,,３０７,f,２６,2023-05-18_13h33.43.114,RL,2022.2.5,60.074744997546794,
30,54,63,64,0,13,13,13,,,,,,,,,,,None,106.73374449999937,106.73374449999937,106.73374449999937,106.73374449999937,106.73374449999937,106.73374449999937,r,0.8024743000005401,107.57033179999962,107.57033179999962,107.57033179999962,107.57033179999962,107.57033179999962,107.57033179999962,107.85033870000007,109.70002589999967,109.70002589999967,109.70002589999967,109.70002589999967,109.70002589999967,109.70002589999967,109.68345950000003,109.70002589999967,109.70002589999967,109.70002589999967,109.70002589999967,109.70002589999967,109.70002589999967,109.70002589999967,111.83106860000044,111.83106860000044,111.83106860000044,111.83106860000044,111.83106860000044,111.83106860000044,111.83106860000044,30,64,63,54,64,60,111.83106860000044,113.5991054999995,,,,,,,,,,,,,,３０７,f,２６,2023-05-18_13h33.43.114,RL,2022.2.5,60.074744997546794,
33,58,64,71,0,14,14,14,,,,,,,,,,,None,113.5991054999995,113.5991054999995,113.5991054999995,113.5991054999995,113.5991054999995,113.5991054999995,r,0.40728369999851566,114.0330539000006,114.0330539000006,114.0330539000006,114.0330539000006,114.0330539000006,114.0330539000006,114.31600330000038,116.0485004000002,116.0485004000002,116.0485004000002,116.0485004000002,116.0485004000002,116.0485004000002,116.03207889999976,116.0485004000002,116.0485004000002,116.0485004000002,116.0485004000002,116.0485004000002,116.0485004000002,116.0485004000002,118.06303769999977,118.06303769999977,118.06303769999977,118.06303769999977,118.06303769999977,118.06303769999977,118.06303769999977,33,71,64,58,71,60,118.06303769999977,119.96429650000027,,,,,,,,,,,,,,３０７,f,２６,2023-05-18_13h33.43.114,RL,2022.2.5,60.074744997546794,
36,54,65,72,0,15,15,15,,,,,,,,,,,None,119.96429650000027,119.96429650000027,119.96429650000027,119.96429650000027,119.96429650000027,119.96429650000027,r,0.3987116000007518,120.38146640000014,120.38146640000014,120.38146640000014,120.38146640000014,120.38146640000014,120.38146640000014,120.66455490000044,121.83090020000054,121.83090020000054,121.83090020000054,121.83090020000054,121.83090020000054,121.83090020000054,121.81441040000027,121.83090020000054,121.83090020000054,121.83090020000054,121.83090020000054,121.83090020000054,121.83090020000054,121.83090020000054,123.27912429999924,123.27912429999924,123.27912429999924,123.27912429999924,123.27912429999924,123.27912429999924,123.27912429999924,36,72,65,54,72,60,123.27912429999924,125.18036030000076,,,,,,,,,,,,,,３０７,f,２６,2023-05-18_13h33.43.114,RL,2022.2.5,60.074744997546794,
40,55,68,73,0,16,16,16,,,,,,,,,,,None,125.18036030000076,125.18036030000076,125.18036030000076,125.18036030000076,125.18036030000076,125.18036030000076,r,0.41501849999986007,125.61385549999977,125.61385549999977,125.61385549999977,125.61385549999977,125.61385549999977,125.61385549999977,125.89717310000015,127.7301707000006,127.7301707000006,127.7301707000006,127.7301707000006,127.7301707000006,127.7301707000006,127.71370000000024,127.7301707000006,127.7301707000006,127.7301707000006,127.7301707000006,127.7301707000006,127.7301707000006,127.7301707000006,129.84498109999913,129.84498109999913,129.84498109999913,129.84498109999913,129.84498109999913,129.84498109999913,129.84498109999913,40,73,68,55,73,60,129.84498109999913,131.5958544999994,,,,,,,,,,,,,,３０７,f,２６,2023-05-18_13h33.43.114,RL,2022.2.5,60.074744997546794,
40,58,57,56,0,17,17,17,,,,,,,,,,,None,131.5958544999994,131.5958544999994,131.5958544999994,131.5958544999994,131.5958544999994,131.5958544999994,r,0.40090950000012526,132.03411880000021,132.03411880000021,132.03411880000021,132.03411880000021,132.03411880000021,132.03411880000021,132.32908099999986,133.2292240000006,133.2292240000006,133.2292240000006,133.2292240000006,133.2292240000006,133.2292240000006,133.2292240000006,133.2292240000006,133.2292240000006,133.2292240000006,133.2292240000006,133.2292240000006,133.2292240000006,133.2292240000006,134.41072170000007,134.41072170000007,134.41072170000007,134.41072170000007,134.41072170000007,134.41072170000007,134.41072170000007,40,56,57,58,56,60,134.41072170000007,136.19464829999924,,,,,,,,,,,,,,３０７,f,２６,2023-05-18_13h33.43.114,RL,2022.2.5,60.074744997546794,
40,61,58,65,0,18,18,18,,,,,,,,,,,None,136.19464829999924,136.19464829999924,136.19464829999924,136.19464829999924,136.19464829999924,136.19464829999924,r,0.3960993000000599,136.6118502999998,136.6118502999998,136.6118502999998,136.6118502999998,136.6118502999998,136.6118502999998,136.9116071999997,138.57806440000059,138.57806440000059,138.57806440000059,138.57806440000059,138.57806440000059,138.57806440000059,138.57806440000059,138.57806440000059,138.57806440000059,138.57806440000059,138.57806440000059,138.57806440000059,138.57806440000059,138.57806440000059,140.54258409999966,140.54258409999966,140.54258409999966,140.54258409999966,140.54258409999966,140.54258409999966,140.54258409999966,40,65,58,61,65,60,140.54258409999966,142.49384549999922,,,,,,,,,,,,,,３０７,f,２６,2023-05-18_13h33.43.114,RL,2022.2.5,60.074744997546794,
36,55,67,62,0,19,19,19,,,,,,,,,,,None,142.49384549999922,142.49384549999922,142.49384549999922,142.49384549999922,142.49384549999922,142.49384549999922,r,0.5963400000000547,143.1110750000007,143.1110750000007,143.1110750000007,143.1110750000007,143.1110750000007,143.1110750000007,143.39400039999964,144.3770870999997,144.3770870999997,144.3770870999997,144.3770870999997,144.3770870999997,144.3770870999997,144.3604976000006,144.3770870999997,144.3770870999997,144.3770870999997,144.3770870999997,144.3770870999997,144.3770870999997,144.3770870999997,145.6417404999993,145.6417404999993,145.6417404999993,145.6417404999993,145.6417404999993,145.6417404999993,145.6417404999993,36,62,67,55,62,60,145.6417404999993,147.59258480000062,,,,,,,,,,,,,,３０７,f,２６,2023-05-18_13h33.43.114,RL,2022.2.5,60.074744997546794,
43,43,67,68,0,20,20,20,,,,,,,,,,,None,147.59258480000062,147.59258480000062,147.59258480000062,147.59258480000062,147.59258480000062,147.59258480000062,r,0.5113291999987268,148.12672960000054,148.12672960000054,148.12672960000054,148.12672960000054,148.12672960000054,148.12672960000054,148.41540759999953,149.2929726000002,149.2929726000002,149.2929726000002,149.2929726000002,149.2929726000002,149.2929726000002,149.2766584000001,149.2929726000002,149.2929726000002,149.2929726000002,149.2929726000002,149.2929726000002,149.2929726000002,149.2929726000002,150.45805579999978,150.45805579999978,150.45805579999978,150.45805579999978,150.45805579999978,150.45805579999978,150.45805579999978,43,68,67,43,68,60,150.45805579999978,152.15889640000023,,,,,,,,,,,,,,３０７,f,２６,2023-05-18_13h33.43.114,RL,2022.2.5,60.074744997546794,
46,46,63,72,0,21,21,21,,,,,,,,,,,None,152.15889640000023,152.15889640000023,152.15889640000023,152.15889640000023,152.15889640000023,152.15889640000023,r,0.5061037000014039,152.69233259999965,152.69233259999965,152.69233259999965,152.69233259999965,152.69233259999965,152.69233259999965,152.97584049999932,154.1255803999993,154.1255803999993,154.1255803999993,154.1255803999993,154.1255803999993,154.1255803999993,154.10862749999978,154.1255803999993,154.1255803999993,154.1255803999993,154.1255803999993,154.1255803999993,154.1255803999993,154.1255803999993,155.55719730000055,155.55719730000055,155.55719730000055,155.55719730000055,155.55719730000055,155.55719730000055,155.55719730000055,46,72,63,46,72,60,155.55719730000055,157.3911508000001,,,,,,,,,,,,,,３０７,f,２６,2023-05-18_13h33.43.114,RL,2022.2.5,60.074744997546794,
53,63,60,67,0,22,22,22,,,,,,,,,,,None,157.3911508000001,157.3911508000001,157.3911508000001,157.3911508000001,157.3911508000001,157.3911508000001,r,0.7469265999989148,158.1581912999991,158.1581912999991,158.1581912999991,158.1581912999991,158.1581912999991,158.1581912999991,158.44110999999975,159.95747680000022,159.95747680000022,159.95747680000022,159.95747680000022,159.95747680000022,159.95747680000022,159.94110700000056,159.95747680000022,159.95747680000022,159.95747680000022,159.95747680000022,159.95747680000022,159.95747680000022,159.95747680000022,161.75619310000002,161.75619310000002,161.75619310000002,161.75619310000002,161.75619310000002,161.75619310000002,161.75619310000002,53,67,60,63,67,60,161.75619310000002,163.42321710000033,,,,,,,,,,,,,,３０７,f,２６,2023-05-18_13h33.43.114,RL,2022.2.5,60.074744997546794,
50,61,50,59,0,23,23,23,,,,,,,,,,,None,163.42321710000033,163.42321710000033,163.42321710000033,163.42321710000033,163.42321710000033,163.42321710000033,r,0.3373496999993222,163.7906321999999,163.7906321999999,163.7906321999999,163.7906321999999,163.7906321999999,163.7906321999999,164.07398359999934,166.09025629999996,166.09025629999996,166.09025629999996,166.09025629999996,166.09025629999996,166.09025629999996,166.05652999999984,166.09025629999996,166.09025629999996,166.09025629999996,166.09025629999996,166.09025629999996,166.09025629999996,166.09025629999996,168.37103050000042,168.37103050000042,168.37103050000042,168.37103050000042,168.37103050000042,168.37103050000042,168.37103050000042,50,59,50,61,59,60,168.37103050000042,169.93910850000066,,,,,,,,,,,,,,３０７,f,２６,2023-05-18_13h33.43.114,RL,2022.2.5,60.074744997546794,
55,49,53,63,0,24,24,24,,,,,,,,,,,None,169.93910850000066,169.93910850000066,169.93910850000066,169.93910850000066,169.93910850000066,169.93910850000066,r,0.4755117999993672,170.43931479999992,170.43931479999992,170.43931479999992,170.43931479999992,170.43931479999992,170.43931479999992,170.72326049999901,171.83874119999928,171.83874119999928,171.83874119999928,171.83874119999928,171.83874119999928,171.83874119999928,171.8220394,171.83874119999928,171.83874119999928,171.83874119999928,171.83874119999928,171.83874119999928,171.83874119999928,171.83874119999928,173.23726840000018,173.23726840000018,173.23726840000018,173.23726840000018,173.23726840000018,173.23726840000018,173.23726840000018,55,63,53,49,63,60,173.23726840000018,175.1882609000004,,,,,,,,,,,,,,３０７,f,２６,2023-05-18_13h33.43.114,RL,2022.2.5,60.074744997546794,
48,50,52,62,0,25,25,25,,,,,,,,,,,None,175.1882609000004,175.1882609000004,175.1882609000004,175.1882609000004,175.1882609000004,175.1882609000004,r,0.34018769999966025,175.5551207999997,175.5551207999997,175.5551207999997,175.5551207999997,175.5551207999997,175.5551207999997,175.8386260999996,177.47137929999917,177.47137929999917,177.47137929999917,177.47137929999917,177.47137929999917,177.47137929999917,177.4547808999996,177.47137929999917,177.47137929999917,177.47137929999917,177.47137929999917,177.47137929999917,177.47137929999917,177.47137929999917,179.38613219999934,179.38613219999934,179.38613219999934,179.38613219999934,179.38613219999934,179.38613219999934,179.38613219999934,48,62,52,50,62,60,179.38613219999934,181.13724469999943,,,,,,,,,,,,,,３０７,f,２６,2023-05-18_13h33.43.114,RL,2022.2.5,60.074744997546794,
47,55,53,69,0,26,26,26,,,,,,,,,,,None,181.13724469999943,181.13724469999943,181.13724469999943,181.13724469999943,181.13724469999943,181.13724469999943,r,0.39569940000001225,181.55412629999955,181.55412629999955,181.55412629999955,181.55412629999955,181.55412629999955,181.55412629999955,181.85374279999996,183.43678419999924,183.43678419999924,183.43678419999924,183.43678419999924,183.43678419999924,183.43678419999924,183.43678419999924,183.43678419999924,183.43678419999924,183.43678419999924,183.43678419999924,183.43678419999924,183.43678419999924,183.43678419999924,185.31855990000076,185.31855990000076,185.31855990000076,185.31855990000076,185.31855990000076,185.31855990000076,185.31855990000076,47,69,53,55,69,60,185.31855990000076,187.06954269999915,,,,,,,,,,,,,,３０７,f,２６,2023-05-18_13h33.43.114,RL,2022.2.5,60.074744997546794,
48,57,45,62,0,27,27,27,,,,,,,,,,,None,187.06954269999915,187.06954269999915,187.06954269999915,187.06954269999915,187.06954269999915,187.06954269999915,r,0.3322779999998602,187.42070400000011,187.42070400000011,187.42070400000011,187.42070400000011,187.42070400000011,187.42070400000011,187.70325819999925,188.7528614999992,188.7528614999992,188.7528614999992,188.7528614999992,188.7528614999992,188.7528614999992,188.7362587000007,188.7528614999992,188.7528614999992,188.7528614999992,188.7528614999992,188.7528614999992,188.7528614999992,188.7528614999992,190.08438439999918,190.08438439999918,190.08438439999918,190.08438439999918,190.08438439999918,190.08438439999918,190.08438439999918,48,62,45,57,62,60,190.08438439999918,191.65175739999904,,,,,,,,,,,,,,３０７,f,２６,2023-05-18_13h33.43.114,RL,2022.2.5,60.074744997546794,
42,57,48,50,0,28,28,28,,,,,,,,,,,None,191.65175739999904,191.65175739999904,191.65175739999904,191.65175739999904,191.65175739999904,191.65175739999904,r,0.3502778000001854,192.0390157999991,192.0390157999991,192.0390157999991,192.0390157999991,192.0390157999991,192.0390157999991,192.31895110000005,193.76834210000015,193.76834210000015,193.76834210000015,193.76834210000015,193.76834210000015,193.76834210000015,193.75175510000008,193.76834210000015,193.76834210000015,193.76834210000015,193.76834210000015,193.76834210000015,193.76834210000015,193.76834210000015,195.49990900000012,195.49990900000012,195.49990900000012,195.49990900000012,195.49990900000012,195.49990900000012,195.49990900000012,42,50,48,57,50,60,195.49990900000012,197.10067030000027,,,,,,,,,,,,,,３０７,f,２６,2023-05-18_13h33.43.114,RL,2022.2.5,60.074744997546794,
49,52,57,65,0,29,29,29,,,,,,,,,,,None,197.10067030000027,197.10067030000027,197.10067030000027,197.10067030000027,197.10067030000027,197.10067030000027,r,0.3295144999992772,197.45286639999904,197.45286639999904,197.45286639999904,197.45286639999904,197.45286639999904,197.45286639999904,197.73448239999925,199.50062120000075,199.50062120000075,199.50062120000075,199.50062120000075,199.50062120000075,199.50062120000075,199.48408120000022,199.50062120000075,199.50062120000075,199.50062120000075,199.50062120000075,199.50062120000075,199.50062120000075,199.50062120000075,201.5486946000001,201.5486946000001,201.5486946000001,201.5486946000001,201.5486946000001,201.5486946000001,201.5486946000001,49,65,57,52,65,60,201.5486946000001,203.46633219999967,,,,,,,,,,,,,,３０７,f,２６,2023-05-18_13h33.43.114,RL,2022.2.5,60.074744997546794,
53,42,54,54,0,30,30,30,,,,,,,,,,,None,203.46633219999967,203.46633219999967,203.46633219999967,203.46633219999967,203.46633219999967,203.46633219999967,r,0.41336090000004333,203.90155670000058,203.90155670000058,203.90155670000058,203.90155670000058,203.90155670000058,203.90155670000058,204.20023120000042,205.64980169999944,205.64980169999944,205.64980169999944,205.64980169999944,205.64980169999944,205.64980169999944,205.64980169999944,205.64980169999944,205.64980169999944,205.64980169999944,205.64980169999944,205.64980169999944,205.64980169999944,205.64980169999944,207.39815099999942,207.39815099999942,207.39815099999942,207.39815099999942,207.39815099999942,207.39815099999942,207.39815099999942,53,54,54,42,54,60,207.39815099999942,209.2987286000007,,,,,,,,,,,,,,３０７,f,２６,2023-05-18_13h33.43.114,RL,2022.2.5,60.074744997546794,
51,47,53,47,0,31,31,31,,,,,,,,,,,None,209.2987286000007,209.2987286000007,209.2987286000007,209.2987286000007,209.2987286000007,209.2987286000007,r,0.3354415000012523,209.67202689999976,209.67202689999976,209.67202689999976,209.67202689999976,209.67202689999976,209.67202689999976,209.94910870000058,210.79903790000026,210.79903790000026,210.79903790000026,210.79903790000026,210.79903790000026,210.79903790000026,210.78220239999973,210.79903790000026,210.79903790000026,210.79903790000026,210.79903790000026,210.79903790000026,210.79903790000026,210.79903790000026,211.93062439999994,211.93062439999994,211.93062439999994,211.93062439999994,211.93062439999994,211.93062439999994,211.93062439999994,51,47,53,47,47,60,211.93062439999994,213.6479488999994,,,,,,,,,,,,,,３０７,f,２６,2023-05-18_13h33.43.114,RL,2022.2.5,60.074744997546794,
55,52,62,46,0,32,32,32,,,,,,,,,,,None,213.6479488999994,213.6479488999994,213.6479488999994,213.6479488999994,213.6479488999994,213.6479488999994,r,0.407882100000279,214.08316379999997,214.08316379999997,214.08316379999997,214.08316379999997,214.08316379999997,214.08316379999997,214.3652318000004,215.31477950000044,215.31477950000044,215.31477950000044,215.31477950000044,215.31477950000044,215.31477950000044,215.29816670000037,215.31477950000044,215.31477950000044,215.31477950000044,215.31477950000044,215.31477950000044,215.31477950000044,215.31477950000044,216.5464032,216.5464032,216.5464032,216.5464032,216.5464032,216.5464032,216.5464032,55,46,62,52,46,60,216.5464032,218.36399849999907,,,,,,,,,,,,,,３０７,f,２６,2023-05-18_13h33.43.114,RL,2022.2.5,60.074744997546794,
46,54,52,58,0,33,33,33,,,,,,,,,,,None,218.36399849999907,218.36399849999907,218.36399849999907,218.36399849999907,218.36399849999907,218.36399849999907,i,0.6856164999990142,219.08190680000007,219.08190680000007,219.08190680000007,219.08190680000007,219.08190680000007,219.08190680000007,219.38061949999974,221.34734500000013,221.34734500000013,221.34734500000013,221.34734500000013,221.34734500000013,221.34734500000013,221.34734500000013,221.34734500000013,221.34734500000013,221.34734500000013,221.34734500000013,221.34734500000013,221.34734500000013,221.34734500000013,223.61166740000044,223.61166740000044,223.61166740000044,223.61166740000044,223.61166740000044,223.61166740000044,223.61166740000044,46,58,52,54,52,60,223.61166740000044,225.42923689999952,,,,,,,,,,,,,,３０７,f,２６,2023-05-18_13h33.43.114,RL,2022.2.5,60.074744997546794,
59,43,67,55,0,34,34,34,,,,,,,,,,,None,225.42923689999952,225.42923689999952,225.42923689999952,225.42923689999952,225.42923689999952,225.42923689999952,j,0.5725700000002689,226.02969830000075,226.02969830000075,226.02969830000075,226.02969830000075,226.02969830000075,226.02969830000075,226.31309379999948,227.37938829999985,227.37938829999985,227.37938829999985,227.37938829999985,227.37938829999985,227.37938829999985,227.36274269999922,227.37938829999985,227.37938829999985,227.37938829999985,227.37938829999985,227.37938829999985,227.37938829999985,227.37938829999985,228.72747940000045,228.72747940000045,228.72747940000045,228.72747940000045,228.72747940000045,228.72747940000045,228.72747940000045,59,55,67,43,43,60,228.72747940000045,230.46175260000018,,,,,,,,,,,,,,３０７,f,２６,2023-05-18_13h33.43.114,RL,2022.2.5,60.074744997546794,
54,58,59,58,0,35,35,35,,,,,,,,,,,None,230.46175260000018,230.46175260000018,230.46175260000018,230.46175260000018,230.46175260000018,230.46175260000018,r,0.3834062999994785,230.86232989999917,230.86232989999917,230.86232989999917,230.86232989999917,230.86232989999917,230.86232989999917,231.16214620000028,233.145327799999,233.145327799999,233.145327799999,233.145327799999,233.145327799999,233.145327799999,233.145327799999,233.145327799999,233.145327799999,233.145327799999,233.145327799999,233.145327799999,233.145327799999,233.145327799999,235.42642119999982,235.42642119999982,235.42642119999982,235.42642119999982,235.42642119999982,235.42642119999982,235.42642119999982,54,58,59,58,58,60,235.42642119999982,237.32748399999946,,,,,,,,,,,,,,３０７,f,２６,2023-05-18_13h33.43.114,RL,2022.2.5,60.074744997546794,
62,51,68,59,0,36,36,36,,,,,,,,,,,None,237.32748399999946,237.32748399999946,237.32748399999946,237.32748399999946,237.32748399999946,237.32748399999946,r,0.33264000000053784,237.6782777999997,237.6782777999997,237.6782777999997,237.6782777999997,237.6782777999997,237.6782777999997,237.9776810000003,239.34422020000056,239.34422020000056,239.34422020000056,239.34422020000056,239.34422020000056,239.34422020000056,239.34422020000056,239.34422020000056,239.34422020000056,239.34422020000056,239.34422020000056,239.34422020000056,239.34422020000056,239.34422020000056,241.0084253999994,241.0084253999994,241.0084253999994,241.0084253999994,241.0084253999994,241.0084253999994,241.0084253999994,62,59,68,51,59,60,241.0084253999994,242.69287970000005,,,,,,,,,,,,,,３０７,f,２６,2023-05-18_13h33.43.114,RL,2022.2.5,60.074744997546794,
61,51,66,74,0,37,37,37,,,,,,,,,,,None,242.69287970000005,242.69287970000005,242.69287970000005,242.69287970000005,242.69287970000005,242.69287970000005,r,0.3677852000000712,243.09961750000002,243.09961750000002,243.09961750000002,243.09961750000002,243.09961750000002,243.09961750000002,243.37689649999993,244.8761644999995,244.8761644999995,244.8761644999995,244.8761644999995,244.8761644999995,244.8761644999995,244.85973390000072,244.8761644999995,244.8761644999995,244.8761644999995,244.8761644999995,244.8761644999995,244.8761644999995,244.8761644999995,246.65764049999962,246.65764049999962,246.65764049999962,246.65764049999962,246.65764049999962,246.65764049999962,246.65764049999962,61,74,66,51,74,60,246.65764049999962,248.3589248999997,,,,,,,,,,,,,,３０７,f,２６,2023-05-18_13h33.43.114,RL,2022.2.5,60.074744997546794,
57,59,57,61,0,38,38,38,,,,,,,,,,,None,248.3589248999997,248.3589248999997,248.3589248999997,248.3589248999997,248.3589248999997,248.3589248999997,r,0.27875810000114143,248.65935979999995,248.65935979999995,248.65935979999995,248.65935979999995,248.65935979999995,248.65935979999995,248.9425138000006,250.59247239999968,250.59247239999968,250.59247239999968,250.59247239999968,250.59247239999968,250.59247239999968,250.57540870000048,250.59247239999968,250.59247239999968,250.59247239999968,250.59247239999968,250.59247239999968,250.59247239999968,250.59247239999968,252.52334549999978,252.52334549999978,252.52334549999978,252.52334549999978,252.52334549999978,252.52334549999978,252.52334549999978,57,61,57,59,61,60,252.52334549999978,254.0414497999991,,,,,,,,,,,,,,３０７,f,２６,2023-05-18_13h33.43.114,RL,2022.2.5,60.074744997546794,
64,48,68,59,0,39,39,39,,,,,,,,,,,None,254.0414497999991,254.0414497999991,254.0414497999991,254.0414497999991,254.0414497999991,254.0414497999991,r,0.3783296000001428,254.44669430000067,254.44669430000067,254.44669430000067,254.44669430000067,254.44669430000067,254.44669430000067,254.7411845000006,256.10773750000044,256.10773750000044,256.10773750000044,256.10773750000044,256.10773750000044,256.10773750000044,256.10773750000044,256.10773750000044,256.10773750000044,256.10773750000044,256.10773750000044,256.10773750000044,256.10773750000044,256.10773750000044,257.77214060000006,257.77214060000006,257.77214060000006,257.77214060000006,257.77214060000006,257.77214060000006,257.77214060000006,64,59,68,48,59,60,257.77214060000006,259.5901527999995,,,,,,,,,,,,,,３０７,f,２６,2023-05-18_13h33.43.114,RL,2022.2.5,60.074744997546794,
59,48,54,48,0,40,40,40,,,,,,,,,,,None,259.5901527999995,259.5901527999995,259.5901527999995,259.5901527999995,259.5901527999995,259.5901527999995,r,0.26276810000126716,259.8745956999992,259.8745956999992,259.8745956999992,259.8745956999992,259.8745956999992,259.8745956999992,260.1575106,261.340070799999,261.340070799999,261.340070799999,261.340070799999,261.340070799999,261.340070799999,261.323870799999,261.340070799999,261.340070799999,261.340070799999,261.340070799999,261.340070799999,261.340070799999,261.340070799999,262.8048507000003,262.8048507000003,262.8048507000003,262.8048507000003,262.8048507000003,262.8048507000003,262.8048507000003,59,48,54,48,48,60,262.8048507000003,264.48943150000014,,,,,,,,,,,,,,３０７,f,２６,2023-05-18_13h33.43.114,RL,2022.2.5,60.074744997546794,
55,49,66,54,0,41,41,41,,,,,,,,,,,None,264.48943150000014,264.48943150000014,264.48943150000014,264.48943150000014,264.48943150000014,264.48943150000014,r,0.31340629999976954,264.82637690000047,264.82637690000047,264.82637690000047,264.82637690000047,264.82637690000047,264.82637690000047,265.12284499999987,266.08951290000005,266.08951290000005,266.08951290000005,266.08951290000005,266.08951290000005,266.08951290000005,266.08951290000005,266.08951290000005,266.08951290000005,266.08951290000005,266.08951290000005,266.08951290000005,266.08951290000005,266.08951290000005,267.3543453000002,267.3543453000002,267.3543453000002,267.3543453000002,267.3543453000002,267.3543453000002,267.3543453000002,55,54,66,49,54,60,267.3543453000002,269.0214926999997,,,,,,,,,,,,,,３０７,f,２６,2023-05-18_13h33.43.114,RL,2022.2.5,60.074744997546794,
49,43,65,53,0,42,42,42,,,,,,,,,,,None,269.0214926999997,269.0214926999997,269.0214926999997,269.0214926999997,269.0214926999997,269.0214926999997,r,0.3638363999998546,269.40618750000067,269.40618750000067,269.40618750000067,269.40618750000067,269.40618750000067,269.40618750000067,269.6889711999993,271.0552411999997,271.0552411999997,271.0552411999997,271.0552411999997,271.0552411999997,271.0552411999997,271.03865509999923,271.0552411999997,271.0552411999997,271.0552411999997,271.0552411999997,271.0552411999997,271.0552411999997,271.0552411999997,272.7033697000006,272.7033697000006,272.7033697000006,272.7033697000006,272.7033697000006,272.7033697000006,272.7033697000006,49,53,65,43,53,60,272.7033697000006,274.47096559999954,,,,,,,,,,,,,,３０７,f,２６,2023-05-18_13h33.43.114,RL,2022.2.5,60.074744997546794,
52,54,62,55,0,43,43,43,,,,,,,,,,,None,274.47096559999954,274.47096559999954,274.47096559999954,274.47096559999954,274.47096559999954,274.47096559999954,r,0.3310732999998436,274.82167499999923,274.82167499999923,274.82167499999923,274.82167499999923,274.82167499999923,274.82167499999923,275.1047858999991,276.48731749999934,276.48731749999934,276.48731749999934,276.48731749999934,276.48731749999934,276.48731749999934,276.4710264000005,276.48731749999934,276.48731749999934,276.48731749999934,276.48731749999934,276.48731749999934,276.48731749999934,276.48731749999934,278.1358994000002,278.1358994000002,278.1358994000002,278.1358994000002,278.1358994000002,278.1358994000002,278.1358994000002,52,55,62,54,55,60,278.1358994000002,279.9535424000005,,,,,,,,,,,,,,３０７,f,２６,2023-05-18_13h33.43.114,RL,2022.2.5,60.074744997546794,
48,71,69,53,0,44,44,44,,,,,,,,,,,None,279.9535424000005,279.9535424000005,279.9535424000005,279.9535424000005,279.9535424000005,279.9535424000005,r,0.3715998999996373,280.3546654999991,280.3546654999991,280.3546654999991,280.3546654999991,280.3546654999991,280.3546654999991,280.63708140000017,281.70343010000033,281.70343010000033,281.70343010000033,281.70343010000033,281.70343010000033,281.70343010000033,281.6867397999995,281.70343010000033,281.70343010000033,281.70343010000033,281.70343010000033,281.70343010000033,281.70343010000033,281.70343010000033,283.0514117999992,283.0514117999992,283.0514117999992,283.0514117999992,283.0514117999992,283.0514117999992,283.0514117999992,48,53,69,71,53,60,283.0514117999992,284.6689717999998,,,,,,,,,,,,,,３０７,f,２６,2023-05-18_13h33.43.114,RL,2022.2.5,60.074744997546794,
56,62,65,59,0,45,45,45,,,,,,,,,,,None,284.6689717999998,284.6689717999998,284.6689717999998,284.6689717999998,284.6689717999998,284.6689717999998,r,0.30168960000082734,285.00754849999976,285.00754849999976,285.00754849999976,285.00754849999976,285.00754849999976,285.00754849999976,285.28613889999906,286.81909110000015,286.81909110000015,286.81909110000015,286.81909110000015,286.81909110000015,286.81909110000015,286.80232520000027,286.81909110000015,286.81909110000015,286.81909110000015,286.81909110000015,286.81909110000015,286.81909110000015,286.81909110000015,288.6335304999993,288.6335304999993,288.6335304999993,288.6335304999993,288.6335304999993,288.6335304999993,288.6335304999993,56,59,65,62,59,60,288.6335304999993,290.584558999999,,,,,,,,,,,,,,３０７,f,２６,2023-05-18_13h33.43.114,RL,2022.2.5,60.074744997546794,
54,54,59,53,0,46,46,46,,,,,,,,,,,None,290.584558999999,290.584558999999,290.584558999999,290.584558999999,290.584558999999,290.584558999999,r,0.3858196000001044,291.00698179999927,291.00698179999927,291.00698179999927,291.00698179999927,291.00698179999927,291.00698179999927,291.30200870000044,292.6017575999995,292.6017575999995,292.6017575999995,292.6017575999995,292.6017575999995,292.6017575999995,292.58513440000024,292.6017575999995,292.6017575999995,292.6017575999995,292.6017575999995,292.6017575999995,292.6017575999995,292.6017575999995,294.1826476999995,294.1826476999995,294.1826476999995,294.1826476999995,294.1826476999995,294.1826476999995,294.1826476999995,54,53,59,54,53,60,294.1826476999995,295.81742289999966,,,,,,,,,,,,,,３０７,f,２６,2023-05-18_13h33.43.114,RL,2022.2.5,60.074744997546794,
48,63,59,62,0,47,47,47,,,,,,,,,,,None,295.81742289999966,295.81742289999966,295.81742289999966,295.81742289999966,295.81742289999966,295.81742289999966,r,0.29951970000001893,296.13604230000055,296.13604230000055,296.13604230000055,296.13604230000055,296.13604230000055,296.13604230000055,296.43411150000065,298.0336195,298.0336195,298.0336195,298.0336195,298.0336195,298.0336195,298.0336195,298.0336195,298.0336195,298.0336195,298.0336195,298.0336195,298.0336195,298.0336195,299.93196480000006,299.93196480000006,299.93196480000006,299.93196480000006,299.93196480000006,299.93196480000006,299.93196480000006,48,62,59,63,62,60,299.93196480000006,301.8660497000001,,,,,,,,,,,,,,３０７,f,２６,2023-05-18_13h33.43.114,RL,2022.2.5,60.074744997546794,
46,63,50,62,0,48,48,48,,,,,,,,,,,None,301.8660497000001,301.8660497000001,301.8660497000001,301.8660497000001,301.8660497000001,301.8660497000001,r,0.3091795000000275,302.20199479999974,302.20199479999974,302.20199479999974,302.20199479999974,302.20199479999974,302.20199479999974,302.4834805999999,303.6664583999991,303.6664583999991,303.6664583999991,303.6664583999991,303.6664583999991,303.6664583999991,303.6499552999994,303.6664583999991,303.6664583999991,303.6664583999991,303.6664583999991,303.6664583999991,303.6664583999991,303.6664583999991,305.1306621999993,305.1306621999993,305.1306621999993,305.1306621999993,305.1306621999993,305.1306621999993,305.1306621999993,46,62,50,63,62,60,305.1306621999993,307.03169700000035,,,,,,,,,,,,,,３０７,f,２６,2023-05-18_13h33.43.114,RL,2022.2.5,60.074744997546794,
48,59,54,67,0,49,49,49,,,,,,,,,,,None,307.03169700000035,307.03169700000035,307.03169700000035,307.03169700000035,307.03169700000035,307.03169700000035,r,0.394063499999902,307.45013990000007,307.45013990000007,307.45013990000007,307.45013990000007,307.45013990000007,307.45013990000007,307.73232909999933,308.73202429999947,308.73202429999947,308.73202429999947,308.73202429999947,308.73202429999947,308.73202429999947,308.7155746999997,308.73202429999947,308.73202429999947,308.73202429999947,308.73202429999947,308.73202429999947,308.73202429999947,308.73202429999947,310.0131161999998,310.0131161999998,310.0131161999998,310.0131161999998,310.0131161999998,310.0131161999998,310.0131161999998,48,67,54,59,67,60,310.0131161999998,311.53128900000047,,,,,,,,,,,,,,３０７,f,２６,2023-05-18_13h33.43.114,RL,2022.2.5,60.074744997546794,
49,55,59,53,0,50,50,50,,,,,,,,,,,None,311.53128900000047,311.53128900000047,311.53128900000047,311.53128900000047,311.53128900000047,311.53128900000047,r,0.30188099999941187,311.86513000000014,311.86513000000014,311.86513000000014,311.86513000000014,311.86513000000014,311.86513000000014,312.14787389999947,313.76450119999936,313.76450119999936,313.76450119999936,313.76450119999936,313.76450119999936,313.76450119999936,313.74763820000044,313.76450119999936,313.76450119999936,313.76450119999936,313.76450119999936,313.76450119999936,313.76450119999936,313.76450119999936,315.6623519999994,315.6623519999994,315.6623519999994,315.6623519999994,315.6623519999994,315.6623519999994,315.6623519999994,49,53,59,55,53,60,315.6623519999994,317.33003069999904,,,,,,,,,,,,,,３０７,f,２６,2023-05-18_13h33.43.114,RL,2022.2.5,60.074744997546794,
55,50,70,57,0,51,51,51,,,,,,,,,,,None,317.33003069999904,317.33003069999904,317.33003069999904,317.33003069999904,317.33003069999904,317.33003069999904,r,0.32500919999984035,317.68050100000073,317.68050100000073,317.68050100000073,317.68050100000073,317.68050100000073,317.68050100000073,317.9802142000008,319.6466596999999,319.6466596999999,319.6466596999999,319.6466596999999,319.6466596999999,319.6466596999999,319.6466596999999,319.6466596999999,319.6466596999999,319.6466596999999,319.6466596999999,319.6466596999999,319.6466596999999,319.6466596999999,321.6112630000007,321.6112630000007,321.6112630000007,321.6112630000007,321.6112630000007,321.6112630000007,321.6112630000007,55,57,70,50,57,60,321.6112630000007,323.1289173999994,,,,,,,,,,,,,,３０７,f,２６,2023-05-18_13h33.43.114,RL,2022.2.5,60.074744997546794,
57,51,62,53,0,52,52,52,,,,,,,,,,,None,323.1289173999994,323.1289173999994,323.1289173999994,323.1289173999994,323.1289173999994,323.1289173999994,r,0.30974870000136434,323.4629339999992,323.4629339999992,323.4629339999992,323.4629339999992,323.4629339999992,323.4629339999992,323.74608350000017,324.7292761000008,324.7292761000008,324.7292761000008,324.7292761000008,324.7292761000008,324.7292761000008,324.7125730000007,324.7292761000008,324.7292761000008,324.7292761000008,324.7292761000008,324.7292761000008,324.7292761000008,324.7292761000008,325.9938822999993,325.9938822999993,325.9938822999993,325.9938822999993,325.9938822999993,325.9938822999993,325.9938822999993,57,53,62,51,53,60,325.9938822999993,327.8780802000001,,,,,,,,,,,,,,３０７,f,２６,2023-05-18_13h33.43.114,RL,2022.2.5,60.074744997546794,
48,60,63,55,0,53,53,53,,,,,,,,,,,None,327.8780802000001,327.8780802000001,327.8780802000001,327.8780802000001,327.8780802000001,327.8780802000001,r,0.3086389000000054,328.2120947000003,328.2120947000003,328.2120947000003,328.2120947000003,328.2120947000003,328.2120947000003,328.49535859999924,330.26157950000015,330.26157950000015,330.26157950000015,330.26157950000015,330.26157950000015,330.26157950000015,330.2449751000004,330.26157950000015,330.26157950000015,330.26157950000015,330.26157950000015,330.26157950000015,330.26157950000015,330.26157950000015,332.30934739999975,332.30934739999975,332.30934739999975,332.30934739999975,332.30934739999975,332.30934739999975,332.30934739999975,48,55,63,60,55,60,332.30934739999975,333.92714259999957,,,,,,,,,,,,,,３０７,f,２６,2023-05-18_13h33.43.114,RL,2022.2.5,60.074744997546794,
51,56,54,60,0,54,54,54,,,,,,,,,,,None,333.92714259999957,333.92714259999957,333.92714259999957,333.92714259999957,333.92714259999957,333.92714259999957,r,0.37210899999990943,334.32799370000066,334.32799370000066,334.32799370000066,334.32799370000066,334.32799370000066,334.32799370000066,334.61109790000046,335.4773948000002,335.4773948000002,335.4773948000002,335.4773948000002,335.4773948000002,335.4773948000002,335.46084659999906,335.4773948000002,335.4773948000002,335.4773948000002,335.4773948000002,335.4773948000002,335.4773948000002,335.4773948000002,336.6253524999993,336.6253524999993,336.6253524999993,336.6253524999993,336.6253524999993,336.6253524999993,336.6253524999993,51,60,54,56,60,60,336.6253524999993,338.44274699999914,,,,,,,,,,,,,,３０７,f,２６,2023-05-18_13h33.43.114,RL,2022.2.5,60.074744997546794,
55,59,53,63,0,55,55,55,,,,,,,,,,,None,338.44274699999914,338.44274699999914,338.44274699999914,338.44274699999914,338.44274699999914,338.44274699999914,r,0.35332669999843347,338.8307311000008,338.8307311000008,338.8307311000008,338.8307311000008,338.8307311000008,338.8307311000008,339.1105131000004,340.3930846000003,340.3930846000003,340.3930846000003,340.3930846000003,340.3930846000003,340.3930846000003,340.3601223000005,340.3930846000003,340.3930846000003,340.3930846000003,340.3930846000003,340.3930846000003,340.3930846000003,340.3930846000003,341.94123089999994,341.94123089999994,341.94123089999994,341.94123089999994,341.94123089999994,341.94123089999994,341.94123089999994,55,63,53,59,63,60,341.94123089999994,343.74243229999956,,,,,,,,,,,,,,３０７,f,２６,2023-05-18_13h33.43.114,RL,2022.2.5,60.074744997546794,
52,59,63,67,0,56,56,56,,,,,,,,,,,None,343.74243229999956,343.74243229999956,343.74243229999956,343.74243229999956,343.74243229999956,343.74243229999956,r,0.311451900000975,344.0763207,344.0763207,344.0763207,344.0763207,344.0763207,344.0763207,344.35919710000053,346.19199019999905,346.19199019999905,346.19199019999905,346.19199019999905,346.19199019999905,346.19199019999905,346.1754129000001,346.19199019999905,346.19199019999905,346.19199019999905,346.19199019999905,346.19199019999905,346.19199019999905,346.19199019999905,348.3068860000003,348.3068860000003,348.3068860000003,348.3068860000003,348.3068860000003,348.3068860000003,348.3068860000003,52,67,63,59,67,60,348.3068860000003,349.92442200000005,,,,,,,,,,,,,,３０７,f,２６,2023-05-18_13h33.43.114,RL,2022.2.5,60.074744997546794,
54,66,55,52,0,57,57,57,,,,,,,,,,,None,349.92442200000005,349.92442200000005,349.92442200000005,349.92442200000005,349.92442200000005,349.92442200000005,r,0.35159139999996114,350.3099459999994,350.3099459999994,350.3099459999994,350.3099459999994,350.3099459999994,350.3099459999994,350.5916010000001,351.66586199999983,351.66586199999983,351.66586199999983,351.66586199999983,351.66586199999983,351.66586199999983,351.60831139999937,351.66586199999983,351.66586199999983,351.66586199999983,351.66586199999983,351.66586199999983,351.66586199999983,351.66586199999983,352.97257250000075,352.97257250000075,352.97257250000075,352.97257250000075,352.97257250000075,352.97257250000075,352.97257250000075,54,52,55,66,52,60,352.97257250000075,354.63989930000025,,,,,,,,,,,,,,３０７,f,２６,2023-05-18_13h33.43.114,RL,2022.2.5,60.074744997546794,
61,51,61,61,0,58,58,58,,,,,,,,,,,None,354.63989930000025,354.63989930000025,354.63989930000025,354.63989930000025,354.63989930000025,354.63989930000025,r,0.3300083000012819,354.9907454999993,354.9907454999993,354.9907454999993,354.9907454999993,354.9907454999993,354.9907454999993,355.29054050000013,356.54030930000044,356.54030930000044,356.54030930000044,356.54030930000044,356.54030930000044,356.54030930000044,356.54030930000044,356.54030930000044,356.54030930000044,356.54030930000044,356.54030930000044,356.54030930000044,356.54030930000044,356.54030930000044,358.0883384000008,358.0883384000008,358.0883384000008,358.0883384000008,358.0883384000008,358.0883384000008,358.0883384000008,61,61,61,51,61,60,358.0883384000008,359.9228497999993,,,,,,,,,,,,,,３０７,f,２６,2023-05-18_13h33.43.114,RL,2022.2.5,60.074744997546794,
53,57,59,59,0,59,59,59,,,,,,,,,,,None,359.9228497999993,359.9228497999993,359.9228497999993,359.9228497999993,359.9228497999993,359.9228497999993,r,0.2831697000001441,360.22368760000063,360.22368760000063,360.22368760000063,360.22368760000063,360.22368760000063,360.22368760000063,360.5067732999996,362.15589480000017,362.15589480000017,362.15589480000017,362.15589480000017,362.15589480000017,362.15589480000017,362.1397428,362.15589480000017,362.15589480000017,362.15589480000017,362.15589480000017,362.15589480000017,362.15589480000017,362.15589480000017,364.0874280000007,364.0874280000007,364.0874280000007,364.0874280000007,364.0874280000007,364.0874280000007,364.0874280000007,53,59,59,57,59,60,364.0874280000007,366.0552850999993,,,,,,,,,,,,,,３０７,f,２６,2023-05-18_13h33.43.114,RL,2022.2.5,60.074744997546794,
56,52,65,57,0,60,60,60,,,,,,,,,,,None,366.0552850999993,366.0552850999993,366.0552850999993,366.0552850999993,366.0552850999993,366.0552850999993,r,0.33610849999968195,366.4284752000003,366.4284752000003,366.4284752000003,366.4284752000003,366.4284752000003,366.4284752000003,366.7220562000002,368.0050855999998,368.0050855999998,368.0050855999998,368.0050855999998,368.0050855999998,368.0050855999998,367.9886260000003,368.0050855999998,368.0050855999998,368.0050855999998,368.0050855999998,368.0050855999998,368.0050855999998,368.0050855999998,369.56999840000026,369.56999840000026,369.56999840000026,369.56999840000026,369.56999840000026,369.56999840000026,369.56999840000026,56,57,65,52,57,60,369.56999840000026,371.2040846,,,,,,,,,,,,,,３０７,f,２６,2023-05-18_13h33.43.114,RL,2022.2.5,60.074744997546794,
65,58,66,64,0,61,61,61,,,,,,,,,,,None,371.2040846,371.2040846,371.2040846,371.2040846,371.2040846,371.2040846,r,0.44570870000097784,371.675648299999,371.675648299999,371.675648299999,371.675648299999,371.675648299999,371.675648299999,371.9545128999998,372.87117749999925,372.87117749999925,372.87117749999925,372.87117749999925,372.87117749999925,372.87117749999925,372.8539473000001,372.87117749999925,372.87117749999925,372.87117749999925,372.87117749999925,372.87117749999925,372.87117749999925,372.87117749999925,374.06938140000057,374.06938140000057,374.06938140000057,374.06938140000057,374.06938140000057,374.06938140000057,374.06938140000057,65,64,66,58,64,60,374.06938140000057,375.73678889999974,,,,,,,,,,,,,,３０７,f,２６,2023-05-18_13h33.43.114,RL,2022.2.5,60.074744997546794,
53,57,71,65,0,62,62,62,,,,,,,,,,,None,375.73678889999974,375.73678889999974,375.73678889999974,375.73678889999974,375.73678889999974,375.73678889999974,r,0.29437399999915215,376.0569192999992,376.0569192999992,376.0569192999992,376.0569192999992,376.0569192999992,376.0569192999992,376.3371924999992,377.18718199999967,377.18718199999967,377.18718199999967,377.18718199999967,377.18718199999967,377.18718199999967,377.17039210000075,377.18718199999967,377.18718199999967,377.18718199999967,377.18718199999967,377.18718199999967,377.18718199999967,377.18718199999967,378.3181349000006,378.3181349000006,378.3181349000006,378.3181349000006,378.3181349000006,378.3181349000006,378.3181349000006,53,65,71,57,65,60,378.3181349000006,380.1695237999993,,,,,,,,,,,,,,３０７,f,２６,2023-05-18_13h33.43.114,RL,2022.2.5,60.074744997546794,
56,57,64,55,0,63,63,63,,,,,,,,,,,None,380.1695237999993,380.1695237999993,380.1695237999993,380.1695237999993,380.1695237999993,380.1695237999993,r,0.3373417000002519,380.53773309999997,380.53773309999997,380.53773309999997,380.53773309999997,380.53773309999997,380.53773309999997,380.81941709999955,382.4025390000006,382.4025390000006,382.4025390000006,382.4025390000006,382.4025390000006,382.4025390000006,382.3859941999999,382.4025390000006,382.4025390000006,382.4025390000006,382.4025390000006,382.4025390000006,382.4025390000006,382.4025390000006,384.2673623999999,384.2673623999999,384.2673623999999,384.2673623999999,384.2673623999999,384.2673623999999,384.2673623999999,56,55,64,57,55,60,384.2673623999999,386.13513729999977,,,,,,,,,,,,,,３０７,f,２６,2023-05-18_13h33.43.114,RL,2022.2.5,60.074744997546794,
54,52,59,57,0,64,64,64,,,,,,,,,,,None,386.13513729999977,386.13513729999977,386.13513729999977,386.13513729999977,386.13513729999977,386.13513729999977,r,0.2781966000002285,386.4352773999999,386.4352773999999,386.4352773999999,386.4352773999999,386.4352773999999,386.4352773999999,386.71886970000014,388.1849827999995,388.1849827999995,388.1849827999995,388.1849827999995,388.1849827999995,388.1849827999995,388.1685534999997,388.1849827999995,388.1849827999995,388.1849827999995,388.1849827999995,388.1849827999995,388.1849827999995,388.1849827999995,389.9330649000003,389.9330649000003,389.9330649000003,389.9330649000003,389.9330649000003,389.9330649000003,389.9330649000003,54,57,59,52,57,60,389.9330649000003,391.5676705999995,,,,,,,,,,,,,,３０７,f,２６,2023-05-18_13h33.43.114,RL,2022.2.5,60.074744997546794,
58,51,53,58,0,65,65,65,,,,,,,,,,,None,391.5676705999995,391.5676705999995,391.5676705999995,391.5676705999995,391.5676705999995,391.5676705999995,r,0.3594978999990417,391.95470790000036,391.95470790000036,391.95470790000036,391.95470790000036,391.95470790000036,391.95470790000036,392.23430670000016,393.4674813999991,393.4674813999991,393.4674813999991,393.4674813999991,393.4674813999991,393.4674813999991,393.45089069999995,393.4674813999991,393.4674813999991,393.4674813999991,393.4674813999991,393.4674813999991,393.4674813999991,393.4674813999991,394.98199790000035,394.98199790000035,394.98199790000035,394.98199790000035,394.98199790000035,394.98199790000035,394.98199790000035,58,58,53,51,58,60,394.98199790000035,396.8328848000001,,,,,,,,,,,,,,３０７,f,２６,2023-05-18_13h33.43.114,RL,2022.2.5,60.074744997546794,
60,53,60,60,0,66,66,66,,,,,,,,,,,None,396.8328848000001,396.8328848000001,396.8328848000001,396.8328848000001,396.8328848000001,396.8328848000001,r,0.27756589999989956,397.13371449999977,397.13371449999977,397.13371449999977,397.13371449999977,397.13371449999977,397.13371449999977,397.4335181000006,399.4329878999997,399.4329878999997,399.4329878999997,399.4329878999997,399.4329878999997,399.4329878999997,399.4329878999997,399.4329878999997,399.4329878999997,399.4329878999997,399.4329878999997,399.4329878999997,399.4329878999997,399.4329878999997,401.7308032000001,401.7308032000001,401.7308032000001,401.7308032000001,401.7308032000001,401.7308032000001,401.7308032000001,60,60,60,53,60,60,401.7308032000001,403.5318630999991,,,,,,,,,,,,,,３０７,f,２６,2023-05-18_13h33.43.114,RL,2022.2.5,60.074744997546794,
63,55,60,58,0,67,67,67,,,,,,,,,,,None,403.5318630999991,403.5318630999991,403.5318630999991,403.5318630999991,403.5318630999991,403.5318630999991,r,0.3541396000000532,403.9172803999991,403.9172803999991,403.9172803999991,403.9172803999991,403.9172803999991,403.9172803999991,404.2156075999992,405.5484285000002,405.5484285000002,405.5484285000002,405.5484285000002,405.5484285000002,405.5484285000002,405.5484285000002,405.5484285000002,405.5484285000002,405.5484285000002,405.5484285000002,405.5484285000002,405.5484285000002,405.5484285000002,407.18021899999985,407.18021899999985,407.18021899999985,407.18021899999985,407.18021899999985,407.18021899999985,407.18021899999985,63,58,60,55,58,60,407.18021899999985,409.1309540000002,,,,,,,,,,,,,,３０７,f,２６,2023-05-18_13h33.43.114,RL,2022.2.5,60.074744997546794,
60,51,58,52,0,68,68,68,,,,,,,,,,,None,409.1309540000002,409.1309540000002,409.1309540000002,409.1309540000002,409.1309540000002,409.1309540000002,r,0.279566999999588,409.43205599999965,409.43205599999965,409.43205599999965,409.43205599999965,409.43205599999965,409.43205599999965,409.71465720000015,411.6808665999997,411.6808665999997,411.6808665999997,411.6808665999997,411.6808665999997,411.6808665999997,411.66427139999905,411.6808665999997,411.6808665999997,411.6808665999997,411.6808665999997,411.6808665999997,411.6808665999997,411.6808665999997,413.92902870000034,413.92902870000034,413.92902870000034,413.92902870000034,413.92902870000034,413.92902870000034,413.92902870000034,60,52,58,51,52,60,413.92902870000034,415.52964950000023,,,,,,,,,,,,,,３０７,f,２６,2023-05-18_13h33.43.114,RL,2022.2.5,60.074744997546794,
72,59,62,55,0,69,69,69,,,,,,,,,,,None,415.52964950000023,415.52964950000023,415.52964950000023,415.52964950000023,415.52964950000023,415.52964950000023,r,0.0007717000007687602,415.56584079999993,415.56584079999993,415.56584079999993,415.56584079999993,415.56584079999993,415.56584079999993,415.84675400000015,417.3797274000008,417.3797274000008,417.3797274000008,417.3797274000008,417.3797274000008,417.3797274000008,417.3631110999995,417.3797274000008,417.3797274000008,417.3797274000008,417.3797274000008,417.3797274000008,417.3797274000008,417.3797274000008,419.19454720000067,419.19454720000067,419.19454720000067,419.19454720000067,419.19454720000067,419.19454720000067,419.19454720000067,72,55,62,59,55,60,419.19454720000067,421.06189169999925,,,,,,,,,,,,,,３０７,f,２６,2023-05-18_13h33.43.114,RL,2022.2.5,60.074744997546794,
70,53,57,52,0,70,70,70,,,,,,,,,,,None,421.06189169999925,421.06189169999925,421.06189169999925,421.06189169999925,421.06189169999925,421.06189169999925,r,0.2863993999999366,421.3834313999996,421.3834313999996,421.3834313999996,421.3834313999996,421.3834313999996,421.3834313999996,421.66287310000007,422.8953672000007,422.8953672000007,422.8953672000007,422.8953672000007,422.8953672000007,422.8953672000007,422.8791564999992,422.8953672000007,422.8953672000007,422.8953672000007,422.8953672000007,422.8953672000007,422.8953672000007,422.8953672000007,424.41060389999984,424.41060389999984,424.41060389999984,424.41060389999984,424.41060389999984,424.41060389999984,424.41060389999984,70,52,57,53,52,60,424.41060389999984,426.29437289999987,,,,,,,,,,,,,,３０７,f,２６,2023-05-18_13h33.43.114,RL,2022.2.5,60.074744997546794,
69,45,53,45,0,71,71,71,,,,,,,,,,,None,426.29437289999987,426.29437289999987,426.29437289999987,426.29437289999987,426.29437289999987,426.29437289999987,r,0.32971989999896323,426.6450898000003,426.6450898000003,426.6450898000003,426.6450898000003,426.6450898000003,426.6450898000003,426.9280748000001,427.9613317000003,427.9613317000003,427.9613317000003,427.9613317000003,427.9613317000003,427.9613317000003,427.94489409999915,427.9613317000003,427.9613317000003,427.9613317000003,427.9613317000003,427.9613317000003,427.9613317000003,427.9613317000003,429.2758589999994,429.2758589999994,429.2758589999994,429.2758589999994,429.2758589999994,429.2758589999994,429.2758589999994,69,45,53,45,45,60,429.2758589999994,431.07690679999905,,,,,,,,,,,,,,３０７,f,２６,2023-05-18_13h33.43.114,RL,2022.2.5,60.074744997546794,
57,37,69,50,0,72,72,72,,,,,,,,,,,None,431.07690679999905,431.07690679999905,431.07690679999905,431.07690679999905,431.07690679999905,431.07690679999905,r,0.2783355000010488,431.37756590000026,431.37756590000026,431.37756590000026,431.37756590000026,431.37756590000026,431.37756590000026,431.6604205000003,432.7102453999996,432.7102453999996,432.7102453999996,432.7102453999996,432.7102453999996,432.7102453999996,432.69390310000017,432.7102453999996,432.7102453999996,432.7102453999996,432.7102453999996,432.7102453999996,432.7102453999996,432.7102453999996,434.04212240000015,434.04212240000015,434.04212240000015,434.04212240000015,434.04212240000015,434.04212240000015,434.04212240000015,57,50,69,37,50,60,434.04212240000015,435.7097553000003,,,,,,,,,,,,,,３０７,f,２６,2023-05-18_13h33.43.114,RL,2022.2.5,60.074744997546794,
55,44,70,47,0,73,73,73,,,,,,,,,,,None,435.7097553000003,435.7097553000003,435.7097553000003,435.7097553000003,435.7097553000003,435.7097553000003,r,0.2505077000005258,435.9978647000007,435.9978647000007,435.9978647000007,435.9978647000007,435.9978647000007,435.9978647000007,436.2764876000001,437.90939719999915,437.90939719999915,437.90939719999915,437.90939719999915,437.90939719999915,437.90939719999915,437.8767846999999,437.90939719999915,437.90939719999915,437.90939719999915,437.90939719999915,437.90939719999915,437.90939719999915,437.90939719999915,439.80752849999953,439.80752849999953,439.80752849999953,439.80752849999953,439.80752849999953,439.80752849999953,439.80752849999953,55,47,70,44,47,60,439.80752849999953,441.6258392,,,,,,,,,,,,,,３０７,f,２６,2023-05-18_13h33.43.114,RL,2022.2.5,60.074744997546794,
55,58,70,42,0,74,74,74,,,,,,,,,,,None,441.6258392,441.6258392,441.6258392,441.6258392,441.6258392,441.6258392,r,0.42413029999988794,442.07592660000046,442.07592660000046,442.07592660000046,442.07592660000046,442.07592660000046,442.07592660000046,442.35884350000015,443.8916547000008,443.8916547000008,443.8916547000008,443.8916547000008,443.8916547000008,443.8916547000008,443.87517970000044,443.8916547000008,443.8916547000008,443.8916547000008,443.8916547000008,443.8916547000008,443.8916547000008,443.8916547000008,445.70632230000047,445.70632230000047,445.70632230000047,445.70632230000047,445.70632230000047,445.70632230000047,445.70632230000047,55,42,70,58,42,60,445.70632230000047,447.3896915999994,,,,,,,,,,,,,,３０７,f,２６,2023-05-18_13h33.43.114,RL,2022.2.5,60.074744997546794,
59,51,71,50,0,75,75,75,,,,,,,,,,,q,459.13860829999976,459.13860829999976,459.13860829999976,459.13860829999976,459.13860829999976,459.13860829999976,None,,,,,,,,,,,,,,,,,,,,,,,,,,,,,,59,50,71,51,0,60,466.65290339999956,468.4040898000003,447.3896915999994,447.3896915999994,6.710174400001051,454.12393879999945,454.12393879999945,459.13860829999976,459.13860829999976,460.64304900000025,466.65290339999956,,,,,３０７,f,２６,2023-05-18_13h33.43.114,RL,2022.2.5,60.074744997546794,
65,54,67,44,0,76,76,76,,,,,,,,,,,None,468.4040898000003,468.4040898000003,468.4040898000003,468.4040898000003,468.4040898000003,468.4040898000003,r,0.3509104999993724,468.7757115000004,468.7757115000004,468.7757115000004,468.7757115000004,468.7757115000004,468.7757115000004,469.0705868999994,470.0371830999993,470.0371830999993,470.0371830999993,470.0371830999993,470.0371830999993,470.0371830999993,470.0371830999993,470.0371830999993,470.0371830999993,470.0371830999993,470.0371830999993,470.0371830999993,470.0371830999993,470.0371830999993,471.30220050000025,471.30220050000025,471.30220050000025,471.30220050000025,471.30220050000025,471.30220050000025,471.30220050000025,65,44,67,54,44,60,471.30220050000025,472.8701655999994,,,,,,,,,,,,,,３０７,f,２６,2023-05-18_13h33.43.114,RL,2022.2.5,60.074744997546794,
61,59,74,50,0,77,77,77,,,,,,,,,,,None,472.8701655999994,472.8701655999994,472.8701655999994,472.8701655999994,472.8701655999994,472.8701655999994,f,0.32309129999885045,473.22229510000034,473.22229510000034,473.22229510000034,473.22229510000034,473.22229510000034,473.22229510000034,473.51991070000076,475.1533727999995,475.1533727999995,475.1533727999995,475.1533727999995,475.1533727999995,475.1533727999995,475.1533727999995,475.1533727999995,475.1533727999995,475.1533727999995,475.1533727999995,475.1533727999995,475.1533727999995,475.1533727999995,477.08456429999933,477.08456429999933,477.08456429999933,477.08456429999933,477.08456429999933,477.08456429999933,477.08456429999933,61,50,74,59,61,60,477.08456429999933,479.0853583999997,,,,,,,,,,,,,,３０７,f,２６,2023-05-18_13h33.43.114,RL,2022.2.5,60.074744997546794,
58,46,78,43,0,78,78,78,,,,,,,,,,,None,479.0853583999997,479.0853583999997,479.0853583999997,479.0853583999997,479.0853583999997,479.0853583999997,f,0.29321899999922607,479.4038135999999,479.4038135999999,479.4038135999999,479.4038135999999,479.4038135999999,479.4038135999999,479.68552219999947,481.2188884999996,481.2188884999996,481.2188884999996,481.2188884999996,481.2188884999996,481.2188884999996,481.2023355000001,481.2188884999996,481.2188884999996,481.2188884999996,481.2188884999996,481.2188884999996,481.2188884999996,481.2188884999996,483.0334072000005,483.0334072000005,483.0334072000005,483.0334072000005,483.0334072000005,483.0334072000005,483.0334072000005,58,43,78,46,58,60,483.0334072000005,484.78470969999944,,,,,,,,,,,,,,３０７,f,２６,2023-05-18_13h33.43.114,RL,2022.2.5,60.074744997546794,
65,50,67,49,0,79,79,79,,,,,,,,,,,None,484.78470969999944,484.78470969999944,484.78470969999944,484.78470969999944,484.78470969999944,484.78470969999944,f,0.3838408999999956,485.20662450000054,485.20662450000054,485.20662450000054,485.20662450000054,485.20662450000054,485.20662450000054,485.48471749999953,487.23445510000056,487.23445510000056,487.23445510000056,487.23445510000056,487.23445510000056,487.23445510000056,487.2010011000002,487.23445510000056,487.23445510000056,487.23445510000056,487.23445510000056,487.23445510000056,487.23445510000056,487.23445510000056,489.24897129999954,489.24897129999954,489.24897129999954,489.24897129999954,489.24897129999954,489.24897129999954,489.24897129999954,65,49,67,50,65,60,489.24897129999954,490.81689129999904,,,,,,,,,,,,,,３０７,f,２６,2023-05-18_13h33.43.114,RL,2022.2.5,60.074744997546794,
54,59,72,41,0,80,80,80,,,,,,,,,,,None,490.81689129999904,490.81689129999904,490.81689129999904,490.81689129999904,490.81689129999904,490.81689129999904,f,0.3814449000001332,491.21693849999974,491.21693849999974,491.21693849999974,491.21693849999974,491.21693849999974,491.21693849999974,491.50042589999975,492.9834396999995,492.9834396999995,492.9834396999995,492.9834396999995,492.9834396999995,492.9834396999995,492.966685899999,492.9834396999995,492.9834396999995,492.9834396999995,492.9834396999995,492.9834396999995,492.9834396999995,492.9834396999995,494.74781749999966,494.74781749999966,494.74781749999966,494.74781749999966,494.74781749999966,494.74781749999966,494.74781749999966,54,41,72,59,54,60,494.74781749999966,496.36565599999994,,,,,,,,,,,,,,３０７,f,２６,2023-05-18_13h33.43.114,RL,2022.2.5,60.074744997546794,
59,62,70,53,0,81,81,81,,,,,,,,,,,None,496.36565599999994,496.36565599999994,496.36565599999994,496.36565599999994,496.36565599999994,496.36565599999994,f,0.34344850000161387,496.7336290000003,496.7336290000003,496.7336290000003,496.7336290000003,496.7336290000003,496.7336290000003,497.01654489999964,498.8490727999997,498.8490727999997,498.8490727999997,498.8490727999997,498.8490727999997,498.8490727999997,498.83266150000054,498.8490727999997,498.8490727999997,498.8490727999997,498.8490727999997,498.8490727999997,498.8490727999997,498.8490727999997,500.96369889999914,500.96369889999914,500.96369889999914,500.96369889999914,500.96369889999914,500.96369889999914,500.96369889999914,59,53,70,62,59,60,500.96369889999914,502.6813813000008,,,,,,,,,,,,,,３０７,f,２６,2023-05-18_13h33.43.114,RL,2022.2.5,60.074744997546794,
60,60,79,39,0,82,82,82,,,,,,,,,,,None,502.6813813000008,502.6813813000008,502.6813813000008,502.6813813000008,502.6813813000008,502.6813813000008,f,0.31665460000112944,503.0187614999995,503.0187614999995,503.0187614999995,503.0187614999995,503.0187614999995,503.0187614999995,503.31496399999924,505.13142659999903,505.13142659999903,505.13142659999903,505.13142659999903,505.13142659999903,505.13142659999903,505.13142659999903,505.13142659999903,505.13142659999903,505.13142659999903,505.13142659999903,505.13142659999903,505.13142659999903,505.13142659999903,507.2460396999995,507.2460396999995,507.2460396999995,507.2460396999995,507.2460396999995,507.2460396999995,507.2460396999995,60,39,79,60,60,60,507.2460396999995,508.8639303,,,,,,,,,,,,,,３０７,f,２６,2023-05-18_13h33.43.114,RL,2022.2.5,60.074744997546794,
61,55,70,40,0,83,83,83,,,,,,,,,,,None,508.8639303,508.8639303,508.8639303,508.8639303,508.8639303,508.8639303,f,0.3012715000004391,509.20739949999916,509.20739949999916,509.20739949999916,509.20739949999916,509.20739949999916,509.20739949999916,509.4808763000001,510.5806037000002,510.5806037000002,510.5806037000002,510.5806037000002,510.5806037000002,510.5806037000002,510.5470977999994,510.5806037000002,510.5806037000002,510.5806037000002,510.5806037000002,510.5806037000002,510.5806037000002,510.5806037000002,511.9452756999999,511.9452756999999,511.9452756999999,511.9452756999999,511.9452756999999,511.9452756999999,511.9452756999999,61,40,70,55,61,60,511.9452756999999,513.912792699999,,,,,,,,,,,,,,３０７,f,２６,2023-05-18_13h33.43.114,RL,2022.2.5,60.074744997546794,
72,48,67,54,0,84,84,84,,,,,,,,,,,None,513.912792699999,513.912792699999,513.912792699999,513.912792699999,513.912792699999,513.912792699999,f,0.35579649999999674,514.3002242000002,514.3002242000002,514.3002242000002,514.3002242000002,514.3002242000002,514.3002242000002,514.5964578000003,515.8296111,515.8296111,515.8296111,515.8296111,515.8296111,515.8296111,515.8130739999997,515.8296111,515.8296111,515.8296111,515.8296111,515.8296111,515.8296111,515.8296111,517.3442637000007,517.3442637000007,517.3442637000007,517.3442637000007,517.3442637000007,517.3442637000007,517.3442637000007,72,54,67,48,72,60,517.3442637000007,519.2617016000004,,,,,,,,,,,,,,３０７,f,２６,2023-05-18_13h33.43.114,RL,2022.2.5,60.074744997546794,
72,51,67,46,0,85,85,85,,,,,,,,,,,None,519.2617016000004,519.2617016000004,519.2617016000004,519.2617016000004,519.2617016000004,519.2617016000004,f,0.2736036000005697,519.566757999999,519.566757999999,519.566757999999,519.566757999999,519.566757999999,519.566757999999,519.8620802999994,521.4284296999995,521.4284296999995,521.4284296999995,521.4284296999995,521.4284296999995,521.4284296999995,521.4120877000005,521.4284296999995,521.4284296999995,521.4284296999995,521.4284296999995,521.4284296999995,521.4284296999995,521.4284296999995,523.2763054999996,523.2763054999996,523.2763054999996,523.2763054999996,523.2763054999996,523.2763054999996,523.2763054999996,72,46,67,51,72,60,523.2763054999996,525.1104424000005,,,,,,,,,,,,,,３０７,f,２６,2023-05-18_13h33.43.114,RL,2022.2.5,60.074744997546794,
72,43,70,44,0,86,86,86,,,,,,,,,,,None,525.1104424000005,525.1104424000005,525.1104424000005,525.1104424000005,525.1104424000005,525.1104424000005,f,0.3736998999993375,525.5112769000007,525.5112769000007,525.5112769000007,525.5112769000007,525.5112769000007,525.5112769000007,525.8108293000005,527.2606075000003,527.2606075000003,527.2606075000003,527.2606075000003,527.2606075000003,527.2606075000003,527.2606075000003,527.2606075000003,527.2606075000003,527.2606075000003,527.2606075000003,527.2606075000003,527.2606075000003,527.2606075000003,529.008741399999,529.008741399999,529.008741399999,529.008741399999,529.008741399999,529.008741399999,529.008741399999,72,44,70,43,72,60,529.008741399999,530.8940330000005,,,,,,,,,,,,,,３０７,f,２６,2023-05-18_13h33.43.114,RL,2022.2.5,60.074744997546794,
70,47,74,52,0,87,87,87,,,,,,,,,,,None,530.8940330000005,530.8940330000005,530.8940330000005,530.8940330000005,530.8940330000005,530.8940330000005,f,0.42544939999970666,531.3435585999996,531.3435585999996,531.3435585999996,531.3435585999996,531.3435585999996,531.3435585999996,531.6264547999999,532.9430890000003,532.9430890000003,532.9430890000003,532.9430890000003,532.9430890000003,532.9430890000003,532.9267213999992,532.9430890000003,532.9430890000003,532.9430890000003,532.9430890000003,532.9430890000003,532.9430890000003,532.9430890000003,534.5411263999995,534.5411263999995,534.5411263999995,534.5411263999995,534.5411263999995,534.5411263999995,534.5411263999995,70,52,74,47,70,60,534.5411263999995,536.3257914000005,,,,,,,,,,,,,,３０７,f,２６,2023-05-18_13h33.43.114,RL,2022.2.5,60.074744997546794,
72,42,76,45,0,88,88,88,,,,,,,,,,,None,536.3257914000005,536.3257914000005,536.3257914000005,536.3257914000005,536.3257914000005,536.3257914000005,f,0.3565610999994533,536.7102940999994,536.7102940999994,536.7102940999994,536.7102940999994,536.7102940999994,536.7102940999994,536.9925244999995,538.9419106000005,538.9419106000005,538.9419106000005,538.9419106000005,538.9419106000005,538.9419106000005,538.9252799000005,538.9419106000005,538.9419106000005,538.9419106000005,538.9419106000005,538.9419106000005,538.9419106000005,538.9419106000005,541.1731452000004,541.1731452000004,541.1731452000004,541.1731452000004,541.1731452000004,541.1731452000004,541.1731452000004,72,45,76,42,72,60,541.1731452000004,543.0580119000006,,,,,,,,,,,,,,３０７,f,２６,2023-05-18_13h33.43.114,RL,2022.2.5,60.074744997546794,
61,47,74,40,0,89,89,89,,,,,,,,,,,None,543.0580119000006,543.0580119000006,543.0580119000006,543.0580119000006,543.0580119000006,543.0580119000006,f,0.33400129999972705,543.4106105999999,543.4106105999999,543.4106105999999,543.4106105999999,543.4106105999999,543.4106105999999,543.7077554999996,545.1408023999993,545.1408023999993,545.1408023999993,545.1408023999993,545.1408023999993,545.1408023999993,545.1408023999993,545.1408023999993,545.1408023999993,545.1408023999993,545.1408023999993,545.1408023999993,545.1408023999993,545.1408023999993,546.8722135999997,546.8722135999997,546.8722135999997,546.8722135999997,546.8722135999997,546.8722135999997,546.8722135999997,61,40,74,47,61,60,546.8722135999997,548.5568074999992,,,,,,,,,,,,,,３０７,f,２６,2023-05-18_13h33.43.114,RL,2022.2.5,60.074744997546794,
67,43,74,42,0,90,90,90,,,,,,,,,,,None,548.5568074999992,548.5568074999992,548.5568074999992,548.5568074999992,548.5568074999992,548.5568074999992,f,0.3908289999999397,548.9756956000001,548.9756956000001,548.9756956000001,548.9756956000001,548.9756956000001,548.9756956000001,549.2572748000002,550.8732629999995,550.8732629999995,550.8732629999995,550.8732629999995,550.8732629999995,550.8732629999995,550.8564630000001,550.8732629999995,550.8732629999995,550.8732629999995,550.8732629999995,550.8732629999995,550.8732629999995,550.8732629999995,552.7711519000004,552.7711519000004,552.7711519000004,552.7711519000004,552.7711519000004,552.7711519000004,552.7711519000004,67,42,74,43,67,60,552.7711519000004,554.4389135999991,,,,,,,,,,,,,,３０７,f,２６,2023-05-18_13h33.43.114,RL,2022.2.5,60.074744997546794,
69,50,76,33,0,91,91,91,,,,,,,,,,,None,554.4389135999991,554.4389135999991,554.4389135999991,554.4389135999991,554.4389135999991,554.4389135999991,f,0.3615098999998736,554.8228067,554.8228067,554.8228067,554.8228067,554.8228067,554.8228067,555.1061064000005,557.1055300000007,557.1055300000007,557.1055300000007,557.1055300000007,557.1055300000007,557.1055300000007,557.088814499999,557.1055300000007,557.1055300000007,557.1055300000007,557.1055300000007,557.1055300000007,557.1055300000007,557.1055300000007,559.3866208,559.3866208,559.3866208,559.3866208,559.3866208,559.3866208,559.3866208,69,33,76,50,69,60,559.3866208,561.1381669000002,,,,,,,,,,,,,,３０７,f,２６,2023-05-18_13h33.43.114,RL,2022.2.5,60.074744997546794,
60,43,70,35,0,92,92,92,,,,,,,,,,,None,561.1381669000002,561.1381669000002,561.1381669000002,561.1381669000002,561.1381669000002,561.1381669000002,f,0.4739420000005339,561.6404019000001,561.6404019000001,561.6404019000001,561.6404019000001,561.6404019000001,561.6404019000001,561.9379033999994,563.0211244000002,563.0211244000002,563.0211244000002,563.0211244000002,563.0211244000002,563.0211244000002,563.0043442000006,563.0211244000002,563.0211244000002,563.0211244000002,563.0211244000002,563.0211244000002,563.0211244000002,563.0211244000002,564.3860026999992,564.3860026999992,564.3860026999992,564.3860026999992,564.3860026999992,564.3860026999992,564.3860026999992,60,35,70,43,60,60,564.3860026999992,566.2367890999994,,,,,,,,,,,,,,３０７,f,２６,2023-05-18_13h33.43.114,RL,2022.2.5,60.074744997546794,
67,47,66,43,0,93,93,93,,,,,,,,,,,None,566.2367890999994,566.2367890999994,566.2367890999994,566.2367890999994,566.2367890999994,566.2367890999994,f,0.30833590000111144,566.5707665999998,566.5707665999998,566.5707665999998,566.5707665999998,566.5707665999998,566.5707665999998,566.8537658999994,568.7870621999991,568.7870621999991,568.7870621999991,568.7870621999991,568.7870621999991,568.7870621999991,568.7700313999994,568.7870621999991,568.7870621999991,568.7870621999991,568.7870621999991,568.7870621999991,568.7870621999991,568.7870621999991,571.0014969999993,571.0014969999993,571.0014969999993,571.0014969999993,571.0014969999993,571.0014969999993,571.0014969999993,67,43,66,47,67,60,571.0014969999993,572.7193573000004,,,,,,,,,,,,,,３０７,f,２６,2023-05-18_13h33.43.114,RL,2022.2.5,60.074744997546794,
64,55,70,35,0,94,94,94,,,,,,,,,,,None,572.7193573000004,572.7193573000004,572.7193573000004,572.7193573000004,572.7193573000004,572.7193573000004,f,0.337114300000394,573.0861659999991,573.0861659999991,573.0861659999991,573.0861659999991,573.0861659999991,573.0861659999991,573.3691674000002,575.268951,575.268951,575.268951,575.268951,575.268951,575.268951,575.2357023999994,575.268951,575.268951,575.268951,575.268951,575.268951,575.268951,575.268951,577.4502360999995,577.4502360999995,577.4502360999995,577.4502360999995,577.4502360999995,577.4502360999995,577.4502360999995,64,35,70,55,64,60,577.4502360999995,579.1513357999993,,,,,,,,,,,,,,３０７,f,２６,2023-05-18_13h33.43.114,RL,2022.2.5,60.074744997546794,
64,52,80,33,0,95,95,95,,,,,,,,,,,None,579.1513357999993,579.1513357999993,579.1513357999993,579.1513357999993,579.1513357999993,579.1513357999993,f,0.3609715000002325,579.5355383999995,579.5355383999995,579.5355383999995,579.5355383999995,579.5355383999995,579.5355383999995,579.818387199999,581.7511701999993,581.7511701999993,581.7511701999993,581.7511701999993,581.7511701999993,581.7511701999993,581.7349245000005,581.7511701999993,581.7511701999993,581.7511701999993,581.7511701999993,581.7511701999993,581.7511701999993,581.7511701999993,583.9659833000005,583.9659833000005,583.9659833000005,583.9659833000005,583.9659833000005,583.9659833000005,583.9659833000005,64,33,80,52,64,60,583.9659833000005,585.9002244000003,,,,,,,,,,,,,,３０７,f,２６,2023-05-18_13h33.43.114,RL,2022.2.5,60.074744997546794,
62,54,69,36,0,96,96,96,,,,,,,,,,,None,585.9002244000003,585.9002244000003,585.9002244000003,585.9002244000003,585.9002244000003,585.9002244000003,f,0.3430756999987352,586.2672891000002,586.2672891000002,586.2672891000002,586.2672891000002,586.2672891000002,586.2672891000002,586.5507022000002,587.3669563000003,587.3669563000003,587.3669563000003,587.3669563000003,587.3669563000003,587.3669563000003,587.350043299999,587.3669563000003,587.3669563000003,587.3669563000003,587.3669563000003,587.3669563000003,587.3669563000003,587.3669563000003,588.4655292999996,588.4655292999996,588.4655292999996,588.4655292999996,588.4655292999996,588.4655292999996,588.4655292999996,62,36,69,54,62,60,588.4655292999996,590.3662915999994,,,,,,,,,,,,,,３０７,f,２６,2023-05-18_13h33.43.114,RL,2022.2.5,60.074744997546794,
63,54,79,33,0,97,97,97,,,,,,,,,,,None,590.3662915999994,590.3662915999994,590.3662915999994,590.3662915999994,590.3662915999994,590.3662915999994,f,0.4115836999990279,590.7999966000007,590.7999966000007,590.7999966000007,590.7999966000007,590.7999966000007,590.7999966000007,591.0834620000005,592.1829135999997,592.1829135999997,592.1829135999997,592.1829135999997,592.1829135999997,592.1829135999997,592.1665026999999,592.1829135999997,592.1829135999997,592.1829135999997,592.1829135999997,592.1829135999997,592.1829135999997,592.1829135999997,593.5645432999991,593.5645432999991,593.5645432999991,593.5645432999991,593.5645432999991,593.5645432999991,593.5645432999991,63,33,79,54,63,60,593.5645432999991,595.4649255000004,,,,,,,,,,,,,,３０７,f,２６,2023-05-18_13h33.43.114,RL,2022.2.5,60.074744997546794,
70,55,68,36,0,98,98,98,,,,,,,,,,,None,595.4649255000004,595.4649255000004,595.4649255000004,595.4649255000004,595.4649255000004,595.4649255000004,f,0.45165149999957066,595.951704699999,595.951704699999,595.951704699999,595.951704699999,595.951704699999,595.951704699999,596.2323472000007,597.848484099999,597.848484099999,597.848484099999,597.848484099999,597.848484099999,597.848484099999,597.8317109,597.848484099999,597.848484099999,597.848484099999,597.848484099999,597.848484099999,597.848484099999,597.848484099999,599.7462756000004,599.7462756000004,599.7462756000004,599.7462756000004,599.7462756000004,599.7462756000004,599.7462756000004,70,36,68,55,70,60,599.7462756000004,601.5144141000001,,,,,,,,,,,,,,３０７,f,２６,2023-05-18_13h33.43.114,RL,2022.2.5,60.074744997546794,
67,46,74,27,0,99,99,99,,,,,,,,,,,None,601.5144141000001,601.5144141000001,601.5144141000001,601.5144141000001,601.5144141000001,601.5144141000001,f,0.2947241000001668,601.8321388000004,601.8321388000004,601.8321388000004,601.8321388000004,601.8321388000004,601.8321388000004,602.1144308000003,603.9640290000007,603.9640290000007,603.9640290000007,603.9640290000007,603.9640290000007,603.9640290000007,603.9472824000004,603.9640290000007,603.9640290000007,603.9640290000007,603.9640290000007,603.9640290000007,603.9640290000007,603.9640290000007,606.0955617,606.0955617,606.0955617,606.0955617,606.0955617,606.0955617,606.0955617,67,27,74,46,67,60,606.0955617,607.9298395999995,,,,,,,,,,,,,,３０７,f,２６,2023-05-18_13h33.43.114,RL,2022.2.5,60.074744997546794,
61,54,66,30,0,100,100,100,,,,,,,,,,,None,607.9298395999995,607.9298395999995,607.9298395999995,607.9298395999995,607.9298395999995,607.9298395999995,f,0.27289850000124716,608.2321066000004,608.2321066000004,608.2321066000004,608.2321066000004,608.2321066000004,608.2321066000004,608.5133036999996,610.2463898000005,610.2463898000005,610.2463898000005,610.2463898000005,610.2463898000005,610.2463898000005,610.2297476999993,610.2463898000005,610.2463898000005,610.2463898000005,610.2463898000005,610.2463898000005,610.2463898000005,610.2463898000005,612.2604532999994,612.2604532999994,612.2604532999994,612.2604532999994,612.2604532999994,612.2604532999994,612.2604532999994,61,30,66,54,61,60,612.2604532999994,614.0290327999992,,,,,,,,,,,,,,３０７,f,２６,2023-05-18_13h33.43.114,RL,2022.2.5,60.074744997546794,
64,51,62,36,0,101,101,101,,,,,,,,,,,None,614.0290327999992,614.0290327999992,614.0290327999992,614.0290327999992,614.0290327999992,614.0290327999992,f,0.29698459999963234,614.346249799999,614.346249799999,614.346249799999,614.346249799999,614.346249799999,614.346249799999,614.6459493000002,615.9450803,615.9450803,615.9450803,615.9450803,615.9450803,615.9450803,615.9450803,615.9450803,615.9450803,615.9450803,615.9450803,615.9450803,615.9450803,615.9450803,617.5432209999999,617.5432209999999,617.5432209999999,617.5432209999999,617.5432209999999,617.5432209999999,617.5432209999999,64,36,62,51,64,60,617.5432209999999,619.2777604999992,,,,,,,,,,,,,,３０７,f,２６,2023-05-18_13h33.43.114,RL,2022.2.5,60.074744997546794,
61,52,59,37,0,102,102,102,,,,,,,,,,,None,619.2777604999992,619.2777604999992,619.2777604999992,619.2777604999992,619.2777604999992,619.2777604999992,f,0.38306329999977606,619.6803344,619.6803344,619.6803344,619.6803344,619.6803344,619.6803344,619.9782114999998,620.9609737999999,620.9609737999999,620.9609737999999,620.9609737999999,620.9609737999999,620.9609737999999,620.9609737999999,620.9609737999999,620.9609737999999,620.9609737999999,620.9609737999999,620.9609737999999,620.9609737999999,620.9609737999999,622.2427155999994,622.2427155999994,622.2427155999994,622.2427155999994,622.2427155999994,622.2427155999994,622.2427155999994,61,37,59,52,61,60,622.2427155999994,623.8438418999995,,,,,,,,,,,,,,３０７,f,２６,2023-05-18_13h33.43.114,RL,2022.2.5,60.074744997546794,
63,62,60,36,0,103,103,103,,,,,,,,,,,None,623.8438418999995,623.8438418999995,623.8438418999995,623.8438418999995,623.8438418999995,623.8438418999995,f,0.5299687999995513,624.3941408999999,624.3941408999999,624.3941408999999,624.3941408999999,624.3941408999999,624.3941408999999,624.6772010999994,626.3603413000001,626.3603413000001,626.3603413000001,626.3603413000001,626.3603413000001,626.3603413000001,626.3435895999992,626.3603413000001,626.3603413000001,626.3603413000001,626.3603413000001,626.3603413000001,626.3603413000001,626.3603413000001,628.3248831000001,628.3248831000001,628.3248831000001,628.3248831000001,628.3248831000001,628.3248831000001,628.3248831000001,63,36,60,62,63,60,628.3248831000001,630.2259510999993,,,,,,,,,,,,,,３０７,f,２６,2023-05-18_13h33.43.114,RL,2022.2.5,60.074744997546794,
66,54,64,38,0,104,104,104,,,,,,,,,,,None,630.2259510999993,630.2259510999993,630.2259510999993,630.2259510999993,630.2259510999993,630.2259510999993,f,0.30521070000031614,630.5612368000002,630.5612368000002,630.5612368000002,630.5612368000002,630.5612368000002,630.5612368000002,630.8596435,632.309131,632.309131,632.309131,632.309131,632.309131,632.309131,632.309131,632.309131,632.309131,632.309131,632.309131,632.309131,632.309131,632.309131,634.0575296000006,634.0575296000006,634.0575296000006,634.0575296000006,634.0575296000006,634.0575296000006,634.0575296000006,66,38,64,54,66,60,634.0575296000006,635.9246820000008,,,,,,,,,,,,,,３０７,f,２６,2023-05-18_13h33.43.114,RL,2022.2.5,60.074744997546794,
63,55,58,36,0,105,105,105,,,,,,,,,,,None,635.9246820000008,635.9246820000008,635.9246820000008,635.9246820000008,635.9246820000008,635.9246820000008,f,0.36113079999995534,636.309454799999,636.309454799999,636.309454799999,636.309454799999,636.309454799999,636.309454799999,636.592111599999,638.1917166000003,638.1917166000003,638.1917166000003,638.1917166000003,638.1917166000003,638.1917166000003,638.1750981999994,638.1917166000003,638.1917166000003,638.1917166000003,638.1917166000003,638.1917166000003,638.1917166000003,638.1917166000003,640.0725163999996,640.0725163999996,640.0725163999996,640.0725163999996,640.0725163999996,640.0725163999996,640.0725163999996,63,36,58,55,63,60,640.0725163999996,641.8402456999993,,,,,,,,,,,,,,３０７,f,２６,2023-05-18_13h33.43.114,RL,2022.2.5,60.074744997546794,
60,56,60,33,0,106,106,106,,,,,,,,,,,None,641.8402456999993,641.8402456999993,641.8402456999993,641.8402456999993,641.8402456999993,641.8402456999993,f,0.3642359999994369,642.2254073000004,642.2254073000004,642.2254073000004,642.2254073000004,642.2254073000004,642.2254073000004,642.5243802000005,644.1403484000002,644.1403484000002,644.1403484000002,644.1403484000002,644.1403484000002,644.1403484000002,644.1403484000002,644.1403484000002,644.1403484000002,644.1403484000002,644.1403484000002,644.1403484000002,644.1403484000002,644.1403484000002,646.0381591000005,646.0381591000005,646.0381591000005,646.0381591000005,646.0381591000005,646.0381591000005,646.0381591000005,60,33,60,56,60,60,646.0381591000005,647.8730785999996,,,,,,,,,,,,,,３０７,f,２６,2023-05-18_13h33.43.114,RL,2022.2.5,60.074744997546794,
61,54,70,33,0,107,107,107,,,,,,,,,,,None,647.8730785999996,647.8730785999996,647.8730785999996,647.8730785999996,647.8730785999996,647.8730785999996,f,0.34980650000034075,648.2600325000003,648.2600325000003,648.2600325000003,648.2600325000003,648.2600325000003,648.2600325000003,648.5392892,649.4393063000007,649.4393063000007,649.4393063000007,649.4393063000007,649.4393063000007,649.4393063000007,649.4226957999999,649.4393063000007,649.4393063000007,649.4393063000007,649.4393063000007,649.4393063000007,649.4393063000007,649.4393063000007,650.6211014,650.6211014,650.6211014,650.6211014,650.6211014,650.6211014,650.6211014,61,33,70,54,61,60,650.6211014,652.5385920999997,,,,,,,,,,,,,,３０７,f,２６,2023-05-18_13h33.43.114,RL,2022.2.5,60.074744997546794,
57,48,63,24,0,108,108,108,,,,,,,,,,,None,652.5385920999997,652.5385920999997,652.5385920999997,652.5385920999997,652.5385920999997,652.5385920999997,f,0.7350925999999163,653.3094959999999,653.3094959999999,653.3094959999999,653.3094959999999,653.3094959999999,653.3094959999999,653.5894177999999,655.2382553000007,655.2382553000007,655.2382553000007,655.2382553000007,655.2382553000007,655.2382553000007,655.205192899999,655.2382553000007,655.2382553000007,655.2382553000007,655.2382553000007,655.2382553000007,655.2382553000007,655.2382553000007,657.1534014999997,657.1534014999997,657.1534014999997,657.1534014999997,657.1534014999997,657.1534014999997,657.1534014999997,57,24,63,48,57,60,657.1534014999997,659.154036599999,,,,,,,,,,,,,,３０７,f,２６,2023-05-18_13h33.43.114,RL,2022.2.5,60.074744997546794,
55,54,58,35,0,109,109,109,,,,,,,,,,,None,659.154036599999,659.154036599999,659.154036599999,659.154036599999,659.154036599999,659.154036599999,f,0.3189246000001731,659.5094525999993,659.5094525999993,659.5094525999993,659.5094525999993,659.5094525999993,659.5094525999993,659.8043553999996,661.6371225000003,661.6371225000003,661.6371225000003,661.6371225000003,661.6371225000003,661.6371225000003,661.6205338,661.6371225000003,661.6371225000003,661.6371225000003,661.6371225000003,661.6371225000003,661.6371225000003,661.6371225000003,663.7520251999995,663.7520251999995,663.7520251999995,663.7520251999995,663.7520251999995,663.7520251999995,663.7520251999995,55,35,58,54,55,60,663.7520251999995,665.3532353999999,,,,,,,,,,,,,,３０７,f,２６,2023-05-18_13h33.43.114,RL,2022.2.5,60.074744997546794,
54,51,64,25,0,110,110,110,,,,,,,,,,,None,665.3532353999999,665.3532353999999,665.3532353999999,665.3532353999999,665.3532353999999,665.3532353999999,f,0.4452599999985978,665.8204807999991,665.8204807999991,665.8204807999991,665.8204807999991,665.8204807999991,665.8204807999991,666.1199441000008,667.5029859999995,667.5029859999995,667.5029859999995,667.5029859999995,667.5029859999995,667.5029859999995,667.4866662000004,667.5029859999995,667.5029859999995,667.5029859999995,667.5029859999995,667.5029859999995,667.5029859999995,667.5029859999995,669.1678849,669.1678849,669.1678849,669.1678849,669.1678849,669.1678849,669.1678849,54,25,64,51,54,60,669.1678849,671.0351148999998,,,,,,,,,,,,,,３０７,f,２６,2023-05-18_13h33.43.114,RL,2022.2.5,60.074744997546794,
68,41,67,43,0,111,111,111,,,,,,,,,,,None,671.0351148999998,671.0351148999998,671.0351148999998,671.0351148999998,671.0351148999998,671.0351148999998,f,0.39197170000079495,671.4544743000006,671.4544743000006,671.4544743000006,671.4544743000006,671.4544743000006,671.4544743000006,671.7523467999999,673.2684458999993,673.2684458999993,673.2684458999993,673.2684458999993,673.2684458999993,673.2684458999993,673.2526448000008,673.2684458999993,673.2684458999993,673.2684458999993,673.2684458999993,673.2684458999993,673.2684458999993,673.2684458999993,675.066782599999,675.066782599999,675.066782599999,675.066782599999,675.066782599999,675.066782599999,675.066782599999,68,43,67,41,68,60,675.066782599999,676.8681097000008,,,,,,,,,,,,,,３０７,f,２６,2023-05-18_13h33.43.114,RL,2022.2.5,60.074744997546794,
59,43,57,31,0,112,112,112,,,,,,,,,,,None,676.8681097000008,676.8681097000008,676.8681097000008,676.8681097000008,676.8681097000008,676.8681097000008,f,0.4243138000001636,677.3188575999993,677.3188575999993,677.3188575999993,677.3188575999993,677.3188575999993,677.3188575999993,677.6180282999994,679.1677638000001,679.1677638000001,679.1677638000001,679.1677638000001,679.1677638000001,679.1677638000001,679.1677638000001,679.1677638000001,679.1677638000001,679.1677638000001,679.1677638000001,679.1677638000001,679.1677638000001,679.1677638000001,681.0155694999994,681.0155694999994,681.0155694999994,681.0155694999994,681.0155694999994,681.0155694999994,681.0155694999994,59,31,57,43,59,60,681.0155694999994,682.6171175,,,,,,,,,,,,,,３０７,f,２６,2023-05-18_13h33.43.114,RL,2022.2.5,60.074744997546794,
65,35,55,29,0,113,113,113,,,,,,,,,,,None,682.6171175,682.6171175,682.6171175,682.6171175,682.6171175,682.6171175,f,0.4237527000004775,683.0672782999991,683.0672782999991,683.0672782999991,683.0672782999991,683.0672782999991,683.0672782999991,683.3507847000001,684.5335625999996,684.5335625999996,684.5335625999996,684.5335625999996,684.5335625999996,684.5335625999996,684.5168415000007,684.5335625999996,684.5335625999996,684.5335625999996,684.5335625999996,684.5335625999996,684.5335625999996,684.5335625999996,685.9985674,685.9985674,685.9985674,685.9985674,685.9985674,685.9985674,685.9985674,65,29,55,35,65,60,685.9985674,687.8324897000002,,,,,,,,,,,,,,３０７,f,２６,2023-05-18_13h33.43.114,RL,2022.2.5,60.074744997546794,
66,44,54,47,0,114,114,114,,,,,,,,,,,None,687.8324897000002,687.8324897000002,687.8324897000002,687.8324897000002,687.8324897000002,687.8324897000002,f,0.3868802000015421,688.2555455999991,688.2555455999991,688.2555455999991,688.2555455999991,688.2555455999991,688.2555455999991,688.5331571000006,689.8825023999998,689.8825023999998,689.8825023999998,689.8825023999998,689.8825023999998,689.8825023999998,689.849515599999,689.8825023999998,689.8825023999998,689.8825023999998,689.8825023999998,689.8825023999998,689.8825023999998,689.8825023999998,691.4972054999998,691.4972054999998,691.4972054999998,691.4972054999998,691.4972054999998,691.4972054999998,691.4972054999998,66,47,54,44,66,60,691.4972054999998,693.2315727999994,,,,,,,,,,,,,,３０７,f,２６,2023-05-18_13h33.43.114,RL,2022.2.5,60.074744997546794,
65,41,60,39,0,115,115,115,,,,,,,,,,,None,693.2315727999994,693.2315727999994,693.2315727999994,693.2315727999994,693.2315727999994,693.2315727999994,f,0.35956809999879624,693.6175980000007,693.6175980000007,693.6175980000007,693.6175980000007,693.6175980000007,693.6175980000007,693.9150862999995,695.0314768999997,695.0314768999997,695.0314768999997,695.0314768999997,695.0314768999997,695.0314768999997,695.0149382,695.0314768999997,695.0314768999997,695.0314768999997,695.0314768999997,695.0314768999997,695.0314768999997,695.0314768999997,696.4295053000005,696.4295053000005,696.4295053000005,696.4295053000005,696.4295053000005,696.4295053000005,696.4295053000005,65,39,60,41,65,60,696.4295053000005,697.9808890999993,,,,,,,,,,,,,,３０７,f,２６,2023-05-18_13h33.43.114,RL,2022.2.5,60.074744997546794,
59,40,66,37,0,116,116,116,,,,,,,,,,,None,697.9808890999993,697.9808890999993,697.9808890999993,697.9808890999993,697.9808890999993,697.9808890999993,f,0.365715399999317,698.3646007000007,698.3646007000007,698.3646007000007,698.3646007000007,698.3646007000007,698.3646007000007,698.6477304,699.7473661000004,699.7473661000004,699.7473661000004,699.7473661000004,699.7473661000004,699.7473661000004,699.7307285999996,699.7473661000004,699.7473661000004,699.7473661000004,699.7473661000004,699.7473661000004,699.7473661000004,699.7473661000004,701.1291445999996,701.1291445999996,701.1291445999996,701.1291445999996,701.1291445999996,701.1291445999996,701.1291445999996,59,37,66,40,59,60,701.1291445999996,702.9965802000006,,,,,,,,,,,,,,３０７,f,２６,2023-05-18_13h33.43.114,RL,2022.2.5,60.074744997546794,
61,62,62,34,0,117,117,117,,,,,,,,,,,None,702.9965802000006,702.9965802000006,702.9965802000006,702.9965802000006,702.9965802000006,702.9965802000006,f,0.3987816999997449,703.4140946000007,703.4140946000007,703.4140946000007,703.4140946000007,703.4140946000007,703.4140946000007,703.7133584000003,705.3296511000008,705.3296511000008,705.3296511000008,705.3296511000008,705.3296511000008,705.3296511000008,705.3296511000008,705.3296511000008,705.3296511000008,705.3296511000008,705.3296511000008,705.3296511000008,705.3296511000008,705.3296511000008,707.2448277000003,707.2448277000003,707.2448277000003,707.2448277000003,707.2448277000003,707.2448277000003,707.2448277000003,61,34,62,62,61,60,707.2448277000003,708.7621290999996,,,,,,,,,,,,,,３０７,f,２６,2023-05-18_13h33.43.114,RL,2022.2.5,60.074744997546794,
62,44,60,34,0,118,118,118,,,,,,,,,,,None,708.7621290999996,708.7621290999996,708.7621290999996,708.7621290999996,708.7621290999996,708.7621290999996,f,0.49168900000040594,709.2801172,709.2801172,709.2801172,709.2801172,709.2801172,709.2801172,709.5628448000007,711.5287081000006,711.5287081000006,711.5287081000006,711.5287081000006,711.5287081000006,711.5287081000006,711.5122685999995,711.5287081000006,711.5287081000006,711.5287081000006,711.5287081000006,711.5287081000006,711.5287081000006,711.5287081000006,713.7766881999996,713.7766881999996,713.7766881999996,713.7766881999996,713.7766881999996,713.7766881999996,713.7766881999996,62,34,60,44,62,60,713.7766881999996,715.3613592999991,,,,,,,,,,,,,,３０７,f,２６,2023-05-18_13h33.43.114,RL,2022.2.5,60.074744997546794,
65,36,60,28,0,119,119,119,,,,,,,,,,,None,715.3613592999991,715.3613592999991,715.3613592999991,715.3613592999991,715.3613592999991,715.3613592999991,f,0.3811941999992996,715.7635451999995,715.7635451999995,715.7635451999995,715.7635451999995,715.7635451999995,715.7635451999995,716.0449705999999,717.1116449000001,717.1116449000001,717.1116449000001,717.1116449000001,717.1116449000001,717.1116449000001,717.0949153000001,717.1116449000001,717.1116449000001,717.1116449000001,717.1116449000001,717.1116449000001,717.1116449000001,717.1116449000001,718.4590456000005,718.4590456000005,718.4590456000005,718.4590456000005,718.4590456000005,718.4590456000005,718.4590456000005,65,28,60,36,65,60,718.4590456000005,720.2433065000005,,,,,,,,,,,,,,３０７,f,２６,2023-05-18_13h33.43.114,RL,2022.2.5,60.074744997546794,
63,43,55,34,0,120,120,120,,,,,,,,,,,None,720.2433065000005,720.2433065000005,720.2433065000005,720.2433065000005,720.2433065000005,720.2433065000005,f,0.32315680000101565,720.5940706000001,720.5940706000001,720.5940706000001,720.5940706000001,720.5940706000001,720.5940706000001,720.8771708999993,722.3933056000005,722.3933056000005,722.3933056000005,722.3933056000005,722.3933056000005,722.3933056000005,722.3766534999995,722.3933056000005,722.3933056000005,722.3933056000005,722.3933056000005,722.3933056000005,722.3933056000005,722.3933056000005,724.1914295999995,724.1914295999995,724.1914295999995,724.1914295999995,724.1914295999995,724.1914295999995,724.1914295999995,63,34,55,43,63,60,724.1914295999995,725.7591976999993,,,,,,,,,,,,,,３０７,f,２６,2023-05-18_13h33.43.114,RL,2022.2.5,60.074744997546794,
67,38,59,24,0,121,121,121,,,,,,,,,,,None,725.7591976999993,725.7591976999993,725.7591976999993,725.7591976999993,725.7591976999993,725.7591976999993,f,0.33195879999948374,726.1106689000007,726.1106689000007,726.1106689000007,726.1106689000007,726.1106689000007,726.1106689000007,726.3927535000003,727.392464999999,727.392464999999,727.392464999999,727.392464999999,727.392464999999,727.392464999999,727.3759888999994,727.392464999999,727.392464999999,727.392464999999,727.392464999999,727.392464999999,727.392464999999,727.392464999999,728.6743325999996,728.6743325999996,728.6743325999996,728.6743325999996,728.6743325999996,728.6743325999996,728.6743325999996,67,24,59,38,67,60,728.6743325999996,730.3584102000004,,,,,,,,,,,,,,３０７,f,２６,2023-05-18_13h33.43.114,RL,2022.2.5,60.074744997546794,
