arm1,arm2,arm3,arm4,trials.thisRepN,trials.thisTrialN,trials.thisN,trials.thisIndex,instru_img1.started,instru_resp.started,instru_resp.keys,instru_resp.rt,image_2.started,text_2.started,image_2.stopped,text_2.stopped,fixbefore_2.started,fixbefore_2.stopped,rest_response.keys,red.started,green.started,yellow.started,blue.started,choose_bandit.started,Fixation.started,choose_bandit.keys,choose_bandit.rt,black.started,red_2.started,green_2.started,yellow_2.started,blue_2.started,fixation_2.started,docs.started,black.stopped,red_2.stopped,green_2.stopped,yellow_2.stopped,blue_2.stopped,fixation_2.stopped,docs.stopped,black_com.started,reward_sub.started,reward__sub.started,red_compare.started,green_com.started,yellow_com.started,blue_com.started,black_com.stopped,reward_sub.stopped,reward__sub.stopped,red_compare.stopped,green_com.stopped,yellow_com.stopped,blue_com.stopped,rewardred,rewardyellow,rewardblue,rewardgreen,subchoose,expectation,intertrialfix.started,intertrialfix.stopped,red.stopped,green.stopped,yellow.stopped,blue.stopped,choose_bandit.stopped,Fixation.stopped,bigx.started,bigx.stopped,rest_image.started,rest_response.started,rest_response.rt,image_expect_after.started,text_exp_after.started,image_expect_after.stopped,text_exp_after.stopped,image.started,key_resp.started,key_resp.keys,participant,Gender,Age,date,expName,psychopyVersion,frameRate,
,,,,,,,,27.988780900001075,27.988780900001075,space,4.811157000000094,,,,,,,,,,,,,,,,,,,,,,,,,,,,,,,,,,,,,,,,,,,,,,,,,,,,,,,,,,,,,,,,,,,,,,３０８,f,２３,2023-05-18_14h13.03.946,RL,2022.2.5,60.08802896228263,
34,39,68,57,0,0,0,0,,,,,32.81476870000006,32.81476870000006,37.81407030000082,37.81407030000082,37.81407030000082,38.81627219999973,None,38.81627219999973,38.81627219999973,38.81627219999973,38.81627219999973,38.81627219999973,38.81627219999973,f,0.8736422999991191,39.72096000000056,39.72096000000056,39.72096000000056,39.72096000000056,39.72096000000056,39.72096000000056,40.00001610000072,41.71275710000009,41.71275710000009,41.71275710000009,41.71275710000009,41.71275710000009,41.71275710000009,41.71275710000009,41.71275710000009,41.71275710000009,41.71275710000009,41.71275710000009,41.71275710000009,41.71275710000009,41.71275710000009,43.735834299999624,43.735834299999624,43.735834299999624,43.735834299999624,43.735834299999624,43.735834299999624,43.735834299999624,57,39,68,34,57,70,43.735834299999624,45.41374350000115,,,,,,,,,,,,,,,,,,,３０８,f,２３,2023-05-18_14h13.03.946,RL,2022.2.5,60.08802896228263,
35,46,51,55,0,1,1,1,,,,,,,,,,,None,45.41374350000115,45.41374350000115,45.41374350000115,45.41374350000115,45.41374350000115,45.41374350000115,f,0.8321342999988701,46.26500850000048,46.26500850000048,46.26500850000048,46.26500850000048,46.26500850000048,46.26500850000048,46.547515700000076,48.280096599999524,48.280096599999524,48.280096599999524,48.280096599999524,48.280096599999524,48.280096599999524,48.26403840000057,48.280096599999524,48.280096599999524,48.280096599999524,48.280096599999524,48.280096599999524,48.280096599999524,48.280096599999524,50.29507639999974,50.29507639999974,50.29507639999974,50.29507639999974,50.29507639999974,50.29507639999974,50.29507639999974,55,46,51,35,55,70,50.29507639999974,51.81292949999988,,,,,,,,,,,,,,,,,,,３０８,f,２３,2023-05-18_14h13.03.946,RL,2022.2.5,60.08802896228263,
34,45,47,56,0,2,2,2,,,,,,,,,,,None,51.81292949999988,51.81292949999988,51.81292949999988,51.81292949999988,51.81292949999988,51.81292949999988,f,1.3139415999994526,53.14661309999974,53.14661309999974,53.14661309999974,53.14661309999974,53.14661309999974,53.14661309999974,53.4293789000003,54.862323299999844,54.862323299999844,54.862323299999844,54.862323299999844,54.862323299999844,54.862323299999844,54.846379500000694,54.862323299999844,54.862323299999844,54.862323299999844,54.862323299999844,54.862323299999844,54.862323299999844,54.862323299999844,56.5773889000011,56.5773889000011,56.5773889000011,56.5773889000011,56.5773889000011,56.5773889000011,56.5773889000011,56,45,47,34,56,70,56.5773889000011,58.461527400000705,,,,,,,,,,,,,,,,,,,３０８,f,２３,2023-05-18_14h13.03.946,RL,2022.2.5,60.08802896228263,
33,44,56,60,0,3,3,3,,,,,,,,,,,None,58.461527400000705,58.461527400000705,58.461527400000705,58.461527400000705,58.461527400000705,58.461527400000705,i,1.1643141000004107,59.646166300000914,59.646166300000914,59.646166300000914,59.646166300000914,59.646166300000914,59.646166300000914,59.94556100000045,61.428015499999674,61.428015499999674,61.428015499999674,61.428015499999674,61.428015499999674,61.428015499999674,61.428015499999674,61.428015499999674,61.428015499999674,61.428015499999674,61.428015499999674,61.428015499999674,61.428015499999674,61.428015499999674,63.20937890000096,63.20937890000096,63.20937890000096,63.20937890000096,63.20937890000096,63.20937890000096,63.20937890000096,60,44,56,33,56,70,63.20937890000096,65.02705129999958,,,,,,,,,,,,,,,,,,,３０８,f,２３,2023-05-18_14h13.03.946,RL,2022.2.5,60.08802896228263,
30,45,58,55,0,4,4,4,,,,,,,,,,,None,65.02705129999958,65.02705129999958,65.02705129999958,65.02705129999958,65.02705129999958,65.02705129999958,r,0.7969998000007763,65.84460890000082,65.84460890000082,65.84460890000082,65.84460890000082,65.84460890000082,65.84460890000082,66.12750220000089,67.17677279999953,67.17677279999953,67.17677279999953,67.17677279999953,67.17677279999953,67.17677279999953,67.16037270000015,67.17677279999953,67.17677279999953,67.17677279999953,67.17677279999953,67.17677279999953,67.17677279999953,67.17677279999953,68.50885000000017,68.50885000000017,68.50885000000017,68.50885000000017,68.50885000000017,68.50885000000017,68.50885000000017,55,45,58,30,45,70,68.50885000000017,70.50940609999998,,,,,,,,,,,,,,,,,,,３０８,f,２３,2023-05-18_14h13.03.946,RL,2022.2.5,60.08802896228263,
38,41,57,63,0,5,5,5,,,,,,,,,,,None,70.50940609999998,70.50940609999998,70.50940609999998,70.50940609999998,70.50940609999998,70.50940609999998,r,1.0458423000000039,71.57855550000022,71.57855550000022,71.57855550000022,71.57855550000022,71.57855550000022,71.57855550000022,71.87667590000092,73.80924059999961,73.80924059999961,73.80924059999961,73.80924059999961,73.80924059999961,73.80924059999961,73.80924059999961,73.80924059999961,73.80924059999961,73.80924059999961,73.80924059999961,73.80924059999961,73.80924059999961,73.80924059999961,76.04024990000107,76.04024990000107,76.04024990000107,76.04024990000107,76.04024990000107,76.04024990000107,76.04024990000107,63,41,57,38,41,70,76.04024990000107,77.92477490000056,,,,,,,,,,,,,,,,,,,３０８,f,２３,2023-05-18_14h13.03.946,RL,2022.2.5,60.08802896228263,
27,43,52,62,0,6,6,6,,,,,,,,,,,None,77.92477490000056,77.92477490000056,77.92477490000056,77.92477490000056,77.92477490000056,77.92477490000056,r,0.8001416000006429,78.74608100000114,78.74608100000114,78.74608100000114,78.74608100000114,78.74608100000114,78.74608100000114,79.04215570000088,80.924543000001,80.924543000001,80.924543000001,80.924543000001,80.924543000001,80.924543000001,80.924543000001,80.924543000001,80.924543000001,80.924543000001,80.924543000001,80.924543000001,80.924543000001,80.924543000001,83.10608950000096,83.10608950000096,83.10608950000096,83.10608950000096,83.10608950000096,83.10608950000096,83.10608950000096,62,43,52,27,43,70,83.10608950000096,85.02383360000022,,,,,,,,,,,,,,,,,,,３０８,f,２３,2023-05-18_14h13.03.946,RL,2022.2.5,60.08802896228263,
41,44,49,70,0,7,7,7,,,,,,,,,,,None,85.02383360000022,85.02383360000022,85.02383360000022,85.02383360000022,85.02383360000022,85.02383360000022,j,0.8392463000000134,85.89095500000076,85.89095500000076,85.89095500000076,85.89095500000076,85.89095500000076,85.89095500000076,86.17433220000021,87.62386090000109,87.62386090000109,87.62386090000109,87.62386090000109,87.62386090000109,87.62386090000109,87.60721469999953,87.62386090000109,87.62386090000109,87.62386090000109,87.62386090000109,87.62386090000109,87.62386090000109,87.62386090000109,89.3551924000003,89.3551924000003,89.3551924000003,89.3551924000003,89.3551924000003,89.3551924000003,89.3551924000003,70,44,49,41,41,70,89.3551924000003,91.1898758999996,,,,,,,,,,,,,,,,,,,３０８,f,２３,2023-05-18_14h13.03.946,RL,2022.2.5,60.08802896228263,
43,42,57,70,0,8,8,8,,,,,,,,,,,None,91.1898758999996,91.1898758999996,91.1898758999996,91.1898758999996,91.1898758999996,91.1898758999996,i,1.0916899000003468,92.30633130000024,92.30633130000024,92.30633130000024,92.30633130000024,92.30633130000024,92.30633130000024,92.58947919999991,94.30587990000095,94.30587990000095,94.30587990000095,94.30587990000095,94.30587990000095,94.30587990000095,94.28952220000065,94.30587990000095,94.30587990000095,94.30587990000095,94.30587990000095,94.30587990000095,94.30587990000095,94.30587990000095,96.30352210000092,96.30352210000092,96.30352210000092,96.30352210000092,96.30352210000092,96.30352210000092,96.30352210000092,70,42,57,43,57,70,96.30352210000092,98.17130540000107,,,,,,,,,,,,,,,,,,,３０８,f,２３,2023-05-18_14h13.03.946,RL,2022.2.5,60.08802896228263,
41,36,42,64,0,9,9,9,,,,,,,,,,,None,98.17130540000107,98.17130540000107,98.17130540000107,98.17130540000107,98.17130540000107,98.17130540000107,i,1.1888967000013508,99.39304640000046,99.39304640000046,99.39304640000046,99.39304640000046,99.39304640000046,99.39304640000046,99.67178969999986,101.57272349999948,101.57272349999948,101.57272349999948,101.57272349999948,101.57272349999948,101.57272349999948,101.55473990000064,101.57272349999948,101.57272349999948,101.57272349999948,101.57272349999948,101.57272349999948,101.57272349999948,101.57272349999948,103.7524555,103.7524555,103.7524555,103.7524555,103.7524555,103.7524555,103.7524555,64,36,42,41,42,70,103.7524555,105.48709039999994,,,,,,,,,,,,,,,,,,,３０８,f,２３,2023-05-18_14h13.03.946,RL,2022.2.5,60.08802896228263,
42,47,55,62,0,10,10,10,,,,,,,,,,,None,105.48709039999994,105.48709039999994,105.48709039999994,105.48709039999994,105.48709039999994,105.48709039999994,i,0.6421257999991212,106.15394399999968,106.15394399999968,106.15394399999968,106.15394399999968,106.15394399999968,106.15394399999968,106.43711040000017,107.28701100000035,107.28701100000035,107.28701100000035,107.28701100000035,107.28701100000035,107.28701100000035,107.2702788000006,107.28701100000035,107.28701100000035,107.28701100000035,107.28701100000035,107.28701100000035,107.28701100000035,107.28701100000035,108.41847290000078,108.41847290000078,108.41847290000078,108.41847290000078,108.41847290000078,108.41847290000078,108.41847290000078,62,47,55,42,55,70,108.41847290000078,110.1698292000001,,,,,,,,,,,,,,,,,,,３０８,f,２３,2023-05-18_14h13.03.946,RL,2022.2.5,60.08802896228263,
36,46,64,73,0,11,11,11,,,,,,,,,,,None,110.1698292000001,110.1698292000001,110.1698292000001,110.1698292000001,110.1698292000001,110.1698292000001,i,0.7605751999999484,110.95413910000025,110.95413910000025,110.95413910000025,110.95413910000025,110.95413910000025,110.95413910000025,111.25261210000099,113.2527141999999,113.2527141999999,113.2527141999999,113.2527141999999,113.2527141999999,113.2527141999999,113.2527141999999,113.2527141999999,113.2527141999999,113.2527141999999,113.2527141999999,113.2527141999999,113.2527141999999,113.2527141999999,115.55037149999953,115.55037149999953,115.55037149999953,115.55037149999953,115.55037149999953,115.55037149999953,115.55037149999953,73,46,64,36,64,70,115.55037149999953,117.1847684000004,,,,,,,,,,,,,,,,,,,３０８,f,２３,2023-05-18_14h13.03.946,RL,2022.2.5,60.08802896228263,
34,48,59,73,0,12,12,12,,,,,,,,,,,None,117.1847684000004,117.1847684000004,117.1847684000004,117.1847684000004,117.1847684000004,117.1847684000004,i,0.7867585000003601,118.00202200000058,118.00202200000058,118.00202200000058,118.00202200000058,118.00202200000058,118.00202200000058,118.30204460000095,119.9347314000006,119.9347314000006,119.9347314000006,119.9347314000006,119.9347314000006,119.9347314000006,119.9347314000006,119.9347314000006,119.9347314000006,119.9347314000006,119.9347314000006,119.9347314000006,119.9347314000006,119.9347314000006,121.86580289999984,121.86580289999984,121.86580289999984,121.86580289999984,121.86580289999984,121.86580289999984,121.86580289999984,73,48,59,34,59,70,121.86580289999984,123.48404860000119,,,,,,,,,,,,,,,,,,,３０８,f,２３,2023-05-18_14h13.03.946,RL,2022.2.5,60.08802896228263,
30,54,63,64,0,13,13,13,,,,,,,,,,,None,123.48404860000119,123.48404860000119,123.48404860000119,123.48404860000119,123.48404860000119,123.48404860000119,i,0.6054667999997037,124.11825400000089,124.11825400000089,124.11825400000089,124.11825400000089,124.11825400000089,124.11825400000089,124.40104460000111,125.26731599999948,125.26731599999948,125.26731599999948,125.26731599999948,125.26731599999948,125.26731599999948,125.25062419999995,125.26731599999948,125.26731599999948,125.26731599999948,125.26731599999948,125.26731599999948,125.26731599999948,125.26731599999948,126.41494550000061,126.41494550000061,126.41494550000061,126.41494550000061,126.41494550000061,126.41494550000061,126.41494550000061,64,54,63,30,63,70,126.41494550000061,128.13294789999964,,,,,,,,,,,,,,,,,,,３０８,f,２３,2023-05-18_14h13.03.946,RL,2022.2.5,60.08802896228263,
33,58,64,71,0,14,14,14,,,,,,,,,,,None,128.13294789999964,128.13294789999964,128.13294789999964,128.13294789999964,128.13294789999964,128.13294789999964,i,1.024306199999046,129.18465110000034,129.18465110000034,129.18465110000034,129.18465110000034,129.18465110000034,129.18465110000034,129.4666397000001,130.98287270000037,130.98287270000037,130.98287270000037,130.98287270000037,130.98287270000037,130.98287270000037,130.96605799999998,130.98287270000037,130.98287270000037,130.98287270000037,130.98287270000037,130.98287270000037,130.98287270000037,130.98287270000037,132.78133040000102,132.78133040000102,132.78133040000102,132.78133040000102,132.78133040000102,132.78133040000102,132.78133040000102,71,58,64,33,64,70,132.78133040000102,134.56523730000117,,,,,,,,,,,,,,,,,,,３０８,f,２３,2023-05-18_14h13.03.946,RL,2022.2.5,60.08802896228263,
36,54,65,72,0,15,15,15,,,,,,,,,,,None,134.56523730000117,134.56523730000117,134.56523730000117,134.56523730000117,134.56523730000117,134.56523730000117,i,0.9422778999996808,135.5334098000003,135.5334098000003,135.5334098000003,135.5334098000003,135.5334098000003,135.5334098000003,135.8322860999997,137.04825230000097,137.04825230000097,137.04825230000097,137.04825230000097,137.04825230000097,137.04825230000097,137.04825230000097,137.04825230000097,137.04825230000097,137.04825230000097,137.04825230000097,137.04825230000097,137.04825230000097,137.04825230000097,138.56287189999966,138.56287189999966,138.56287189999966,138.56287189999966,138.56287189999966,138.56287189999966,138.56287189999966,72,54,65,36,65,70,138.56287189999966,140.49743540000054,,,,,,,,,,,,,,,,,,,３０８,f,２３,2023-05-18_14h13.03.946,RL,2022.2.5,60.08802896228263,
40,55,68,73,0,16,16,16,,,,,,,,,,,None,140.49743540000054,140.49743540000054,140.49743540000054,140.49743540000054,140.49743540000054,140.49743540000054,i,1.1244729999998526,141.64854960000048,141.64854960000048,141.64854960000048,141.64854960000048,141.64854960000048,141.64854960000048,141.94745850000072,142.84705940000094,142.84705940000094,142.84705940000094,142.84705940000094,142.84705940000094,142.84705940000094,142.84705940000094,142.84705940000094,142.84705940000094,142.84705940000094,142.84705940000094,142.84705940000094,142.84705940000094,142.84705940000094,144.04564720000053,144.04564720000053,144.04564720000053,144.04564720000053,144.04564720000053,144.04564720000053,144.04564720000053,73,55,68,40,68,70,144.04564720000053,145.77985950000038,,,,,,,,,,,,,,,,,,,３０８,f,２３,2023-05-18_14h13.03.946,RL,2022.2.5,60.08802896228263,
40,58,57,56,0,17,17,17,,,,,,,,,,,None,145.77985950000038,145.77985950000038,145.77985950000038,145.77985950000038,145.77985950000038,145.77985950000038,None,,,,,,,,,,,,,,,,,,,,,,,,,,,,,,56,58,57,40,0,70,153.2770171000011,155.02853420000065,147.27813160000005,147.27813160000005,147.27813160000005,147.27813160000005,147.27813160000005,147.27813160000005,147.27813160000005,153.2770171000011,,,,,,,,,,,３０８,f,２３,2023-05-18_14h13.03.946,RL,2022.2.5,60.08802896228263,
40,61,58,65,0,18,18,18,,,,,,,,,,,None,155.02853420000065,155.02853420000065,155.02853420000065,155.02853420000065,155.02853420000065,155.02853420000065,i,0.5709860000006302,155.62861890000022,155.62861890000022,155.62861890000022,155.62861890000022,155.62861890000022,155.62861890000022,155.91184079999948,157.51165779999974,157.51165779999974,157.51165779999974,157.51165779999974,157.51165779999974,157.51165779999974,157.4949847000007,157.51165779999974,157.51165779999974,157.51165779999974,157.51165779999974,157.51165779999974,157.51165779999974,157.51165779999974,159.39268129999982,159.39268129999982,159.39268129999982,159.39268129999982,159.39268129999982,159.39268129999982,159.39268129999982,65,61,58,40,58,70,159.39268129999982,160.9771109000012,,,,,,,,,,,,,,,,,,,３０８,f,２３,2023-05-18_14h13.03.946,RL,2022.2.5,60.08802896228263,
36,55,67,62,0,19,19,19,,,,,,,,,,,None,160.9771109000012,160.9771109000012,160.9771109000012,160.9771109000012,160.9771109000012,160.9771109000012,i,0.7769506000004185,161.77779639999972,161.77779639999972,161.77779639999972,161.77779639999972,161.77779639999972,161.77779639999972,162.06114479999997,163.99360060000072,163.99360060000072,163.99360060000072,163.99360060000072,163.99360060000072,163.99360060000072,163.97710159999951,163.99360060000072,163.99360060000072,163.99360060000072,163.99360060000072,163.99360060000072,163.99360060000072,163.99360060000072,166.2081971000007,166.2081971000007,166.2081971000007,166.2081971000007,166.2081971000007,166.2081971000007,166.2081971000007,62,55,67,36,67,70,166.2081971000007,168.0427063999996,,,,,,,,,,,,,,,,,,,３０８,f,２３,2023-05-18_14h13.03.946,RL,2022.2.5,60.08802896228263,
43,43,67,68,0,20,20,20,,,,,,,,,,,None,168.0427063999996,168.0427063999996,168.0427063999996,168.0427063999996,168.0427063999996,168.0427063999996,f,0.5356216000000131,168.6120890000002,168.6120890000002,168.6120890000002,168.6120890000002,168.6120890000002,168.6120890000002,168.8932079999995,169.74299369999972,169.74299369999972,169.74299369999972,169.74299369999972,169.74299369999972,169.74299369999972,169.72616290000042,169.74299369999972,169.74299369999972,169.74299369999972,169.74299369999972,169.74299369999972,169.74299369999972,169.74299369999972,170.87427580000076,170.87427580000076,170.87427580000076,170.87427580000076,170.87427580000076,170.87427580000076,170.87427580000076,68,43,67,43,68,70,170.87427580000076,172.65884770000048,,,,,,,,,,,,,,,,,,,３０８,f,２３,2023-05-18_14h13.03.946,RL,2022.2.5,60.08802896228263,
46,46,63,72,0,21,21,21,,,,,,,,,,,None,172.65884770000048,172.65884770000048,172.65884770000048,172.65884770000048,172.65884770000048,172.65884770000048,i,0.8923547999984294,173.57584700000007,173.57584700000007,173.57584700000007,173.57584700000007,173.57584700000007,173.57584700000007,173.85900460000084,175.24188529999992,175.24188529999992,175.24188529999992,175.24188529999992,175.24188529999992,175.24188529999992,175.22531720000006,175.24188529999992,175.24188529999992,175.24188529999992,175.24188529999992,175.24188529999992,175.24188529999992,175.24188529999992,176.9063530000003,176.9063530000003,176.9063530000003,176.9063530000003,176.9063530000003,176.9063530000003,176.9063530000003,72,46,63,46,63,70,176.9063530000003,178.60750700000062,,,,,,,,,,,,,,,,,,,３０８,f,２３,2023-05-18_14h13.03.946,RL,2022.2.5,60.08802896228263,
53,63,60,67,0,22,22,22,,,,,,,,,,,None,178.60750700000062,178.60750700000062,178.60750700000062,178.60750700000062,178.60750700000062,178.60750700000062,i,1.0590945999992982,179.69147990000056,179.69147990000056,179.69147990000056,179.69147990000056,179.69147990000056,179.69147990000056,179.9746097999996,181.5236703999999,181.5236703999999,181.5236703999999,181.5236703999999,181.5236703999999,181.5236703999999,181.50700289999986,181.5236703999999,181.5236703999999,181.5236703999999,181.5236703999999,181.5236703999999,181.5236703999999,181.5236703999999,183.3555174000012,183.3555174000012,183.3555174000012,183.3555174000012,183.3555174000012,183.3555174000012,183.3555174000012,67,63,60,53,60,70,183.3555174000012,185.02335660000062,,,,,,,,,,,,,,,,,,,３０８,f,２３,2023-05-18_14h13.03.946,RL,2022.2.5,60.08802896228263,
50,61,50,59,0,23,23,23,,,,,,,,,,,None,185.02335660000062,185.02335660000062,185.02335660000062,185.02335660000062,185.02335660000062,185.02335660000062,f,0.6756298000000243,185.72431450000113,185.72431450000113,185.72431450000113,185.72431450000113,185.72431450000113,185.72431450000113,186.0232049999995,187.80637260000003,187.80637260000003,187.80637260000003,187.80637260000003,187.80637260000003,187.80637260000003,187.80637260000003,187.80637260000003,187.80637260000003,187.80637260000003,187.80637260000003,187.80637260000003,187.80637260000003,187.80637260000003,189.88780729999962,189.88780729999962,189.88780729999962,189.88780729999962,189.88780729999962,189.88780729999962,189.88780729999962,59,61,50,50,59,70,189.88780729999962,191.77200240000093,,,,,,,,,,,,,,,,,,,３０８,f,２３,2023-05-18_14h13.03.946,RL,2022.2.5,60.08802896228263,
55,49,53,63,0,24,24,24,,,,,,,,,,,None,191.77200240000093,191.77200240000093,191.77200240000093,191.77200240000093,191.77200240000093,191.77200240000093,i,0.4957425000011426,192.2902524000001,192.2902524000001,192.2902524000001,192.2902524000001,192.2902524000001,192.2902524000001,192.58912810000038,194.45527550000043,194.45527550000043,194.45527550000043,194.45527550000043,194.45527550000043,194.45527550000043,194.43856290000076,194.45527550000043,194.45527550000043,194.45527550000043,194.45527550000043,194.45527550000043,194.45527550000043,194.45527550000043,196.6193447000005,196.6193447000005,196.6193447000005,196.6193447000005,196.6193447000005,196.6193447000005,196.6193447000005,63,49,53,55,53,70,196.6193447000005,198.55435829999988,,,,,,,,,,,,,,,,,,,３０８,f,２３,2023-05-18_14h13.03.946,RL,2022.2.5,60.08802896228263,
48,50,52,62,0,25,25,25,,,,,,,,,,,None,198.55435829999988,198.55435829999988,198.55435829999988,198.55435829999988,198.55435829999988,198.55435829999988,r,0.685420100000556,199.27407570000105,199.27407570000105,199.27407570000105,199.27407570000105,199.27407570000105,199.27407570000105,199.55477790000077,201.10386870000002,201.10386870000002,201.10386870000002,201.10386870000002,201.10386870000002,201.10386870000002,201.08740990000115,201.10386870000002,201.10386870000002,201.10386870000002,201.10386870000002,201.10386870000002,201.10386870000002,201.10386870000002,202.93529310000122,202.93529310000122,202.93529310000122,202.93529310000122,202.93529310000122,202.93529310000122,202.93529310000122,62,50,52,48,50,70,202.93529310000122,204.6697120000008,,,,,,,,,,,,,,,,,,,３０８,f,２３,2023-05-18_14h13.03.946,RL,2022.2.5,60.08802896228263,
47,55,53,69,0,26,26,26,,,,,,,,,,,None,204.6697120000008,204.6697120000008,204.6697120000008,204.6697120000008,204.6697120000008,204.6697120000008,i,0.7715446000001975,205.47448430000077,205.47448430000077,205.47448430000077,205.47448430000077,205.47448430000077,205.47448430000077,205.76990490000026,206.85305100000005,206.85305100000005,206.85305100000005,206.85305100000005,206.85305100000005,206.85305100000005,206.85305100000005,206.85305100000005,206.85305100000005,206.85305100000005,206.85305100000005,206.85305100000005,206.85305100000005,206.85305100000005,208.23405529999945,208.23405529999945,208.23405529999945,208.23405529999945,208.23405529999945,208.23405529999945,208.23405529999945,69,55,53,47,53,70,208.23405529999945,209.9357643000003,,,,,,,,,,,,,,,,,,,３０８,f,２３,2023-05-18_14h13.03.946,RL,2022.2.5,60.08802896228263,
48,57,45,62,0,27,27,27,,,,,,,,,,,None,209.9357643000003,209.9357643000003,209.9357643000003,209.9357643000003,209.9357643000003,209.9357643000003,i,0.8195878000005905,210.78934350000054,210.78934350000054,210.78934350000054,210.78934350000054,210.78934350000054,210.78934350000054,211.06891750000068,213.01876100000118,213.01876100000118,213.01876100000118,213.01876100000118,213.01876100000118,213.01876100000118,212.98514559999967,213.01876100000118,213.01876100000118,213.01876100000118,213.01876100000118,213.01876100000118,213.01876100000118,213.01876100000118,215.23309280000103,215.23309280000103,215.23309280000103,215.23309280000103,215.23309280000103,215.23309280000103,215.23309280000103,62,57,45,48,45,70,215.23309280000103,217.18404890000056,,,,,,,,,,,,,,,,,,,３０８,f,２３,2023-05-18_14h13.03.946,RL,2022.2.5,60.08802896228263,
42,57,48,50,0,28,28,28,,,,,,,,,,,None,217.18404890000056,217.18404890000056,217.18404890000056,217.18404890000056,217.18404890000056,217.18404890000056,i,0.8014899000008882,218.03037919999952,218.03037919999952,218.03037919999952,218.03037919999952,218.03037919999952,218.03037919999952,218.31791590000103,219.26777799999945,219.26777799999945,219.26777799999945,219.26777799999945,219.26777799999945,219.26777799999945,219.25084960000095,219.26777799999945,219.26777799999945,219.26777799999945,219.26777799999945,219.26777799999945,219.26777799999945,219.26777799999945,220.4989727000011,220.4989727000011,220.4989727000011,220.4989727000011,220.4989727000011,220.4989727000011,220.4989727000011,50,57,48,42,48,70,220.4989727000011,222.2663907999995,,,,,,,,,,,,,,,,,,,３０８,f,２３,2023-05-18_14h13.03.946,RL,2022.2.5,60.08802896228263,
49,52,57,65,0,29,29,29,,,,,,,,,,,None,222.2663907999995,222.2663907999995,222.2663907999995,222.2663907999995,222.2663907999995,222.2663907999995,i,0.9535286999998789,223.2540523000007,223.2540523000007,223.2540523000007,223.2540523000007,223.2540523000007,223.2540523000007,223.533284000001,224.68297280000115,224.68297280000115,224.68297280000115,224.68297280000115,224.68297280000115,224.68297280000115,224.66634180000074,224.68297280000115,224.68297280000115,224.68297280000115,224.68297280000115,224.68297280000115,224.68297280000115,224.68297280000115,226.11427159999948,226.11427159999948,226.11427159999948,226.11427159999948,226.11427159999948,226.11427159999948,226.11427159999948,65,52,57,49,57,70,226.11427159999948,227.74878259999969,,,,,,,,,,,,,,,,,,,３０８,f,２３,2023-05-18_14h13.03.946,RL,2022.2.5,60.08802896228263,
53,42,54,54,0,30,30,30,,,,,,,,,,,None,227.74878259999969,227.74878259999969,227.74878259999969,227.74878259999969,227.74878259999969,227.74878259999969,i,0.8625467000001663,228.63408309999977,228.63408309999977,228.63408309999977,228.63408309999977,228.63408309999977,228.63408309999977,228.93260120000014,230.74905930000023,230.74905930000023,230.74905930000023,230.74905930000023,230.74905930000023,230.74905930000023,230.74905930000023,230.74905930000023,230.74905930000023,230.74905930000023,230.74905930000023,230.74905930000023,230.74905930000023,230.74905930000023,232.86363639999945,232.86363639999945,232.86363639999945,232.86363639999945,232.86363639999945,232.86363639999945,232.86363639999945,54,42,54,53,54,70,232.86363639999945,234.614168600001,,,,,,,,,,,,,,,,,,,３０８,f,２３,2023-05-18_14h13.03.946,RL,2022.2.5,60.08802896228263,
51,47,53,47,0,31,31,31,,,,,,,,,,,None,234.614168600001,234.614168600001,234.614168600001,234.614168600001,234.614168600001,234.614168600001,i,0.7156777999989572,235.34810599999946,235.34810599999946,235.34810599999946,235.34810599999946,235.34810599999946,235.34810599999946,235.64810109999962,237.61411410000073,237.61411410000073,237.61411410000073,237.61411410000073,237.61411410000073,237.61411410000073,237.61411410000073,237.61411410000073,237.61411410000073,237.61411410000073,237.61411410000073,237.61411410000073,237.61411410000073,237.61411410000073,239.87883110000075,239.87883110000075,239.87883110000075,239.87883110000075,239.87883110000075,239.87883110000075,239.87883110000075,47,47,53,51,53,70,239.87883110000075,241.6632769000007,,,,,,,,,,,,,,,,,,,３０８,f,２３,2023-05-18_14h13.03.946,RL,2022.2.5,60.08802896228263,
55,52,62,46,0,32,32,32,,,,,,,,,,,None,241.6632769000007,241.6632769000007,241.6632769000007,241.6632769000007,241.6632769000007,241.6632769000007,j,0.7577044000008755,242.44849000000067,242.44849000000067,242.44849000000067,242.44849000000067,242.44849000000067,242.44849000000067,242.74664200000007,243.7801868000006,243.7801868000006,243.7801868000006,243.7801868000006,243.7801868000006,243.7801868000006,243.76346700000067,243.7801868000006,243.7801868000006,243.7801868000006,243.7801868000006,243.7801868000006,243.7801868000006,243.7801868000006,245.1112688000012,245.1112688000012,245.1112688000012,245.1112688000012,245.1112688000012,245.1112688000012,245.1112688000012,46,52,62,55,55,70,245.1112688000012,246.94560980000097,,,,,,,,,,,,,,,,,,,３０８,f,２３,2023-05-18_14h13.03.946,RL,2022.2.5,60.08802896228263,
46,54,52,58,0,33,33,33,,,,,,,,,,,None,246.94560980000097,246.94560980000097,246.94560980000097,246.94560980000097,246.94560980000097,246.94560980000097,i,0.5396560000008321,247.51468800000112,247.51468800000112,247.51468800000112,247.51468800000112,247.51468800000112,247.51468800000112,247.81271610000113,249.06237340000007,249.06237340000007,249.06237340000007,249.06237340000007,249.06237340000007,249.06237340000007,249.06237340000007,249.06237340000007,249.06237340000007,249.06237340000007,249.06237340000007,249.06237340000007,249.06237340000007,249.06237340000007,250.61017770000035,250.61017770000035,250.61017770000035,250.61017770000035,250.61017770000035,250.61017770000035,250.61017770000035,58,54,52,46,52,70,250.61017770000035,252.27789389999998,,,,,,,,,,,,,,,,,,,３０８,f,２３,2023-05-18_14h13.03.946,RL,2022.2.5,60.08802896228263,
59,43,67,55,0,34,34,34,,,,,,,,,,,None,252.27789389999998,252.27789389999998,252.27789389999998,252.27789389999998,252.27789389999998,252.27789389999998,f,0.46678740000061225,252.76428359999954,252.76428359999954,252.76428359999954,252.76428359999954,252.76428359999954,252.76428359999954,253.06166740000117,254.66108840000015,254.66108840000015,254.66108840000015,254.66108840000015,254.66108840000015,254.66108840000015,254.6444747000005,254.66108840000015,254.66108840000015,254.66108840000015,254.66108840000015,254.66108840000015,254.66108840000015,254.66108840000015,256.54303020000043,256.54303020000043,256.54303020000043,256.54303020000043,256.54303020000043,256.54303020000043,256.54303020000043,55,43,67,59,55,70,256.54303020000043,258.5103889000002,,,,,,,,,,,,,,,,,,,３０８,f,２３,2023-05-18_14h13.03.946,RL,2022.2.5,60.08802896228263,
54,58,59,58,0,35,35,35,,,,,,,,,,,None,258.5103889000002,258.5103889000002,258.5103889000002,258.5103889000002,258.5103889000002,258.5103889000002,i,0.6083504999987781,259.1460072000009,259.1460072000009,259.1460072000009,259.1460072000009,259.1460072000009,259.1460072000009,259.4440766000007,260.5768155000005,260.5768155000005,260.5768155000005,260.5768155000005,260.5768155000005,260.5768155000005,260.5768155000005,260.5768155000005,260.5768155000005,260.5768155000005,260.5768155000005,260.5768155000005,260.5768155000005,260.5768155000005,262.008621500001,262.008621500001,262.008621500001,262.008621500001,262.008621500001,262.008621500001,262.008621500001,58,58,59,54,59,70,262.008621500001,263.62609990000055,,,,,,,,,,,,,,,,,,,３０８,f,２３,2023-05-18_14h13.03.946,RL,2022.2.5,60.08802896228263,
62,51,68,59,0,36,36,36,,,,,,,,,,,None,263.62609990000055,263.62609990000055,263.62609990000055,263.62609990000055,263.62609990000055,263.62609990000055,r,1.1217891000014788,264.77773270000034,264.77773270000034,264.77773270000034,264.77773270000034,264.77773270000034,264.77773270000034,265.07613310000124,266.0426894000011,266.0426894000011,266.0426894000011,266.0426894000011,266.0426894000011,266.0426894000011,266.0426894000011,266.0426894000011,266.0426894000011,266.0426894000011,266.0426894000011,266.0426894000011,266.0426894000011,266.0426894000011,267.30768720000015,267.30768720000015,267.30768720000015,267.30768720000015,267.30768720000015,267.30768720000015,267.30768720000015,59,51,68,62,51,70,267.30768720000015,269.0415972999999,,,,,,,,,,,,,,,,,,,３０８,f,２３,2023-05-18_14h13.03.946,RL,2022.2.5,60.08802896228263,
61,51,66,74,0,37,37,37,,,,,,,,,,,None,269.0415972999999,269.0415972999999,269.0415972999999,269.0415972999999,269.0415972999999,269.0415972999999,i,0.7974415999997291,269.8605621000006,269.8605621000006,269.8605621000006,269.8605621000006,269.8605621000006,269.8605621000006,270.1583533000012,271.55849470000067,271.55849470000067,271.55849470000067,271.55849470000067,271.55849470000067,271.55849470000067,271.55849470000067,271.55849470000067,271.55849470000067,271.55849470000067,271.55849470000067,271.55849470000067,271.55849470000067,271.55849470000067,273.25638939999953,273.25638939999953,273.25638939999953,273.25638939999953,273.25638939999953,273.25638939999953,273.25638939999953,74,51,66,61,66,70,273.25638939999953,275.19129749999956,,,,,,,,,,,,,,,,,,,３０８,f,２３,2023-05-18_14h13.03.946,RL,2022.2.5,60.08802896228263,
57,59,57,61,0,38,38,38,,,,,,,,,,,None,275.19129749999956,275.19129749999956,275.19129749999956,275.19129749999956,275.19129749999956,275.19129749999956,f,0.6115427000004274,275.82477160000053,275.82477160000053,275.82477160000053,275.82477160000053,275.82477160000053,275.82477160000053,276.1077643999997,278.1074437999996,278.1074437999996,278.1074437999996,278.1074437999996,278.1074437999996,278.1074437999996,278.09057910000047,278.1074437999996,278.1074437999996,278.1074437999996,278.1074437999996,278.1074437999996,278.1074437999996,278.1074437999996,280.3887837000002,280.3887837000002,280.3887837000002,280.3887837000002,280.3887837000002,280.3887837000002,280.3887837000002,61,59,57,57,61,70,280.3887837000002,282.27266450000025,,,,,,,,,,,,,,,,,,,３０８,f,２３,2023-05-18_14h13.03.946,RL,2022.2.5,60.08802896228263,
64,48,68,59,0,39,39,39,,,,,,,,,,,None,282.27266450000025,282.27266450000025,282.27266450000025,282.27266450000025,282.27266450000025,282.27266450000025,i,0.46328360000006796,282.75751169999967,282.75751169999967,282.75751169999967,282.75751169999967,282.75751169999967,282.75751169999967,283.0564718000005,284.13974960000087,284.13974960000087,284.13974960000087,284.13974960000087,284.13974960000087,284.13974960000087,284.13974960000087,284.13974960000087,284.13974960000087,284.13974960000087,284.13974960000087,284.13974960000087,284.13974960000087,284.13974960000087,285.5207640000008,285.5207640000008,285.5207640000008,285.5207640000008,285.5207640000008,285.5207640000008,285.5207640000008,59,48,68,64,68,70,285.5207640000008,287.40506900000037,,,,,,,,,,,,,,,,,,,３０８,f,２３,2023-05-18_14h13.03.946,RL,2022.2.5,60.08802896228263,
59,48,54,48,0,40,40,40,,,,,,,,,,,None,287.40506900000037,287.40506900000037,287.40506900000037,287.40506900000037,287.40506900000037,287.40506900000037,j,1.3434997999993357,288.774678400001,288.774678400001,288.774678400001,288.774678400001,288.774678400001,288.774678400001,289.05542890000106,290.85538220000126,290.85538220000126,290.85538220000126,290.85538220000126,290.85538220000126,290.85538220000126,290.8386645999999,290.85538220000126,290.85538220000126,290.85538220000126,290.85538220000126,290.85538220000126,290.85538220000126,290.85538220000126,292.9365422999999,292.9365422999999,292.9365422999999,292.9365422999999,292.9365422999999,292.9365422999999,292.9365422999999,48,48,54,59,59,70,292.9365422999999,294.4872498000004,,,,,,,,,,,,,,,,,,,３０８,f,２３,2023-05-18_14h13.03.946,RL,2022.2.5,60.08802896228263,
55,49,66,54,0,41,41,41,,,,,,,,,,,None,294.4872498000004,294.4872498000004,294.4872498000004,294.4872498000004,294.4872498000004,294.4872498000004,r,0.409238500000356,294.92139119999956,294.92139119999956,294.92139119999956,294.92139119999956,294.92139119999956,294.92139119999956,295.204298300001,296.4375054000011,296.4375054000011,296.4375054000011,296.4375054000011,296.4375054000011,296.4375054000011,296.42102689999956,296.4375054000011,296.4375054000011,296.4375054000011,296.4375054000011,296.4375054000011,296.4375054000011,296.4375054000011,297.95208880000064,297.95208880000064,297.95208880000064,297.95208880000064,297.95208880000064,297.95208880000064,297.95208880000064,54,49,66,55,49,70,297.95208880000064,299.58669159999954,,,,,,,,,,,,,,,,,,,３０８,f,２３,2023-05-18_14h13.03.946,RL,2022.2.5,60.08802896228263,
49,43,65,53,0,42,42,42,,,,,,,,,,,None,299.58669159999954,299.58669159999954,299.58669159999954,299.58669159999954,299.58669159999954,299.58669159999954,r,0.9976891999995132,300.6036478999995,300.6036478999995,300.6036478999995,300.6036478999995,300.6036478999995,300.6036478999995,300.90343060000123,302.78673569999955,302.78673569999955,302.78673569999955,302.78673569999955,302.78673569999955,302.78673569999955,302.78673569999955,302.78673569999955,302.78673569999955,302.78673569999955,302.78673569999955,302.78673569999955,302.78673569999955,302.78673569999955,304.9677603,304.9677603,304.9677603,304.9677603,304.9677603,304.9677603,304.9677603,53,43,65,49,43,70,304.9677603,306.78564259999985,,,,,,,,,,,,,,,,,,,３０８,f,２３,2023-05-18_14h13.03.946,RL,2022.2.5,60.08802896228263,
52,54,62,55,0,43,43,43,,,,,,,,,,,None,306.78564259999985,306.78564259999985,306.78564259999985,306.78564259999985,306.78564259999985,306.78564259999985,j,0.7070142000011401,307.51924880000115,307.51924880000115,307.51924880000115,307.51924880000115,307.51924880000115,307.51924880000115,307.80243970000083,309.78511609999987,309.78511609999987,309.78511609999987,309.78511609999987,309.78511609999987,309.78511609999987,309.76831889999994,309.78511609999987,309.78511609999987,309.78511609999987,309.78511609999987,309.78511609999987,309.78511609999987,309.78511609999987,312.04999690000113,312.04999690000113,312.04999690000113,312.04999690000113,312.04999690000113,312.04999690000113,312.04999690000113,55,54,62,52,52,70,312.04999690000113,314.0506967000001,,,,,,,,,,,,,,,,,,,３０８,f,２３,2023-05-18_14h13.03.946,RL,2022.2.5,60.08802896228263,
48,71,69,53,0,44,44,44,,,,,,,,,,,None,314.0506967000001,314.0506967000001,314.0506967000001,314.0506967000001,314.0506967000001,314.0506967000001,f,0.9067570000006526,314.9845399000005,314.9845399000005,314.9845399000005,314.9845399000005,314.9845399000005,314.9845399000005,315.28424910000103,317.0672869000009,317.0672869000009,317.0672869000009,317.0672869000009,317.0672869000009,317.0672869000009,317.0506263999996,317.0672869000009,317.0672869000009,317.0672869000009,317.0672869000009,317.0672869000009,317.0672869000009,317.0672869000009,319.13174980000076,319.13174980000076,319.13174980000076,319.13174980000076,319.13174980000076,319.13174980000076,319.13174980000076,53,71,69,48,53,70,319.13174980000076,321.0660224000003,,,,,,,,,,,,,,,,,,,３０８,f,２３,2023-05-18_14h13.03.946,RL,2022.2.5,60.08802896228263,
56,62,65,59,0,45,45,45,,,,,,,,,,,None,321.0660224000003,321.0660224000003,321.0660224000003,321.0660224000003,321.0660224000003,321.0660224000003,j,0.45850919999975304,321.5505353999997,321.5505353999997,321.5505353999997,321.5505353999997,321.5505353999997,321.5505353999997,321.8500315000001,323.1494261000007,323.1494261000007,323.1494261000007,323.1494261000007,323.1494261000007,323.1494261000007,323.1494261000007,323.1494261000007,323.1494261000007,323.1494261000007,323.1494261000007,323.1494261000007,323.1494261000007,323.1494261000007,324.7478951000012,324.7478951000012,324.7478951000012,324.7478951000012,324.7478951000012,324.7478951000012,324.7478951000012,59,62,65,56,56,70,324.7478951000012,326.56524979999995,,,,,,,,,,,,,,,,,,,３０８,f,２３,2023-05-18_14h13.03.946,RL,2022.2.5,60.08802896228263,
54,54,59,53,0,46,46,46,,,,,,,,,,,None,326.56524979999995,326.56524979999995,326.56524979999995,326.56524979999995,326.56524979999995,326.56524979999995,f,1.119825599998876,327.7214182000007,327.7214182000007,327.7214182000007,327.7214182000007,327.7214182000007,327.7214182000007,328.01551010000003,329.71514370000114,329.71514370000114,329.71514370000114,329.71514370000114,329.71514370000114,329.71514370000114,329.71514370000114,329.71514370000114,329.71514370000114,329.71514370000114,329.71514370000114,329.71514370000114,329.71514370000114,329.71514370000114,331.7131066000002,331.7131066000002,331.7131066000002,331.7131066000002,331.7131066000002,331.7131066000002,331.7131066000002,53,54,59,54,53,70,331.7131066000002,333.49720590000106,,,,,,,,,,,,,,,,,,,３０８,f,２３,2023-05-18_14h13.03.946,RL,2022.2.5,60.08802896228263,
48,63,59,62,0,47,47,47,,,,,,,,,,,None,333.49720590000106,333.49720590000106,333.49720590000106,333.49720590000106,333.49720590000106,333.49720590000106,i,0.4004072999996424,333.9388763999996,333.9388763999996,333.9388763999996,333.9388763999996,333.9388763999996,333.9388763999996,334.214398600001,335.44737689999965,335.44737689999965,335.44737689999965,335.44737689999965,335.44737689999965,335.44737689999965,335.43092890000116,335.44737689999965,335.44737689999965,335.44737689999965,335.44737689999965,335.44737689999965,335.44737689999965,335.44737689999965,336.9623227000011,336.9623227000011,336.9623227000011,336.9623227000011,336.9623227000011,336.9623227000011,336.9623227000011,62,63,59,48,59,70,336.9623227000011,338.5963436000002,,,,,,,,,,,,,,,,,,,３０８,f,２３,2023-05-18_14h13.03.946,RL,2022.2.5,60.08802896228263,
46,63,50,62,0,48,48,48,,,,,,,,,,,None,338.5963436000002,338.5963436000002,338.5963436000002,338.5963436000002,338.5963436000002,338.5963436000002,r,0.9015589999999065,339.53565890000027,339.53565890000027,339.53565890000027,339.53565890000027,339.53565890000027,339.53565890000027,339.81325450000077,340.92991939999956,340.92991939999956,340.92991939999956,340.92991939999956,340.92991939999956,340.92991939999956,340.91337060000114,340.92991939999956,340.92991939999956,340.92991939999956,340.92991939999956,340.92991939999956,340.92991939999956,340.92991939999956,342.3283184000011,342.3283184000011,342.3283184000011,342.3283184000011,342.3283184000011,342.3283184000011,342.3283184000011,62,63,50,46,63,70,342.3283184000011,344.062313800001,,,,,,,,,,,,,,,,,,,３０８,f,２３,2023-05-18_14h13.03.946,RL,2022.2.5,60.08802896228263,
48,59,54,67,0,49,49,49,,,,,,,,,,,None,344.062313800001,344.062313800001,344.062313800001,344.062313800001,344.062313800001,344.062313800001,f,0.42900900000131514,344.51289370000086,344.51289370000086,344.51289370000086,344.51289370000086,344.51289370000086,344.51289370000086,344.7959284999997,346.1786678999997,346.1786678999997,346.1786678999997,346.1786678999997,346.1786678999997,346.1786678999997,346.1620744000011,346.1786678999997,346.1786678999997,346.1786678999997,346.1786678999997,346.1786678999997,346.1786678999997,346.1786678999997,347.8435798999999,347.8435798999999,347.8435798999999,347.8435798999999,347.8435798999999,347.8435798999999,347.8435798999999,67,59,54,48,67,70,347.8435798999999,349.8278697000005,,,,,,,,,,,,,,,,,,,３０８,f,２３,2023-05-18_14h13.03.946,RL,2022.2.5,60.08802896228263,
49,55,59,53,0,50,50,50,,,,,,,,,,,None,349.8278697000005,349.8278697000005,349.8278697000005,349.8278697000005,349.8278697000005,349.8278697000005,i,0.38778090000050724,350.2450012999998,350.2450012999998,350.2450012999998,350.2450012999998,350.2450012999998,350.2450012999998,350.5281933999995,352.5278330000001,352.5278330000001,352.5278330000001,352.5278330000001,352.5278330000001,352.5278330000001,352.5109773000004,352.5278330000001,352.5278330000001,352.5278330000001,352.5278330000001,352.5278330000001,352.5278330000001,352.5278330000001,354.80888940000114,354.80888940000114,354.80888940000114,354.80888940000114,354.80888940000114,354.80888940000114,354.80888940000114,53,55,59,49,59,70,354.80888940000114,356.45994989999963,,,,,,,,,,,,,,,,,,,３０８,f,２３,2023-05-18_14h13.03.946,RL,2022.2.5,60.08802896228263,
55,50,70,57,0,51,51,51,,,,,,,,,,,None,356.45994989999963,356.45994989999963,356.45994989999963,356.45994989999963,356.45994989999963,356.45994989999963,j,0.621931499999846,357.1122771999999,357.1122771999999,357.1122771999999,357.1122771999999,357.1122771999999,357.1122771999999,357.3940448000012,358.5268940999995,358.5268940999995,358.5268940999995,358.5268940999995,358.5268940999995,358.5268940999995,358.5104458000005,358.5268940999995,358.5268940999995,358.5268940999995,358.5268940999995,358.5268940999995,358.5268940999995,358.5268940999995,359.9414121000009,359.9414121000009,359.9414121000009,359.9414121000009,359.9414121000009,359.9414121000009,359.9414121000009,57,50,70,55,55,70,359.9414121000009,361.90865909999957,,,,,,,,,,,,,,,,,,,３０８,f,２３,2023-05-18_14h13.03.946,RL,2022.2.5,60.08802896228263,
57,51,62,53,0,52,52,52,,,,,,,,,,,None,361.90865909999957,361.90865909999957,361.90865909999957,361.90865909999957,361.90865909999957,361.90865909999957,j,0.627395899999101,362.55952330000036,362.55952330000036,362.55952330000036,362.55952330000036,362.55952330000036,362.55952330000036,362.85909230000107,364.3925866999998,364.3925866999998,364.3925866999998,364.3925866999998,364.3925866999998,364.3925866999998,364.3925866999998,364.3925866999998,364.3925866999998,364.3925866999998,364.3925866999998,364.3925866999998,364.3925866999998,364.3925866999998,366.22332579999966,366.22332579999966,366.22332579999966,366.22332579999966,366.22332579999966,366.22332579999966,366.22332579999966,53,51,62,57,57,70,366.22332579999966,367.92478310000115,,,,,,,,,,,,,,,,,,,３０８,f,２３,2023-05-18_14h13.03.946,RL,2022.2.5,60.08802896228263,
48,60,63,55,0,53,53,53,,,,,,,,,,,None,367.92478310000115,367.92478310000115,367.92478310000115,367.92478310000115,367.92478310000115,367.92478310000115,i,0.4921812000011414,368.44189150000057,368.44189150000057,368.44189150000057,368.44189150000057,368.44189150000057,368.44189150000057,368.7251374000007,370.67438070000026,370.67438070000026,370.67438070000026,370.67438070000026,370.67438070000026,370.67438070000026,370.6577797000009,370.67438070000026,370.67438070000026,370.67438070000026,370.67438070000026,370.67438070000026,370.67438070000026,370.67438070000026,372.8893956000011,372.8893956000011,372.8893956000011,372.8893956000011,372.8893956000011,372.8893956000011,372.8893956000011,55,60,63,48,63,70,372.8893956000011,374.80694369999947,,,,,,,,,,,,,,,,,,,３０８,f,２３,2023-05-18_14h13.03.946,RL,2022.2.5,60.08802896228263,
51,56,54,60,0,54,54,54,,,,,,,,,,,None,374.80694369999947,374.80694369999947,374.80694369999947,374.80694369999947,374.80694369999947,374.80694369999947,f,0.8893633999996382,375.72375550000106,375.72375550000106,375.72375550000106,375.72375550000106,375.72375550000106,375.72375550000106,376.0071275999999,377.07366530000036,377.07366530000036,377.07366530000036,377.07366530000036,377.07366530000036,377.07366530000036,377.0567599999995,377.07366530000036,377.07366530000036,377.07366530000036,377.07366530000036,377.07366530000036,377.07366530000036,377.07366530000036,378.4216049000006,378.4216049000006,378.4216049000006,378.4216049000006,378.4216049000006,378.4216049000006,378.4216049000006,60,56,54,51,60,70,378.4216049000006,380.3227200000001,,,,,,,,,,,,,,,,,,,３０８,f,２３,2023-05-18_14h13.03.946,RL,2022.2.5,60.08802896228263,
55,59,53,63,0,55,55,55,,,,,,,,,,,None,380.3227200000001,380.3227200000001,380.3227200000001,380.3227200000001,380.3227200000001,380.3227200000001,i,0.8239198999999644,381.1751368000005,381.1751368000005,381.1751368000005,381.1751368000005,381.1751368000005,381.1751368000005,381.47296910000114,383.0561226000009,383.0561226000009,383.0561226000009,383.0561226000009,383.0561226000009,383.0561226000009,383.0561226000009,383.0561226000009,383.0561226000009,383.0561226000009,383.0561226000009,383.0561226000009,383.0561226000009,383.0561226000009,384.93682310000077,384.93682310000077,384.93682310000077,384.93682310000077,384.93682310000077,384.93682310000077,384.93682310000077,63,59,53,55,53,70,384.93682310000077,386.78836070000034,,,,,,,,,,,,,,,,,,,３０８,f,２３,2023-05-18_14h13.03.946,RL,2022.2.5,60.08802896228263,
52,59,63,67,0,56,56,56,,,,,,,,,,,None,386.78836070000034,386.78836070000034,386.78836070000034,386.78836070000034,386.78836070000034,386.78836070000034,f,0.6358884000001126,387.4582021999995,387.4582021999995,387.4582021999995,387.4582021999995,387.4582021999995,387.4582021999995,387.75479559999985,389.5546054000006,389.5546054000006,389.5546054000006,389.5546054000006,389.5546054000006,389.5546054000006,389.5546054000006,389.5546054000006,389.5546054000006,389.5546054000006,389.5546054000006,389.5546054000006,389.5546054000006,389.5546054000006,391.65264229999957,391.65264229999957,391.65264229999957,391.65264229999957,391.65264229999957,391.65264229999957,391.65264229999957,67,59,63,52,67,70,391.65264229999957,393.6199295000006,,,,,,,,,,,,,,,,,,,３０８,f,２３,2023-05-18_14h13.03.946,RL,2022.2.5,60.08802896228263,
54,66,55,52,0,57,57,57,,,,,,,,,,,None,393.6199295000006,393.6199295000006,393.6199295000006,393.6199295000006,393.6199295000006,393.6199295000006,r,0.819860300000073,394.4751345000004,394.4751345000004,394.4751345000004,394.4751345000004,394.4751345000004,394.4751345000004,394.75375560000066,395.6361178999996,395.6361178999996,395.6361178999996,395.6361178999996,395.6361178999996,395.6361178999996,395.5867400999996,395.6361178999996,395.6361178999996,395.6361178999996,395.6361178999996,395.6361178999996,395.6361178999996,395.6361178999996,396.76847330000055,396.76847330000055,396.76847330000055,396.76847330000055,396.76847330000055,396.76847330000055,396.76847330000055,52,66,55,54,66,70,396.76847330000055,398.76969720000125,,,,,,,,,,,,,,,,,,,３０８,f,２３,2023-05-18_14h13.03.946,RL,2022.2.5,60.08802896228263,
61,51,61,61,0,58,58,58,,,,,,,,,,,None,398.76969720000125,398.76969720000125,398.76969720000125,398.76969720000125,398.76969720000125,398.76969720000125,r,1.0363495999990846,399.8365210000011,399.8365210000011,399.8365210000011,399.8365210000011,399.8365210000011,399.8365210000011,400.11991520000083,400.95291350000116,400.95291350000116,400.95291350000116,400.95291350000116,400.95291350000116,400.95291350000116,400.93623769999977,400.95291350000116,400.95291350000116,400.95291350000116,400.95291350000116,400.95291350000116,400.95291350000116,400.95291350000116,402.0672875,402.0672875,402.0672875,402.0672875,402.0672875,402.0672875,402.0672875,61,51,61,61,51,70,402.0672875,404.03490410000086,,,,,,,,,,,,,,,,,,,３０８,f,２３,2023-05-18_14h13.03.946,RL,2022.2.5,60.08802896228263,
53,57,59,59,0,59,59,59,,,,,,,,,,,None,404.03490410000086,404.03490410000086,404.03490410000086,404.03490410000086,404.03490410000086,404.03490410000086,j,0.8553943999995681,404.91942539999945,404.91942539999945,404.91942539999945,404.91942539999945,404.91942539999945,404.91942539999945,405.2023998000004,407.13477390000116,407.13477390000116,407.13477390000116,407.13477390000116,407.13477390000116,407.13477390000116,407.1181551000009,407.13477390000116,407.13477390000116,407.13477390000116,407.13477390000116,407.13477390000116,407.13477390000116,407.13477390000116,409.34958800000095,409.34958800000095,409.34958800000095,409.34958800000095,409.34958800000095,409.34958800000095,409.34958800000095,59,57,59,53,53,70,409.34958800000095,411.2173557999995,,,,,,,,,,,,,,,,,,,３０８,f,２３,2023-05-18_14h13.03.946,RL,2022.2.5,60.08802896228263,
56,52,65,57,0,60,60,60,,,,,,,,,,,None,411.2173557999995,411.2173557999995,411.2173557999995,411.2173557999995,411.2173557999995,411.2173557999995,i,0.7499313999996957,411.9885940000004,411.9885940000004,411.9885940000004,411.9885940000004,411.9885940000004,411.9885940000004,412.2841270000008,414.25006779999967,414.25006779999967,414.25006779999967,414.25006779999967,414.25006779999967,414.25006779999967,414.23340930000086,414.25006779999967,414.25006779999967,414.25006779999967,414.25006779999967,414.25006779999967,414.25006779999967,414.25006779999967,416.4983976000003,416.4983976000003,416.4983976000003,416.4983976000003,416.4983976000003,416.4983976000003,416.4983976000003,57,52,65,56,65,70,416.4983976000003,418.2660381000005,,,,,,,,,,,,,,,,,,,３０８,f,２３,2023-05-18_14h13.03.946,RL,2022.2.5,60.08802896228263,
65,58,66,64,0,61,61,61,,,,,,,,,,,None,418.2660381000005,418.2660381000005,418.2660381000005,418.2660381000005,418.2660381000005,418.2660381000005,f,0.5953687999990507,418.88352830000076,418.88352830000076,418.88352830000076,418.88352830000076,418.88352830000076,418.88352830000076,419.16625380000005,420.3495541000011,420.3495541000011,420.3495541000011,420.3495541000011,420.3495541000011,420.3495541000011,420.3328997000008,420.3495541000011,420.3495541000011,420.3495541000011,420.3495541000011,420.3495541000011,420.3495541000011,420.3495541000011,421.8141405000006,421.8141405000006,421.8141405000006,421.8141405000006,421.8141405000006,421.8141405000006,421.8141405000006,64,58,66,65,64,70,421.8141405000006,423.71473420000075,,,,,,,,,,,,,,,,,,,３０８,f,２３,2023-05-18_14h13.03.946,RL,2022.2.5,60.08802896228263,
53,57,71,65,0,62,62,62,,,,,,,,,,,None,423.71473420000075,423.71473420000075,423.71473420000075,423.71473420000075,423.71473420000075,423.71473420000075,f,0.31566509999902337,424.04892570000084,424.04892570000084,424.04892570000084,424.04892570000084,424.04892570000084,424.04892570000084,424.34895309999956,425.4817426999998,425.4817426999998,425.4817426999998,425.4817426999998,425.4817426999998,425.4817426999998,425.4817426999998,425.4817426999998,425.4817426999998,425.4817426999998,425.4817426999998,425.4817426999998,425.4817426999998,425.4817426999998,426.9129118000001,426.9129118000001,426.9129118000001,426.9129118000001,426.9129118000001,426.9129118000001,426.9129118000001,65,57,71,53,65,70,426.9129118000001,428.69784830000026,,,,,,,,,,,,,,,,,,,３０８,f,２３,2023-05-18_14h13.03.946,RL,2022.2.5,60.08802896228263,
56,57,64,55,0,63,63,63,,,,,,,,,,,None,428.69784830000026,428.69784830000026,428.69784830000026,428.69784830000026,428.69784830000026,428.69784830000026,f,0.40822060000027705,429.13120250000065,429.13120250000065,429.13120250000065,429.13120250000065,429.13120250000065,429.13120250000065,429.41431159999956,430.91416930000014,430.91416930000014,430.91416930000014,430.91416930000014,430.91416930000014,430.91416930000014,430.8975702000007,430.91416930000014,430.91416930000014,430.91416930000014,430.91416930000014,430.91416930000014,430.91416930000014,430.91416930000014,432.69584980000036,432.69584980000036,432.69584980000036,432.69584980000036,432.69584980000036,432.69584980000036,432.69584980000036,55,57,64,56,55,70,432.69584980000036,434.329982700001,,,,,,,,,,,,,,,,,,,３０８,f,２３,2023-05-18_14h13.03.946,RL,2022.2.5,60.08802896228263,
54,52,59,57,0,64,64,64,,,,,,,,,,,None,434.329982700001,434.329982700001,434.329982700001,434.329982700001,434.329982700001,434.329982700001,f,1.1332770999997592,435.49812290000045,435.49812290000045,435.49812290000045,435.49812290000045,435.49812290000045,435.49812290000045,435.78005440000015,437.7295797000006,437.7295797000006,437.7295797000006,437.7295797000006,437.7295797000006,437.7295797000006,437.71304170000076,437.7295797000006,437.7295797000006,437.7295797000006,437.7295797000006,437.7295797000006,437.7295797000006,437.7295797000006,439.9613191999997,439.9613191999997,439.9613191999997,439.9613191999997,439.9613191999997,439.9613191999997,439.9613191999997,57,52,59,54,57,70,439.9613191999997,441.8284254000009,,,,,,,,,,,,,,,,,,,３０８,f,２３,2023-05-18_14h13.03.946,RL,2022.2.5,60.08802896228263,
58,51,53,58,0,65,65,65,,,,,,,,,,,None,441.8284254000009,441.8284254000009,441.8284254000009,441.8284254000009,441.8284254000009,441.8284254000009,j,0.8068547000002582,442.6656436000012,442.6656436000012,442.6656436000012,442.6656436000012,442.6656436000012,442.6656436000012,442.9455878000008,443.92878310000015,443.92878310000015,443.92878310000015,443.92878310000015,443.92878310000015,443.92878310000015,443.8954962000007,443.92878310000015,443.92878310000015,443.92878310000015,443.92878310000015,443.92878310000015,443.92878310000015,443.92878310000015,445.19275650000054,445.19275650000054,445.19275650000054,445.19275650000054,445.19275650000054,445.19275650000054,445.19275650000054,58,51,53,58,58,70,445.19275650000054,446.9443174000007,,,,,,,,,,,,,,,,,,,３０８,f,２３,2023-05-18_14h13.03.946,RL,2022.2.5,60.08802896228263,
60,53,60,60,0,66,66,66,,,,,,,,,,,None,446.9443174000007,446.9443174000007,446.9443174000007,446.9443174000007,446.9443174000007,446.9443174000007,i,1.1175235999999131,448.10525659999985,448.10525659999985,448.10525659999985,448.10525659999985,448.10525659999985,448.10525659999985,448.37760470000103,449.9612580000012,449.9612580000012,449.9612580000012,449.9612580000012,449.9612580000012,449.9612580000012,449.92804869999964,449.9612580000012,449.9612580000012,449.9612580000012,449.9612580000012,449.9612580000012,449.9612580000012,449.9612580000012,451.8091566000003,451.8091566000003,451.8091566000003,451.8091566000003,451.8091566000003,451.8091566000003,451.8091566000003,60,53,60,60,60,70,451.8091566000003,453.69333990000086,,,,,,,,,,,,,,,,,,,３０８,f,２３,2023-05-18_14h13.03.946,RL,2022.2.5,60.08802896228263,
63,55,60,58,0,67,67,67,,,,,,,,,,,None,453.69333990000086,453.69333990000086,453.69333990000086,453.69333990000086,453.69333990000086,453.69333990000086,i,0.5328217000005679,454.2477151000003,454.2477151000003,454.2477151000003,454.2477151000003,454.2477151000003,454.2477151000003,454.5434949999999,455.56022909999956,455.56022909999956,455.56022909999956,455.56022909999956,455.56022909999956,455.56022909999956,455.56022909999956,455.56022909999956,455.56022909999956,455.56022909999956,455.56022909999956,455.56022909999956,455.56022909999956,455.56022909999956,456.87472119999984,456.87472119999984,456.87472119999984,456.87472119999984,456.87472119999984,456.87472119999984,456.87472119999984,58,55,60,63,60,70,456.87472119999984,458.4424091000001,,,,,,,,,,,,,,,,,,,３０８,f,２３,2023-05-18_14h13.03.946,RL,2022.2.5,60.08802896228263,
60,51,58,52,0,68,68,68,,,,,,,,,,,None,458.4424091000001,458.4424091000001,458.4424091000001,458.4424091000001,458.4424091000001,458.4424091000001,r,0.7672722000006615,459.2471794000012,459.2471794000012,459.2471794000012,459.2471794000012,459.2471794000012,459.2471794000012,459.52613460000066,460.7760476000003,460.7760476000003,460.7760476000003,460.7760476000003,460.7760476000003,460.7760476000003,460.75917350000054,460.7760476000003,460.7760476000003,460.7760476000003,460.7760476000003,460.7760476000003,460.7760476000003,460.7760476000003,462.307381300001,462.307381300001,462.307381300001,462.307381300001,462.307381300001,462.307381300001,462.307381300001,52,51,58,60,51,70,462.307381300001,463.8579633999998,,,,,,,,,,,,,,,,,,,３０８,f,２３,2023-05-18_14h13.03.946,RL,2022.2.5,60.08802896228263,
72,59,62,55,0,69,69,69,,,,,,,,,,,None,463.8579633999998,463.8579633999998,463.8579633999998,463.8579633999998,463.8579633999998,463.8579633999998,f,0.6722031999997853,464.55909129999964,464.55909129999964,464.55909129999964,464.55909129999964,464.55909129999964,464.55909129999964,464.8417545000011,466.2248787999997,466.2248787999997,466.2248787999997,466.2248787999997,466.2248787999997,466.2248787999997,466.20824530000027,466.2248787999997,466.2248787999997,466.2248787999997,466.2248787999997,466.2248787999997,466.2248787999997,466.2248787999997,467.8895461000011,467.8895461000011,467.8895461000011,467.8895461000011,467.8895461000011,467.8895461000011,467.8895461000011,55,59,62,72,55,70,467.8895461000011,469.69073820000085,,,,,,,,,,,,,,,,,,,３０８,f,２３,2023-05-18_14h13.03.946,RL,2022.2.5,60.08802896228263,
70,53,57,52,0,70,70,70,,,,,,,,,,,None,469.69073820000085,469.69073820000085,469.69073820000085,469.69073820000085,469.69073820000085,469.69073820000085,i,0.28802840000025753,470.0075906000002,470.0075906000002,470.0075906000002,470.0075906000002,470.0075906000002,470.0075906000002,470.2909663999999,472.04029850000006,472.04029850000006,472.04029850000006,472.04029850000006,472.04029850000006,472.04029850000006,472.0237223000004,472.04029850000006,472.04029850000006,472.04029850000006,472.04029850000006,472.04029850000006,472.04029850000006,472.04029850000006,474.0716596000002,474.0716596000002,474.0716596000002,474.0716596000002,474.0716596000002,474.0716596000002,474.0716596000002,52,53,57,70,57,70,474.0716596000002,476.0728067,,,,,,,,,,,,,,,,,,,３０８,f,２３,2023-05-18_14h13.03.946,RL,2022.2.5,60.08802896228263,
69,45,53,45,0,71,71,71,,,,,,,,,,,None,476.0728067,476.0728067,476.0728067,476.0728067,476.0728067,476.0728067,j,0.8963217999989865,476.99336399999993,476.99336399999993,476.99336399999993,476.99336399999993,476.99336399999993,476.99336399999993,477.27303700000084,478.905913300001,478.905913300001,478.905913300001,478.905913300001,478.905913300001,478.905913300001,478.889183700001,478.905913300001,478.905913300001,478.905913300001,478.905913300001,478.905913300001,478.905913300001,478.905913300001,480.82016190000104,480.82016190000104,480.82016190000104,480.82016190000104,480.82016190000104,480.82016190000104,480.82016190000104,45,45,53,69,69,70,480.82016190000104,482.6880918000006,,,,,,,,,,,,,,,,,,,３０８,f,２３,2023-05-18_14h13.03.946,RL,2022.2.5,60.08802896228263,
57,37,69,50,0,72,72,72,,,,,,,,,,,None,482.6880918000006,482.6880918000006,482.6880918000006,482.6880918000006,482.6880918000006,482.6880918000006,j,0.36631710000074236,483.0719710000012,483.0719710000012,483.0719710000012,483.0719710000012,483.0719710000012,483.0719710000012,483.37140610000097,484.6715193,484.6715193,484.6715193,484.6715193,484.6715193,484.6715193,484.6715193,484.6715193,484.6715193,484.6715193,484.6715193,484.6715193,484.6715193,484.6715193,486.2695141000004,486.2695141000004,486.2695141000004,486.2695141000004,486.2695141000004,486.2695141000004,486.2695141000004,50,37,69,57,57,70,486.2695141000004,487.82085879999977,,,,,,,,,,,,,,,,,,,３０８,f,２３,2023-05-18_14h13.03.946,RL,2022.2.5,60.08802896228263,
55,44,70,47,0,73,73,73,,,,,,,,,,,None,487.82085879999977,487.82085879999977,487.82085879999977,487.82085879999977,487.82085879999977,487.82085879999977,f,0.7627580999997008,488.60411530000056,488.60411530000056,488.60411530000056,488.60411530000056,488.60411530000056,488.60411530000056,488.8873715000009,489.8874691000001,489.8874691000001,489.8874691000001,489.8874691000001,489.8874691000001,489.8874691000001,489.8710654000006,489.8874691000001,489.8874691000001,489.8874691000001,489.8874691000001,489.8874691000001,489.8874691000001,489.8874691000001,491.1852335000003,491.1852335000003,491.1852335000003,491.1852335000003,491.1852335000003,491.1852335000003,491.1852335000003,47,44,70,55,47,70,491.1852335000003,492.90325310000117,,,,,,,,,,,,,,,,,,,３０８,f,２３,2023-05-18_14h13.03.946,RL,2022.2.5,60.08802896228263,
55,58,70,42,0,74,74,74,,,,,,,,,,,None,492.90325310000117,492.90325310000117,492.90325310000117,492.90325310000117,492.90325310000117,492.90325310000117,f,0.5848021999991033,493.52429649999976,493.52429649999976,493.52429649999976,493.52429649999976,493.52429649999976,493.52429649999976,493.8197216999997,495.8026463999995,495.8026463999995,495.8026463999995,495.8026463999995,495.8026463999995,495.8026463999995,495.8026463999995,495.8026463999995,495.8026463999995,495.8026463999995,495.8026463999995,495.8026463999995,495.8026463999995,495.8026463999995,498.0840492999996,498.0840492999996,498.0840492999996,498.0840492999996,498.0840492999996,498.0840492999996,498.0840492999996,42,58,70,55,42,70,498.0840492999996,499.8672440999999,,,,,,,,,,,,,,,,,,,３０８,f,２３,2023-05-18_14h13.03.946,RL,2022.2.5,60.08802896228263,
59,51,71,50,0,75,75,75,,,,,,,,,,,q,513.549586000001,513.549586000001,513.549586000001,513.549586000001,513.549586000001,513.549586000001,f,0.8706225000005361,514.4522766000009,514.4522766000009,514.4522766000009,514.4522766000009,514.4522766000009,514.4522766000009,514.7333102000011,516.2323656000008,516.2323656000008,516.2323656000008,516.2323656000008,516.2323656000008,516.2323656000008,516.2159561000008,516.2323656000008,516.2323656000008,516.2323656000008,516.2323656000008,516.2323656000008,516.2323656000008,516.2323656000008,518.0138305,518.0138305,518.0138305,518.0138305,518.0138305,518.0138305,518.0138305,50,51,71,59,50,70,518.0138305,519.9651766000006,,,,,,,,,499.8672440999999,499.8672440999999,8.637400900001012,508.53436280000096,508.53436280000096,513.549586000001,513.549586000001,,,,３０８,f,２３,2023-05-18_14h13.03.946,RL,2022.2.5,60.08802896228263,
65,54,67,44,0,76,76,76,,,,,,,,,,,None,519.9651766000006,519.9651766000006,519.9651766000006,519.9651766000006,519.9651766000006,519.9651766000006,i,0.41515609999987646,520.4011663000001,520.4011663000001,520.4011663000001,520.4011663000001,520.4011663000001,520.4011663000001,520.6983579000007,522.2649937999995,522.2649937999995,522.2649937999995,522.2649937999995,522.2649937999995,522.2649937999995,522.2649937999995,522.2649937999995,522.2649937999995,522.2649937999995,522.2649937999995,522.2649937999995,522.2649937999995,522.2649937999995,524.129716200001,524.129716200001,524.129716200001,524.129716200001,524.129716200001,524.129716200001,524.129716200001,44,54,67,65,67,70,524.129716200001,525.9473020000005,,,,,,,,,,,,,,,,,,,３０８,f,２３,2023-05-18_14h13.03.946,RL,2022.2.5,60.08802896228263,
61,59,74,50,0,77,77,77,,,,,,,,,,,None,525.9473020000005,525.9473020000005,525.9473020000005,525.9473020000005,525.9473020000005,525.9473020000005,i,0.3517102999994677,526.3375374000007,526.3375374000007,526.3375374000007,526.3375374000007,526.3375374000007,526.3375374000007,526.6306681999995,527.9970902000005,527.9970902000005,527.9970902000005,527.9970902000005,527.9970902000005,527.9970902000005,527.9970902000005,527.9970902000005,527.9970902000005,527.9970902000005,527.9970902000005,527.9970902000005,527.9970902000005,527.9970902000005,529.6619215999999,529.6619215999999,529.6619215999999,529.6619215999999,529.6619215999999,529.6619215999999,529.6619215999999,50,59,74,61,74,70,529.6619215999999,531.4293988000009,,,,,,,,,,,,,,,,,,,３０８,f,２３,2023-05-18_14h13.03.946,RL,2022.2.5,60.08802896228263,
58,46,78,43,0,78,78,78,,,,,,,,,,,None,531.4293988000009,531.4293988000009,531.4293988000009,531.4293988000009,531.4293988000009,531.4293988000009,i,0.9124480000009498,532.3632365000012,532.3632365000012,532.3632365000012,532.3632365000012,532.3632365000012,532.3632365000012,532.6629830000002,534.2460556999995,534.2460556999995,534.2460556999995,534.2460556999995,534.2460556999995,534.2460556999995,534.2460556999995,534.2460556999995,534.2460556999995,534.2460556999995,534.2460556999995,534.2460556999995,534.2460556999995,534.2460556999995,536.1272320000007,536.1272320000007,536.1272320000007,536.1272320000007,536.1272320000007,536.1272320000007,536.1272320000007,43,46,78,58,78,70,536.1272320000007,537.7783453000011,,,,,,,,,,,,,,,,,,,３０８,f,２３,2023-05-18_14h13.03.946,RL,2022.2.5,60.08802896228263,
65,50,67,49,0,79,79,79,,,,,,,,,,,None,537.7783453000011,537.7783453000011,537.7783453000011,537.7783453000011,537.7783453000011,537.7783453000011,i,0.4387325999996392,538.2500946,538.2500946,538.2500946,538.2500946,538.2500946,538.2500946,538.5291964000007,540.1783162000011,540.1783162000011,540.1783162000011,540.1783162000011,540.1783162000011,540.1783162000011,540.1453646999998,540.1783162000011,540.1783162000011,540.1783162000011,540.1783162000011,540.1783162000011,540.1783162000011,540.1783162000011,542.0929061999996,542.0929061999996,542.0929061999996,542.0929061999996,542.0929061999996,542.0929061999996,542.0929061999996,49,50,67,65,67,70,542.0929061999996,543.7276927000003,,,,,,,,,,,,,,,,,,,３０８,f,２３,2023-05-18_14h13.03.946,RL,2022.2.5,60.08802896228263,
54,59,72,41,0,80,80,80,,,,,,,,,,,None,543.7276927000003,543.7276927000003,543.7276927000003,543.7276927000003,543.7276927000003,543.7276927000003,r,0.7783058999993955,544.5294427000008,544.5294427000008,544.5294427000008,544.5294427000008,544.5294427000008,544.5294427000008,544.8275145000007,545.8939437000008,545.8939437000008,545.8939437000008,545.8939437000008,545.8939437000008,545.8939437000008,545.8776462999995,545.8939437000008,545.8939437000008,545.8939437000008,545.8939437000008,545.8939437000008,545.8939437000008,545.8939437000008,547.2422901000009,547.2422901000009,547.2422901000009,547.2422901000009,547.2422901000009,547.2422901000009,547.2422901000009,41,59,72,54,59,70,547.2422901000009,549.1930859000004,,,,,,,,,,,,,,,,,,,３０８,f,２３,2023-05-18_14h13.03.946,RL,2022.2.5,60.08802896228263,
59,62,70,53,0,81,81,81,,,,,,,,,,,None,549.1930859000004,549.1930859000004,549.1930859000004,549.1930859000004,549.1930859000004,549.1930859000004,r,0.1408264000001509,549.3604026000012,549.3604026000012,549.3604026000012,549.3604026000012,549.3604026000012,549.3604026000012,549.6435837999998,550.7931074999997,550.7931074999997,550.7931074999997,550.7931074999997,550.7931074999997,550.7931074999997,550.7764447999998,550.7931074999997,550.7931074999997,550.7931074999997,550.7931074999997,550.7931074999997,550.7931074999997,550.7931074999997,552.2246044000003,552.2246044000003,552.2246044000003,552.2246044000003,552.2246044000003,552.2246044000003,552.2246044000003,53,62,70,59,62,70,552.2246044000003,553.9590294000009,,,,,,,,,,,,,,,,,,,３０８,f,２３,2023-05-18_14h13.03.946,RL,2022.2.5,60.08802896228263,
60,60,79,39,0,82,82,82,,,,,,,,,,,None,553.9590294000009,553.9590294000009,553.9590294000009,553.9590294000009,553.9590294000009,553.9590294000009,r,0.46596950000093784,554.4449599,554.4449599,554.4449599,554.4449599,554.4449599,554.4449599,554.7427893000004,555.9259242999997,555.9259242999997,555.9259242999997,555.9259242999997,555.9259242999997,555.9259242999997,555.9259242999997,555.9259242999997,555.9259242999997,555.9259242999997,555.9259242999997,555.9259242999997,555.9259242999997,555.9259242999997,557.4072776000012,557.4072776000012,557.4072776000012,557.4072776000012,557.4072776000012,557.4072776000012,557.4072776000012,39,60,79,60,60,70,557.4072776000012,559.1249219000001,,,,,,,,,,,,,,,,,,,３０８,f,２３,2023-05-18_14h13.03.946,RL,2022.2.5,60.08802896228263,
61,55,70,40,0,83,83,83,,,,,,,,,,,None,559.1249219000001,559.1249219000001,559.1249219000001,559.1249219000001,559.1249219000001,559.1249219000001,j,0.7911958999993658,559.9431404999996,559.9431404999996,559.9431404999996,559.9431404999996,559.9431404999996,559.9431404999996,560.2416649000006,561.0748371000009,561.0748371000009,561.0748371000009,561.0748371000009,561.0748371000009,561.0748371000009,561.0748371000009,561.0748371000009,561.0748371000009,561.0748371000009,561.0748371000009,561.0748371000009,561.0748371000009,561.0748371000009,562.2065141000003,562.2065141000003,562.2065141000003,562.2065141000003,562.2065141000003,562.2065141000003,562.2065141000003,40,55,70,61,61,70,562.2065141000003,564.1738886000003,,,,,,,,,,,,,,,,,,,３０８,f,２３,2023-05-18_14h13.03.946,RL,2022.2.5,60.08802896228263,
72,48,67,54,0,84,84,84,,,,,,,,,,,None,564.1738886000003,564.1738886000003,564.1738886000003,564.1738886000003,564.1738886000003,564.1738886000003,i,0.3957362999990437,564.5925927999997,564.5925927999997,564.5925927999997,564.5925927999997,564.5925927999997,564.5925927999997,564.8742448000012,566.7906165000004,566.7906165000004,566.7906165000004,566.7906165000004,566.7906165000004,566.7906165000004,566.7741371000011,566.7906165000004,566.7906165000004,566.7906165000004,566.7906165000004,566.7906165000004,566.7906165000004,566.7906165000004,568.9881817000005,568.9881817000005,568.9881817000005,568.9881817000005,568.9881817000005,568.9881817000005,568.9881817000005,54,48,67,72,67,70,568.9881817000005,570.6731464000004,,,,,,,,,,,,,,,,,,,３０８,f,２３,2023-05-18_14h13.03.946,RL,2022.2.5,60.08802896228263,
72,51,67,46,0,85,85,85,,,,,,,,,,,None,570.6731464000004,570.6731464000004,570.6731464000004,570.6731464000004,570.6731464000004,570.6731464000004,i,0.4191683000008197,571.1232096000003,571.1232096000003,571.1232096000003,571.1232096000003,571.1232096000003,571.1232096000003,571.4066610999998,572.5062409000002,572.5062409000002,572.5062409000002,572.5062409000002,572.5062409000002,572.5062409000002,572.4896251999999,572.5062409000002,572.5062409000002,572.5062409000002,572.5062409000002,572.5062409000002,572.5062409000002,572.5062409000002,573.8879016999999,573.8879016999999,573.8879016999999,573.8879016999999,573.8879016999999,573.8879016999999,573.8879016999999,46,51,67,72,67,70,573.8879016999999,575.4222647000006,,,,,,,,,,,,,,,,,,,３０８,f,２３,2023-05-18_14h13.03.946,RL,2022.2.5,60.08802896228263,
72,43,70,44,0,86,86,86,,,,,,,,,,,None,575.4222647000006,575.4222647000006,575.4222647000006,575.4222647000006,575.4222647000006,575.4222647000006,i,0.8395063000007212,576.2904158000001,576.2904158000001,576.2904158000001,576.2904158000001,576.2904158000001,576.2904158000001,576.5887937999996,577.5887088,577.5887088,577.5887088,577.5887088,577.5887088,577.5887088,577.5887088,577.5887088,577.5887088,577.5887088,577.5887088,577.5887088,577.5887088,577.5887088,578.8865631000008,578.8865631000008,578.8865631000008,578.8865631000008,578.8865631000008,578.8865631000008,578.8865631000008,44,43,70,72,70,70,578.8865631000008,580.4709566000001,,,,,,,,,,,,,,,,,,,３０８,f,２３,2023-05-18_14h13.03.946,RL,2022.2.5,60.08802896228263,
70,47,74,52,0,87,87,87,,,,,,,,,,,None,580.4709566000001,580.4709566000001,580.4709566000001,580.4709566000001,580.4709566000001,580.4709566000001,i,0.4175513999998657,580.925562800001,580.925562800001,580.925562800001,580.925562800001,580.925562800001,580.925562800001,581.2047301000002,582.0711513999995,582.0711513999995,582.0711513999995,582.0711513999995,582.0711513999995,582.0711513999995,582.0547143000003,582.0711513999995,582.0711513999995,582.0711513999995,582.0711513999995,582.0711513999995,582.0711513999995,582.0711513999995,583.2193872999997,583.2193872999997,583.2193872999997,583.2193872999997,583.2193872999997,583.2193872999997,583.2193872999997,52,47,74,70,74,70,583.2193872999997,585.2040816999997,,,,,,,,,,,,,,,,,,,３０８,f,２３,2023-05-18_14h13.03.946,RL,2022.2.5,60.08802896228263,
72,42,76,45,0,88,88,88,,,,,,,,,,,None,585.2040816999997,585.2040816999997,585.2040816999997,585.2040816999997,585.2040816999997,585.2040816999997,i,0.49106190000020433,585.7205697000009,585.7205697000009,585.7205697000009,585.7205697000009,585.7205697000009,585.7205697000009,586.0208284,587.5036094000006,587.5036094000006,587.5036094000006,587.5036094000006,587.5036094000006,587.5036094000006,587.5036094000006,587.5036094000006,587.5036094000006,587.5036094000006,587.5036094000006,587.5036094000006,587.5036094000006,587.5036094000006,589.2852280999996,589.2852280999996,589.2852280999996,589.2852280999996,589.2852280999996,589.2852280999996,589.2852280999996,45,42,76,72,76,70,589.2852280999996,591.2357823000002,,,,,,,,,,,,,,,,,,,３０８,f,２３,2023-05-18_14h13.03.946,RL,2022.2.5,60.08802896228263,
61,47,74,40,0,89,89,89,,,,,,,,,,,None,591.2357823000002,591.2357823000002,591.2357823000002,591.2357823000002,591.2357823000002,591.2357823000002,i,0.5118572999999742,591.7699095999997,591.7699095999997,591.7699095999997,591.7699095999997,591.7699095999997,591.7699095999997,592.0527141000002,593.8190183000006,593.8190183000006,593.8190183000006,593.8190183000006,593.8190183000006,593.8190183000006,593.8022956000004,593.8190183000006,593.8190183000006,593.8190183000006,593.8190183000006,593.8190183000006,593.8190183000006,593.8190183000006,595.8669526000012,595.8669526000012,595.8669526000012,595.8669526000012,595.8669526000012,595.8669526000012,595.8669526000012,40,47,74,61,74,70,595.8669526000012,597.5517089000004,,,,,,,,,,,,,,,,,,,３０８,f,２３,2023-05-18_14h13.03.946,RL,2022.2.5,60.08802896228263,
67,43,74,42,0,90,90,90,,,,,,,,,,,None,597.5517089000004,597.5517089000004,597.5517089000004,597.5517089000004,597.5517089000004,597.5517089000004,i,0.4561007000011159,598.0351843000008,598.0351843000008,598.0351843000008,598.0351843000008,598.0351843000008,598.0351843000008,598.3188991000006,599.5351459000012,599.5351459000012,599.5351459000012,599.5351459000012,599.5351459000012,599.5351459000012,599.5180677000008,599.5351459000012,599.5351459000012,599.5351459000012,599.5351459000012,599.5351459000012,599.5351459000012,599.5351459000012,601.0328733000006,601.0328733000006,601.0328733000006,601.0328733000006,601.0328733000006,601.0328733000006,601.0328733000006,42,43,74,67,74,70,601.0328733000006,602.7170470000001,,,,,,,,,,,,,,,,,,,３０８,f,２３,2023-05-18_14h13.03.946,RL,2022.2.5,60.08802896228263,
69,50,76,33,0,91,91,91,,,,,,,,,,,None,602.7170470000001,602.7170470000001,602.7170470000001,602.7170470000001,602.7170470000001,602.7170470000001,i,0.6656789999997272,603.4027999999998,603.4027999999998,603.4027999999998,603.4027999999998,603.4027999999998,603.4027999999998,603.7007425000011,605.183798,605.183798,605.183798,605.183798,605.183798,605.183798,605.183798,605.183798,605.183798,605.183798,605.183798,605.183798,605.183798,605.183798,606.9648859000008,606.9648859000008,606.9648859000008,606.9648859000008,606.9648859000008,606.9648859000008,606.9648859000008,33,50,76,69,76,70,606.9648859000008,608.7332659000003,,,,,,,,,,,,,,,,,,,３０８,f,２３,2023-05-18_14h13.03.946,RL,2022.2.5,60.08802896228263,
60,43,70,35,0,92,92,92,,,,,,,,,,,None,608.7332659000003,608.7332659000003,608.7332659000003,608.7332659000003,608.7332659000003,608.7332659000003,i,0.6626551999997901,609.4184397999998,609.4184397999998,609.4184397999998,609.4184397999998,609.4184397999998,609.4184397999998,609.7168290999998,611.1662150000011,611.1662150000011,611.1662150000011,611.1662150000011,611.1662150000011,611.1662150000011,611.1662150000011,611.1662150000011,611.1662150000011,611.1662150000011,611.1662150000011,611.1662150000011,611.1662150000011,611.1662150000011,612.9139278000002,612.9139278000002,612.9139278000002,612.9139278000002,612.9139278000002,612.9139278000002,612.9139278000002,35,43,70,60,70,70,612.9139278000002,614.865202500001,,,,,,,,,,,,,,,,,,,３０８,f,２３,2023-05-18_14h13.03.946,RL,2022.2.5,60.08802896228263,
67,47,66,43,0,93,93,93,,,,,,,,,,,None,614.865202500001,614.865202500001,614.865202500001,614.865202500001,614.865202500001,614.865202500001,i,0.7248908999990817,615.6171520999997,615.6171520999997,615.6171520999997,615.6171520999997,615.6171520999997,615.6171520999997,615.8987350999996,617.6483683999995,617.6483683999995,617.6483683999995,617.6483683999995,617.6483683999995,617.6483683999995,617.631881700001,617.6483683999995,617.6483683999995,617.6483683999995,617.6483683999995,617.6483683999995,617.6483683999995,617.6483683999995,619.6796286999997,619.6796286999997,619.6796286999997,619.6796286999997,619.6796286999997,619.6796286999997,619.6796286999997,43,47,66,67,66,70,619.6796286999997,621.6807711000001,,,,,,,,,,,,,,,,,,,３０８,f,２３,2023-05-18_14h13.03.946,RL,2022.2.5,60.08802896228263,
64,55,70,35,0,94,94,94,,,,,,,,,,,None,621.6807711000001,621.6807711000001,621.6807711000001,621.6807711000001,621.6807711000001,621.6807711000001,i,0.282167200000913,621.9813551000007,621.9813551000007,621.9813551000007,621.9813551000007,621.9813551000007,621.9813551000007,622.2646144999999,624.1470172999998,624.1470172999998,624.1470172999998,624.1470172999998,624.1470172999998,624.1470172999998,624.1305083999996,624.1470172999998,624.1470172999998,624.1470172999998,624.1470172999998,624.1470172999998,624.1470172999998,624.1470172999998,626.3119196000007,626.3119196000007,626.3119196000007,626.3119196000007,626.3119196000007,626.3119196000007,626.3119196000007,35,55,70,64,70,70,626.3119196000007,627.9966273999999,,,,,,,,,,,,,,,,,,,３０８,f,２３,2023-05-18_14h13.03.946,RL,2022.2.5,60.08802896228263,
64,52,80,33,0,95,95,95,,,,,,,,,,,None,627.9966273999999,627.9966273999999,627.9966273999999,627.9966273999999,627.9966273999999,627.9966273999999,i,0.4132779000010487,628.4303477000012,628.4303477000012,628.4303477000012,628.4303477000012,628.4303477000012,628.4303477000012,628.7133984000011,630.4128834000003,630.4128834000003,630.4128834000003,630.4128834000003,630.4128834000003,630.4128834000003,630.3961806999996,630.4128834000003,630.4128834000003,630.4128834000003,630.4128834000003,630.4128834000003,630.4128834000003,630.4128834000003,632.3941398000006,632.3941398000006,632.3941398000006,632.3941398000006,632.3941398000006,632.3941398000006,632.3941398000006,33,52,80,64,80,70,632.3941398000006,634.0620588000002,,,,,,,,,,,,,,,,,,,３０８,f,２３,2023-05-18_14h13.03.946,RL,2022.2.5,60.08802896228263,
62,54,69,36,0,96,96,96,,,,,,,,,,,None,634.0620588000002,634.0620588000002,634.0620588000002,634.0620588000002,634.0620588000002,634.0620588000002,i,0.3825125000003027,634.4631590000008,634.4631590000008,634.4631590000008,634.4631590000008,634.4631590000008,634.4631590000008,634.7616385000001,635.8284022000007,635.8284022000007,635.8284022000007,635.8284022000007,635.8284022000007,635.8284022000007,635.8284022000007,635.8284022000007,635.8284022000007,635.8284022000007,635.8284022000007,635.8284022000007,635.8284022000007,635.8284022000007,637.1933432000005,637.1933432000005,637.1933432000005,637.1933432000005,637.1933432000005,637.1933432000005,637.1933432000005,36,54,69,62,69,70,637.1933432000005,638.8108718000003,,,,,,,,,,,,,,,,,,,３０８,f,２３,2023-05-18_14h13.03.946,RL,2022.2.5,60.08802896228263,
63,54,79,33,0,97,97,97,,,,,,,,,,,None,638.8108718000003,638.8108718000003,638.8108718000003,638.8108718000003,638.8108718000003,638.8108718000003,i,0.4790876000006392,639.3114208000006,639.3114208000006,639.3114208000006,639.3114208000006,639.3114208000006,639.3114208000006,639.6110710000012,641.2611919999999,641.2611919999999,641.2611919999999,641.2611919999999,641.2611919999999,641.2611919999999,641.2611919999999,641.2611919999999,641.2611919999999,641.2611919999999,641.2611919999999,641.2611919999999,641.2611919999999,641.2611919999999,643.2085531000012,643.2085531000012,643.2085531000012,643.2085531000012,643.2085531000012,643.2085531000012,643.2085531000012,33,54,79,63,79,70,643.2085531000012,644.7931234000007,,,,,,,,,,,,,,,,,,,３０８,f,２３,2023-05-18_14h13.03.946,RL,2022.2.5,60.08802896228263,
70,55,68,36,0,98,98,98,,,,,,,,,,,None,644.7931234000007,644.7931234000007,644.7931234000007,644.7931234000007,644.7931234000007,644.7931234000007,i,0.5105265000001964,645.3274667000005,645.3274667000005,645.3274667000005,645.3274667000005,645.3274667000005,645.3274667000005,645.6104900999999,647.1763718000002,647.1763718000002,647.1763718000002,647.1763718000002,647.1763718000002,647.1763718000002,647.1602354000006,647.1763718000002,647.1763718000002,647.1763718000002,647.1763718000002,647.1763718000002,647.1763718000002,647.1763718000002,649.0246396000002,649.0246396000002,649.0246396000002,649.0246396000002,649.0246396000002,649.0246396000002,649.0246396000002,36,55,68,70,68,70,649.0246396000002,650.8424169999998,,,,,,,,,,,,,,,,,,,３０８,f,２３,2023-05-18_14h13.03.946,RL,2022.2.5,60.08802896228263,
67,46,74,27,0,99,99,99,,,,,,,,,,,None,650.8424169999998,650.8424169999998,650.8424169999998,650.8424169999998,650.8424169999998,650.8424169999998,i,0.5483043000003818,651.4095291000012,651.4095291000012,651.4095291000012,651.4095291000012,651.4095291000012,651.4095291000012,651.692599,653.3257352,653.3257352,653.3257352,653.3257352,653.3257352,653.3257352,653.3090783000007,653.3257352,653.3257352,653.3257352,653.3257352,653.3257352,653.3257352,653.3257352,655.239861,655.239861,655.239861,655.239861,655.239861,655.239861,655.239861,27,46,74,67,74,70,655.239861,657.0745771000002,,,,,,,,,,,,,,,,,,,３０８,f,２３,2023-05-18_14h13.03.946,RL,2022.2.5,60.08802896228263,
61,54,66,30,0,100,100,100,,,,,,,,,,,None,657.0745771000002,657.0745771000002,657.0745771000002,657.0745771000002,657.0745771000002,657.0745771000002,i,0.2512408000002324,657.3626697,657.3626697,657.3626697,657.3626697,657.3626697,657.3626697,657.6414127999997,659.4245927000011,659.4245927000011,659.4245927000011,659.4245927000011,659.4245927000011,659.4245927000011,659.4081129999995,659.4245927000011,659.4245927000011,659.4245927000011,659.4245927000011,659.4245927000011,659.4245927000011,659.4245927000011,661.4890936000011,661.4890936000011,661.4890936000011,661.4890936000011,661.4890936000011,661.4890936000011,661.4890936000011,30,54,66,61,66,70,661.4890936000011,663.4565977000002,,,,,,,,,,,,,,,,,,,３０８,f,２３,2023-05-18_14h13.03.946,RL,2022.2.5,60.08802896228263,
64,51,62,36,0,101,101,101,,,,,,,,,,,None,663.4565977000002,663.4565977000002,663.4565977000002,663.4565977000002,663.4565977000002,663.4565977000002,i,0.5045998000005056,663.9903343000005,663.9903343000005,663.9903343000005,663.9903343000005,663.9903343000005,663.9903343000005,664.2738786000009,665.2232925000008,665.2232925000008,665.2232925000008,665.2232925000008,665.2232925000008,665.2232925000008,665.2067413000004,665.2232925000008,665.2232925000008,665.2232925000008,665.2232925000008,665.2232925000008,665.2232925000008,665.2232925000008,666.4547110000003,666.4547110000003,666.4547110000003,666.4547110000003,666.4547110000003,666.4547110000003,666.4547110000003,36,51,62,64,62,70,666.4547110000003,668.0730830000011,,,,,,,,,,,,,,,,,,,３０８,f,２３,2023-05-18_14h13.03.946,RL,2022.2.5,60.08802896228263,
61,52,59,37,0,102,102,102,,,,,,,,,,,None,668.0730830000011,668.0730830000011,668.0730830000011,668.0730830000011,668.0730830000011,668.0730830000011,i,0.4856713999997737,668.5898756000006,668.5898756000006,668.5898756000006,668.5898756000006,668.5898756000006,668.5898756000006,668.8728255000005,670.5725449000001,670.5725449000001,670.5725449000001,670.5725449000001,670.5725449000001,670.5725449000001,670.5559958000013,670.5725449000001,670.5725449000001,670.5725449000001,670.5725449000001,670.5725449000001,670.5725449000001,670.5725449000001,672.554115500001,672.554115500001,672.554115500001,672.554115500001,672.554115500001,672.554115500001,672.554115500001,37,52,59,61,59,70,672.554115500001,674.0713757000012,,,,,,,,,,,,,,,,,,,３０８,f,２３,2023-05-18_14h13.03.946,RL,2022.2.5,60.08802896228263,
63,62,60,36,0,103,103,103,,,,,,,,,,,None,674.0713757000012,674.0713757000012,674.0713757000012,674.0713757000012,674.0713757000012,674.0713757000012,i,0.6274929000010161,674.7252217000005,674.7252217000005,674.7252217000005,674.7252217000005,674.7252217000005,674.7252217000005,675.004820600001,676.755028900001,676.755028900001,676.755028900001,676.755028900001,676.755028900001,676.755028900001,676.7216151000011,676.755028900001,676.755028900001,676.755028900001,676.755028900001,676.755028900001,676.755028900001,676.755028900001,678.7692521999998,678.7692521999998,678.7692521999998,678.7692521999998,678.7692521999998,678.7692521999998,678.7692521999998,36,62,60,63,60,70,678.7692521999998,680.3208857000009,,,,,,,,,,,,,,,,,,,３０８,f,２３,2023-05-18_14h13.03.946,RL,2022.2.5,60.08802896228263,
66,54,64,38,0,104,104,104,,,,,,,,,,,None,680.3208857000009,680.3208857000009,680.3208857000009,680.3208857000009,680.3208857000009,680.3208857000009,i,0.4989528000005521,680.8374731000004,680.8374731000004,680.8374731000004,680.8374731000004,680.8374731000004,680.8374731000004,681.1376280000004,682.5202391000003,682.5202391000003,682.5202391000003,682.5202391000003,682.5202391000003,682.5202391000003,682.5202391000003,682.5202391000003,682.5202391000003,682.5202391000003,682.5202391000003,682.5202391000003,682.5202391000003,682.5202391000003,684.2015783999996,684.2015783999996,684.2015783999996,684.2015783999996,684.2015783999996,684.2015783999996,684.2015783999996,38,54,64,66,64,70,684.2015783999996,685.9030928000011,,,,,,,,,,,,,,,,,,,３０８,f,２３,2023-05-18_14h13.03.946,RL,2022.2.5,60.08802896228263,
63,55,58,36,0,105,105,105,,,,,,,,,,,None,685.9030928000011,685.9030928000011,685.9030928000011,685.9030928000011,685.9030928000011,685.9030928000011,i,0.3210348000011436,686.2546268000006,686.2546268000006,686.2546268000006,686.2546268000006,686.2546268000006,686.2546268000006,686.5528756000003,688.486112300001,688.486112300001,688.486112300001,688.486112300001,688.486112300001,688.486112300001,688.486112300001,688.486112300001,688.486112300001,688.486112300001,688.486112300001,688.486112300001,688.486112300001,688.486112300001,690.7177165000012,690.7177165000012,690.7177165000012,690.7177165000012,690.7177165000012,690.7177165000012,690.7177165000012,36,55,58,63,58,70,690.7177165000012,692.2518679000004,,,,,,,,,,,,,,,,,,,３０８,f,２３,2023-05-18_14h13.03.946,RL,2022.2.5,60.08802896228263,
60,56,60,33,0,106,106,106,,,,,,,,,,,None,692.2518679000004,692.2518679000004,692.2518679000004,692.2518679000004,692.2518679000004,692.2518679000004,f,0.6038525000003574,692.8859551999994,692.8859551999994,692.8859551999994,692.8859551999994,692.8859551999994,692.8859551999994,693.1686917000006,695.0013875000004,695.0013875000004,695.0013875000004,695.0013875000004,695.0013875000004,695.0013875000004,694.9851694999998,695.0013875000004,695.0013875000004,695.0013875000004,695.0013875000004,695.0013875000004,695.0013875000004,695.0013875000004,697.1164778000002,697.1164778000002,697.1164778000002,697.1164778000002,697.1164778000002,697.1164778000002,697.1164778000002,33,56,60,60,33,70,697.1164778000002,698.8676684000002,,,,,,,,,,,,,,,,,,,３０８,f,２３,2023-05-18_14h13.03.946,RL,2022.2.5,60.08802896228263,
61,54,70,33,0,107,107,107,,,,,,,,,,,None,698.8676684000002,698.8676684000002,698.8676684000002,698.8676684000002,698.8676684000002,698.8676684000002,f,1.1698131000011927,700.0698692999995,700.0698692999995,700.0698692999995,700.0698692999995,700.0698692999995,700.0698692999995,700.3680173000012,702.3336521000001,702.3336521000001,702.3336521000001,702.3336521000001,702.3336521000001,702.3336521000001,702.3336521000001,702.3336521000001,702.3336521000001,702.3336521000001,702.3336521000001,702.3336521000001,702.3336521000001,702.3336521000001,704.5981191999999,704.5981191999999,704.5981191999999,704.5981191999999,704.5981191999999,704.5981191999999,704.5981191999999,33,54,70,61,33,70,704.5981191999999,706.199252800001,,,,,,,,,,,,,,,,,,,３０８,f,２３,2023-05-18_14h13.03.946,RL,2022.2.5,60.08802896228263,
57,48,63,24,0,108,108,108,,,,,,,,,,,None,706.199252800001,706.199252800001,706.199252800001,706.199252800001,706.199252800001,706.199252800001,f,0.5018650000001799,706.7371387000003,706.7371387000003,706.7371387000003,706.7371387000003,706.7371387000003,706.7371387000003,707.0161480999996,708.8324009000007,708.8324009000007,708.8324009000007,708.8324009000007,708.8324009000007,708.8324009000007,708.7993418999995,708.8324009000007,708.8324009000007,708.8324009000007,708.8324009000007,708.8324009000007,708.8324009000007,708.8324009000007,710.9138753999996,710.9138753999996,710.9138753999996,710.9138753999996,710.9138753999996,710.9138753999996,710.9138753999996,24,48,63,57,24,70,710.9138753999996,712.5652045999996,,,,,,,,,,,,,,,,,,,３０８,f,２３,2023-05-18_14h13.03.946,RL,2022.2.5,60.08802896228263,
55,54,58,35,0,109,109,109,,,,,,,,,,,None,712.5652045999996,712.5652045999996,712.5652045999996,712.5652045999996,712.5652045999996,712.5652045999996,f,0.5099737000000459,713.0984644,713.0984644,713.0984644,713.0984644,713.0984644,713.0984644,713.3822039999995,714.2651913000009,714.2651913000009,714.2651913000009,714.2651913000009,714.2651913000009,714.2651913000009,714.2486177999999,714.2651913000009,714.2651913000009,714.2651913000009,714.2651913000009,714.2651913000009,714.2651913000009,714.2651913000009,715.4299396999995,715.4299396999995,715.4299396999995,715.4299396999995,715.4299396999995,715.4299396999995,715.4299396999995,35,54,58,55,35,70,715.4299396999995,717.3309310000004,,,,,,,,,,,,,,,,,,,３０８,f,２３,2023-05-18_14h13.03.946,RL,2022.2.5,60.08802896228263,
54,51,64,25,0,110,110,110,,,,,,,,,,,None,717.3309310000004,717.3309310000004,717.3309310000004,717.3309310000004,717.3309310000004,717.3309310000004,i,0.6924259000006714,718.0479954000002,718.0479954000002,718.0479954000002,718.0479954000002,718.0479954000002,718.0479954000002,718.3480526000003,719.8975557000012,719.8975557000012,719.8975557000012,719.8975557000012,719.8975557000012,719.8975557000012,719.8975557000012,719.8975557000012,719.8975557000012,719.8975557000012,719.8975557000012,719.8975557000012,719.8975557000012,719.8975557000012,721.7452974999997,721.7452974999997,721.7452974999997,721.7452974999997,721.7452974999997,721.7452974999997,721.7452974999997,25,51,64,54,64,70,721.7452974999997,723.7465334999997,,,,,,,,,,,,,,,,,,,３０８,f,２３,2023-05-18_14h13.03.946,RL,2022.2.5,60.08802896228263,
68,41,67,43,0,111,111,111,,,,,,,,,,,None,723.7465334999997,723.7465334999997,723.7465334999997,723.7465334999997,723.7465334999997,723.7465334999997,i,0.4344973999996,724.2172406000009,724.2172406000009,724.2172406000009,724.2172406000009,724.2172406000009,724.2172406000009,724.4969335000005,725.3797382000012,725.3797382000012,725.3797382000012,725.3797382000012,725.3797382000012,725.3797382000012,725.3632591000005,725.3797382000012,725.3797382000012,725.3797382000012,725.3797382000012,725.3797382000012,725.3797382000012,725.3797382000012,726.5444189000009,726.5444189000009,726.5444189000009,726.5444189000009,726.5444189000009,726.5444189000009,726.5444189000009,43,41,67,68,67,70,726.5444189000009,728.4788406000007,,,,,,,,,,,,,,,,,,,３０８,f,２３,2023-05-18_14h13.03.946,RL,2022.2.5,60.08802896228263,
59,43,57,31,0,112,112,112,,,,,,,,,,,None,728.4788406000007,728.4788406000007,728.4788406000007,728.4788406000007,728.4788406000007,728.4788406000007,f,0.9815862999985256,729.4799516000003,729.4799516000003,729.4799516000003,729.4799516000003,729.4799516000003,729.4799516000003,729.7787992000012,730.9791187999999,730.9791187999999,730.9791187999999,730.9791187999999,730.9791187999999,730.9791187999999,730.9791187999999,730.9791187999999,730.9791187999999,730.9791187999999,730.9791187999999,730.9791187999999,730.9791187999999,730.9791187999999,732.4770215999997,732.4770215999997,732.4770215999997,732.4770215999997,732.4770215999997,732.4770215999997,732.4770215999997,31,43,57,59,31,70,732.4770215999997,734.0616107999995,,,,,,,,,,,,,,,,,,,３０８,f,２３,2023-05-18_14h13.03.946,RL,2022.2.5,60.08802896228263,
65,35,55,29,0,113,113,113,,,,,,,,,,,None,734.0616107999995,734.0616107999995,734.0616107999995,734.0616107999995,734.0616107999995,734.0616107999995,r,0.36896729999898525,734.4632395999997,734.4632395999997,734.4632395999997,734.4632395999997,734.4632395999997,734.4632395999997,734.7448488999999,735.8781343999999,735.8781343999999,735.8781343999999,735.8781343999999,735.8781343999999,735.8781343999999,735.8446218999998,735.8781343999999,735.8781343999999,735.8781343999999,735.8781343999999,735.8781343999999,735.8781343999999,735.8781343999999,737.2762922000002,737.2762922000002,737.2762922000002,737.2762922000002,737.2762922000002,737.2762922000002,737.2762922000002,29,35,55,65,35,70,737.2762922000002,739.1936420000002,,,,,,,,,,,,,,,,,,,３０８,f,２３,2023-05-18_14h13.03.946,RL,2022.2.5,60.08802896228263,
66,44,54,47,0,114,114,114,,,,,,,,,,,None,739.1936420000002,739.1936420000002,739.1936420000002,739.1936420000002,739.1936420000002,739.1936420000002,j,0.75858049999988,739.9832437000005,739.9832437000005,739.9832437000005,739.9832437000005,739.9832437000005,739.9832437000005,740.2773752000012,741.3106344999997,741.3106344999997,741.3106344999997,741.3106344999997,741.3106344999997,741.3106344999997,741.3106344999997,741.3106344999997,741.3106344999997,741.3106344999997,741.3106344999997,741.3106344999997,741.3106344999997,741.3106344999997,742.6415510000006,742.6415510000006,742.6415510000006,742.6415510000006,742.6415510000006,742.6415510000006,742.6415510000006,47,44,54,66,66,70,742.6415510000006,744.3262427999998,,,,,,,,,,,,,,,,,,,３０８,f,２３,2023-05-18_14h13.03.946,RL,2022.2.5,60.08802896228263,
65,41,60,39,0,115,115,115,,,,,,,,,,,None,744.3262427999998,744.3262427999998,744.3262427999998,744.3262427999998,744.3262427999998,744.3262427999998,i,0.4737160999993648,744.8281930000012,744.8281930000012,744.8281930000012,744.8281930000012,744.8281930000012,744.8281930000012,745.1260170999994,746.3260198999997,746.3260198999997,746.3260198999997,746.3260198999997,746.3260198999997,746.3260198999997,746.3092197999995,746.3260198999997,746.3260198999997,746.3260198999997,746.3260198999997,746.3260198999997,746.3260198999997,746.3260198999997,747.8076718000011,747.8076718000011,747.8076718000011,747.8076718000011,747.8076718000011,747.8076718000011,747.8076718000011,39,41,60,65,60,70,747.8076718000011,749.6919314999996,,,,,,,,,,,,,,,,,,,３０８,f,２３,2023-05-18_14h13.03.946,RL,2022.2.5,60.08802896228263,
59,40,66,37,0,116,116,116,,,,,,,,,,,None,749.6919314999996,749.6919314999996,749.6919314999996,749.6919314999996,749.6919314999996,749.6919314999996,i,1.1069038999994518,750.8255325000009,750.8255325000009,750.8255325000009,750.8255325000009,750.8255325000009,750.8255325000009,751.1089915000011,752.8415270000005,752.8415270000005,752.8415270000005,752.8415270000005,752.8415270000005,752.8415270000005,752.8249207000008,752.8415270000005,752.8415270000005,752.8415270000005,752.8415270000005,752.8415270000005,752.8415270000005,752.8415270000005,754.8561686000012,754.8561686000012,754.8561686000012,754.8561686000012,754.8561686000012,754.8561686000012,754.8561686000012,37,40,66,59,66,70,754.8561686000012,756.7574636999998,,,,,,,,,,,,,,,,,,,３０８,f,２３,2023-05-18_14h13.03.946,RL,2022.2.5,60.08802896228263,
61,62,62,34,0,117,117,117,,,,,,,,,,,None,756.7574636999998,756.7574636999998,756.7574636999998,756.7574636999998,756.7574636999998,756.7574636999998,j,0.36211850000108825,757.1411908000009,757.1411908000009,757.1411908000009,757.1411908000009,757.1411908000009,757.1411908000009,757.4240159000001,758.4238889999997,758.4238889999997,758.4238889999997,758.4238889999997,758.4238889999997,758.4238889999997,758.390534600001,758.4238889999997,758.4238889999997,758.4238889999997,758.4238889999997,758.4238889999997,758.4238889999997,758.4238889999997,759.6887919000001,759.6887919000001,759.6887919000001,759.6887919000001,759.6887919000001,759.6887919000001,759.6887919000001,34,62,62,61,61,70,759.6887919000001,761.3899579000008,,,,,,,,,,,,,,,,,,,３０８,f,２３,2023-05-18_14h13.03.946,RL,2022.2.5,60.08802896228263,
62,44,60,34,0,118,118,118,,,,,,,,,,,None,761.3899579000008,761.3899579000008,761.3899579000008,761.3899579000008,761.3899579000008,761.3899579000008,i,0.36175879999973404,761.7736960000002,761.7736960000002,761.7736960000002,761.7736960000002,761.7736960000002,761.7736960000002,762.0565452999999,763.0730633000003,763.0730633000003,763.0730633000003,763.0730633000003,763.0730633000003,763.0730633000003,763.0569310999999,763.0730633000003,763.0730633000003,763.0730633000003,763.0730633000003,763.0730633000003,763.0730633000003,763.0730633000003,764.3715517,764.3715517,764.3715517,764.3715517,764.3715517,764.3715517,764.3715517,34,44,60,62,60,70,764.3715517,766.2891331999999,,,,,,,,,,,,,,,,,,,３０８,f,２３,2023-05-18_14h13.03.946,RL,2022.2.5,60.08802896228263,
65,36,60,28,0,119,119,119,,,,,,,,,,,None,766.2891331999999,766.2891331999999,766.2891331999999,766.2891331999999,766.2891331999999,766.2891331999999,i,0.5692036999989796,766.8922780000012,766.8922780000012,766.8922780000012,766.8922780000012,766.8922780000012,766.8922780000012,767.1889781999998,768.2056219000006,768.2056219000006,768.2056219000006,768.2056219000006,768.2056219000006,768.2056219000006,768.2056219000006,768.2056219000006,768.2056219000006,768.2056219000006,768.2056219000006,768.2056219000006,768.2056219000006,768.2056219000006,769.5203182000005,769.5203182000005,769.5203182000005,769.5203182000005,769.5203182000005,769.5203182000005,769.5203182000005,28,36,60,65,60,70,769.5203182000005,771.2381294999996,,,,,,,,,,,,,,,,,,,３０８,f,２３,2023-05-18_14h13.03.946,RL,2022.2.5,60.08802896228263,
63,43,55,34,0,120,120,120,,,,,,,,,,,None,771.2381294999996,771.2381294999996,771.2381294999996,771.2381294999996,771.2381294999996,771.2381294999996,i,0.40265829999952985,771.6779920000008,771.6779920000008,771.6779920000008,771.6779920000008,771.6779920000008,771.6779920000008,771.9719867000003,773.3713089000012,773.3713089000012,773.3713089000012,773.3713089000012,773.3713089000012,773.3713089000012,773.3713089000012,773.3713089000012,773.3713089000012,773.3713089000012,773.3713089000012,773.3713089000012,773.3713089000012,773.3713089000012,775.0697302999997,775.0697302999997,775.0697302999997,775.0697302999997,775.0697302999997,775.0697302999997,775.0697302999997,34,43,55,63,55,70,775.0697302999997,776.7535550000011,,,,,,,,,,,,,,,,,,,３０８,f,２３,2023-05-18_14h13.03.946,RL,2022.2.5,60.08802896228263,
