arm1,arm2,arm3,arm4,trials.thisRepN,trials.thisTrialN,trials.thisN,trials.thisIndex,instru_img1.started,instru_resp.started,instru_resp.keys,instru_resp.rt,image_2.started,text_2.started,image_2.stopped,text_2.stopped,fixbefore_2.started,fixbefore_2.stopped,rest_response.keys,red.started,green.started,yellow.started,blue.started,choose_bandit.started,Fixation.started,choose_bandit.keys,choose_bandit.rt,black.started,red_2.started,green_2.started,yellow_2.started,blue_2.started,fixation_2.started,docs.started,docs.stopped,black.stopped,red_2.stopped,green_2.stopped,yellow_2.stopped,blue_2.stopped,fixation_2.stopped,black_com.started,reward_sub.started,reward__sub.started,red_compare.started,green_com.started,yellow_com.started,blue_com.started,black_com.stopped,reward_sub.stopped,reward__sub.stopped,red_compare.stopped,green_com.stopped,yellow_com.stopped,blue_com.stopped,rewardred,rewardyellow,rewardblue,rewardgreen,subchoose,expectation,intertrialfix.started,intertrialfix.stopped,rest_image.started,rest_response.started,rest_response.rt,image_expect_after.started,text_exp_after.started,image_expect_after.stopped,text_exp_after.stopped,image.started,key_resp.started,key_resp.keys,key_resp.rt,participant,Gender,Age,date,expName,psychopyVersion,frameRate,
,,,,,,,,17.14432669999951,17.14432669999951,space,6.813756499999727,,,,,,,,,,,,,,,,,,,,,,,,,,,,,,,,,,,,,,,,,,,,,,,,,,,,,,,,,,,,,,,３０９,f,２４,2023-05-18_14h55.23.622,RL,2022.2.5,59.9944445144779,
45,45,60,56,0,0,0,0,,,,,23.973905799999557,23.973905799999557,28.973594299999604,28.973594299999604,28.973594299999604,29.976081099999647,None,29.976081099999647,29.976081099999647,29.976081099999647,29.976081099999647,29.976081099999647,29.976081099999647,f,0.5282877999998163,30.527627199999188,30.527627199999188,30.527627199999188,30.527627199999188,30.527627199999188,30.527627199999188,30.808548599999995,32.69334479999998,32.730356300000494,32.730356300000494,32.730356300000494,32.730356300000494,32.730356300000494,32.730356300000494,32.730356300000494,32.730356300000494,32.730356300000494,32.730356300000494,32.730356300000494,32.730356300000494,32.730356300000494,34.96686690000024,34.96686690000024,34.96686690000024,34.96686690000024,34.96686690000024,34.96686690000024,34.96686690000024,45,45,60,56,45,60,34.96686690000024,36.539971800000785,,,,,,,,,,,,３０９,f,２４,2023-05-18_14h55.23.622,RL,2022.2.5,59.9944445144779,
42,40,57,48,0,1,1,1,,,,,,,,,,,None,36.539971800000785,36.539971800000785,36.539971800000785,36.539971800000785,36.539971800000785,36.539971800000785,j,0.457103200000347,37.02534849999938,37.02534849999938,37.02534849999938,37.02534849999938,37.02534849999938,37.02534849999938,37.30737709999994,38.94042079999963,38.956704700000046,38.956704700000046,38.956704700000046,38.956704700000046,38.956704700000046,38.956704700000046,38.956704700000046,38.956704700000046,38.956704700000046,38.956704700000046,38.956704700000046,38.956704700000046,38.956704700000046,40.88795690000006,40.88795690000006,40.88795690000006,40.88795690000006,40.88795690000006,40.88795690000006,40.88795690000006,42,40,57,48,48,60,40.88795690000006,42.7224841999996,,,,,,,,,,,,３０９,f,２４,2023-05-18_14h55.23.622,RL,2022.2.5,59.9944445144779,
47,49,66,63,0,2,2,2,,,,,,,,,,,None,42.7224841999996,42.7224841999996,42.7224841999996,42.7224841999996,42.7224841999996,42.7224841999996,r,0.29904699999860895,43.03946739999992,43.03946739999992,43.03946739999992,43.03946739999992,43.03946739999992,43.03946739999992,43.32252110000081,44.256194499999765,44.27223520000007,44.27223520000007,44.27223520000007,44.27223520000007,44.27223520000007,44.27223520000007,44.27223520000007,44.27223520000007,44.27223520000007,44.27223520000007,44.27223520000007,44.27223520000007,44.27223520000007,45.50420800000029,45.50420800000029,45.50420800000029,45.50420800000029,45.50420800000029,45.50420800000029,45.50420800000029,47,49,66,63,49,60,45.50420800000029,47.07184489999963,,,,,,,,,,,,３０９,f,２４,2023-05-18_14h55.23.622,RL,2022.2.5,59.9944445144779,
55,46,67,51,0,3,3,3,,,,,,,,,,,None,47.07184489999963,47.07184489999963,47.07184489999963,47.07184489999963,47.07184489999963,47.07184489999963,i,0.3315965000001597,47.42281870000079,47.42281870000079,47.42281870000079,47.42281870000079,47.42281870000079,47.42281870000079,47.705284499999834,48.888699400000405,48.905121300000246,48.905121300000246,48.905121300000246,48.905121300000246,48.905121300000246,48.905121300000246,48.905121300000246,48.905121300000246,48.905121300000246,48.905121300000246,48.905121300000246,48.905121300000246,48.905121300000246,50.38672030000089,50.38672030000089,50.38672030000089,50.38672030000089,50.38672030000089,50.38672030000089,50.38672030000089,55,46,67,51,67,60,50.38672030000089,52.13781299999937,,,,,,,,,,,,３０９,f,２４,2023-05-18_14h55.23.622,RL,2022.2.5,59.9944445144779,
43,42,63,51,0,4,4,4,,,,,,,,,,,None,52.13781299999937,52.13781299999937,52.13781299999937,52.13781299999937,52.13781299999937,52.13781299999937,f,0.32899729999917326,52.489396099999794,52.489396099999794,52.489396099999794,52.489396099999794,52.489396099999794,52.489396099999794,52.771106000000145,54.50428269999975,54.52066150000064,54.52066150000064,54.52066150000064,54.52066150000064,54.52066150000064,54.52066150000064,54.52066150000064,54.52066150000064,54.52066150000064,54.52066150000064,54.52066150000064,54.52066150000064,54.52066150000064,56.55208049999965,56.55208049999965,56.55208049999965,56.55208049999965,56.55208049999965,56.55208049999965,56.55208049999965,43,42,63,51,43,60,56.55208049999965,58.519888299999366,,,,,,,,,,,,３０９,f,２４,2023-05-18_14h55.23.622,RL,2022.2.5,59.9944445144779,
41,46,63,57,0,5,5,5,,,,,,,,,,,None,58.519888299999366,58.519888299999366,58.519888299999366,58.519888299999366,58.519888299999366,58.519888299999366,i,0.30967340000097465,58.85669430000053,58.85669430000053,58.85669430000053,58.85669430000053,58.85669430000053,58.85669430000053,59.15376069999911,60.48616430000038,60.48616430000038,60.48616430000038,60.48616430000038,60.48616430000038,60.48616430000038,60.48616430000038,60.48616430000038,60.48616430000038,60.48616430000038,60.48616430000038,60.48616430000038,60.48616430000038,60.48616430000038,62.11824490000072,62.11824490000072,62.11824490000072,62.11824490000072,62.11824490000072,62.11824490000072,62.11824490000072,41,46,63,57,63,60,62.11824490000072,64.10247159999926,,,,,,,,,,,,３０９,f,２４,2023-05-18_14h55.23.622,RL,2022.2.5,59.9944445144779,
45,43,63,58,0,6,6,6,,,,,,,,,,,None,64.10247159999926,64.10247159999926,64.10247159999926,64.10247159999926,64.10247159999926,64.10247159999926,i,0.30093959999976505,64.43962400000055,64.43962400000055,64.43962400000055,64.43962400000055,64.43962400000055,64.43962400000055,64.71918799999912,66.35209580000082,66.3687460000001,66.3687460000001,66.3687460000001,66.3687460000001,66.3687460000001,66.3687460000001,66.3687460000001,66.3687460000001,66.3687460000001,66.3687460000001,66.3687460000001,66.3687460000001,66.3687460000001,68.30021409999972,68.30021409999972,68.30021409999972,68.30021409999972,68.30021409999972,68.30021409999972,68.30021409999972,45,43,63,58,63,60,68.30021409999972,70.18480950000048,,,,,,,,,,,,３０９,f,２４,2023-05-18_14h55.23.622,RL,2022.2.5,59.9944445144779,
46,49,65,55,0,7,7,7,,,,,,,,,,,None,70.18480950000048,70.18480950000048,70.18480950000048,70.18480950000048,70.18480950000048,70.18480950000048,i,0.281164500000159,70.48916099999951,70.48916099999951,70.48916099999951,70.48916099999951,70.48916099999951,70.48916099999951,70.76819310000064,71.8842568,71.90119930000037,71.90119930000037,71.90119930000037,71.90119930000037,71.90119930000037,71.90119930000037,71.90119930000037,71.90119930000037,71.90119930000037,71.90119930000037,71.90119930000037,71.90119930000037,71.90119930000037,73.31619049999972,73.31619049999972,73.31619049999972,73.31619049999972,73.31619049999972,73.31619049999972,73.31619049999972,46,49,65,55,65,60,73.31619049999972,75.00058569999965,,,,,,,,,,,,３０９,f,２４,2023-05-18_14h55.23.622,RL,2022.2.5,59.9944445144779,
52,51,66,56,0,8,8,8,,,,,,,,,,,None,75.00058569999965,75.00058569999965,75.00058569999965,75.00058569999965,75.00058569999965,75.00058569999965,i,0.35192670000105863,75.38750629999959,75.38750629999959,75.38750629999959,75.38750629999959,75.38750629999959,75.38750629999959,75.66690750000089,76.71720300000015,76.73362520000046,76.73362520000046,76.73362520000046,76.73362520000046,76.73362520000046,76.73362520000046,76.73362520000046,76.73362520000046,76.73362520000046,76.73362520000046,76.73362520000046,76.73362520000046,76.73362520000046,78.08157709999978,78.08157709999978,78.08157709999978,78.08157709999978,78.08157709999978,78.08157709999978,78.08157709999978,52,51,66,56,66,60,78.08157709999978,80.04940410000017,,,,,,,,,,,,３０９,f,２４,2023-05-18_14h55.23.622,RL,2022.2.5,59.9944445144779,
45,63,70,53,0,9,9,9,,,,,,,,,,,None,80.04940410000017,80.04940410000017,80.04940410000017,80.04940410000017,80.04940410000017,80.04940410000017,i,0.2780719999991561,80.34986209999988,80.34986209999988,80.34986209999988,80.34986209999988,80.34986209999988,80.34986209999988,80.63277290000042,82.49921619999986,82.51563010000064,82.51563010000064,82.51563010000064,82.51563010000064,82.51563010000064,82.51563010000064,82.51563010000064,82.51563010000064,82.51563010000064,82.51563010000064,82.51563010000064,82.51563010000064,82.51563010000064,84.68048640000052,84.68048640000052,84.68048640000052,84.68048640000052,84.68048640000052,84.68048640000052,84.68048640000052,45,63,70,53,70,60,84.68048640000052,86.44802089999939,,,,,,,,,,,,３０９,f,２４,2023-05-18_14h55.23.622,RL,2022.2.5,59.9944445144779,
43,59,63,56,0,10,10,10,,,,,,,,,,,None,86.44802089999939,86.44802089999939,86.44802089999939,86.44802089999939,86.44802089999939,86.44802089999939,i,0.31409550000171294,86.78235680000034,86.78235680000034,86.78235680000034,86.78235680000034,86.78235680000034,86.78235680000034,87.06509449999976,88.21471790000032,88.23125640000035,88.23125640000035,88.23125640000035,88.23125640000035,88.23125640000035,88.23125640000035,88.23125640000035,88.23125640000035,88.23125640000035,88.23125640000035,88.23125640000035,88.23125640000035,88.23125640000035,89.67935550000038,89.67935550000038,89.67935550000038,89.67935550000038,89.67935550000038,89.67935550000038,89.67935550000038,43,59,63,56,63,60,89.67935550000038,91.26426429999992,,,,,,,,,,,,３０９,f,２４,2023-05-18_14h55.23.622,RL,2022.2.5,59.9944445144779,
45,62,69,55,0,11,11,11,,,,,,,,,,,None,91.26426429999992,91.26426429999992,91.26426429999992,91.26426429999992,91.26426429999992,91.26426429999992,j,0.27663229999961914,91.56453610000062,91.56453610000062,91.56453610000062,91.56453610000062,91.56453610000062,91.56453610000062,91.8479212000002,93.63065479999932,93.6471932000004,93.6471932000004,93.6471932000004,93.6471932000004,93.6471932000004,93.6471932000004,93.6471932000004,93.6471932000004,93.6471932000004,93.6471932000004,93.6471932000004,93.6471932000004,93.6471932000004,95.72888959999909,95.72888959999909,95.72888959999909,95.72888959999909,95.72888959999909,95.72888959999909,95.72888959999909,45,62,69,55,55,60,95.72888959999909,97.71268559999953,,,,,,,,,,,,３０９,f,２４,2023-05-18_14h55.23.622,RL,2022.2.5,59.9944445144779,
40,64,70,55,0,12,12,12,,,,,,,,,,,None,97.71268559999953,97.71268559999953,97.71268559999953,97.71268559999953,97.71268559999953,97.71268559999953,i,0.3108246000010695,98.04672489999939,98.04672489999939,98.04672489999939,98.04672489999939,98.04672489999939,98.04672489999939,98.3302079999994,99.72974179999983,99.74659659999998,99.74659659999998,99.74659659999998,99.74659659999998,99.74659659999998,99.74659659999998,99.74659659999998,99.74659659999998,99.74659659999998,99.74659659999998,99.74659659999998,99.74659659999998,99.74659659999998,101.4441736000008,101.4441736000008,101.4441736000008,101.4441736000008,101.4441736000008,101.4441736000008,101.4441736000008,40,64,70,55,70,60,101.4441736000008,103.39503440000044,,,,,,,,,,,,３０９,f,２４,2023-05-18_14h55.23.622,RL,2022.2.5,59.9944445144779,
45,58,70,61,0,13,13,13,,,,,,,,,,,None,103.39503440000044,103.39503440000044,103.39503440000044,103.39503440000044,103.39503440000044,103.39503440000044,i,0.29796710000118765,103.71226139999999,103.71226139999999,103.71226139999999,103.71226139999999,103.71226139999999,103.71226139999999,103.99584460000005,104.91212880000057,104.92869129999963,104.92869129999963,104.92869129999963,104.92869129999963,104.92869129999963,104.92869129999963,104.92869129999963,104.92869129999963,104.92869129999963,104.92869129999963,104.92869129999963,104.92869129999963,104.92869129999963,106.1435509999992,106.1435509999992,106.1435509999992,106.1435509999992,106.1435509999992,106.1435509999992,106.1435509999992,45,58,70,61,70,60,106.1435509999992,108.0278412000007,,,,,,,,,,,,３０９,f,２４,2023-05-18_14h55.23.622,RL,2022.2.5,59.9944445144779,
43,63,61,54,0,14,14,14,,,,,,,,,,,None,108.0278412000007,108.0278412000007,108.0278412000007,108.0278412000007,108.0278412000007,108.0278412000007,i,0.3473737999993318,108.39483819999987,108.39483819999987,108.39483819999987,108.39483819999987,108.39483819999987,108.39483819999987,108.67823920000046,109.99410379999972,110.01082160000078,110.01082160000078,110.01082160000078,110.01082160000078,110.01082160000078,110.01082160000078,110.01082160000078,110.01082160000078,110.01082160000078,110.01082160000078,110.01082160000078,110.01082160000078,110.01082160000078,111.62627860000066,111.62627860000066,111.62627860000066,111.62627860000066,111.62627860000066,111.62627860000066,111.62627860000066,43,63,61,54,61,60,111.62627860000066,113.56008649999967,,,,,,,,,,,,３０９,f,２４,2023-05-18_14h55.23.622,RL,2022.2.5,59.9944445144779,
53,64,67,59,0,15,15,15,,,,,,,,,,,None,113.56008649999967,113.56008649999967,113.56008649999967,113.56008649999967,113.56008649999967,113.56008649999967,i,0.2740599000007933,113.86166419999972,113.86166419999972,113.86166419999972,113.86166419999972,113.86166419999972,113.86166419999972,114.16038420000041,115.62675479999962,115.62675479999962,115.62675479999962,115.62675479999962,115.62675479999962,115.62675479999962,115.62675479999962,115.62675479999962,115.62675479999962,115.62675479999962,115.62675479999962,115.62675479999962,115.62675479999962,115.62675479999962,117.39131119999911,117.39131119999911,117.39131119999911,117.39131119999911,117.39131119999911,117.39131119999911,117.39131119999911,53,64,67,59,67,60,117.39131119999911,119.0592304999991,,,,,,,,,,,,３０９,f,２４,2023-05-18_14h55.23.622,RL,2022.2.5,59.9944445144779,
42,54,78,53,0,16,16,16,,,,,,,,,,,None,119.0592304999991,119.0592304999991,119.0592304999991,119.0592304999991,119.0592304999991,119.0592304999991,i,0.4712437999987742,119.56317239999953,119.56317239999953,119.56317239999953,119.56317239999953,119.56317239999953,119.56317239999953,119.84309639999992,121.37568439999995,121.39248860000043,121.39248860000043,121.39248860000043,121.39248860000043,121.39248860000043,121.39248860000043,121.39248860000043,121.39248860000043,121.39248860000043,121.39248860000043,121.39248860000043,121.39248860000043,121.39248860000043,123.22421389999909,123.22421389999909,123.22421389999909,123.22421389999909,123.22421389999909,123.22421389999909,123.22421389999909,42,54,78,53,78,60,123.22421389999909,124.94146360000013,,,,,,,,,,,,３０９,f,２４,2023-05-18_14h55.23.622,RL,2022.2.5,59.9944445144779,
51,59,77,60,0,17,17,17,,,,,,,,,,,None,124.94146360000013,124.94146360000013,124.94146360000013,124.94146360000013,124.94146360000013,124.94146360000013,i,0.25042969999958586,125.22891979999986,125.22891979999986,125.22891979999986,125.22891979999986,125.22891979999986,125.22891979999986,125.5085737999998,126.89128320000054,126.90818650000074,126.90818650000074,126.90818650000074,126.90818650000074,126.90818650000074,126.90818650000074,126.90818650000074,126.90818650000074,126.90818650000074,126.90818650000074,126.90818650000074,126.90818650000074,126.90818650000074,128.58941500000037,128.58941500000037,128.58941500000037,128.58941500000037,128.58941500000037,128.58941500000037,128.58941500000037,51,59,77,60,77,60,128.58941500000037,130.2740916999992,,,,,,,,,,,,３０９,f,２４,2023-05-18_14h55.23.622,RL,2022.2.5,59.9944445144779,
41,53,67,57,0,18,18,18,,,,,,,,,,,None,130.2740916999992,130.2740916999992,130.2740916999992,130.2740916999992,130.2740916999992,130.2740916999992,i,0.27394529999946826,130.5743039000008,130.5743039000008,130.5743039000008,130.5743039000008,130.5743039000008,130.5743039000008,130.87454439999965,132.69049769999947,132.69049769999947,132.69049769999947,132.69049769999947,132.69049769999947,132.69049769999947,132.69049769999947,132.69049769999947,132.69049769999947,132.69049769999947,132.69049769999947,132.69049769999947,132.69049769999947,132.69049769999947,134.80544980000013,134.80544980000013,134.80544980000013,134.80544980000013,134.80544980000013,134.80544980000013,134.80544980000013,41,53,67,57,67,60,134.80544980000013,136.78958570000032,,,,,,,,,,,,３０９,f,２４,2023-05-18_14h55.23.622,RL,2022.2.5,59.9944445144779,
49,59,74,64,0,19,19,19,,,,,,,,,,,None,136.78958570000032,136.78958570000032,136.78958570000032,136.78958570000032,136.78958570000032,136.78958570000032,i,0.2631163000005472,137.0742649999993,137.0742649999993,137.0742649999993,137.0742649999993,137.0742649999993,137.0742649999993,137.35643549999986,138.57303049999973,138.58943050000016,138.58943050000016,138.58943050000016,138.58943050000016,138.58943050000016,138.58943050000016,138.58943050000016,138.58943050000016,138.58943050000016,138.58943050000016,138.58943050000016,138.58943050000016,138.58943050000016,140.1044868000008,140.1044868000008,140.1044868000008,140.1044868000008,140.1044868000008,140.1044868000008,140.1044868000008,49,59,74,64,74,60,140.1044868000008,142.0890505999996,,,,,,,,,,,,３０９,f,２４,2023-05-18_14h55.23.622,RL,2022.2.5,59.9944445144779,
48,58,69,43,0,20,20,20,,,,,,,,,,,None,142.0890505999996,142.0890505999996,142.0890505999996,142.0890505999996,142.0890505999996,142.0890505999996,i,0.3095589000004111,142.42368899999929,142.42368899999929,142.42368899999929,142.42368899999929,142.42368899999929,142.42368899999929,142.7058933999997,144.1220689999991,144.15552340000067,144.15552340000067,144.15552340000067,144.15552340000067,144.15552340000067,144.15552340000067,144.15552340000067,144.15552340000067,144.15552340000067,144.15552340000067,144.15552340000067,144.15552340000067,144.15552340000067,145.87026610000066,145.87026610000066,145.87026610000066,145.87026610000066,145.87026610000066,145.87026610000066,145.87026610000066,48,58,69,43,69,60,145.87026610000066,147.40452069999992,,,,,,,,,,,,３０９,f,２４,2023-05-18_14h55.23.622,RL,2022.2.5,59.9944445144779,
51,57,79,56,0,21,21,21,,,,,,,,,,,None,147.40452069999992,147.40452069999992,147.40452069999992,147.40452069999992,147.40452069999992,147.40452069999992,i,0.30729089999840653,147.73925550000058,147.73925550000058,147.73925550000058,147.73925550000058,147.73925550000058,147.73925550000058,148.03853460000028,149.03744740000002,149.03744740000002,149.03744740000002,149.03744740000002,149.03744740000002,149.03744740000002,149.03744740000002,149.03744740000002,149.03744740000002,149.03744740000002,149.03744740000002,149.03744740000002,149.03744740000002,149.03744740000002,150.3360775000001,150.3360775000001,150.3360775000001,150.3360775000001,150.3360775000001,150.3360775000001,150.3360775000001,51,57,79,56,79,60,150.3360775000001,151.93668289999914,,,,,,,,,,,,３０９,f,２４,2023-05-18_14h55.23.622,RL,2022.2.5,59.9944445144779,
45,66,84,45,0,22,22,22,,,,,,,,,,,None,151.93668289999914,151.93668289999914,151.93668289999914,151.93668289999914,151.93668289999914,151.93668289999914,i,0.2557668999997986,152.2222698000005,152.2222698000005,152.2222698000005,152.2222698000005,152.2222698000005,152.2222698000005,152.5038428000007,153.90376819999983,153.92041769999923,153.92041769999923,153.92041769999923,153.92041769999923,153.92041769999923,153.92041769999923,153.92041769999923,153.92041769999923,153.92041769999923,153.92041769999923,153.92041769999923,153.92041769999923,153.92041769999923,155.61807840000074,155.61807840000074,155.61807840000074,155.61807840000074,155.61807840000074,155.61807840000074,155.61807840000074,45,66,84,45,84,60,155.61807840000074,157.1695638000001,,,,,,,,,,,,３０９,f,２４,2023-05-18_14h55.23.622,RL,2022.2.5,59.9944445144779,
33,58,79,58,0,23,23,23,,,,,,,,,,,None,157.1695638000001,157.1695638000001,157.1695638000001,157.1695638000001,157.1695638000001,157.1695638000001,i,0.26235580000138725,157.45545669999956,157.45545669999956,157.45545669999956,157.45545669999956,157.45545669999956,157.45545669999956,157.73672479999914,159.06909730000007,159.08598150000034,159.08598150000034,159.08598150000034,159.08598150000034,159.08598150000034,159.08598150000034,159.08598150000034,159.08598150000034,159.08598150000034,159.08598150000034,159.08598150000034,159.08598150000034,159.08598150000034,160.70061130000067,160.70061130000067,160.70061130000067,160.70061130000067,160.70061130000067,160.70061130000067,160.70061130000067,33,58,79,58,79,60,160.70061130000067,162.5516692000001,,,,,,,,,,,,３０９,f,２４,2023-05-18_14h55.23.622,RL,2022.2.5,59.9944445144779,
39,56,80,48,0,24,24,24,,,,,,,,,,,None,162.5516692000001,162.5516692000001,162.5516692000001,162.5516692000001,162.5516692000001,162.5516692000001,i,0.2714646000003995,162.85417269999925,162.85417269999925,162.85417269999925,162.85417269999925,162.85417269999925,162.85417269999925,163.15228170000046,164.58526239999992,164.58526239999992,164.58526239999992,164.58526239999992,164.58526239999992,164.58526239999992,164.58526239999992,164.58526239999992,164.58526239999992,164.58526239999992,164.58526239999992,164.58526239999992,164.58526239999992,164.58526239999992,166.31590850000066,166.31590850000066,166.31590850000066,166.31590850000066,166.31590850000066,166.31590850000066,166.31590850000066,39,56,80,48,80,60,166.31590850000066,167.8342076000008,,,,,,,,,,,,３０９,f,２４,2023-05-18_14h55.23.622,RL,2022.2.5,59.9944445144779,
45,64,77,50,0,25,25,25,,,,,,,,,,,None,167.8342076000008,167.8342076000008,167.8342076000008,167.8342076000008,167.8342076000008,167.8342076000008,i,0.3212965999991866,168.1859485999994,168.1859485999994,168.1859485999994,168.1859485999994,168.1859485999994,168.1859485999994,168.48435880000034,170.0505658000002,170.0505658000002,170.0505658000002,170.0505658000002,170.0505658000002,170.0505658000002,170.0505658000002,170.0505658000002,170.0505658000002,170.0505658000002,170.0505658000002,170.0505658000002,170.0505658000002,170.0505658000002,171.91549510000004,171.91549510000004,171.91549510000004,171.91549510000004,171.91549510000004,171.91549510000004,171.91549510000004,45,64,77,50,77,60,171.91549510000004,173.7994744000007,,,,,,,,,,,,３０９,f,２４,2023-05-18_14h55.23.622,RL,2022.2.5,59.9944445144779,
35,71,75,58,0,26,26,26,,,,,,,,,,,None,173.7994744000007,173.7994744000007,173.7994744000007,173.7994744000007,173.7994744000007,173.7994744000007,i,0.27192209999884653,174.10283899999922,174.10283899999922,174.10283899999922,174.10283899999922,174.10283899999922,174.10283899999922,174.39989480000077,175.7829488999996,175.79948200000035,175.79948200000035,175.79948200000035,175.79948200000035,175.79948200000035,175.79948200000035,175.79948200000035,175.79948200000035,175.79948200000035,175.79948200000035,175.79948200000035,175.79948200000035,175.79948200000035,177.48111059999974,177.48111059999974,177.48111059999974,177.48111059999974,177.48111059999974,177.48111059999974,177.48111059999974,35,71,75,58,75,60,177.48111059999974,179.13216880000073,,,,,,,,,,,,３０９,f,２４,2023-05-18_14h55.23.622,RL,2022.2.5,59.9944445144779,
30,61,78,61,0,27,27,27,,,,,,,,,,,None,179.13216880000073,179.13216880000073,179.13216880000073,179.13216880000073,179.13216880000073,179.13216880000073,i,0.2769931999991968,179.4328029999997,179.4328029999997,179.4328029999997,179.4328029999997,179.4328029999997,179.4328029999997,179.71596119999958,181.2488983000003,181.26526740000008,181.26526740000008,181.26526740000008,181.26526740000008,181.26526740000008,181.26526740000008,181.26526740000008,181.26526740000008,181.26526740000008,181.26526740000008,181.26526740000008,181.26526740000008,181.26526740000008,183.0964273999998,183.0964273999998,183.0964273999998,183.0964273999998,183.0964273999998,183.0964273999998,183.0964273999998,30,61,78,61,78,60,183.0964273999998,184.69761149999977,,,,,,,,,,,,３０９,f,２４,2023-05-18_14h55.23.622,RL,2022.2.5,59.9944445144779,
37,61,86,56,0,28,28,28,,,,,,,,,,,None,184.69761149999977,184.69761149999977,184.69761149999977,184.69761149999977,184.69761149999977,184.69761149999977,i,0.29395560000011756,185.01488699999936,185.01488699999936,185.01488699999936,185.01488699999936,185.01488699999936,185.01488699999936,185.2985632,186.88104120000025,186.89768320000076,186.89768320000076,186.89768320000076,186.89768320000076,186.89768320000076,186.89768320000076,186.89768320000076,186.89768320000076,186.89768320000076,186.89768320000076,186.89768320000076,186.89768320000076,186.89768320000076,188.77947669999958,188.77947669999958,188.77947669999958,188.77947669999958,188.77947669999958,188.77947669999958,188.77947669999958,37,61,86,56,86,60,188.77947669999958,190.64698619999945,,,,,,,,,,,,３０９,f,２４,2023-05-18_14h55.23.622,RL,2022.2.5,59.9944445144779,
41,62,82,45,0,29,29,29,,,,,,,,,,,None,190.64698619999945,190.64698619999945,190.64698619999945,190.64698619999945,190.64698619999945,190.64698619999945,i,0.26735350000126346,190.93217659999937,190.93217659999937,190.93217659999937,190.93217659999937,190.93217659999937,190.93217659999937,191.23070460000054,192.84642180000083,192.84642180000083,192.84642180000083,192.84642180000083,192.84642180000083,192.84642180000083,192.84642180000083,192.84642180000083,192.84642180000083,192.84642180000083,192.84642180000083,192.84642180000083,192.84642180000083,192.84642180000083,194.7615139999998,194.7615139999998,194.7615139999998,194.7615139999998,194.7615139999998,194.7615139999998,194.7615139999998,41,62,82,45,82,60,194.7615139999998,196.37923600000067,,,,,,,,,,,,３０９,f,２４,2023-05-18_14h55.23.622,RL,2022.2.5,59.9944445144779,
42,51,85,56,0,30,30,30,,,,,,,,,,,None,196.37923600000067,196.37923600000067,196.37923600000067,196.37923600000067,196.37923600000067,196.37923600000067,i,0.27338680000138993,196.6803729000003,196.6803729000003,196.6803729000003,196.6803729000003,196.6803729000003,196.6803729000003,196.96319399999993,197.81246079999983,197.8292820000006,197.8292820000006,197.8292820000006,197.8292820000006,197.8292820000006,197.8292820000006,197.8292820000006,197.8292820000006,197.8292820000006,197.8292820000006,197.8292820000006,197.8292820000006,197.8292820000006,198.97779959999934,198.97779959999934,198.97779959999934,198.97779959999934,198.97779959999934,198.97779959999934,198.97779959999934,42,51,85,56,85,60,198.97779959999934,200.96176820000073,,,,,,,,,,,,３０９,f,２４,2023-05-18_14h55.23.622,RL,2022.2.5,59.9944445144779,
40,61,81,57,0,31,31,31,,,,,,,,,,,None,200.96176820000073,200.96176820000073,200.96176820000073,200.96176820000073,200.96176820000073,200.96176820000073,f,0.3447022999989713,201.32928859999993,201.32928859999993,201.32928859999993,201.32928859999993,201.32928859999993,201.32928859999993,201.6118045000003,203.1782344000003,203.1949970000005,203.1949970000005,203.1949970000005,203.1949970000005,203.1949970000005,203.1949970000005,203.1949970000005,203.1949970000005,203.1949970000005,203.1949970000005,203.1949970000005,203.1949970000005,203.1949970000005,205.05993900000067,205.05993900000067,205.05993900000067,205.05993900000067,205.05993900000067,205.05993900000067,205.05993900000067,40,61,81,57,40,60,205.05993900000067,206.91058619999967,,,,,,,,,,,,３０９,f,２４,2023-05-18_14h55.23.622,RL,2022.2.5,59.9944445144779,
45,64,79,52,0,32,32,32,,,,,,,,,,,None,206.91058619999967,206.91058619999967,206.91058619999967,206.91058619999967,206.91058619999967,206.91058619999967,i,0.24571470000046247,207.17848969999977,207.17848969999977,207.17848969999977,207.17848969999977,207.17848969999977,207.17848969999977,207.46078669999952,209.12718040000073,209.16084910000063,209.16084910000063,209.16084910000063,209.16084910000063,209.16084910000063,209.16084910000063,209.16084910000063,209.16084910000063,209.16084910000063,209.16084910000063,209.16084910000063,209.16084910000063,209.16084910000063,211.12546230000044,211.12546230000044,211.12546230000044,211.12546230000044,211.12546230000044,211.12546230000044,211.12546230000044,45,64,79,52,79,60,211.12546230000044,212.99272770000061,,,,,,,,,,,,３０９,f,２４,2023-05-18_14h55.23.622,RL,2022.2.5,59.9944445144779,
39,61,82,45,0,33,33,33,,,,,,,,,,,None,212.99272770000061,212.99272770000061,212.99272770000061,212.99272770000061,212.99272770000061,212.99272770000061,i,0.3305584000008821,213.3435432999995,213.3435432999995,213.3435432999995,213.3435432999995,213.3435432999995,213.3435432999995,213.62654450000082,214.77627129999928,214.79307530000005,214.79307530000005,214.79307530000005,214.79307530000005,214.79307530000005,214.79307530000005,214.79307530000005,214.79307530000005,214.79307530000005,214.79307530000005,214.79307530000005,214.79307530000005,214.79307530000005,216.24084419999963,216.24084419999963,216.24084419999963,216.24084419999963,216.24084419999963,216.24084419999963,216.24084419999963,39,61,82,45,82,60,216.24084419999963,217.99223340000026,,,,,,,,,,,,３０９,f,２４,2023-05-18_14h55.23.622,RL,2022.2.5,59.9944445144779,
32,59,79,46,0,34,34,34,,,,,,,,,,,None,217.99223340000026,217.99223340000026,217.99223340000026,217.99223340000026,217.99223340000026,217.99223340000026,i,0.31220350000148755,218.3259988000009,218.3259988000009,218.3259988000009,218.3259988000009,218.3259988000009,218.3259988000009,218.60934740000084,220.1920553,220.20860410000023,220.20860410000023,220.20860410000023,220.20860410000023,220.20860410000023,220.20860410000023,220.20860410000023,220.20860410000023,220.20860410000023,220.20860410000023,220.20860410000023,220.20860410000023,220.20860410000023,222.09024789999967,222.09024789999967,222.09024789999967,222.09024789999967,222.09024789999967,222.09024789999967,222.09024789999967,32,59,79,46,79,60,222.09024789999967,223.70748450000065,,,,,,,,,,,,３０９,f,２４,2023-05-18_14h55.23.622,RL,2022.2.5,59.9944445144779,
29,72,77,41,0,35,35,35,,,,,,,,,,,None,223.70748450000065,223.70748450000065,223.70748450000065,223.70748450000065,223.70748450000065,223.70748450000065,i,0.26453399999991234,223.99146429999928,223.99146429999928,223.99146429999928,223.99146429999928,223.99146429999928,223.99146429999928,224.2749827000007,225.7410275000002,225.7579798000006,225.7579798000006,225.7579798000006,225.7579798000006,225.7579798000006,225.7579798000006,225.7579798000006,225.7579798000006,225.7579798000006,225.7579798000006,225.7579798000006,225.7579798000006,225.7579798000006,227.52281770000081,227.52281770000081,227.52281770000081,227.52281770000081,227.52281770000081,227.52281770000081,227.52281770000081,29,72,77,41,77,60,227.52281770000081,229.17327269999987,,,,,,,,,,,,３０９,f,２４,2023-05-18_14h55.23.622,RL,2022.2.5,59.9944445144779,
20,70,83,47,0,36,36,36,,,,,,,,,,,None,229.17327269999987,229.17327269999987,229.17327269999987,229.17327269999987,229.17327269999987,229.17327269999987,i,0.2921366999999009,229.4919241000007,229.4919241000007,229.4919241000007,229.4919241000007,229.4919241000007,229.4919241000007,229.77364839999973,230.70733250000012,230.72362000000066,230.72362000000066,230.72362000000066,230.72362000000066,230.72362000000066,230.72362000000066,230.72362000000066,230.72362000000066,230.72362000000066,230.72362000000066,230.72362000000066,230.72362000000066,230.72362000000066,231.95542129999922,231.95542129999922,231.95542129999922,231.95542129999922,231.95542129999922,231.95542129999922,231.95542129999922,20,70,83,47,83,60,231.95542129999922,233.92305970000052,,,,,,,,,,,,３０９,f,２４,2023-05-18_14h55.23.622,RL,2022.2.5,59.9944445144779,
23,63,80,55,0,37,37,37,,,,,,,,,,,None,233.92305970000052,233.92305970000052,233.92305970000052,233.92305970000052,233.92305970000052,233.92305970000052,i,0.33607949999895936,234.2950916000009,234.2950916000009,234.2950916000009,234.2950916000009,234.2950916000009,234.2950916000009,234.58950770000047,236.55632739999965,236.5726085999995,236.5726085999995,236.5726085999995,236.5726085999995,236.5726085999995,236.5726085999995,236.5726085999995,236.5726085999995,236.5726085999995,236.5726085999995,236.5726085999995,236.5726085999995,236.5726085999995,238.83745090000048,238.83745090000048,238.83745090000048,238.83745090000048,238.83745090000048,238.83745090000048,238.83745090000048,23,63,80,55,80,60,238.83745090000048,240.42134579999947,,,,,,,,,,,,３０９,f,２４,2023-05-18_14h55.23.622,RL,2022.2.5,59.9944445144779,
34,65,92,57,0,38,38,38,,,,,,,,,,,None,240.42134579999947,240.42134579999947,240.42134579999947,240.42134579999947,240.42134579999947,240.42134579999947,i,0.2618641999997635,240.70548020000024,240.70548020000024,240.70548020000024,240.70548020000024,240.70548020000024,240.70548020000024,240.98867849999988,242.28841529999954,242.30492459999914,242.30492459999914,242.30492459999914,242.30492459999914,242.30492459999914,242.30492459999914,242.30492459999914,242.30492459999914,242.30492459999914,242.30492459999914,242.30492459999914,242.30492459999914,242.30492459999914,243.90314890000082,243.90314890000082,243.90314890000082,243.90314890000082,243.90314890000082,243.90314890000082,243.90314890000082,34,65,92,57,92,60,243.90314890000082,245.85424260000036,,,,,,,,,,,,３０９,f,２４,2023-05-18_14h55.23.622,RL,2022.2.5,59.9944445144779,
38,55,80,51,0,39,39,39,,,,,,,,,,,None,245.85424260000036,245.85424260000036,245.85424260000036,245.85424260000036,245.85424260000036,245.85424260000036,i,0.25315969999974186,246.13852360000055,246.13852360000055,246.13852360000055,246.13852360000055,246.13852360000055,246.13852360000055,246.42077170000084,247.7038823999992,247.72070320000057,247.72070320000057,247.72070320000057,247.72070320000057,247.72070320000057,247.72070320000057,247.72070320000057,247.72070320000057,247.72070320000057,247.72070320000057,247.72070320000057,247.72070320000057,247.72070320000057,249.3018819000008,249.3018819000008,249.3018819000008,249.3018819000008,249.3018819000008,249.3018819000008,249.3018819000008,38,55,80,51,80,60,249.3018819000008,251.21984610000072,,,,,,,,,,,,３０９,f,２４,2023-05-18_14h55.23.622,RL,2022.2.5,59.9944445144779,
36,56,78,53,0,40,40,40,,,,,,,,,,,None,251.21984610000072,251.21984610000072,251.21984610000072,251.21984610000072,251.21984610000072,251.21984610000072,i,0.2660833999998431,251.50417689999995,251.50417689999995,251.50417689999995,251.50417689999995,251.50417689999995,251.50417689999995,251.80327770000076,252.90334860000075,252.90334860000075,252.90334860000075,252.90334860000075,252.90334860000075,252.90334860000075,252.90334860000075,252.90334860000075,252.90334860000075,252.90334860000075,252.90334860000075,252.90334860000075,252.90334860000075,252.90334860000075,254.30150089999916,254.30150089999916,254.30150089999916,254.30150089999916,254.30150089999916,254.30150089999916,254.30150089999916,36,56,78,53,78,60,254.30150089999916,255.88531390000026,,,,,,,,,,,,３０９,f,２４,2023-05-18_14h55.23.622,RL,2022.2.5,59.9944445144779,
36,59,83,53,0,41,41,41,,,,,,,,,,,None,255.88531390000026,255.88531390000026,255.88531390000026,255.88531390000026,255.88531390000026,255.88531390000026,i,0.2909538000003522,256.2038186000009,256.2038186000009,256.2038186000009,256.2038186000009,256.2038186000009,256.2038186000009,256.50240099999974,258.2356361000002,258.2356361000002,258.2356361000002,258.2356361000002,258.2356361000002,258.2356361000002,258.2356361000002,258.2356361000002,258.2356361000002,258.2356361000002,258.2356361000002,258.2356361000002,258.2356361000002,258.2356361000002,260.26690229999986,260.26690229999986,260.26690229999986,260.26690229999986,260.26690229999986,260.26690229999986,260.26690229999986,36,59,83,53,83,60,260.26690229999986,262.0181362000003,,,,,,,,,,,,３０９,f,２４,2023-05-18_14h55.23.622,RL,2022.2.5,59.9944445144779,
30,68,88,55,0,42,42,42,,,,,,,,,,,None,262.0181362000003,262.0181362000003,262.0181362000003,262.0181362000003,262.0181362000003,262.0181362000003,i,0.24544579999928828,262.2891359000005,262.2891359000005,262.2891359000005,262.2891359000005,262.2891359000005,262.2891359000005,262.5683847,263.4345654000008,263.4511456,263.4511456,263.4511456,263.4511456,263.4511456,263.4511456,263.4511456,263.4511456,263.4511456,263.4511456,263.4511456,263.4511456,263.4511456,264.6159181999992,264.6159181999992,264.6159181999992,264.6159181999992,264.6159181999992,264.6159181999992,264.6159181999992,30,68,88,55,88,60,264.6159181999992,266.50073390000034,,,,,,,,,,,,３０９,f,２４,2023-05-18_14h55.23.622,RL,2022.2.5,59.9944445144779,
27,59,85,50,0,43,43,43,,,,,,,,,,,None,266.50073390000034,266.50073390000034,266.50073390000034,266.50073390000034,266.50073390000034,266.50073390000034,i,0.3057633000007627,266.83431139999993,266.83431139999993,266.83431139999993,266.83431139999993,266.83431139999993,266.83431139999993,267.1173173999996,268.35052630000064,268.3673691999993,268.3673691999993,268.3673691999993,268.3673691999993,268.3673691999993,268.3673691999993,268.3673691999993,268.3673691999993,268.3673691999993,268.3673691999993,268.3673691999993,268.3673691999993,268.3673691999993,269.89861109999947,269.89861109999947,269.89861109999947,269.89861109999947,269.89861109999947,269.89861109999947,269.89861109999947,27,59,85,50,85,60,269.89861109999947,271.4662069999995,,,,,,,,,,,,３０９,f,２４,2023-05-18_14h55.23.622,RL,2022.2.5,59.9944445144779,
31,70,80,52,0,44,44,44,,,,,,,,,,,None,271.4662069999995,271.4662069999995,271.4662069999995,271.4662069999995,271.4662069999995,271.4662069999995,i,0.26758949999930337,271.7697771999992,271.7697771999992,271.7697771999992,271.7697771999992,271.7697771999992,271.7697771999992,272.0495327000008,273.6333264999994,273.66624310000043,273.66624310000043,273.66624310000043,273.66624310000043,273.66624310000043,273.66624310000043,273.66624310000043,273.66624310000043,273.66624310000043,273.66624310000043,273.66624310000043,273.66624310000043,273.66624310000043,275.5476294,275.5476294,275.5476294,275.5476294,275.5476294,275.5476294,275.5476294,31,70,80,52,80,60,275.5476294,277.51509330000044,,,,,,,,,,,,３０９,f,２４,2023-05-18_14h55.23.622,RL,2022.2.5,59.9944445144779,
32,72,73,60,0,45,45,45,,,,,,,,,,,None,277.51509330000044,277.51509330000044,277.51509330000044,277.51509330000044,277.51509330000044,277.51509330000044,i,0.28224609999961103,277.8156147000009,277.8156147000009,277.8156147000009,277.8156147000009,277.8156147000009,277.8156147000009,278.0986804999993,279.36517470000035,279.3817777000004,279.3817777000004,279.3817777000004,279.3817777000004,279.3817777000004,279.3817777000004,279.3817777000004,279.3817777000004,279.3817777000004,279.3817777000004,279.3817777000004,279.3817777000004,279.3817777000004,280.94631200000003,280.94631200000003,280.94631200000003,280.94631200000003,280.94631200000003,280.94631200000003,280.94631200000003,32,72,73,60,73,60,280.94631200000003,282.73097419999976,,,,,,,,,,,,３０９,f,２４,2023-05-18_14h55.23.622,RL,2022.2.5,59.9944445144779,
33,70,82,57,0,46,46,46,,,,,,,,,,,None,282.73097419999976,282.73097419999976,282.73097419999976,282.73097419999976,282.73097419999976,282.73097419999976,i,0.2772629999999481,283.03307529999984,283.03307529999984,283.03307529999984,283.03307529999984,283.03307529999984,283.03307529999984,283.3146699000008,284.14763420000054,284.1809315999999,284.1809315999999,284.1809315999999,284.1809315999999,284.1809315999999,284.1809315999999,284.1809315999999,284.1809315999999,284.1809315999999,284.1809315999999,284.1809315999999,284.1809315999999,284.1809315999999,285.31248179999966,285.31248179999966,285.31248179999966,285.31248179999966,285.31248179999966,285.31248179999966,285.31248179999966,33,70,82,57,82,60,285.31248179999966,287.03009569999995,,,,,,,,,,,,３０９,f,２４,2023-05-18_14h55.23.622,RL,2022.2.5,59.9944445144779,
39,66,84,61,0,47,47,47,,,,,,,,,,,None,287.03009569999995,287.03009569999995,287.03009569999995,287.03009569999995,287.03009569999995,287.03009569999995,i,0.22869449999961944,287.28046800000084,287.28046800000084,287.28046800000084,287.28046800000084,287.28046800000084,287.28046800000084,287.5642052000003,289.0302150000007,289.0466911000003,289.0466911000003,289.0466911000003,289.0466911000003,289.0466911000003,289.0466911000003,289.0466911000003,289.0466911000003,289.0466911000003,289.0466911000003,289.0466911000003,289.0466911000003,289.0466911000003,290.81113969999933,290.81113969999933,290.81113969999933,290.81113969999933,290.81113969999933,290.81113969999933,290.81113969999933,39,66,84,61,84,60,290.81113969999933,292.7957373999998,,,,,,,,,,,,３０９,f,２４,2023-05-18_14h55.23.622,RL,2022.2.5,59.9944445144779,
46,63,75,62,0,48,48,48,,,,,,,,,,,None,292.7957373999998,292.7957373999998,292.7957373999998,292.7957373999998,292.7957373999998,292.7957373999998,i,0.2480673999998544,293.0652797999992,293.0652797999992,293.0652797999992,293.0652797999992,293.0652797999992,293.0652797999992,293.3627732999994,295.19581859999926,295.19581859999926,295.19581859999926,295.19581859999926,295.19581859999926,295.19581859999926,295.19581859999926,295.19581859999926,295.19581859999926,295.19581859999926,295.19581859999926,295.19581859999926,295.19581859999926,295.19581859999926,297.32701129999987,297.32701129999987,297.32701129999987,297.32701129999987,297.32701129999987,297.32701129999987,297.32701129999987,46,63,75,62,75,60,297.32701129999987,298.9116434999996,,,,,,,,,,,,３０９,f,２４,2023-05-18_14h55.23.622,RL,2022.2.5,59.9944445144779,
50,66,72,57,0,49,49,49,,,,,,,,,,,None,298.9116434999996,298.9116434999996,298.9116434999996,298.9116434999996,298.9116434999996,298.9116434999996,i,0.27420880000136094,299.21182729999964,299.21182729999964,299.21182729999964,299.21182729999964,299.21182729999964,299.21182729999964,299.4950802000003,300.5611580999994,300.5778448000001,300.5778448000001,300.5778448000001,300.5778448000001,300.5778448000001,300.5778448000001,300.5778448000001,300.5778448000001,300.5778448000001,300.5778448000001,300.5778448000001,300.5778448000001,300.5778448000001,301.94277130000046,301.94277130000046,301.94277130000046,301.94277130000046,301.94277130000046,301.94277130000046,301.94277130000046,50,66,72,57,72,60,301.94277130000046,303.5609863999998,,,,,,,,,,,,３０９,f,２４,2023-05-18_14h55.23.622,RL,2022.2.5,59.9944445144779,
46,62,74,58,0,50,50,50,,,,,,,,,,,None,303.5609863999998,303.5609863999998,303.5609863999998,303.5609863999998,303.5609863999998,303.5609863999998,i,0.26674610000009125,303.84551719999945,303.84551719999945,303.84551719999945,303.84551719999945,303.84551719999945,303.84551719999945,304.1440669000003,305.86046669999996,305.86046669999996,305.86046669999996,305.86046669999996,305.86046669999996,305.86046669999996,305.86046669999996,305.86046669999996,305.86046669999996,305.86046669999996,305.86046669999996,305.86046669999996,305.86046669999996,305.86046669999996,307.8752263000006,307.8752263000006,307.8752263000006,307.8752263000006,307.8752263000006,307.8752263000006,307.8752263000006,46,62,74,58,74,60,307.8752263000006,309.59279699999934,,,,,,,,,,,,３０９,f,２４,2023-05-18_14h55.23.622,RL,2022.2.5,59.9944445144779,
56,63,81,57,0,51,51,51,,,,,,,,,,,None,309.59279699999934,309.59279699999934,309.59279699999934,309.59279699999934,309.59279699999934,309.59279699999934,i,0.19367799999963609,309.8111993000002,309.8111993000002,309.8111993000002,309.8111993000002,309.8111993000002,309.8111993000002,310.10972460000085,311.7929487000001,311.8093050999996,311.8093050999996,311.8093050999996,311.8093050999996,311.8093050999996,311.8093050999996,311.8093050999996,311.8093050999996,311.8093050999996,311.8093050999996,311.8093050999996,311.8093050999996,311.8093050999996,313.80738630000087,313.80738630000087,313.80738630000087,313.80738630000087,313.80738630000087,313.80738630000087,313.80738630000087,56,63,81,57,81,60,313.80738630000087,315.64158169999973,,,,,,,,,,,,３０９,f,２４,2023-05-18_14h55.23.622,RL,2022.2.5,59.9944445144779,
51,61,72,56,0,52,52,52,,,,,,,,,,,None,315.64158169999973,315.64158169999973,315.64158169999973,315.64158169999973,315.64158169999973,315.64158169999973,i,0.2832434000010835,315.9424476000004,315.9424476000004,315.9424476000004,315.9424476000004,315.9424476000004,315.9424476000004,316.22507439999936,317.5917074000008,317.6083913000002,317.6083913000002,317.6083913000002,317.6083913000002,317.6083913000002,317.6083913000002,317.6083913000002,317.6083913000002,317.6083913000002,317.6083913000002,317.6083913000002,317.6083913000002,317.6083913000002,319.2734313000001,319.2734313000001,319.2734313000001,319.2734313000001,319.2734313000001,319.2734313000001,319.2734313000001,51,61,72,56,72,60,319.2734313000001,321.14051800000016,,,,,,,,,,,,３０９,f,２４,2023-05-18_14h55.23.622,RL,2022.2.5,59.9944445144779,
42,64,81,50,0,53,53,53,,,,,,,,,,,None,321.14051800000016,321.14051800000016,321.14051800000016,321.14051800000016,321.14051800000016,321.14051800000016,r,0.2624599999999191,321.4269141999994,321.4269141999994,321.4269141999994,321.4269141999994,321.4269141999994,321.4269141999994,321.70812809999916,322.6077999000008,322.62421279999944,322.62421279999944,322.62421279999944,322.62421279999944,322.62421279999944,322.62421279999944,322.62421279999944,322.62421279999944,322.62421279999944,322.62421279999944,322.62421279999944,322.62421279999944,322.62421279999944,323.82256100000086,323.82256100000086,323.82256100000086,323.82256100000086,323.82256100000086,323.82256100000086,323.82256100000086,42,64,81,50,64,60,323.82256100000086,325.3570285000005,,,,,,,,,,,,３０９,f,２４,2023-05-18_14h55.23.622,RL,2022.2.5,59.9944445144779,
54,56,75,46,0,54,54,54,,,,,,,,,,,None,325.3570285000005,325.3570285000005,325.3570285000005,325.3570285000005,325.3570285000005,325.3570285000005,i,0.3215403000012884,325.7073158000003,325.7073158000003,325.7073158000003,325.7073158000003,325.7073158000003,325.7073158000003,325.99016760000086,327.4571018000006,327.47332730000016,327.47332730000016,327.47332730000016,327.47332730000016,327.47332730000016,327.47332730000016,327.47332730000016,327.47332730000016,327.47332730000016,327.47332730000016,327.47332730000016,327.47332730000016,327.47332730000016,329.2379502999993,329.2379502999993,329.2379502999993,329.2379502999993,329.2379502999993,329.2379502999993,329.2379502999993,54,56,75,46,75,60,329.2379502999993,330.87254980000034,,,,,,,,,,,,３０９,f,２４,2023-05-18_14h55.23.622,RL,2022.2.5,59.9944445144779,
50,53,81,48,0,55,55,55,,,,,,,,,,,None,330.87254980000034,330.87254980000034,330.87254980000034,330.87254980000034,330.87254980000034,330.87254980000034,j,0.32554610000079265,331.22337530000004,331.22337530000004,331.22337530000004,331.22337530000004,331.22337530000004,331.22337530000004,331.50636660000055,333.15581510000084,333.1723440000005,333.1723440000005,333.1723440000005,333.1723440000005,333.1723440000005,333.1723440000005,333.1723440000005,333.1723440000005,333.1723440000005,333.1723440000005,333.1723440000005,333.1723440000005,333.1723440000005,335.10364130000016,335.10364130000016,335.10364130000016,335.10364130000016,335.10364130000016,335.10364130000016,335.10364130000016,50,53,81,48,48,60,335.10364130000016,336.8046658000003,,,,,,,,,,,,３０９,f,２４,2023-05-18_14h55.23.622,RL,2022.2.5,59.9944445144779,
62,58,84,47,0,56,56,56,,,,,,,,,,,None,336.8046658000003,336.8046658000003,336.8046658000003,336.8046658000003,336.8046658000003,336.8046658000003,i,0.26822490000085963,337.0951528000005,337.0951528000005,337.0951528000005,337.0951528000005,337.0951528000005,337.0951528000005,337.3880996000007,339.3382218000006,339.3549729000006,339.3549729000006,339.3549729000006,339.3549729000006,339.3549729000006,339.3549729000006,339.3549729000006,339.3549729000006,339.3549729000006,339.3549729000006,339.3549729000006,339.3549729000006,339.3549729000006,341.6027716999997,341.6027716999997,341.6027716999997,341.6027716999997,341.6027716999997,341.6027716999997,341.6027716999997,62,58,84,47,84,60,341.6027716999997,343.6038544999992,,,,,,,,,,,,３０９,f,２４,2023-05-18_14h55.23.622,RL,2022.2.5,59.9944445144779,
50,55,75,45,0,57,57,57,,,,,,,,,,,None,343.6038544999992,343.6038544999992,343.6038544999992,343.6038544999992,343.6038544999992,343.6038544999992,i,0.3216039999988425,343.9561071999997,343.9561071999997,343.9561071999997,343.9561071999997,343.9561071999997,343.9561071999997,344.25370049999947,345.3038132999991,345.3596318,345.3596318,345.3596318,345.3596318,345.3596318,345.3596318,345.3596318,345.3596318,345.3596318,345.3596318,345.3596318,345.3596318,345.3596318,346.7182150000008,346.7182150000008,346.7182150000008,346.7182150000008,346.7182150000008,346.7182150000008,346.7182150000008,50,55,75,45,75,60,346.7182150000008,348.6026767000003,,,,,,,,,,,,３０９,f,２４,2023-05-18_14h55.23.622,RL,2022.2.5,59.9944445144779,
58,51,70,39,0,58,58,58,,,,,,,,,,,None,348.6026767000003,348.6026767000003,348.6026767000003,348.6026767000003,348.6026767000003,348.6026767000003,i,0.2754215999993903,348.90515120000055,348.90515120000055,348.90515120000055,348.90515120000055,348.90515120000055,348.90515120000055,349.1865164999999,350.80231679999997,350.81934340000043,350.81934340000043,350.81934340000043,350.81934340000043,350.81934340000043,350.81934340000043,350.81934340000043,350.81934340000043,350.81934340000043,350.81934340000043,350.81934340000043,350.81934340000043,350.81934340000043,352.7340468000002,352.7340468000002,352.7340468000002,352.7340468000002,352.7340468000002,352.7340468000002,352.7340468000002,58,51,70,39,70,60,352.7340468000002,354.4517426000002,,,,,,,,,,,,３０９,f,２４,2023-05-18_14h55.23.622,RL,2022.2.5,59.9944445144779,
54,59,74,45,0,59,59,59,,,,,,,,,,,None,354.4517426000002,354.4517426000002,354.4517426000002,354.4517426000002,354.4517426000002,354.4517426000002,i,0.2538588000006712,354.7366801999997,354.7366801999997,354.7366801999997,354.7366801999997,354.7366801999997,354.7366801999997,355.0188436999997,356.7182967000008,356.7350547999995,356.7350547999995,356.7350547999995,356.7350547999995,356.7350547999995,356.7350547999995,356.7350547999995,356.7350547999995,356.7350547999995,356.7350547999995,356.7350547999995,356.7350547999995,356.7350547999995,358.73349880000023,358.73349880000023,358.73349880000023,358.73349880000023,358.73349880000023,358.73349880000023,358.73349880000023,54,59,74,45,74,60,358.73349880000023,360.4841885000005,,,,,,,,,,,,３０９,f,２４,2023-05-18_14h55.23.622,RL,2022.2.5,59.9944445144779,
52,52,70,36,0,60,60,60,,,,,,,,,,,None,360.4841885000005,360.4841885000005,360.4841885000005,360.4841885000005,360.4841885000005,360.4841885000005,i,0.29755199999999604,360.80324180000025,360.80324180000025,360.80324180000025,360.80324180000025,360.80324180000025,360.80324180000025,361.1008015999996,362.73386519999985,362.73386519999985,362.73386519999985,362.73386519999985,362.73386519999985,362.73386519999985,362.73386519999985,362.73386519999985,362.73386519999985,362.73386519999985,362.73386519999985,362.73386519999985,362.73386519999985,362.73386519999985,364.6651490999993,364.6651490999993,364.6651490999993,364.6651490999993,364.6651490999993,364.6651490999993,364.6651490999993,52,52,70,36,70,60,364.6651490999993,366.6497211999995,,,,,,,,,,,,３０９,f,２４,2023-05-18_14h55.23.622,RL,2022.2.5,59.9944445144779,
54,65,76,42,0,61,61,61,,,,,,,,,,,None,366.6497211999995,366.6497211999995,366.6497211999995,366.6497211999995,366.6497211999995,366.6497211999995,i,0.24602670000058424,366.9174571000003,366.9174571000003,366.9174571000003,366.9174571000003,366.9174571000003,366.9174571000003,367.1997608999991,368.5330859000005,368.5497095999999,368.5497095999999,368.5497095999999,368.5497095999999,368.5497095999999,368.5497095999999,368.5497095999999,368.5497095999999,368.5497095999999,368.5497095999999,368.5497095999999,368.5497095999999,368.5497095999999,370.18101279999973,370.18101279999973,370.18101279999973,370.18101279999973,370.18101279999973,370.18101279999973,370.18101279999973,54,65,76,42,76,60,370.18101279999973,372.18166869999914,,,,,,,,,,,,３０９,f,２４,2023-05-18_14h55.23.622,RL,2022.2.5,59.9944445144779,
43,55,79,36,0,62,62,62,,,,,,,,,,,None,372.18166869999914,372.18166869999914,372.18166869999914,372.18166869999914,372.18166869999914,372.18166869999914,i,0.26836870000079216,372.4871942999998,372.4871942999998,372.4871942999998,372.4871942999998,372.4871942999998,372.4871942999998,372.76595950000046,373.7318544000009,373.76537370000005,373.76537370000005,373.76537370000005,373.76537370000005,373.76537370000005,373.76537370000005,373.76537370000005,373.76537370000005,373.76537370000005,373.76537370000005,373.76537370000005,373.76537370000005,373.76537370000005,375.0301586000005,375.0301586000005,375.0301586000005,375.0301586000005,375.0301586000005,375.0301586000005,375.0301586000005,43,55,79,36,79,60,375.0301586000005,376.83136360000026,,,,,,,,,,,,３０９,f,２４,2023-05-18_14h55.23.622,RL,2022.2.5,59.9944445144779,
53,57,72,42,0,63,63,63,,,,,,,,,,,None,376.83136360000026,376.83136360000026,376.83136360000026,376.83136360000026,376.83136360000026,376.83136360000026,i,0.3197622000006959,377.18543280000085,377.18543280000085,377.18543280000085,377.18543280000085,377.18543280000085,377.18543280000085,377.4646862999998,379.4477654000002,379.4810237999991,379.4810237999991,379.4810237999991,379.4810237999991,379.4810237999991,379.4810237999991,379.4810237999991,379.4810237999991,379.4810237999991,379.4810237999991,379.4810237999991,379.4810237999991,379.4810237999991,381.76198719999957,381.76198719999957,381.76198719999957,381.76198719999957,381.76198719999957,381.76198719999957,381.76198719999957,53,57,72,42,72,60,381.76198719999957,383.69669760000033,,,,,,,,,,,,３０９,f,２４,2023-05-18_14h55.23.622,RL,2022.2.5,59.9944445144779,
43,45,70,31,0,64,64,64,,,,,,,,,,,None,383.69669760000033,383.69669760000033,383.69669760000033,383.69669760000033,383.69669760000033,383.69669760000033,i,0.2796256000001449,383.9973348000003,383.9973348000003,383.9973348000003,383.9973348000003,383.9973348000003,383.9973348000003,384.28008039999986,385.5133915999995,385.5299976999995,385.5299976999995,385.5299976999995,385.5299976999995,385.5299976999995,385.5299976999995,385.5299976999995,385.5299976999995,385.5299976999995,385.5299976999995,385.5299976999995,385.5299976999995,385.5299976999995,387.06160590000036,387.06160590000036,387.06160590000036,387.06160590000036,387.06160590000036,387.06160590000036,387.06160590000036,43,45,70,31,70,60,387.06160590000036,389.04593229999955,,,,,,,,,,,,３０９,f,２４,2023-05-18_14h55.23.622,RL,2022.2.5,59.9944445144779,
49,38,70,34,0,65,65,65,,,,,,,,,,,None,389.04593229999955,389.04593229999955,389.04593229999955,389.04593229999955,389.04593229999955,389.04593229999955,i,0.27332659999956377,389.34699010000077,389.34699010000077,389.34699010000077,389.34699010000077,389.34699010000077,389.34699010000077,389.6294668999999,391.2627185000001,391.27929480000057,391.27929480000057,391.27929480000057,391.27929480000057,391.27929480000057,391.27929480000057,391.27929480000057,391.27929480000057,391.27929480000057,391.27929480000057,391.27929480000057,391.27929480000057,391.27929480000057,393.2104918999994,393.2104918999994,393.2104918999994,393.2104918999994,393.2104918999994,393.2104918999994,393.2104918999994,49,38,70,34,70,60,393.2104918999994,395.2114849999998,,,,,,,,,,,,３０９,f,２４,2023-05-18_14h55.23.622,RL,2022.2.5,59.9944445144779,
41,45,59,28,0,66,66,66,,,,,,,,,,,None,395.2114849999998,395.2114849999998,395.2114849999998,395.2114849999998,395.2114849999998,395.2114849999998,i,0.3272818000004918,395.5649319999993,395.5649319999993,395.5649319999993,395.5649319999993,395.5649319999993,395.5649319999993,395.8447147000006,397.0949803000003,397.11116330000004,397.11116330000004,397.11116330000004,397.11116330000004,397.11116330000004,397.11116330000004,397.11116330000004,397.11116330000004,397.11116330000004,397.11116330000004,397.11116330000004,397.11116330000004,397.11116330000004,398.65969829999995,398.65969829999995,398.65969829999995,398.65969829999995,398.65969829999995,398.65969829999995,398.65969829999995,41,45,59,28,59,60,398.65969829999995,400.3934817999998,,,,,,,,,,,,３０９,f,２４,2023-05-18_14h55.23.622,RL,2022.2.5,59.9944445144779,
50,48,66,30,0,67,67,67,,,,,,,,,,,None,400.3934817999998,400.3934817999998,400.3934817999998,400.3934817999998,400.3934817999998,400.3934817999998,i,0.29453509999984817,400.7127065000004,400.7127065000004,400.7127065000004,400.7127065000004,400.7127065000004,400.7127065000004,400.9940824000005,402.2438168000008,402.2604895000004,402.2604895000004,402.2604895000004,402.2604895000004,402.2604895000004,402.2604895000004,402.2604895000004,402.2604895000004,402.2604895000004,402.2604895000004,402.2604895000004,402.2604895000004,402.2604895000004,403.8087070999991,403.8087070999991,403.8087070999991,403.8087070999991,403.8087070999991,403.8087070999991,403.8087070999991,50,48,66,30,66,60,403.8087070999991,405.47645249999914,,,,,,,,,,,,３０９,f,２４,2023-05-18_14h55.23.622,RL,2022.2.5,59.9944445144779,
43,43,66,27,0,68,68,68,,,,,,,,,,,None,405.47645249999914,405.47645249999914,405.47645249999914,405.47645249999914,405.47645249999914,405.47645249999914,i,0.2686162999998487,405.7766709000007,405.7766709000007,405.7766709000007,405.7766709000007,405.7766709000007,405.7766709000007,406.0597077000002,407.52659309999945,407.5428391000005,407.5428391000005,407.5428391000005,407.5428391000005,407.5428391000005,407.5428391000005,407.5428391000005,407.5428391000005,407.5428391000005,407.5428391000005,407.5428391000005,407.5428391000005,407.5428391000005,409.30755490000047,409.30755490000047,409.30755490000047,409.30755490000047,409.30755490000047,409.30755490000047,409.30755490000047,43,43,66,27,66,60,409.30755490000047,411.12528869999915,,,,,,,,,,,,３０９,f,２４,2023-05-18_14h55.23.622,RL,2022.2.5,59.9944445144779,
45,45,67,22,0,69,69,69,,,,,,,,,,,None,411.12528869999915,411.12528869999915,411.12528869999915,411.12528869999915,411.12528869999915,411.12528869999915,i,0.2494535999994696,411.39247910000086,411.39247910000086,411.39247910000086,411.39247910000086,411.39247910000086,411.39247910000086,411.6754930999996,413.2421142000003,413.25880309999957,413.25880309999957,413.25880309999957,413.25880309999957,413.25880309999957,413.25880309999957,413.25880309999957,413.25880309999957,413.25880309999957,413.25880309999957,413.25880309999957,413.25880309999957,413.25880309999957,415.1231413000005,415.1231413000005,415.1231413000005,415.1231413000005,415.1231413000005,415.1231413000005,415.1231413000005,45,45,67,22,67,60,415.1231413000005,416.85741769999913,,,,,,,,,,,,３０９,f,２４,2023-05-18_14h55.23.622,RL,2022.2.5,59.9944445144779,
44,46,66,24,0,70,70,70,,,,,,,,,,,None,416.85741769999913,416.85741769999913,416.85741769999913,416.85741769999913,416.85741769999913,416.85741769999913,j,0.43282710000130464,417.3096131000002,417.3096131000002,417.3096131000002,417.3096131000002,417.3096131000002,417.3096131000002,417.60749229999965,419.1077440000008,419.1077440000008,419.1077440000008,419.1077440000008,419.1077440000008,419.1077440000008,419.1077440000008,419.1077440000008,419.1077440000008,419.1077440000008,419.1077440000008,419.1077440000008,419.1077440000008,419.1077440000008,420.9054670000005,420.9054670000005,420.9054670000005,420.9054670000005,420.9054670000005,420.9054670000005,420.9054670000005,44,46,66,24,24,60,420.9054670000005,422.9065977999999,,,,,,,,,,,,３０９,f,２４,2023-05-18_14h55.23.622,RL,2022.2.5,59.9944445144779,
41,55,63,20,0,71,71,71,,,,,,,,,,,None,422.9065977999999,422.9065977999999,422.9065977999999,422.9065977999999,422.9065977999999,422.9065977999999,r,0.26440999999977066,423.1915102999992,423.1915102999992,423.1915102999992,423.1915102999992,423.1915102999992,423.1915102999992,423.47372859999996,425.32316510000055,425.3394898000006,425.3394898000006,425.3394898000006,425.3394898000006,425.3394898000006,425.3394898000006,425.3394898000006,425.3394898000006,425.3394898000006,425.3394898000006,425.3394898000006,425.3394898000006,425.3394898000006,427.48810500000036,427.48810500000036,427.48810500000036,427.48810500000036,427.48810500000036,427.48810500000036,427.48810500000036,41,55,63,20,55,60,427.48810500000036,429.10528820000036,,,,,,,,,,,,３０９,f,２４,2023-05-18_14h55.23.622,RL,2022.2.5,59.9944445144779,
43,48,68,28,0,72,72,72,,,,,,,,,,,None,429.10528820000036,429.10528820000036,429.10528820000036,429.10528820000036,429.10528820000036,429.10528820000036,f,0.2789045999998052,429.4089005000005,429.4089005000005,429.4089005000005,429.4089005000005,429.4089005000005,429.4089005000005,429.6893333000007,430.6555186000005,430.67210329999943,430.67210329999943,430.67210329999943,430.67210329999943,430.67210329999943,430.67210329999943,430.67210329999943,430.67210329999943,430.67210329999943,430.67210329999943,430.67210329999943,430.67210329999943,430.67210329999943,431.93695339999977,431.93695339999977,431.93695339999977,431.93695339999977,431.93695339999977,431.93695339999977,431.93695339999977,43,48,68,28,43,60,431.93695339999977,433.7210735999997,,,,,,,,,,,,３０９,f,２４,2023-05-18_14h55.23.622,RL,2022.2.5,59.9944445144779,
49,50,66,23,0,73,73,73,,,,,,,,,,,None,433.7210735999997,433.7210735999997,433.7210735999997,433.7210735999997,433.7210735999997,433.7210735999997,i,0.2775854999999865,434.02283700000044,434.02283700000044,434.02283700000044,434.02283700000044,434.02283700000044,434.02283700000044,434.30492050000066,435.43804439999985,435.45464060000086,435.45464060000086,435.45464060000086,435.45464060000086,435.45464060000086,435.45464060000086,435.45464060000086,435.45464060000086,435.45464060000086,435.45464060000086,435.45464060000086,435.45464060000086,435.45464060000086,436.8863093,436.8863093,436.8863093,436.8863093,436.8863093,436.8863093,436.8863093,49,50,66,23,66,60,436.8863093,438.7037746999995,,,,,,,,,,,,３０９,f,２４,2023-05-18_14h55.23.622,RL,2022.2.5,59.9944445144779,
42,57,62,21,0,74,74,74,,,,,,,,,,,None,438.7037746999995,438.7037746999995,438.7037746999995,438.7037746999995,438.7037746999995,438.7037746999995,i,0.2755390999991505,439.0042104999993,439.0042104999993,439.0042104999993,439.0042104999993,439.0042104999993,439.0042104999993,439.2873772999992,440.33754600000066,440.3537766999998,440.3537766999998,440.3537766999998,440.3537766999998,440.3537766999998,440.3537766999998,440.3537766999998,440.3537766999998,440.3537766999998,440.3537766999998,440.3537766999998,440.3537766999998,440.3537766999998,441.7017102000009,441.7017102000009,441.7017102000009,441.7017102000009,441.7017102000009,441.7017102000009,441.7017102000009,42,57,62,21,62,60,441.7017102000009,443.2525394000004,,,,,,,,,,,,３０９,f,２４,2023-05-18_14h55.23.622,RL,2022.2.5,59.9944445144779,
40,43,65,24,0,75,75,75,,,,,,,,,,,q,469.8147673000003,469.8147673000003,469.8147673000003,469.8147673000003,469.8147673000003,469.8147673000003,j,0.7488360999996075,470.5820327000001,470.5820327000001,470.5820327000001,470.5820327000001,470.5820327000001,470.5820327000001,470.86526349999986,471.98204649999934,471.99819000000025,471.99819000000025,471.99819000000025,471.99819000000025,471.99819000000025,471.99819000000025,471.99819000000025,471.99819000000025,471.99819000000025,471.99819000000025,471.99819000000025,471.99819000000025,471.99819000000025,473.4126947999994,473.4126947999994,473.4126947999994,473.4126947999994,473.4126947999994,473.4126947999994,473.4126947999994,40,43,65,24,24,60,473.4126947999994,475.09743440000057,443.2525394000004,443.2525394000004,21.51289849999921,464.8008547999998,464.8008547999998,469.8147673000003,469.8147673000003,,,,,３０９,f,２４,2023-05-18_14h55.23.622,RL,2022.2.5,59.9944445144779,
46,43,62,13,0,76,76,76,,,,,,,,,,,None,475.09743440000057,475.09743440000057,475.09743440000057,475.09743440000057,475.09743440000057,475.09743440000057,i,0.29595639999934065,475.4180257000007,475.4180257000007,475.4180257000007,475.4180257000007,475.4180257000007,475.4180257000007,475.71441779999986,476.81448099999943,476.8310323000005,476.8310323000005,476.8310323000005,476.8310323000005,476.8310323000005,476.8310323000005,476.8310323000005,476.8310323000005,476.8310323000005,476.8310323000005,476.8310323000005,476.8310323000005,476.8310323000005,478.22870519999924,478.22870519999924,478.22870519999924,478.22870519999924,478.22870519999924,478.22870519999924,478.22870519999924,46,43,62,13,62,60,478.22870519999924,480.0300458999991,,,,,,,,,,,,３０９,f,２４,2023-05-18_14h55.23.622,RL,2022.2.5,59.9944445144779,
40,56,55,14,0,77,77,77,,,,,,,,,,,None,480.0300458999991,480.0300458999991,480.0300458999991,480.0300458999991,480.0300458999991,480.0300458999991,f,0.23622400000022026,480.29842570000073,480.29842570000073,480.29842570000073,480.29842570000073,480.29842570000073,480.29842570000073,480.5800502000002,482.1135613000006,482.13027820000025,482.13027820000025,482.13027820000025,482.13027820000025,482.13027820000025,482.13027820000025,482.13027820000025,482.13027820000025,482.13027820000025,482.13027820000025,482.13027820000025,482.13027820000025,482.13027820000025,483.9616217999992,483.9616217999992,483.9616217999992,483.9616217999992,483.9616217999992,483.9616217999992,483.9616217999992,40,56,55,14,40,60,483.9616217999992,485.76233030000003,,,,,,,,,,,,３０９,f,２４,2023-05-18_14h55.23.622,RL,2022.2.5,59.9944445144779,
40,51,55,15,0,78,78,78,,,,,,,,,,,None,485.76233030000003,485.76233030000003,485.76233030000003,485.76233030000003,485.76233030000003,485.76233030000003,r,0.26104080000004615,486.0459993000004,486.0459993000004,486.0459993000004,486.0459993000004,486.0459993000004,486.0459993000004,486.34586750000017,487.71217160000015,487.71217160000015,487.71217160000015,487.71217160000015,487.71217160000015,487.71217160000015,487.71217160000015,487.71217160000015,487.71217160000015,487.71217160000015,487.71217160000015,487.71217160000015,487.71217160000015,487.71217160000015,489.3773084000004,489.3773084000004,489.3773084000004,489.3773084000004,489.3773084000004,489.3773084000004,489.3773084000004,40,51,55,15,51,60,489.3773084000004,491.37788770000043,,,,,,,,,,,,３０９,f,２４,2023-05-18_14h55.23.622,RL,2022.2.5,59.9944445144779,
42,48,64,19,0,79,79,79,,,,,,,,,,,None,491.37788770000043,491.37788770000043,491.37788770000043,491.37788770000043,491.37788770000043,491.37788770000043,i,0.24832559999958903,491.64532510000026,491.64532510000026,491.64532510000026,491.64532510000026,491.64532510000026,491.64532510000026,491.9286329000006,492.9946908999991,493.0113775000009,493.0113775000009,493.0113775000009,493.0113775000009,493.0113775000009,493.0113775000009,493.0113775000009,493.0113775000009,493.0113775000009,493.0113775000009,493.0113775000009,493.0113775000009,493.0113775000009,494.37598360000084,494.37598360000084,494.37598360000084,494.37598360000084,494.37598360000084,494.37598360000084,494.37598360000084,42,48,64,19,64,60,494.37598360000084,496.31030869999995,,,,,,,,,,,,３０９,f,２４,2023-05-18_14h55.23.622,RL,2022.2.5,59.9944445144779,
30,57,52,19,0,80,80,80,,,,,,,,,,,None,496.31030869999995,496.31030869999995,496.31030869999995,496.31030869999995,496.31030869999995,496.31030869999995,i,0.27243000000089523,496.61088720000043,496.61088720000043,496.61088720000043,496.61088720000043,496.61088720000043,496.61088720000043,496.8942415999991,497.8608299999996,497.8775740000001,497.8775740000001,497.8775740000001,497.8775740000001,497.8775740000001,497.8775740000001,497.8775740000001,497.8775740000001,497.8775740000001,497.8775740000001,497.8775740000001,497.8775740000001,497.8775740000001,499.1420214000009,499.1420214000009,499.1420214000009,499.1420214000009,499.1420214000009,499.1420214000009,499.1420214000009,30,57,52,19,52,60,499.1420214000009,500.7095590000008,,,,,,,,,,,,３０９,f,２４,2023-05-18_14h55.23.622,RL,2022.2.5,59.9944445144779,
41,66,57,18,0,81,81,81,,,,,,,,,,,None,500.7095590000008,500.7095590000008,500.7095590000008,500.7095590000008,500.7095590000008,500.7095590000008,i,0.2582479000011517,500.9984855999992,500.9984855999992,500.9984855999992,500.9984855999992,500.9984855999992,500.9984855999992,501.2930966999993,502.6433364000004,502.65964279999935,502.65964279999935,502.65964279999935,502.65964279999935,502.65964279999935,502.65964279999935,502.65964279999935,502.65964279999935,502.65964279999935,502.65964279999935,502.65964279999935,502.65964279999935,502.65964279999935,504.3078915999995,504.3078915999995,504.3078915999995,504.3078915999995,504.3078915999995,504.3078915999995,504.3078915999995,41,66,57,18,57,60,504.3078915999995,506.1255595999992,,,,,,,,,,,,３０９,f,２４,2023-05-18_14h55.23.622,RL,2022.2.5,59.9944445144779,
33,66,61,16,0,82,82,82,,,,,,,,,,,None,506.1255595999992,506.1255595999992,506.1255595999992,506.1255595999992,506.1255595999992,506.1255595999992,i,0.26200969999990775,506.4108004000009,506.4108004000009,506.4108004000009,506.4108004000009,506.4108004000009,506.4108004000009,506.69265129999985,508.3925221999998,508.4089456999991,508.4089456999991,508.4089456999991,508.4089456999991,508.4089456999991,508.4089456999991,508.4089456999991,508.4089456999991,508.4089456999991,508.4089456999991,508.4089456999991,508.4089456999991,508.4089456999991,510.4068471999999,510.4068471999999,510.4068471999999,510.4068471999999,510.4068471999999,510.4068471999999,510.4068471999999,33,66,61,16,61,60,510.4068471999999,512.0409729000003,,,,,,,,,,,,３０９,f,２４,2023-05-18_14h55.23.622,RL,2022.2.5,59.9944445144779,
32,60,60,29,0,83,83,83,,,,,,,,,,,None,512.0409729000003,512.0409729000003,512.0409729000003,512.0409729000003,512.0409729000003,512.0409729000003,i,0.26854650000132096,512.3476312999992,512.3476312999992,512.3476312999992,512.3476312999992,512.3476312999992,512.3476312999992,512.6415618999999,514.3913465000005,514.3913465000005,514.3913465000005,514.3913465000005,514.3913465000005,514.3913465000005,514.3913465000005,514.3913465000005,514.3913465000005,514.3913465000005,514.3913465000005,514.3913465000005,514.3913465000005,514.3913465000005,516.4391956,516.4391956,516.4391956,516.4391956,516.4391956,516.4391956,516.4391956,32,60,60,29,60,60,516.4391956,518.0400040999994,,,,,,,,,,,,３０９,f,２４,2023-05-18_14h55.23.622,RL,2022.2.5,59.9944445144779,
31,67,48,32,0,84,84,84,,,,,,,,,,,None,518.0400040999994,518.0400040999994,518.0400040999994,518.0400040999994,518.0400040999994,518.0400040999994,i,0.23930119999931776,518.3141765,518.3141765,518.3141765,518.3141765,518.3141765,518.3141765,518.6069568999992,520.0430352999992,520.0430352999992,520.0430352999992,520.0430352999992,520.0430352999992,520.0430352999992,520.0430352999992,520.0430352999992,520.0430352999992,520.0430352999992,520.0430352999992,520.0430352999992,520.0430352999992,520.0430352999992,521.7716937000005,521.7716937000005,521.7716937000005,521.7716937000005,521.7716937000005,521.7716937000005,521.7716937000005,31,67,48,32,48,60,521.7716937000005,523.2892656000004,,,,,,,,,,,,３０９,f,２４,2023-05-18_14h55.23.622,RL,2022.2.5,59.9944445144779,
33,57,58,24,0,85,85,85,,,,,,,,,,,None,523.2892656000004,523.2892656000004,523.2892656000004,523.2892656000004,523.2892656000004,523.2892656000004,i,0.3786605999994208,523.6895702000002,523.6895702000002,523.6895702000002,523.6895702000002,523.6895702000002,523.6895702000002,523.9725825999994,524.9891272999994,525.0055644999993,525.0055644999993,525.0055644999993,525.0055644999993,525.0055644999993,525.0055644999993,525.0055644999993,525.0055644999993,525.0055644999993,525.0055644999993,525.0055644999993,525.0055644999993,525.0055644999993,526.3204423999996,526.3204423999996,526.3204423999996,526.3204423999996,526.3204423999996,526.3204423999996,526.3204423999996,33,57,58,24,58,60,526.3204423999996,528.0381115,,,,,,,,,,,,３０９,f,２４,2023-05-18_14h55.23.622,RL,2022.2.5,59.9944445144779,
32,61,55,21,0,86,86,86,,,,,,,,,,,None,528.0381115,528.0381115,528.0381115,528.0381115,528.0381115,528.0381115,r,0.29817240000011225,528.3555687999997,528.3555687999997,528.3555687999997,528.3555687999997,528.3555687999997,528.3555687999997,528.6388267999992,530.4886568000002,530.5051989000003,530.5051989000003,530.5051989000003,530.5051989000003,530.5051989000003,530.5051989000003,530.5051989000003,530.5051989000003,530.5051989000003,530.5051989000003,530.5051989000003,530.5051989000003,530.5051989000003,532.6528543000004,532.6528543000004,532.6528543000004,532.6528543000004,532.6528543000004,532.6528543000004,532.6528543000004,32,61,55,21,61,60,532.6528543000004,534.4540448999996,,,,,,,,,,,,３０９,f,２４,2023-05-18_14h55.23.622,RL,2022.2.5,59.9944445144779,
35,60,55,29,0,87,87,87,,,,,,,,,,,None,534.4540448999996,534.4540448999996,534.4540448999996,534.4540448999996,534.4540448999996,534.4540448999996,r,0.24602069999855303,534.7221847000001,534.7221847000001,534.7221847000001,534.7221847000001,534.7221847000001,534.7221847000001,535.0210523000005,536.8369435999994,536.8369435999994,536.8369435999994,536.8369435999994,536.8369435999994,536.8369435999994,536.8369435999994,536.8369435999994,536.8369435999994,536.8369435999994,536.8369435999994,536.8369435999994,536.8369435999994,536.8369435999994,538.9516709,538.9516709,538.9516709,538.9516709,538.9516709,538.9516709,538.9516709,35,60,55,29,60,60,538.9516709,540.6030695999998,,,,,,,,,,,,３０９,f,２４,2023-05-18_14h55.23.622,RL,2022.2.5,59.9944445144779,
35,62,57,30,0,88,88,88,,,,,,,,,,,None,540.6030695999998,540.6030695999998,540.6030695999998,540.6030695999998,540.6030695999998,540.6030695999998,r,0.36404030000085186,540.9881747,540.9881747,540.9881747,540.9881747,540.9881747,540.9881747,541.2701092999996,542.1697769000002,542.1862531999996,542.1862531999996,542.1862531999996,542.1862531999996,542.1862531999996,542.1862531999996,542.1862531999996,542.1862531999996,542.1862531999996,542.1862531999996,542.1862531999996,542.1862531999996,542.1862531999996,543.3840438000007,543.3840438000007,543.3840438000007,543.3840438000007,543.3840438000007,543.3840438000007,543.3840438000007,35,62,57,30,62,60,543.3840438000007,544.9851701000007,,,,,,,,,,,,３０９,f,２４,2023-05-18_14h55.23.622,RL,2022.2.5,59.9944445144779,
39,50,52,32,0,89,89,89,,,,,,,,,,,None,544.9851701000007,544.9851701000007,544.9851701000007,544.9851701000007,544.9851701000007,544.9851701000007,r,0.42738269999972545,545.4358076999997,545.4358076999997,545.4358076999997,545.4358076999997,545.4358076999997,545.4358076999997,545.7193944999999,546.9353150999996,546.9521218999998,546.9521218999998,546.9521218999998,546.9521218999998,546.9521218999998,546.9521218999998,546.9521218999998,546.9521218999998,546.9521218999998,546.9521218999998,546.9521218999998,546.9521218999998,546.9521218999998,548.4668464000006,548.4668464000006,548.4668464000006,548.4668464000006,548.4668464000006,548.4668464000006,548.4668464000006,39,50,52,32,50,60,548.4668464000006,550.2177910999999,,,,,,,,,,,,３０９,f,２４,2023-05-18_14h55.23.622,RL,2022.2.5,59.9944445144779,
38,55,50,27,0,90,90,90,,,,,,,,,,,None,550.2177910999999,550.2177910999999,550.2177910999999,550.2177910999999,550.2177910999999,550.2177910999999,f,0.22964449999926728,550.4689125999994,550.4689125999994,550.4689125999994,550.4689125999994,550.4689125999994,550.4689125999994,550.7515050999991,552.3513545999995,552.3676632999995,552.3676632999995,552.3676632999995,552.3676632999995,552.3676632999995,552.3676632999995,552.3676632999995,552.3676632999995,552.3676632999995,552.3676632999995,552.3676632999995,552.3676632999995,552.3676632999995,554.2656915999996,554.2656915999996,554.2656915999996,554.2656915999996,554.2656915999996,554.2656915999996,554.2656915999996,38,55,50,27,38,60,554.2656915999996,555.8334871999996,,,,,,,,,,,,３０９,f,２４,2023-05-18_14h55.23.622,RL,2022.2.5,59.9944445144779,
43,53,49,28,0,91,91,91,,,,,,,,,,,None,555.8334871999996,555.8334871999996,555.8334871999996,555.8334871999996,555.8334871999996,555.8334871999996,r,0.20689780000066094,556.0687127000001,556.0687127000001,556.0687127000001,556.0687127000001,556.0687127000001,556.0687127000001,556.3668909000007,557.4167481999993,557.4167481999993,557.4167481999993,557.4167481999993,557.4167481999993,557.4167481999993,557.4167481999993,557.4167481999993,557.4167481999993,557.4167481999993,557.4167481999993,557.4167481999993,557.4167481999993,557.4167481999993,558.7649812,558.7649812,558.7649812,558.7649812,558.7649812,558.7649812,558.7649812,43,53,49,28,53,60,558.7649812,560.7325562000005,,,,,,,,,,,,３０９,f,２４,2023-05-18_14h55.23.622,RL,2022.2.5,59.9944445144779,
44,50,40,20,0,92,92,92,,,,,,,,,,,None,560.7325562000005,560.7325562000005,560.7325562000005,560.7325562000005,560.7325562000005,560.7325562000005,j,0.4198901999989175,561.1857507000004,561.1857507000004,561.1857507000004,561.1857507000004,561.1857507000004,561.1857507000004,561.4665320999993,563.0828314999999,563.1165039000007,563.1165039000007,563.1165039000007,563.1165039000007,563.1165039000007,563.1165039000007,563.1165039000007,563.1165039000007,563.1165039000007,563.1165039000007,563.1165039000007,563.1165039000007,563.1165039000007,565.0306710999994,565.0306710999994,565.0306710999994,565.0306710999994,565.0306710999994,565.0306710999994,565.0306710999994,44,50,40,20,20,60,565.0306710999994,566.6317313,,,,,,,,,,,,３０９,f,２４,2023-05-18_14h55.23.622,RL,2022.2.5,59.9944445144779,
44,44,49,29,0,93,93,93,,,,,,,,,,,None,566.6317313,566.6317313,566.6317313,566.6317313,566.6317313,566.6317313,i,0.2577446000013879,566.9153915999996,566.9153915999996,566.9153915999996,566.9153915999996,566.9153915999996,566.9153915999996,567.1988325000002,568.3984220000002,568.4148612000008,568.4148612000008,568.4148612000008,568.4148612000008,568.4148612000008,568.4148612000008,568.4148612000008,568.4148612000008,568.4148612000008,568.4148612000008,568.4148612000008,568.4148612000008,568.4148612000008,569.9130370000003,569.9130370000003,569.9130370000003,569.9130370000003,569.9130370000003,569.9130370000003,569.9130370000003,44,44,49,29,49,60,569.9130370000003,571.4645158999992,,,,,,,,,,,,３０９,f,２４,2023-05-18_14h55.23.622,RL,2022.2.5,59.9944445144779,
51,48,56,33,0,94,94,94,,,,,,,,,,,None,571.4645158999992,571.4645158999992,571.4645158999992,571.4645158999992,571.4645158999992,571.4645158999992,r,0.7958263000000443,572.2822477000009,572.2822477000009,572.2822477000009,572.2822477000009,572.2822477000009,572.2822477000009,572.5813013000006,574.5308151999998,574.5308151999998,574.5308151999998,574.5308151999998,574.5308151999998,574.5308151999998,574.5308151999998,574.5308151999998,574.5308151999998,574.5308151999998,574.5308151999998,574.5308151999998,574.5308151999998,574.5308151999998,576.7781954999991,576.7781954999991,576.7781954999991,576.7781954999991,576.7781954999991,576.7781954999991,576.7781954999991,51,48,56,33,48,60,576.7781954999991,578.4465428000003,,,,,,,,,,,,３０９,f,２４,2023-05-18_14h55.23.622,RL,2022.2.5,59.9944445144779,
51,49,52,28,0,95,95,95,,,,,,,,,,,None,578.4465428000003,578.4465428000003,578.4465428000003,578.4465428000003,578.4465428000003,578.4465428000003,i,0.2136938999992708,578.6828346999991,578.6828346999991,578.6828346999991,578.6828346999991,578.6828346999991,578.6828346999991,578.9631702999995,579.7795882999999,579.8128276999996,579.8128276999996,579.8128276999996,579.8128276999996,579.8128276999996,579.8128276999996,579.8128276999996,579.8128276999996,579.8128276999996,579.8128276999996,579.8128276999996,579.8128276999996,579.8128276999996,580.9276375000009,580.9276375000009,580.9276375000009,580.9276375000009,580.9276375000009,580.9276375000009,580.9276375000009,51,49,52,28,52,60,580.9276375000009,582.7285357000001,,,,,,,,,,,,３０９,f,２４,2023-05-18_14h55.23.622,RL,2022.2.5,59.9944445144779,
49,49,52,35,0,96,96,96,,,,,,,,,,,None,582.7285357000001,582.7285357000001,582.7285357000001,582.7285357000001,582.7285357000001,582.7285357000001,r,0.26095189999978174,583.0125573000005,583.0125573000005,583.0125573000005,583.0125573000005,583.0125573000005,583.0125573000005,583.3121733999997,584.6617987000009,584.6617987000009,584.6617987000009,584.6617987000009,584.6617987000009,584.6617987000009,584.6617987000009,584.6617987000009,584.6617987000009,584.6617987000009,584.6617987000009,584.6617987000009,584.6617987000009,584.6617987000009,586.3101535999995,586.3101535999995,586.3101535999995,586.3101535999995,586.3101535999995,586.3101535999995,586.3101535999995,49,49,52,35,49,60,586.3101535999995,588.1443505000007,,,,,,,,,,,,３０９,f,２４,2023-05-18_14h55.23.622,RL,2022.2.5,59.9944445144779,
48,50,44,40,0,97,97,97,,,,,,,,,,,None,588.1443505000007,588.1443505000007,588.1443505000007,588.1443505000007,588.1443505000007,588.1443505000007,i,0.2550183000003017,588.4284494999993,588.4284494999993,588.4284494999993,588.4284494999993,588.4284494999993,588.4284494999993,588.7116064000002,590.0278216000006,590.0445025999998,590.0445025999998,590.0445025999998,590.0445025999998,590.0445025999998,590.0445025999998,590.0445025999998,590.0445025999998,590.0445025999998,590.0445025999998,590.0445025999998,590.0445025999998,590.0445025999998,591.6594605999999,591.6594605999999,591.6594605999999,591.6594605999999,591.6594605999999,591.6594605999999,591.6594605999999,48,50,44,40,44,60,591.6594605999999,593.3267875999991,,,,,,,,,,,,３０９,f,２４,2023-05-18_14h55.23.622,RL,2022.2.5,59.9944445144779,
45,45,47,34,0,98,98,98,,,,,,,,,,,None,593.3267875999991,593.3267875999991,593.3267875999991,593.3267875999991,593.3267875999991,593.3267875999991,i,0.2483924999996816,593.5941258999992,593.5941258999992,593.5941258999992,593.5941258999992,593.5941258999992,593.5941258999992,593.8773827000005,595.7103996999995,595.7269613999997,595.7269613999997,595.7269613999997,595.7269613999997,595.7269613999997,595.7269613999997,595.7269613999997,595.7269613999997,595.7269613999997,595.7269613999997,595.7269613999997,595.7269613999997,595.7269613999997,597.8580421000006,597.8580421000006,597.8580421000006,597.8580421000006,597.8580421000006,597.8580421000006,597.8580421000006,45,45,47,34,47,60,597.8580421000006,599.3758878999997,,,,,,,,,,,,３０９,f,２４,2023-05-18_14h55.23.622,RL,2022.2.5,59.9944445144779,
47,46,49,38,0,99,99,99,,,,,,,,,,,None,599.3758878999997,599.3758878999997,599.3758878999997,599.3758878999997,599.3758878999997,599.3758878999997,r,0.046972899999673245,599.4430690999998,599.4430690999998,599.4430690999998,599.4430690999998,599.4430690999998,599.4430690999998,599.7261703999993,601.2263115000005,601.2425937999997,601.2425937999997,601.2425937999997,601.2425937999997,601.2425937999997,601.2425937999997,601.2425937999997,601.2425937999997,601.2425937999997,601.2425937999997,601.2425937999997,601.2425937999997,601.2425937999997,603.0405645999999,603.0405645999999,603.0405645999999,603.0405645999999,603.0405645999999,603.0405645999999,603.0405645999999,47,46,49,38,46,60,603.0405645999999,604.8749294999998,,,,,,,,,,,,３０９,f,２４,2023-05-18_14h55.23.622,RL,2022.2.5,59.9944445144779,
47,43,44,26,0,100,100,100,,,,,,,,,,,None,604.8749294999998,604.8749294999998,604.8749294999998,604.8749294999998,604.8749294999998,604.8749294999998,f,0.25529830000050424,605.1607480999992,605.1607480999992,605.1607480999992,605.1607480999992,605.1607480999992,605.1607480999992,605.4422159999995,606.4585181999992,606.4748452999993,606.4748452999993,606.4748452999993,606.4748452999993,606.4748452999993,606.4748452999993,606.4748452999993,606.4748452999993,606.4748452999993,606.4748452999993,606.4748452999993,606.4748452999993,606.4748452999993,607.7895391999991,607.7895391999991,607.7895391999991,607.7895391999991,607.7895391999991,607.7895391999991,607.7895391999991,47,43,44,26,47,60,607.7895391999991,609.6574947000008,,,,,,,,,,,,３０９,f,２４,2023-05-18_14h55.23.622,RL,2022.2.5,59.9944445144779,
44,49,36,29,0,101,101,101,,,,,,,,,,,None,609.6574947000008,609.6574947000008,609.6574947000008,609.6574947000008,609.6574947000008,609.6574947000008,j,0.3146123999995325,609.9913847999997,609.9913847999997,609.9913847999997,609.9913847999997,609.9913847999997,609.9913847999997,610.2749162,611.1913755000005,611.2078189000003,611.2078189000003,611.2078189000003,611.2078189000003,611.2078189000003,611.2078189000003,611.2078189000003,611.2078189000003,611.2078189000003,611.2078189000003,611.2078189000003,611.2078189000003,611.2078189000003,612.4224360000007,612.4224360000007,612.4224360000007,612.4224360000007,612.4224360000007,612.4224360000007,612.4224360000007,44,49,36,29,29,60,612.4224360000007,614.0567585999997,,,,,,,,,,,,３０９,f,２４,2023-05-18_14h55.23.622,RL,2022.2.5,59.9944445144779,
50,49,38,32,0,102,102,102,,,,,,,,,,,None,614.0567585999997,614.0567585999997,614.0567585999997,614.0567585999997,614.0567585999997,614.0567585999997,i,0.26767169999948237,614.3403495000002,614.3403495000002,614.3403495000002,614.3403495000002,614.3403495000002,614.3403495000002,614.6403862000006,615.6901742999999,615.6901742999999,615.6901742999999,615.6901742999999,615.6901742999999,615.6901742999999,615.6901742999999,615.6901742999999,615.6901742999999,615.6901742999999,615.6901742999999,615.6901742999999,615.6901742999999,615.6901742999999,617.0383242000007,617.0383242000007,617.0383242000007,617.0383242000007,617.0383242000007,617.0383242000007,617.0383242000007,50,49,38,32,38,60,617.0383242000007,618.7557720000004,,,,,,,,,,,,３０９,f,２４,2023-05-18_14h55.23.622,RL,2022.2.5,59.9944445144779,
54,58,38,28,0,103,103,103,,,,,,,,,,,None,618.7557720000004,618.7557720000004,618.7557720000004,618.7557720000004,618.7557720000004,618.7557720000004,r,0.25924010000017006,619.0396689999998,619.0396689999998,619.0396689999998,619.0396689999998,619.0396689999998,619.0396689999998,619.3232585000005,620.8724468,620.8891038000002,620.8891038000002,620.8891038000002,620.8891038000002,620.8891038000002,620.8891038000002,620.8891038000002,620.8891038000002,620.8891038000002,620.8891038000002,620.8891038000002,620.8891038000002,620.8891038000002,622.7374627000008,622.7374627000008,622.7374627000008,622.7374627000008,622.7374627000008,622.7374627000008,622.7374627000008,54,58,38,28,58,60,622.7374627000008,624.3550909000005,,,,,,,,,,,,３０９,f,２４,2023-05-18_14h55.23.622,RL,2022.2.5,59.9944445144779,
52,48,32,42,0,104,104,104,,,,,,,,,,,None,624.3550909000005,624.3550909000005,624.3550909000005,624.3550909000005,624.3550909000005,624.3550909000005,r,0.263273599999593,624.6401067999996,624.6401067999996,624.6401067999996,624.6401067999996,624.6401067999996,624.6401067999996,624.9385629999997,626.5545739000008,626.5545739000008,626.5545739000008,626.5545739000008,626.5545739000008,626.5545739000008,626.5545739000008,626.5545739000008,626.5545739000008,626.5545739000008,626.5545739000008,626.5545739000008,626.5545739000008,626.5545739000008,628.4693724000008,628.4693724000008,628.4693724000008,628.4693724000008,628.4693724000008,628.4693724000008,628.4693724000008,52,48,32,42,48,60,628.4693724000008,629.9705445,,,,,,,,,,,,３０９,f,２４,2023-05-18_14h55.23.622,RL,2022.2.5,59.9944445144779,
57,51,36,36,0,105,105,105,,,,,,,,,,,None,629.9705445,629.9705445,629.9705445,629.9705445,629.9705445,629.9705445,f,0.2744053000005806,630.2731822999995,630.2731822999995,630.2731822999995,630.2731822999995,630.2731822999995,630.2731822999995,630.5709040000002,632.1373917000001,632.1373917000001,632.1373917000001,632.1373917000001,632.1373917000001,632.1373917000001,632.1373917000001,632.1373917000001,632.1373917000001,632.1373917000001,632.1373917000001,632.1373917000001,632.1373917000001,632.1373917000001,634.0017078000001,634.0017078000001,634.0017078000001,634.0017078000001,634.0017078000001,634.0017078000001,634.0017078000001,57,51,36,36,57,60,634.0017078000001,635.6526838999998,,,,,,,,,,,,３０９,f,２４,2023-05-18_14h55.23.622,RL,2022.2.5,59.9944445144779,
49,52,44,37,0,106,106,106,,,,,,,,,,,None,635.6526838999998,635.6526838999998,635.6526838999998,635.6526838999998,635.6526838999998,635.6526838999998,f,0.2537427999995998,635.9447921999999,635.9447921999999,635.9447921999999,635.9447921999999,635.9447921999999,635.9447921999999,636.2200899,637.6030589999991,637.6198851999998,637.6198851999998,637.6198851999998,637.6198851999998,637.6198851999998,637.6198851999998,637.6198851999998,637.6198851999998,637.6198851999998,637.6198851999998,637.6198851999998,637.6198851999998,637.6198851999998,639.3008496999992,639.3008496999992,639.3008496999992,639.3008496999992,639.3008496999992,639.3008496999992,639.3008496999992,49,52,44,37,49,60,639.3008496999992,641.1522521000006,,,,,,,,,,,,３０９,f,２４,2023-05-18_14h55.23.622,RL,2022.2.5,59.9944445144779,
46,49,39,40,0,107,107,107,,,,,,,,,,,None,641.1522521000006,641.1522521000006,641.1522521000006,641.1522521000006,641.1522521000006,641.1522521000006,i,0.23795009999957983,641.4191174000007,641.4191174000007,641.4191174000007,641.4191174000007,641.4191174000007,641.4191174000007,641.7021970999995,643.4353324999993,643.4524203000001,643.4524203000001,643.4524203000001,643.4524203000001,643.4524203000001,643.4524203000001,643.4524203000001,643.4524203000001,643.4524203000001,643.4524203000001,643.4524203000001,643.4524203000001,643.4524203000001,645.4832127000009,645.4832127000009,645.4832127000009,645.4832127000009,645.4832127000009,645.4832127000009,645.4832127000009,46,49,39,40,39,60,645.4832127000009,647.2007869000008,,,,,,,,,,,,３０９,f,２４,2023-05-18_14h55.23.622,RL,2022.2.5,59.9944445144779,
52,43,41,36,0,108,108,108,,,,,,,,,,,None,647.2007869000008,647.2007869000008,647.2007869000008,647.2007869000008,647.2007869000008,647.2007869000008,j,0.25234590000036405,647.4913899000003,647.4913899000003,647.4913899000003,647.4913899000003,647.4913899000003,647.4913899000003,647.7681417999993,649.0343997,649.0677513999999,649.0677513999999,649.0677513999999,649.0677513999999,649.0677513999999,649.0677513999999,649.0677513999999,649.0677513999999,649.0677513999999,649.0677513999999,649.0677513999999,649.0677513999999,649.0677513999999,650.6321575999991,650.6321575999991,650.6321575999991,650.6321575999991,650.6321575999991,650.6321575999991,650.6321575999991,52,43,41,36,36,60,650.6321575999991,652.5666712999991,,,,,,,,,,,,３０９,f,２４,2023-05-18_14h55.23.622,RL,2022.2.5,59.9944445144779,
56,37,39,45,0,109,109,109,,,,,,,,,,,None,652.5666712999991,652.5666712999991,652.5666712999991,652.5666712999991,652.5666712999991,652.5666712999991,f,0.27550410000003467,652.8688067000003,652.8688067000003,652.8688067000003,652.8688067000003,652.8688067000003,652.8688067000003,653.1672999000002,654.7499788999994,654.7499788999994,654.7499788999994,654.7499788999994,654.7499788999994,654.7499788999994,654.7499788999994,654.7499788999994,654.7499788999994,654.7499788999994,654.7499788999994,654.7499788999994,654.7499788999994,654.7499788999994,656.6316110000007,656.6316110000007,656.6316110000007,656.6316110000007,656.6316110000007,656.6316110000007,656.6316110000007,56,37,39,45,56,60,656.6316110000007,658.4327303999999,,,,,,,,,,,,３０９,f,２４,2023-05-18_14h55.23.622,RL,2022.2.5,59.9944445144779,
51,34,36,40,0,110,110,110,,,,,,,,,,,None,658.4327303999999,658.4327303999999,658.4327303999999,658.4327303999999,658.4327303999999,658.4327303999999,f,0.26248780000059924,658.7185580999994,658.7185580999994,658.7185580999994,658.7185580999994,658.7185580999994,658.7185580999994,658.9992005999993,660.2993122999997,660.3325714999992,660.3325714999992,660.3325714999992,660.3325714999992,660.3325714999992,660.3325714999992,660.3325714999992,660.3325714999992,660.3325714999992,660.3325714999992,660.3325714999992,660.3325714999992,660.3325714999992,661.9307078999991,661.9307078999991,661.9307078999991,661.9307078999991,661.9307078999991,661.9307078999991,661.9307078999991,51,34,36,40,51,60,661.9307078999991,663.7817429000006,,,,,,,,,,,,３０９,f,２４,2023-05-18_14h55.23.622,RL,2022.2.5,59.9944445144779,
51,46,48,53,0,111,111,111,,,,,,,,,,,None,663.7817429000006,663.7817429000006,663.7817429000006,663.7817429000006,663.7817429000006,663.7817429000006,f,0.4092227000001003,664.2150879000001,664.2150879000001,664.2150879000001,664.2150879000001,664.2150879000001,664.2150879000001,664.5152034999992,665.9151081,665.9151081,665.9151081,665.9151081,665.9151081,665.9151081,665.9151081,665.9151081,665.9151081,665.9151081,665.9151081,665.9151081,665.9151081,665.9151081,667.6128434000002,667.6128434000002,667.6128434000002,667.6128434000002,667.6128434000002,667.6128434000002,667.6128434000002,51,46,48,53,51,60,667.6128434000002,669.5804040999992,,,,,,,,,,,,３０９,f,２４,2023-05-18_14h55.23.622,RL,2022.2.5,59.9944445144779,
60,40,46,45,0,112,112,112,,,,,,,,,,,None,669.5804040999992,669.5804040999992,669.5804040999992,669.5804040999992,669.5804040999992,669.5804040999992,f,0.27193739999893296,669.8821172000007,669.8821172000007,669.8821172000007,669.8821172000007,669.8821172000007,669.8821172000007,670.1639290999992,670.9972080000007,671.0137976000005,671.0137976000005,671.0137976000005,671.0137976000005,671.0137976000005,671.0137976000005,671.0137976000005,671.0137976000005,671.0137976000005,671.0137976000005,671.0137976000005,671.0137976000005,671.0137976000005,672.1453342999994,672.1453342999994,672.1453342999994,672.1453342999994,672.1453342999994,672.1453342999994,672.1453342999994,60,40,46,45,60,60,672.1453342999994,674.1298072000009,,,,,,,,,,,,３０９,f,２４,2023-05-18_14h55.23.622,RL,2022.2.5,59.9944445144779,
61,41,48,49,0,113,113,113,,,,,,,,,,,None,674.1298072000009,674.1298072000009,674.1298072000009,674.1298072000009,674.1298072000009,674.1298072000009,f,0.4748559999989084,674.6315513000009,674.6315513000009,674.6315513000009,674.6315513000009,674.6315513000009,674.6315513000009,674.9131228999995,676.3797493999991,676.396068,676.396068,676.396068,676.396068,676.396068,676.396068,676.396068,676.396068,676.396068,676.396068,676.396068,676.396068,676.396068,678.1610901999993,678.1610901999993,678.1610901999993,678.1610901999993,678.1610901999993,678.1610901999993,678.1610901999993,61,41,48,49,61,60,678.1610901999993,680.0116361,,,,,,,,,,,,３０９,f,２４,2023-05-18_14h55.23.622,RL,2022.2.5,59.9944445144779,
54,42,49,39,0,114,114,114,,,,,,,,,,,None,680.0116361,680.0116361,680.0116361,680.0116361,680.0116361,680.0116361,f,0.2560986000007688,680.2962294999998,680.2962294999998,680.2962294999998,680.2962294999998,680.2962294999998,680.2962294999998,680.5789292999998,681.4454571999995,681.4620615000003,681.4620615000003,681.4620615000003,681.4620615000003,681.4620615000003,681.4620615000003,681.4620615000003,681.4620615000003,681.4620615000003,681.4620615000003,681.4620615000003,681.4620615000003,681.4620615000003,682.6271686,682.6271686,682.6271686,682.6271686,682.6271686,682.6271686,682.6271686,54,42,49,39,54,60,682.6271686,684.5947314000005,,,,,,,,,,,,３０９,f,２４,2023-05-18_14h55.23.622,RL,2022.2.5,59.9944445144779,
68,39,56,37,0,115,115,115,,,,,,,,,,,None,684.5947314000005,684.5947314000005,684.5947314000005,684.5947314000005,684.5947314000005,684.5947314000005,f,0.29649109999991197,684.9123684000006,684.9123684000006,684.9123684000006,684.9123684000006,684.9123684000006,684.9123684000006,685.1949024000005,687.1107596000002,687.1275179000004,687.1275179000004,687.1275179000004,687.1275179000004,687.1275179000004,687.1275179000004,687.1275179000004,687.1275179000004,687.1275179000004,687.1275179000004,687.1275179000004,687.1275179000004,687.1275179000004,689.3418746000007,689.3418746000007,689.3418746000007,689.3418746000007,689.3418746000007,689.3418746000007,689.3418746000007,68,39,56,37,68,60,689.3418746000007,691.2931270999998,,,,,,,,,,,,３０９,f,２４,2023-05-18_14h55.23.622,RL,2022.2.5,59.9944445144779,
62,36,52,31,0,116,116,116,,,,,,,,,,,None,691.2931270999998,691.2931270999998,691.2931270999998,691.2931270999998,691.2931270999998,691.2931270999998,f,0.28702530000009574,691.6115265999997,691.6115265999997,691.6115265999997,691.6115265999997,691.6115265999997,691.6115265999997,691.9100586000004,693.4932186999995,693.4932186999995,693.4932186999995,693.4932186999995,693.4932186999995,693.4932186999995,693.4932186999995,693.4932186999995,693.4932186999995,693.4932186999995,693.4932186999995,693.4932186999995,693.4932186999995,693.4932186999995,695.3743255999998,695.3743255999998,695.3743255999998,695.3743255999998,695.3743255999998,695.3743255999998,695.3743255999998,62,36,52,31,62,60,695.3743255999998,697.1422867000001,,,,,,,,,,,,３０９,f,２４,2023-05-18_14h55.23.622,RL,2022.2.5,59.9944445144779,
55,40,47,43,0,117,117,117,,,,,,,,,,,None,697.1422867000001,697.1422867000001,697.1422867000001,697.1422867000001,697.1422867000001,697.1422867000001,f,0.25534630000038305,697.4281166000001,697.4281166000001,697.4281166000001,697.4281166000001,697.4281166000001,697.4281166000001,697.7262991000007,698.8922337000004,698.9090935000004,698.9090935000004,698.9090935000004,698.9090935000004,698.9090935000004,698.9090935000004,698.9090935000004,698.9090935000004,698.9090935000004,698.9090935000004,698.9090935000004,698.9090935000004,698.9090935000004,700.3741511999997,700.3741511999997,700.3741511999997,700.3741511999997,700.3741511999997,700.3741511999997,700.3741511999997,55,40,47,43,55,60,700.3741511999997,702.0747778999994,,,,,,,,,,,,３０９,f,２４,2023-05-18_14h55.23.622,RL,2022.2.5,59.9944445144779,
51,40,48,45,0,118,118,118,,,,,,,,,,,None,702.0747778999994,702.0747778999994,702.0747778999994,702.0747778999994,702.0747778999994,702.0747778999994,f,0.28623510000034,702.3918047000006,702.3918047000006,702.3918047000006,702.3918047000006,702.3918047000006,702.3918047000006,702.6752940999995,704.4583044999999,704.4747559000007,704.4747559000007,704.4747559000007,704.4747559000007,704.4747559000007,704.4747559000007,704.4747559000007,704.4747559000007,704.4747559000007,704.4747559000007,704.4747559000007,704.4747559000007,704.4747559000007,706.5561809999999,706.5561809999999,706.5561809999999,706.5561809999999,706.5561809999999,706.5561809999999,706.5561809999999,51,40,48,45,51,60,706.5561809999999,708.2235118999997,,,,,,,,,,,,３０９,f,２４,2023-05-18_14h55.23.622,RL,2022.2.5,59.9944445144779,
57,42,47,48,0,119,119,119,,,,,,,,,,,None,708.2235118999997,708.2235118999997,708.2235118999997,708.2235118999997,708.2235118999997,708.2235118999997,i,0.3224812999997084,708.5750998999993,708.5750998999993,708.5750998999993,708.5750998999993,708.5750998999993,708.5750998999993,708.8571417000003,710.3236383999993,710.3402074000005,710.3402074000005,710.3402074000005,710.3402074000005,710.3402074000005,710.3402074000005,710.3402074000005,710.3402074000005,710.3402074000005,710.3402074000005,710.3402074000005,710.3402074000005,710.3402074000005,712.1050295000005,712.1050295000005,712.1050295000005,712.1050295000005,712.1050295000005,712.1050295000005,712.1050295000005,57,42,47,48,47,60,712.1050295000005,713.9892089999994,,,,,,,,,,,,３０９,f,２４,2023-05-18_14h55.23.622,RL,2022.2.5,59.9944445144779,
57,32,60,45,0,120,120,120,,,,,,,,,,,None,713.9892089999994,713.9892089999994,713.9892089999994,713.9892089999994,713.9892089999994,713.9892089999994,r,0.2750099000004411,714.2901805000001,714.2901805000001,714.2901805000001,714.2901805000001,714.2901805000001,714.2901805000001,714.5727938,715.8558469,715.8727710999992,715.8727710999992,715.8727710999992,715.8727710999992,715.8727710999992,715.8727710999992,715.8727710999992,715.8727710999992,715.8727710999992,715.8727710999992,715.8727710999992,715.8727710999992,715.8727710999992,717.4540866999996,717.4540866999996,717.4540866999996,717.4540866999996,717.4540866999996,717.4540866999996,717.4540866999996,57,32,60,45,32,60,717.4540866999996,719.4549055999996,,,,,,,,,,,,３０９,f,２４,2023-05-18_14h55.23.622,RL,2022.2.5,59.9944445144779,
62,40,45,40,0,121,121,121,,,,,,,,,,,None,719.4549055999996,719.4549055999996,719.4549055999996,719.4549055999996,719.4549055999996,719.4549055999996,f,0.30630120000023453,719.7915257999994,719.7915257999994,719.7915257999994,719.7915257999994,719.7915257999994,719.7915257999994,720.0887301000002,721.3385285999993,721.3553893999997,721.3553893999997,721.3553893999997,721.3553893999997,721.3553893999997,721.3553893999997,721.3553893999997,721.3553893999997,721.3553893999997,721.3553893999997,721.3553893999997,721.3553893999997,721.3553893999997,722.9030043000002,722.9030043000002,722.9030043000002,722.9030043000002,722.9030043000002,722.9030043000002,722.9030043000002,62,40,45,40,62,60,722.9030043000002,724.5046050000001,,,,,,,,,,,,３０９,f,２４,2023-05-18_14h55.23.622,RL,2022.2.5,59.9944445144779,
