arm1,arm2,arm3,arm4,trials.thisRepN,trials.thisTrialN,trials.thisN,trials.thisIndex,instru_img1.started,instru_resp.started,instru_resp.keys,instru_resp.rt,image_2.started,text_2.started,image_2.stopped,text_2.stopped,fixbefore_2.started,fixbefore_2.stopped,rest_response.keys,red.started,green.started,yellow.started,blue.started,choose_bandit.started,Fixation.started,choose_bandit.keys,choose_bandit.rt,black.started,red_2.started,green_2.started,yellow_2.started,blue_2.started,fixation_2.started,docs.started,black.stopped,red_2.stopped,green_2.stopped,yellow_2.stopped,blue_2.stopped,fixation_2.stopped,docs.stopped,black_com.started,reward_sub.started,reward__sub.started,red_compare.started,green_com.started,yellow_com.started,blue_com.started,black_com.stopped,reward_sub.stopped,reward__sub.stopped,red_compare.stopped,green_com.stopped,yellow_com.stopped,blue_com.stopped,rewardred,rewardyellow,rewardblue,rewardgreen,subchoose,expectation,intertrialfix.started,intertrialfix.stopped,rest_image.started,rest_response.started,rest_response.rt,image_expect_after.started,text_exp_after.started,image_expect_after.stopped,text_exp_after.stopped,image.started,key_resp.started,key_resp.keys,key_resp.rt,participant,Gender,Age,date,expName,psychopyVersion,frameRate,
,,,,,,,,18.957351400000334,18.957351400000334,space,7.969462100001692,,,,,,,,,,,,,,,,,,,,,,,,,,,,,,,,,,,,,,,,,,,,,,,,,,,,,,,,,,,,,,,３１０,f,２０,2023-05-18_15h29.42.282,RL,2022.2.5,60.143249191195075,
45,45,60,56,0,0,0,0,,,,,26.94092509999973,26.94092509999973,31.940255999998044,31.940255999998044,31.940255999998044,32.945013599997765,None,32.945013599997765,32.945013599997765,32.945013599997765,32.945013599997765,32.945013599997765,32.945013599997765,j,0.6692215000002761,33.64230569999927,33.64230569999927,33.64230569999927,33.64230569999927,33.64230569999927,33.64230569999927,33.94241989999864,34.93480029999773,34.93480029999773,34.93480029999773,34.93480029999773,34.93480029999773,34.93480029999773,34.93480029999773,34.93480029999773,34.93480029999773,34.93480029999773,34.93480029999773,34.93480029999773,34.93480029999773,34.93480029999773,36.25129179999931,36.25129179999931,36.25129179999931,36.25129179999931,36.25129179999931,36.25129179999931,36.25129179999931,45,45,60,56,56,70,36.25129179999931,38.160342399998626,,,,,,,,,,,,３１０,f,２０,2023-05-18_15h29.42.282,RL,2022.2.5,60.143249191195075,
42,40,57,48,0,1,1,1,,,,,,,,,,,None,38.160342399998626,38.160342399998626,38.160342399998626,38.160342399998626,38.160342399998626,38.160342399998626,f,1.3080139000012423,39.49083299999984,39.49083299999984,39.49083299999984,39.49083299999984,39.49083299999984,39.49083299999984,39.83415669999886,41.3939853999982,41.3939853999982,41.3939853999982,41.3939853999982,41.3939853999982,41.3939853999982,41.44864869999947,41.44864869999947,41.44864869999947,41.44864869999947,41.44864869999947,41.44864869999947,41.44864869999947,41.44864869999947,43.35511249999763,43.35511249999763,43.35511249999763,43.35511249999763,43.35511249999763,43.35511249999763,43.35511249999763,40,42,57,48,40,70,43.35511249999763,45.28924310000002,,,,,,,,,,,,３１０,f,２０,2023-05-18_15h29.42.282,RL,2022.2.5,60.143249191195075,
47,49,66,63,0,2,2,2,,,,,,,,,,,None,45.28924310000002,45.28924310000002,45.28924310000002,45.28924310000002,45.28924310000002,45.28924310000002,r,0.46396330000061425,45.77320250000048,45.77320250000048,45.77320250000048,45.77320250000048,45.77320250000048,45.77320250000048,46.1176458000009,47.00923200000034,47.00923200000034,47.00923200000034,47.00923200000034,47.00923200000034,47.00923200000034,47.062812699998176,47.062812699998176,47.062812699998176,47.062812699998176,47.062812699998176,47.062812699998176,47.062812699998176,47.062812699998176,48.287859399999434,48.287859399999434,48.287859399999434,48.287859399999434,48.287859399999434,48.287859399999434,48.287859399999434,49,47,66,63,47,70,48.287859399999434,50.17190449999907,,,,,,,,,,,,３１０,f,２０,2023-05-18_15h29.42.282,RL,2022.2.5,60.143249191195075,
55,46,67,51,0,3,3,3,,,,,,,,,,,None,50.17190449999907,50.17190449999907,50.17190449999907,50.17190449999907,50.17190449999907,50.17190449999907,j,0.44713640000190935,50.64039649999904,50.64039649999904,50.64039649999904,50.64039649999904,50.64039649999904,50.64039649999904,50.93892989999949,52.038255799998296,52.038255799998296,52.038255799998296,52.038255799998296,52.038255799998296,52.038255799998296,52.038255799998296,52.038255799998296,52.038255799998296,52.038255799998296,52.038255799998296,52.038255799998296,52.038255799998296,52.038255799998296,53.43696199999977,53.43696199999977,53.43696199999977,53.43696199999977,53.43696199999977,53.43696199999977,53.43696199999977,46,55,67,51,51,70,53.43696199999977,55.32112330000018,,,,,,,,,,,,３１０,f,２０,2023-05-18_15h29.42.282,RL,2022.2.5,60.143249191195075,
43,42,63,51,0,4,4,4,,,,,,,,,,,None,55.32112330000018,55.32112330000018,55.32112330000018,55.32112330000018,55.32112330000018,55.32112330000018,i,0.2307585000016843,55.57135799999742,55.57135799999742,55.57135799999742,55.57135799999742,55.57135799999742,55.57135799999742,55.8544656999984,56.80449849999786,56.80449849999786,56.80449849999786,56.80449849999786,56.80449849999786,56.80449849999786,56.787999399999535,56.80449849999786,56.80449849999786,56.80449849999786,56.80449849999786,56.80449849999786,56.80449849999786,56.80449849999786,58.03565009999875,58.03565009999875,58.03565009999875,58.03565009999875,58.03565009999875,58.03565009999875,58.03565009999875,42,43,63,51,63,70,58.03565009999875,59.68689699999959,,,,,,,,,,,,３１０,f,２０,2023-05-18_15h29.42.282,RL,2022.2.5,60.143249191195075,
41,46,63,57,0,5,5,5,,,,,,,,,,,None,59.68689699999959,59.68689699999959,59.68689699999959,59.68689699999959,59.68689699999959,59.68689699999959,f,0.22004390000074636,59.93732000000091,59.93732000000091,59.93732000000091,59.93732000000091,59.93732000000091,59.93732000000091,60.22085650000008,61.187067099999695,61.187067099999695,61.187067099999695,61.187067099999695,61.187067099999695,61.187067099999695,61.17020319999938,61.187067099999695,61.187067099999695,61.187067099999695,61.187067099999695,61.187067099999695,61.187067099999695,61.187067099999695,62.43522309999753,62.43522309999753,62.43522309999753,62.43522309999753,62.43522309999753,62.43522309999753,62.43522309999753,46,41,63,57,46,70,62.43522309999753,64.0363056999995,,,,,,,,,,,,３１０,f,２０,2023-05-18_15h29.42.282,RL,2022.2.5,60.143249191195075,
45,43,63,58,0,6,6,6,,,,,,,,,,,None,64.0363056999995,64.0363056999995,64.0363056999995,64.0363056999995,64.0363056999995,64.0363056999995,r,0.2571353999992425,64.32209599999987,64.32209599999987,64.32209599999987,64.32209599999987,64.32209599999987,64.32209599999987,64.60320449999926,65.58632669999861,65.58632669999861,65.58632669999861,65.58632669999861,65.58632669999861,65.58632669999861,65.56985300000088,65.58632669999861,65.58632669999861,65.58632669999861,65.58632669999861,65.58632669999861,65.58632669999861,65.58632669999861,66.85100389999934,66.85100389999934,66.85100389999934,66.85100389999934,66.85100389999934,66.85100389999934,66.85100389999934,43,45,63,58,45,70,66.85100389999934,68.65193920000092,,,,,,,,,,,,３１０,f,２０,2023-05-18_15h29.42.282,RL,2022.2.5,60.143249191195075,
46,49,65,55,0,7,7,7,,,,,,,,,,,None,68.65193920000092,68.65193920000092,68.65193920000092,68.65193920000092,68.65193920000092,68.65193920000092,j,0.2977941999997711,68.9693492999977,68.9693492999977,68.9693492999977,68.9693492999977,68.9693492999977,68.9693492999977,69.25197769999795,70.83530840000094,70.83530840000094,70.83530840000094,70.83530840000094,70.83530840000094,70.83530840000094,70.81855159999759,70.83530840000094,70.83530840000094,70.83530840000094,70.83530840000094,70.83530840000094,70.83530840000094,70.83530840000094,72.69963160000043,72.69963160000043,72.69963160000043,72.69963160000043,72.69963160000043,72.69963160000043,72.69963160000043,49,46,65,55,55,70,72.69963160000043,74.26797799999986,,,,,,,,,,,,３１０,f,２０,2023-05-18_15h29.42.282,RL,2022.2.5,60.143249191195075,
52,51,66,56,0,8,8,8,,,,,,,,,,,None,74.26797799999986,74.26797799999986,74.26797799999986,74.26797799999986,74.26797799999986,74.26797799999986,f,0.309560199999396,74.60353459999897,74.60353459999897,74.60353459999897,74.60353459999897,74.60353459999897,74.60353459999897,74.90128719999848,76.21761350000088,76.21761350000088,76.21761350000088,76.21761350000088,76.21761350000088,76.21761350000088,76.20098529999814,76.21761350000088,76.21761350000088,76.21761350000088,76.21761350000088,76.21761350000088,76.21761350000088,76.21761350000088,77.81583369999862,77.81583369999862,77.81583369999862,77.81583369999862,77.81583369999862,77.81583369999862,77.81583369999862,51,52,66,56,51,70,77.81583369999862,79.4170778000007,,,,,,,,,,,,３１０,f,２０,2023-05-18_15h29.42.282,RL,2022.2.5,60.143249191195075,
45,63,70,53,0,9,9,9,,,,,,,,,,,None,79.4170778000007,79.4170778000007,79.4170778000007,79.4170778000007,79.4170778000007,79.4170778000007,j,0.34761129999969853,79.78464639999947,79.78464639999947,79.78464639999947,79.78464639999947,79.78464639999947,79.78464639999947,80.06722289999743,81.08339069999784,81.08339069999784,81.08339069999784,81.08339069999784,81.08339069999784,81.08339069999784,81.06669390000025,81.08339069999784,81.08339069999784,81.08339069999784,81.08339069999784,81.08339069999784,81.08339069999784,81.08339069999784,82.3815981000007,82.3815981000007,82.3815981000007,82.3815981000007,82.3815981000007,82.3815981000007,82.3815981000007,63,45,70,53,53,70,82.3815981000007,84.21565369999735,,,,,,,,,,,,３１０,f,２０,2023-05-18_15h29.42.282,RL,2022.2.5,60.143249191195075,
43,59,63,56,0,10,10,10,,,,,,,,,,,None,84.21565369999735,84.21565369999735,84.21565369999735,84.21565369999735,84.21565369999735,84.21565369999735,r,0.25413969999863184,84.50177640000038,84.50177640000038,84.50177640000038,84.50177640000038,84.50177640000038,84.50177640000038,84.79936959999759,85.93277970000054,85.93277970000054,85.93277970000054,85.93277970000054,85.93277970000054,85.93277970000054,85.91619499999797,85.93277970000054,85.93277970000054,85.93277970000054,85.93277970000054,85.93277970000054,85.93277970000054,85.93277970000054,87.34767400000055,87.34767400000055,87.34767400000055,87.34767400000055,87.34767400000055,87.34767400000055,87.34767400000055,59,43,63,56,43,70,87.34767400000055,89.29847919999884,,,,,,,,,,,,３１０,f,２０,2023-05-18_15h29.42.282,RL,2022.2.5,60.143249191195075,
45,62,69,55,0,11,11,11,,,,,,,,,,,None,89.29847919999884,89.29847919999884,89.29847919999884,89.29847919999884,89.29847919999884,89.29847919999884,i,0.2733708999985538,89.60032339999816,89.60032339999816,89.60032339999816,89.60032339999816,89.60032339999816,89.60032339999816,89.8820882,91.19799579999744,91.19799579999744,91.19799579999744,91.19799579999744,91.19799579999744,91.19799579999744,91.18170389999796,91.19799579999744,91.19799579999744,91.19799579999744,91.19799579999744,91.19799579999744,91.19799579999744,91.19799579999744,92.79630399999951,92.79630399999951,92.79630399999951,92.79630399999951,92.79630399999951,92.79630399999951,92.79630399999951,62,45,69,55,69,70,92.79630399999951,94.69734980000067,,,,,,,,,,,,３１０,f,２０,2023-05-18_15h29.42.282,RL,2022.2.5,60.143249191195075,
40,64,70,55,0,12,12,12,,,,,,,,,,,None,94.69734980000067,94.69734980000067,94.69734980000067,94.69734980000067,94.69734980000067,94.69734980000067,f,0.3661556000006385,95.08430120000048,95.08430120000048,95.08430120000048,95.08430120000048,95.08430120000048,95.08430120000048,95.38124519999838,96.36394389999987,96.36394389999987,96.36394389999987,96.36394389999987,96.36394389999987,96.36394389999987,96.36394389999987,96.36394389999987,96.36394389999987,96.36394389999987,96.36394389999987,96.36394389999987,96.36394389999987,96.36394389999987,97.64528309999878,97.64528309999878,97.64528309999878,97.64528309999878,97.64528309999878,97.64528309999878,97.64528309999878,64,40,70,55,64,70,97.64528309999878,99.41340639999908,,,,,,,,,,,,３１０,f,２０,2023-05-18_15h29.42.282,RL,2022.2.5,60.143249191195075,
45,58,70,61,0,13,13,13,,,,,,,,,,,None,99.41340639999908,99.41340639999908,99.41340639999908,99.41340639999908,99.41340639999908,99.41340639999908,r,0.4368724000014481,99.88135759999932,99.88135759999932,99.88135759999932,99.88135759999932,99.88135759999932,99.88135759999932,100.18059849999918,101.49703220000083,101.49703220000083,101.49703220000083,101.49703220000083,101.49703220000083,101.49703220000083,101.49703220000083,101.49703220000083,101.49703220000083,101.49703220000083,101.49703220000083,101.49703220000083,101.49703220000083,101.49703220000083,103.11150509999788,103.11150509999788,103.11150509999788,103.11150509999788,103.11150509999788,103.11150509999788,103.11150509999788,58,45,70,61,45,70,103.11150509999788,104.96249049999824,,,,,,,,,,,,３１０,f,２０,2023-05-18_15h29.42.282,RL,2022.2.5,60.143249191195075,
43,63,61,54,0,14,14,14,,,,,,,,,,,None,104.96249049999824,104.96249049999824,104.96249049999824,104.96249049999824,104.96249049999824,104.96249049999824,j,0.29679830000168295,105.28193950000059,105.28193950000059,105.28193950000059,105.28193950000059,105.28193950000059,105.28193950000059,105.57917000000089,106.86205979999795,106.86205979999795,106.86205979999795,106.86205979999795,106.86205979999795,106.86205979999795,106.84542619999775,106.86205979999795,106.86205979999795,106.86205979999795,106.86205979999795,106.86205979999795,106.86205979999795,106.86205979999795,108.42693080000026,108.42693080000026,108.42693080000026,108.42693080000026,108.42693080000026,108.42693080000026,108.42693080000026,63,43,61,54,54,70,108.42693080000026,110.24498110000059,,,,,,,,,,,,３１０,f,２０,2023-05-18_15h29.42.282,RL,2022.2.5,60.143249191195075,
53,64,67,59,0,15,15,15,,,,,,,,,,,None,110.24498110000059,110.24498110000059,110.24498110000059,110.24498110000059,110.24498110000059,110.24498110000059,f,0.2727083000027051,110.54540129999805,110.54540129999805,110.54540129999805,110.54540129999805,110.54540129999805,110.54540129999805,110.84504390000075,112.74469680000038,112.74469680000038,112.74469680000038,112.74469680000038,112.74469680000038,112.74469680000038,112.74469680000038,112.74469680000038,112.74469680000038,112.74469680000038,112.74469680000038,112.74469680000038,112.74469680000038,112.74469680000038,114.943308599999,114.943308599999,114.943308599999,114.943308599999,114.943308599999,114.943308599999,114.943308599999,64,53,67,59,64,70,114.943308599999,116.77694989999873,,,,,,,,,,,,３１０,f,２０,2023-05-18_15h29.42.282,RL,2022.2.5,60.143249191195075,
42,54,78,53,0,16,16,16,,,,,,,,,,,None,116.77694989999873,116.77694989999873,116.77694989999873,116.77694989999873,116.77694989999873,116.77694989999873,i,0.29851399999824935,117.09474799999953,117.09474799999953,117.09474799999953,117.09474799999953,117.09474799999953,117.09474799999953,117.37720679999984,118.95978470000045,118.95978470000045,118.95978470000045,118.95978470000045,118.95978470000045,118.95978470000045,118.94358699999793,118.95978470000045,118.95978470000045,118.95978470000045,118.95978470000045,118.95978470000045,118.95978470000045,118.95978470000045,120.8251339999988,120.8251339999988,120.8251339999988,120.8251339999988,120.8251339999988,120.8251339999988,120.8251339999988,54,42,78,53,78,70,120.8251339999988,122.69263890000002,,,,,,,,,,,,３１０,f,２０,2023-05-18_15h29.42.282,RL,2022.2.5,60.143249191195075,
51,59,77,60,0,17,17,17,,,,,,,,,,,None,122.69263890000002,122.69263890000002,122.69263890000002,122.69263890000002,122.69263890000002,122.69263890000002,r,0.2442806999970344,122.9599911999976,122.9599911999976,122.9599911999976,122.9599911999976,122.9599911999976,122.9599911999976,123.24262829999861,125.07599069999924,125.07599069999924,125.07599069999924,125.07599069999924,125.07599069999924,125.07599069999924,125.05913040000087,125.07599069999924,125.07599069999924,125.07599069999924,125.07599069999924,125.07599069999924,125.07599069999924,125.07599069999924,127.19052050000028,127.19052050000028,127.19052050000028,127.19052050000028,127.19052050000028,127.19052050000028,127.19052050000028,59,51,77,60,51,70,127.19052050000028,129.17503079999733,,,,,,,,,,,,３１０,f,２０,2023-05-18_15h29.42.282,RL,2022.2.5,60.143249191195075,
41,53,67,57,0,18,18,18,,,,,,,,,,,None,129.17503079999733,129.17503079999733,129.17503079999733,129.17503079999733,129.17503079999733,129.17503079999733,r,0.34854270000141696,129.54350110000087,129.54350110000087,129.54350110000087,129.54350110000087,129.54350110000087,129.54350110000087,129.84193790000063,131.474635999999,131.474635999999,131.474635999999,131.474635999999,131.474635999999,131.474635999999,131.474635999999,131.474635999999,131.474635999999,131.474635999999,131.474635999999,131.474635999999,131.474635999999,131.474635999999,133.40568239999993,133.40568239999993,133.40568239999993,133.40568239999993,133.40568239999993,133.40568239999993,133.40568239999993,53,41,67,57,41,70,133.40568239999993,135.1409700999975,,,,,,,,,,,,３１０,f,２０,2023-05-18_15h29.42.282,RL,2022.2.5,60.143249191195075,
49,59,74,64,0,19,19,19,,,,,,,,,,,None,135.1409700999975,135.1409700999975,135.1409700999975,135.1409700999975,135.1409700999975,135.1409700999975,r,0.3864678999998432,135.5592203999986,135.5592203999986,135.5592203999986,135.5592203999986,135.5592203999986,135.5592203999986,135.8576226999976,137.67353430000003,137.67353430000003,137.67353430000003,137.67353430000003,137.67353430000003,137.67353430000003,137.67353430000003,137.67353430000003,137.67353430000003,137.67353430000003,137.67353430000003,137.67353430000003,137.67353430000003,137.67353430000003,139.78839959999823,139.78839959999823,139.78839959999823,139.78839959999823,139.78839959999823,139.78839959999823,139.78839959999823,59,49,74,64,49,70,139.78839959999823,141.62292399999933,,,,,,,,,,,,３１０,f,２０,2023-05-18_15h29.42.282,RL,2022.2.5,60.143249191195075,
48,58,69,43,0,20,20,20,,,,,,,,,,,None,141.62292399999933,141.62292399999933,141.62292399999933,141.62292399999933,141.62292399999933,141.62292399999933,j,0.2510024999974121,141.8911619999999,141.8911619999999,141.8911619999999,141.8911619999999,141.8911619999999,141.8911619999999,142.1896573999984,144.02280919999976,144.02280919999976,144.02280919999976,144.02280919999976,144.02280919999976,144.02280919999976,144.02280919999976,144.02280919999976,144.02280919999976,144.02280919999976,144.02280919999976,144.02280919999976,144.02280919999976,144.02280919999976,146.1540477999988,146.1540477999988,146.1540477999988,146.1540477999988,146.1540477999988,146.1540477999988,146.1540477999988,58,48,69,43,43,70,146.1540477999988,147.87184759999946,,,,,,,,,,,,３１０,f,２０,2023-05-18_15h29.42.282,RL,2022.2.5,60.143249191195075,
51,57,79,56,0,21,21,21,,,,,,,,,,,None,147.87184759999946,147.87184759999946,147.87184759999946,147.87184759999946,147.87184759999946,147.87184759999946,f,0.2526116999979422,148.1622043999996,148.1622043999996,148.1622043999996,148.1622043999996,148.1622043999996,148.1622043999996,148.43857410000055,150.4384730999991,150.4384730999991,150.4384730999991,150.4384730999991,150.4384730999991,150.4384730999991,150.42158650000056,150.4384730999991,150.4384730999991,150.4384730999991,150.4384730999991,150.4384730999991,150.4384730999991,150.4384730999991,152.71957439999824,152.71957439999824,152.71957439999824,152.71957439999824,152.71957439999824,152.71957439999824,152.71957439999824,57,51,79,56,57,70,152.71957439999824,154.5536905000008,,,,,,,,,,,,３１０,f,２０,2023-05-18_15h29.42.282,RL,2022.2.5,60.143249191195075,
45,66,84,45,0,22,22,22,,,,,,,,,,,None,154.5536905000008,154.5536905000008,154.5536905000008,154.5536905000008,154.5536905000008,154.5536905000008,i,0.2565541999974812,154.83747579999908,154.83747579999908,154.83747579999908,154.83747579999908,154.83747579999908,154.83747579999908,155.1210226999974,156.8700820999984,156.8700820999984,156.8700820999984,156.8700820999984,156.8700820999984,156.8700820999984,156.85360819999914,156.8700820999984,156.8700820999984,156.8700820999984,156.8700820999984,156.8700820999984,156.8700820999984,156.8700820999984,158.90182389999973,158.90182389999973,158.90182389999973,158.90182389999973,158.90182389999973,158.90182389999973,158.90182389999973,66,45,84,45,84,70,158.90182389999973,160.6361555000003,,,,,,,,,,,,３１０,f,２０,2023-05-18_15h29.42.282,RL,2022.2.5,60.143249191195075,
33,58,79,58,0,23,23,23,,,,,,,,,,,None,160.6361555000003,160.6361555000003,160.6361555000003,160.6361555000003,160.6361555000003,160.6361555000003,j,0.29196479999882285,160.95428059999904,160.95428059999904,160.95428059999904,160.95428059999904,160.95428059999904,160.95428059999904,161.25339610000083,162.43632179999986,162.43632179999986,162.43632179999986,162.43632179999986,162.43632179999986,162.43632179999986,162.43632179999986,162.43632179999986,162.43632179999986,162.43632179999986,162.43632179999986,162.43632179999986,162.43632179999986,162.43632179999986,163.91759860000093,163.91759860000093,163.91759860000093,163.91759860000093,163.91759860000093,163.91759860000093,163.91759860000093,58,33,79,58,58,70,163.91759860000093,165.8518664999974,,,,,,,,,,,,３１０,f,２０,2023-05-18_15h29.42.282,RL,2022.2.5,60.143249191195075,
39,56,80,48,0,24,24,24,,,,,,,,,,,None,165.8518664999974,165.8518664999974,165.8518664999974,165.8518664999974,165.8518664999974,165.8518664999974,f,0.3000291999996989,166.17000039999766,166.17000039999766,166.17000039999766,166.17000039999766,166.17000039999766,166.17000039999766,166.45219279999947,167.6516573000008,167.6516573000008,167.6516573000008,167.6516573000008,167.6516573000008,167.6516573000008,167.63550539999778,167.6516573000008,167.6516573000008,167.6516573000008,167.6516573000008,167.6516573000008,167.6516573000008,167.6516573000008,169.13274589999855,169.13274589999855,169.13274589999855,169.13274589999855,169.13274589999855,169.13274589999855,169.13274589999855,56,39,80,48,56,70,169.13274589999855,170.66787529999783,,,,,,,,,,,,３１０,f,２０,2023-05-18_15h29.42.282,RL,2022.2.5,60.143249191195075,
45,64,77,50,0,25,25,25,,,,,,,,,,,None,170.66787529999783,170.66787529999783,170.66787529999783,170.66787529999783,170.66787529999783,170.66787529999783,r,0.3058446000031836,171.00131599999804,171.00131599999804,171.00131599999804,171.00131599999804,171.00131599999804,171.00131599999804,171.28440599999885,172.86798999999883,172.86798999999883,172.86798999999883,172.86798999999883,172.86798999999883,172.86798999999883,172.85126010000022,172.86798999999883,172.86798999999883,172.86798999999883,172.86798999999883,172.86798999999883,172.86798999999883,172.86798999999883,174.7327093999993,174.7327093999993,174.7327093999993,174.7327093999993,174.7327093999993,174.7327093999993,174.7327093999993,64,45,77,50,45,70,174.7327093999993,176.58335169999918,,,,,,,,,,,,３１０,f,２０,2023-05-18_15h29.42.282,RL,2022.2.5,60.143249191195075,
35,71,75,58,0,26,26,26,,,,,,,,,,,None,176.58335169999918,176.58335169999918,176.58335169999918,176.58335169999918,176.58335169999918,176.58335169999918,i,0.22078889999829698,176.83619940000062,176.83619940000062,176.83619940000062,176.83619940000062,176.83619940000062,176.83619940000062,177.1334070999983,178.31640200000038,178.31640200000038,178.31640200000038,178.31640200000038,178.31640200000038,178.31640200000038,178.31640200000038,178.31640200000038,178.31640200000038,178.31640200000038,178.31640200000038,178.31640200000038,178.31640200000038,178.31640200000038,179.79851140000028,179.79851140000028,179.79851140000028,179.79851140000028,179.79851140000028,179.79851140000028,179.79851140000028,71,35,75,58,75,70,179.79851140000028,181.3991434999989,,,,,,,,,,,,３１０,f,２０,2023-05-18_15h29.42.282,RL,2022.2.5,60.143249191195075,
30,61,78,61,0,27,27,27,,,,,,,,,,,None,181.3991434999989,181.3991434999989,181.3991434999989,181.3991434999989,181.3991434999989,181.3991434999989,f,0.3423923999980616,181.76621549999982,181.76621549999982,181.76621549999982,181.76621549999982,181.76621549999982,181.76621549999982,182.04939879999802,184.0160219999998,184.0160219999998,184.0160219999998,184.0160219999998,184.0160219999998,184.0160219999998,183.99915110000074,184.0160219999998,184.0160219999998,184.0160219999998,184.0160219999998,184.0160219999998,184.0160219999998,184.0160219999998,186.26398139999947,186.26398139999947,186.26398139999947,186.26398139999947,186.26398139999947,186.26398139999947,186.26398139999947,61,30,78,61,61,70,186.26398139999947,188.23125319999963,,,,,,,,,,,,３１０,f,２０,2023-05-18_15h29.42.282,RL,2022.2.5,60.143249191195075,
37,61,86,56,0,28,28,28,,,,,,,,,,,None,188.23125319999963,188.23125319999963,188.23125319999963,188.23125319999963,188.23125319999963,188.23125319999963,i,0.24138829999719746,188.49990989999787,188.49990989999787,188.49990989999787,188.49990989999787,188.49990989999787,188.49990989999787,188.7815573000007,190.43150419999802,190.43150419999802,190.43150419999802,190.43150419999802,190.43150419999802,190.43150419999802,190.41431190000003,190.43150419999802,190.43150419999802,190.43150419999802,190.43150419999802,190.43150419999802,190.43150419999802,190.43150419999802,192.36299049999798,192.36299049999798,192.36299049999798,192.36299049999798,192.36299049999798,192.36299049999798,192.36299049999798,61,37,86,56,86,70,192.36299049999798,193.88032999999996,,,,,,,,,,,,３１０,f,２０,2023-05-18_15h29.42.282,RL,2022.2.5,60.143249191195075,
41,62,82,45,0,29,29,29,,,,,,,,,,,None,193.88032999999996,193.88032999999996,193.88032999999996,193.88032999999996,193.88032999999996,193.88032999999996,f,0.26163760000054026,194.16421999999875,194.16421999999875,194.16421999999875,194.16421999999875,194.16421999999875,194.16421999999875,194.4471334000009,196.16330259999813,196.16330259999813,196.16330259999813,196.16330259999813,196.16330259999813,196.16330259999813,196.1473091000007,196.16330259999813,196.16330259999813,196.16330259999813,196.16330259999813,196.16330259999813,196.16330259999813,196.16330259999813,198.16189830000076,198.16189830000076,198.16189830000076,198.16189830000076,198.16189830000076,198.16189830000076,198.16189830000076,62,41,82,45,62,70,198.16189830000076,199.89621749999787,,,,,,,,,,,,３１０,f,２０,2023-05-18_15h29.42.282,RL,2022.2.5,60.143249191195075,
42,51,85,56,0,30,30,30,,,,,,,,,,,None,199.89621749999787,199.89621749999787,199.89621749999787,199.89621749999787,199.89621749999787,199.89621749999787,i,0.27308560000165016,200.19820409999738,200.19820409999738,200.19820409999738,200.19820409999738,200.19820409999738,200.19820409999738,200.47987849999845,202.495814599999,202.495814599999,202.495814599999,202.495814599999,202.495814599999,202.495814599999,202.4788856999985,202.495814599999,202.495814599999,202.495814599999,202.495814599999,202.495814599999,202.495814599999,202.495814599999,204.79377119999845,204.79377119999845,204.79377119999845,204.79377119999845,204.79377119999845,204.79377119999845,204.79377119999845,51,42,85,56,85,70,204.79377119999845,206.5780941999983,,,,,,,,,,,,３１０,f,２０,2023-05-18_15h29.42.282,RL,2022.2.5,60.143249191195075,
40,61,81,57,0,31,31,31,,,,,,,,,,,None,206.5780941999983,206.5780941999983,206.5780941999983,206.5780941999983,206.5780941999983,206.5780941999983,f,0.24539699999877485,206.8452021999983,206.8452021999983,206.8452021999983,206.8452021999983,206.8452021999983,206.8452021999983,207.12796279999748,208.9447259999979,208.9447259999979,208.9447259999979,208.9447259999979,208.9447259999979,208.9447259999979,208.92804550000074,208.9447259999979,208.9447259999979,208.9447259999979,208.9447259999979,208.9447259999979,208.9447259999979,208.9447259999979,211.04262749999907,211.04262749999907,211.04262749999907,211.04262749999907,211.04262749999907,211.04262749999907,211.04262749999907,61,40,81,57,61,70,211.04262749999907,212.96023889999924,,,,,,,,,,,,３１０,f,２０,2023-05-18_15h29.42.282,RL,2022.2.5,60.143249191195075,
45,64,79,52,0,32,32,32,,,,,,,,,,,None,212.96023889999924,212.96023889999924,212.96023889999924,212.96023889999924,212.96023889999924,212.96023889999924,i,0.27867309999783174,213.26216089999798,213.26216089999798,213.26216089999798,213.26216089999798,213.26216089999798,213.26216089999798,213.56069849999767,215.47668340000018,215.47668340000018,215.47668340000018,215.47668340000018,215.47668340000018,215.47668340000018,215.47668340000018,215.47668340000018,215.47668340000018,215.47668340000018,215.47668340000018,215.47668340000018,215.47668340000018,215.47668340000018,217.69133470000088,217.69133470000088,217.69133470000088,217.69133470000088,217.69133470000088,217.69133470000088,217.69133470000088,64,45,79,52,79,70,217.69133470000088,219.4424799999979,,,,,,,,,,,,３１０,f,２０,2023-05-18_15h29.42.282,RL,2022.2.5,60.143249191195075,
39,61,82,45,0,33,33,33,,,,,,,,,,,None,219.4424799999979,219.4424799999979,219.4424799999979,219.4424799999979,219.4424799999979,219.4424799999979,r,0.2944740999992064,219.76101349999954,219.76101349999954,219.76101349999954,219.76101349999954,219.76101349999954,219.76101349999954,220.04265719999967,221.45923480000056,221.45923480000056,221.45923480000056,221.45923480000056,221.45923480000056,221.45923480000056,221.44281579999733,221.45923480000056,221.45923480000056,221.45923480000056,221.45923480000056,221.45923480000056,221.45923480000056,221.45923480000056,223.157009999999,223.157009999999,223.157009999999,223.157009999999,223.157009999999,223.157009999999,223.157009999999,61,39,82,45,39,70,223.157009999999,224.95824699999866,,,,,,,,,,,,３１０,f,２０,2023-05-18_15h29.42.282,RL,2022.2.5,60.143249191195075,
32,59,79,46,0,34,34,34,,,,,,,,,,,None,224.95824699999866,224.95824699999866,224.95824699999866,224.95824699999866,224.95824699999866,224.95824699999866,i,0.31687479999891366,225.29189919999772,225.29189919999772,225.29189919999772,225.29189919999772,225.29189919999772,225.29189919999772,225.59182639999926,227.1580288999976,227.1580288999976,227.1580288999976,227.1580288999976,227.1580288999976,227.1580288999976,227.1580288999976,227.1580288999976,227.1580288999976,227.1580288999976,227.1580288999976,227.1580288999976,227.1580288999976,227.1580288999976,229.0226509999993,229.0226509999993,229.0226509999993,229.0226509999993,229.0226509999993,229.0226509999993,229.0226509999993,59,32,79,46,79,70,229.0226509999993,230.74040790000072,,,,,,,,,,,,３１０,f,２０,2023-05-18_15h29.42.282,RL,2022.2.5,60.143249191195075,
29,72,77,41,0,35,35,35,,,,,,,,,,,None,230.74040790000072,230.74040790000072,230.74040790000072,230.74040790000072,230.74040790000072,230.74040790000072,f,0.2789556999996421,231.04229769999802,231.04229769999802,231.04229769999802,231.04229769999802,231.04229769999802,231.04229769999802,231.34064020000005,232.39027480000004,232.39027480000004,232.39027480000004,232.39027480000004,232.39027480000004,232.39027480000004,232.39027480000004,232.39027480000004,232.39027480000004,232.39027480000004,232.39027480000004,232.39027480000004,232.39027480000004,232.39027480000004,233.73899619999793,233.73899619999793,233.73899619999793,233.73899619999793,233.73899619999793,233.73899619999793,233.73899619999793,72,29,77,41,72,70,233.73899619999793,235.52288240000053,,,,,,,,,,,,３１０,f,２０,2023-05-18_15h29.42.282,RL,2022.2.5,60.143249191195075,
20,70,83,47,0,36,36,36,,,,,,,,,,,None,235.52288240000053,235.52288240000053,235.52288240000053,235.52288240000053,235.52288240000053,235.52288240000053,i,1.010609700002533,236.55734110000049,236.55734110000049,236.55734110000049,236.55734110000049,236.55734110000049,236.55734110000049,236.83965869999884,237.8896296999992,237.8896296999992,237.8896296999992,237.8896296999992,237.8896296999992,237.8896296999992,237.87329239999963,237.8896296999992,237.8896296999992,237.8896296999992,237.8896296999992,237.8896296999992,237.8896296999992,237.8896296999992,239.22088319999966,239.22088319999966,239.22088319999966,239.22088319999966,239.22088319999966,239.22088319999966,239.22088319999966,70,20,83,47,83,70,239.22088319999966,241.17192670000077,,,,,,,,,,,,３１０,f,２０,2023-05-18_15h29.42.282,RL,2022.2.5,60.143249191195075,
23,63,80,55,0,37,37,37,,,,,,,,,,,None,241.17192670000077,241.17192670000077,241.17192670000077,241.17192670000077,241.17192670000077,241.17192670000077,f,0.3202737999999954,241.52386909999768,241.52386909999768,241.52386909999768,241.52386909999768,241.52386909999768,241.52386909999768,241.80568299999868,243.67195599999832,243.67195599999832,243.67195599999832,243.67195599999832,243.67195599999832,243.67195599999832,243.65520979999928,243.67195599999832,243.67195599999832,243.67195599999832,243.67195599999832,243.67195599999832,243.67195599999832,243.67195599999832,245.82036279999738,245.82036279999738,245.82036279999738,245.82036279999738,245.82036279999738,245.82036279999738,245.82036279999738,63,23,80,55,63,70,245.82036279999738,247.48802969999815,,,,,,,,,,,,３１０,f,２０,2023-05-18_15h29.42.282,RL,2022.2.5,60.143249191195075,
34,65,92,57,0,38,38,38,,,,,,,,,,,None,247.48802969999815,247.48802969999815,247.48802969999815,247.48802969999815,247.48802969999815,247.48802969999815,i,0.23902860000089277,247.7560248000009,247.7560248000009,247.7560248000009,247.7560248000009,247.7560248000009,247.7560248000009,248.05476669999916,249.47095020000052,249.47095020000052,249.47095020000052,249.47095020000052,249.47095020000052,249.47095020000052,249.47095020000052,249.47095020000052,249.47095020000052,249.47095020000052,249.47095020000052,249.47095020000052,249.47095020000052,249.47095020000052,251.18552640000053,251.18552640000053,251.18552640000053,251.18552640000053,251.18552640000053,251.18552640000053,251.18552640000053,65,34,92,57,92,70,251.18552640000053,252.72008429999914,,,,,,,,,,,,３１０,f,２０,2023-05-18_15h29.42.282,RL,2022.2.5,60.143249191195075,
38,55,80,51,0,39,39,39,,,,,,,,,,,None,252.72008429999914,252.72008429999914,252.72008429999914,252.72008429999914,252.72008429999914,252.72008429999914,f,0.2705174000002444,253.02081739999994,253.02081739999994,253.02081739999994,253.02081739999994,253.02081739999994,253.02081739999994,253.3040473000001,254.6367250000003,254.6367250000003,254.6367250000003,254.6367250000003,254.6367250000003,254.6367250000003,254.6197855999999,254.6367250000003,254.6367250000003,254.6367250000003,254.6367250000003,254.6367250000003,254.6367250000003,254.6367250000003,256.2514360999994,256.2514360999994,256.2514360999994,256.2514360999994,256.2514360999994,256.2514360999994,256.2514360999994,55,38,80,51,55,70,256.2514360999994,257.8194545000006,,,,,,,,,,,,３１０,f,２０,2023-05-18_15h29.42.282,RL,2022.2.5,60.143249191195075,
36,56,78,53,0,40,40,40,,,,,,,,,,,None,257.8194545000006,257.8194545000006,257.8194545000006,257.8194545000006,257.8194545000006,257.8194545000006,i,0.2913972999995167,258.1364453999995,258.1364453999995,258.1364453999995,258.1364453999995,258.1364453999995,258.1364453999995,258.41936639999767,259.48586989999967,259.48586989999967,259.48586989999967,259.48586989999967,259.48586989999967,259.48586989999967,259.4693836000006,259.48586989999967,259.48586989999967,259.48586989999967,259.48586989999967,259.48586989999967,259.48586989999967,259.48586989999967,260.8341346999987,260.8341346999987,260.8341346999987,260.8341346999987,260.8341346999987,260.8341346999987,260.8341346999987,56,36,78,53,78,70,260.8341346999987,262.7686298999979,,,,,,,,,,,,３１０,f,２０,2023-05-18_15h29.42.282,RL,2022.2.5,60.143249191195075,
36,59,83,53,0,41,41,41,,,,,,,,,,,None,262.7686298999979,262.7686298999979,262.7686298999979,262.7686298999979,262.7686298999979,262.7686298999979,j,0.23156100000051083,263.0189991999978,263.0189991999978,263.0189991999978,263.0189991999978,263.0189991999978,263.0189991999978,263.3019752,264.8017493999978,264.8017493999978,264.8017493999978,264.8017493999978,264.8017493999978,264.8017493999978,264.7852435999994,264.8017493999978,264.8017493999978,264.8017493999978,264.8017493999978,264.8017493999978,264.8017493999978,264.8017493999978,266.5828760000004,266.5828760000004,266.5828760000004,266.5828760000004,266.5828760000004,266.5828760000004,266.5828760000004,59,36,83,53,53,70,266.5828760000004,268.15049480000016,,,,,,,,,,,,３１０,f,２０,2023-05-18_15h29.42.282,RL,2022.2.5,60.143249191195075,
30,68,88,55,0,42,42,42,,,,,,,,,,,None,268.15049480000016,268.15049480000016,268.15049480000016,268.15049480000016,268.15049480000016,268.15049480000016,i,0.25932620000094175,268.4346555999982,268.4346555999982,268.4346555999982,268.4346555999982,268.4346555999982,268.4346555999982,268.7173612999977,270.56738439999754,270.56738439999754,270.56738439999754,270.56738439999754,270.56738439999754,270.56738439999754,270.55115809999916,270.56738439999754,270.56738439999754,270.56738439999754,270.56738439999754,270.56738439999754,270.56738439999754,270.56738439999754,272.69861019999735,272.69861019999735,272.69861019999735,272.69861019999735,272.69861019999735,272.69861019999735,272.69861019999735,68,30,88,55,88,70,272.69861019999735,274.24956999999995,,,,,,,,,,,,３１０,f,２０,2023-05-18_15h29.42.282,RL,2022.2.5,60.143249191195075,
27,59,85,50,0,43,43,43,,,,,,,,,,,None,274.24956999999995,274.24956999999995,274.24956999999995,274.24956999999995,274.24956999999995,274.24956999999995,r,0.2225341000012122,274.50001129999873,274.50001129999873,274.50001129999873,274.50001129999873,274.50001129999873,274.50001129999873,274.78320990000066,276.3164614999987,276.3164614999987,276.3164614999987,276.3164614999987,276.3164614999987,276.3164614999987,276.2995081000008,276.3164614999987,276.3164614999987,276.3164614999987,276.3164614999987,276.3164614999987,276.3164614999987,276.3164614999987,278.1306872999994,278.1306872999994,278.1306872999994,278.1306872999994,278.1306872999994,278.1306872999994,278.1306872999994,59,27,85,50,27,70,278.1306872999994,279.91580429999885,,,,,,,,,,,,３１０,f,２０,2023-05-18_15h29.42.282,RL,2022.2.5,60.143249191195075,
31,70,80,52,0,44,44,44,,,,,,,,,,,None,279.91580429999885,279.91580429999885,279.91580429999885,279.91580429999885,279.91580429999885,279.91580429999885,i,0.2586188999994192,280.19898309999917,280.19898309999917,280.19898309999917,280.19898309999917,280.19898309999917,280.19898309999917,280.48224109999865,282.1988225999994,282.1988225999994,282.1988225999994,282.1988225999994,282.1988225999994,282.1988225999994,282.182301599998,282.1988225999994,282.1988225999994,282.1988225999994,282.1988225999994,282.1988225999994,282.1988225999994,282.1988225999994,284.1964420000004,284.1964420000004,284.1964420000004,284.1964420000004,284.1964420000004,284.1964420000004,284.1964420000004,70,31,80,52,80,70,284.1964420000004,285.99766439999803,,,,,,,,,,,,３１０,f,２０,2023-05-18_15h29.42.282,RL,2022.2.5,60.143249191195075,
32,72,73,60,0,45,45,45,,,,,,,,,,,None,285.99766439999803,285.99766439999803,285.99766439999803,285.99766439999803,285.99766439999803,285.99766439999803,i,0.2994161000024178,286.3148555000007,286.3148555000007,286.3148555000007,286.3148555000007,286.3148555000007,286.3148555000007,286.5982241999991,288.19775049999953,288.19775049999953,288.19775049999953,288.19775049999953,288.19775049999953,288.19775049999953,288.1812768999989,288.19775049999953,288.19775049999953,288.19775049999953,288.19775049999953,288.19775049999953,288.19775049999953,288.19775049999953,290.07923839999785,290.07923839999785,290.07923839999785,290.07923839999785,290.07923839999785,290.07923839999785,290.07923839999785,72,32,73,60,73,70,290.07923839999785,292.0635239000003,,,,,,,,,,,,３１０,f,２０,2023-05-18_15h29.42.282,RL,2022.2.5,60.143249191195075,
33,70,82,57,0,46,46,46,,,,,,,,,,,None,292.0635239000003,292.0635239000003,292.0635239000003,292.0635239000003,292.0635239000003,292.0635239000003,i,0.3449789000005694,292.4314317999997,292.4314317999997,292.4314317999997,292.4314317999997,292.4314317999997,292.4314317999997,292.7137335999978,293.89638919999925,293.89638919999925,293.89638919999925,293.89638919999925,293.89638919999925,293.89638919999925,293.8799732000007,293.89638919999925,293.89638919999925,293.89638919999925,293.89638919999925,293.89638919999925,293.89638919999925,293.89638919999925,295.36113549999936,295.36113549999936,295.36113549999936,295.36113549999936,295.36113549999936,295.36113549999936,295.36113549999936,70,33,82,57,82,70,295.36113549999936,297.32917019999877,,,,,,,,,,,,３１０,f,２０,2023-05-18_15h29.42.282,RL,2022.2.5,60.143249191195075,
39,66,84,61,0,47,47,47,,,,,,,,,,,None,297.32917019999877,297.32917019999877,297.32917019999877,297.32917019999877,297.32917019999877,297.32917019999877,i,0.2898090999988199,297.6469313999987,297.6469313999987,297.6469313999987,297.6469313999987,297.6469313999987,297.6469313999987,297.92952610000066,299.6959191999995,299.6959191999995,299.6959191999995,299.6959191999995,299.6959191999995,299.6959191999995,299.6794573999978,299.6959191999995,299.6959191999995,299.6959191999995,299.6959191999995,299.6959191999995,299.6959191999995,299.6959191999995,301.7435497999977,301.7435497999977,301.7435497999977,301.7435497999977,301.7435497999977,301.7435497999977,301.7435497999977,66,39,84,61,84,70,301.7435497999977,303.6445533999977,,,,,,,,,,,,３１０,f,２０,2023-05-18_15h29.42.282,RL,2022.2.5,60.143249191195075,
46,63,75,62,0,48,48,48,,,,,,,,,,,None,303.6445533999977,303.6445533999977,303.6445533999977,303.6445533999977,303.6445533999977,303.6445533999977,i,0.2936115999982576,303.96314939999866,303.96314939999866,303.96314939999866,303.96314939999866,303.96314939999866,303.96314939999866,304.2616104000008,305.57807649999813,305.57807649999813,305.57807649999813,305.57807649999813,305.57807649999813,305.57807649999813,305.57807649999813,305.57807649999813,305.57807649999813,305.57807649999813,305.57807649999813,305.57807649999813,305.57807649999813,305.57807649999813,307.1927685999981,307.1927685999981,307.1927685999981,307.1927685999981,307.1927685999981,307.1927685999981,307.1927685999981,63,46,75,62,75,70,307.1927685999981,308.8606412000008,,,,,,,,,,,,３１０,f,２０,2023-05-18_15h29.42.282,RL,2022.2.5,60.143249191195075,
50,66,72,57,0,49,49,49,,,,,,,,,,,None,308.8606412000008,308.8606412000008,308.8606412000008,308.8606412000008,308.8606412000008,308.8606412000008,i,0.28715680000095745,309.17744200000016,309.17744200000016,309.17744200000016,309.17744200000016,309.17744200000016,309.17744200000016,309.4604900999984,311.09392389999994,311.09392389999994,311.09392389999994,311.09392389999994,311.09392389999994,311.09392389999994,311.07690419999926,311.09392389999994,311.09392389999994,311.09392389999994,311.09392389999994,311.09392389999994,311.09392389999994,311.09392389999994,313.008103199998,313.008103199998,313.008103199998,313.008103199998,313.008103199998,313.008103199998,313.008103199998,66,50,72,57,72,70,313.008103199998,314.90927889999875,,,,,,,,,,,,３１０,f,２０,2023-05-18_15h29.42.282,RL,2022.2.5,60.143249191195075,
46,62,74,58,0,50,50,50,,,,,,,,,,,None,314.90927889999875,314.90927889999875,314.90927889999875,314.90927889999875,314.90927889999875,314.90927889999875,i,0.3166820000005828,315.2429953999999,315.2429953999999,315.2429953999999,315.2429953999999,315.2429953999999,315.2429953999999,315.5430778000009,317.05926550000004,317.05926550000004,317.05926550000004,317.05926550000004,317.05926550000004,317.05926550000004,317.05926550000004,317.05926550000004,317.05926550000004,317.05926550000004,317.05926550000004,317.05926550000004,317.05926550000004,317.05926550000004,318.8736518000005,318.8736518000005,318.8736518000005,318.8736518000005,318.8736518000005,318.8736518000005,318.8736518000005,62,46,74,58,74,70,318.8736518000005,320.4254245999982,,,,,,,,,,,,３１０,f,２０,2023-05-18_15h29.42.282,RL,2022.2.5,60.143249191195075,
56,63,81,57,0,51,51,51,,,,,,,,,,,None,320.4254245999982,320.4254245999982,320.4254245999982,320.4254245999982,320.4254245999982,320.4254245999982,i,0.3180647000008321,320.7778115000001,320.7778115000001,320.7778115000001,320.7778115000001,320.7778115000001,320.7778115000001,321.07567969999945,322.50836720000007,322.50836720000007,322.50836720000007,322.50836720000007,322.50836720000007,322.50836720000007,322.50836720000007,322.50836720000007,322.50836720000007,322.50836720000007,322.50836720000007,322.50836720000007,322.50836720000007,322.50836720000007,324.2396888000003,324.2396888000003,324.2396888000003,324.2396888000003,324.2396888000003,324.2396888000003,324.2396888000003,63,56,81,57,81,70,324.2396888000003,325.85700630000065,,,,,,,,,,,,３１０,f,２０,2023-05-18_15h29.42.282,RL,2022.2.5,60.143249191195075,
51,61,72,56,0,52,52,52,,,,,,,,,,,None,325.85700630000065,325.85700630000065,325.85700630000065,325.85700630000065,325.85700630000065,325.85700630000065,i,0.2788746000005631,326.15781109999807,326.15781109999807,326.15781109999807,326.15781109999807,326.15781109999807,326.15781109999807,326.4410850999993,327.65781849999985,327.65781849999985,327.65781849999985,327.65781849999985,327.65781849999985,327.65781849999985,327.6410290999993,327.65781849999985,327.65781849999985,327.65781849999985,327.65781849999985,327.65781849999985,327.65781849999985,327.65781849999985,329.1553309999981,329.1553309999981,329.1553309999981,329.1553309999981,329.1553309999981,329.1553309999981,329.1553309999981,61,51,72,56,72,70,329.1553309999981,331.1065712999989,,,,,,,,,,,,３１０,f,２０,2023-05-18_15h29.42.282,RL,2022.2.5,60.143249191195075,
42,64,81,50,0,53,53,53,,,,,,,,,,,None,331.1065712999989,331.1065712999989,331.1065712999989,331.1065712999989,331.1065712999989,331.1065712999989,i,0.29882639999777894,331.4273570999976,331.4273570999976,331.4273570999976,331.4273570999976,331.4273570999976,331.4273570999976,331.70720040000015,333.45668619999924,333.45668619999924,333.45668619999924,333.45668619999924,333.45668619999924,333.45668619999924,333.4401638999989,333.45668619999924,333.45668619999924,333.45668619999924,333.45668619999924,333.45668619999924,333.45668619999924,333.45668619999924,335.48812349999935,335.48812349999935,335.48812349999935,335.48812349999935,335.48812349999935,335.48812349999935,335.48812349999935,64,42,81,50,81,70,335.48812349999935,337.2057820000009,,,,,,,,,,,,３１０,f,２０,2023-05-18_15h29.42.282,RL,2022.2.5,60.143249191195075,
54,56,75,46,0,54,54,54,,,,,,,,,,,None,337.2057820000009,337.2057820000009,337.2057820000009,337.2057820000009,337.2057820000009,337.2057820000009,i,0.43384160000277916,337.6766007999977,337.6766007999977,337.6766007999977,337.6766007999977,337.6766007999977,337.6766007999977,337.9554954999985,339.83847740000056,339.83847740000056,339.83847740000056,339.83847740000056,339.83847740000056,339.83847740000056,339.80555249999816,339.83847740000056,339.83847740000056,339.83847740000056,339.83847740000056,339.83847740000056,339.83847740000056,339.83847740000056,341.9863372,341.9863372,341.9863372,341.9863372,341.9863372,341.9863372,341.9863372,56,54,75,46,75,70,341.9863372,343.72127460000047,,,,,,,,,,,,３１０,f,２０,2023-05-18_15h29.42.282,RL,2022.2.5,60.143249191195075,
50,53,81,48,0,55,55,55,,,,,,,,,,,None,343.72127460000047,343.72127460000047,343.72127460000047,343.72127460000047,343.72127460000047,343.72127460000047,i,0.33053560000189464,344.07323149999866,344.07323149999866,344.07323149999866,344.07323149999866,344.07323149999866,344.07323149999866,344.35438819999763,345.5375887000009,345.5375887000009,345.5375887000009,345.5375887000009,345.5375887000009,345.5375887000009,345.5047321999991,345.5375887000009,345.5375887000009,345.5375887000009,345.5375887000009,345.5375887000009,345.5375887000009,345.5375887000009,346.9856182000003,346.9856182000003,346.9856182000003,346.9856182000003,346.9856182000003,346.9856182000003,346.9856182000003,53,50,81,48,81,70,346.9856182000003,348.53699810000035,,,,,,,,,,,,３１０,f,２０,2023-05-18_15h29.42.282,RL,2022.2.5,60.143249191195075,
62,58,84,47,0,56,56,56,,,,,,,,,,,None,348.53699810000035,348.53699810000035,348.53699810000035,348.53699810000035,348.53699810000035,348.53699810000035,i,0.285341700000572,348.8542395999975,348.8542395999975,348.8542395999975,348.8542395999975,348.8542395999975,348.8542395999975,349.13676269999996,351.1034061999999,351.1034061999999,351.1034061999999,351.1034061999999,351.1034061999999,351.1034061999999,351.08653349999804,351.1034061999999,351.1034061999999,351.1034061999999,351.1034061999999,351.1034061999999,351.1034061999999,351.1034061999999,353.3513263999994,353.3513263999994,353.3513263999994,353.3513263999994,353.3513263999994,353.3513263999994,353.3513263999994,58,62,84,47,84,70,353.3513263999994,355.28578389999893,,,,,,,,,,,,３１０,f,２０,2023-05-18_15h29.42.282,RL,2022.2.5,60.143249191195075,
50,55,75,45,0,57,57,57,,,,,,,,,,,None,355.28578389999893,355.28578389999893,355.28578389999893,355.28578389999893,355.28578389999893,355.28578389999893,i,0.3073745000001509,355.61935670000094,355.61935670000094,355.61935670000094,355.61935670000094,355.61935670000094,355.61935670000094,355.90265799999906,357.5052942000002,357.5052942000002,357.5052942000002,357.5052942000002,357.5052942000002,357.5052942000002,357.45205050000004,357.5052942000002,357.5052942000002,357.5052942000002,357.5052942000002,357.5052942000002,357.5052942000002,357.5052942000002,359.35042969999995,359.35042969999995,359.35042969999995,359.35042969999995,359.35042969999995,359.35042969999995,359.35042969999995,55,50,75,45,75,70,359.35042969999995,361.30114709999907,,,,,,,,,,,,３１０,f,２０,2023-05-18_15h29.42.282,RL,2022.2.5,60.143249191195075,
58,51,70,39,0,58,58,58,,,,,,,,,,,None,361.30114709999907,361.30114709999907,361.30114709999907,361.30114709999907,361.30114709999907,361.30114709999907,i,0.3322463999975298,361.6531460999977,361.6531460999977,361.6531460999977,361.6531460999977,361.6531460999977,361.6531460999977,361.95163200000025,362.9678868999981,362.9678868999981,362.9678868999981,362.9678868999981,362.9678868999981,362.9678868999981,362.9678868999981,362.9678868999981,362.9678868999981,362.9678868999981,362.9678868999981,362.9678868999981,362.9678868999981,362.9678868999981,364.2826915000005,364.2826915000005,364.2826915000005,364.2826915000005,364.2826915000005,364.2826915000005,364.2826915000005,51,58,70,39,70,70,364.2826915000005,366.1004647000009,,,,,,,,,,,,３１０,f,２０,2023-05-18_15h29.42.282,RL,2022.2.5,60.143249191195075,
54,59,74,45,0,59,59,59,,,,,,,,,,,None,366.1004647000009,366.1004647000009,366.1004647000009,366.1004647000009,366.1004647000009,366.1004647000009,i,0.31836960000146064,366.45504119999896,366.45504119999896,366.45504119999896,366.45504119999896,366.45504119999896,366.45504119999896,366.7339557999985,367.85035739999876,367.85035739999876,367.85035739999876,367.85035739999876,367.85035739999876,367.85035739999876,367.833770199999,367.85035739999876,367.85035739999876,367.85035739999876,367.85035739999876,367.85035739999876,367.85035739999876,367.85035739999876,369.24830029999794,369.24830029999794,369.24830029999794,369.24830029999794,369.24830029999794,369.24830029999794,369.24830029999794,59,54,74,45,74,70,369.24830029999794,370.9829370000007,,,,,,,,,,,,３１０,f,２０,2023-05-18_15h29.42.282,RL,2022.2.5,60.143249191195075,
52,52,70,36,0,60,60,60,,,,,,,,,,,None,370.9829370000007,370.9829370000007,370.9829370000007,370.9829370000007,370.9829370000007,370.9829370000007,f,0.2867809999988822,371.2999591000007,371.2999591000007,371.2999591000007,371.2999591000007,371.2999591000007,371.2999591000007,371.6000301999993,373.59972109999944,373.59972109999944,373.59972109999944,373.59972109999944,373.59972109999944,373.59972109999944,373.59972109999944,373.59972109999944,373.59972109999944,373.59972109999944,373.59972109999944,373.59972109999944,373.59972109999944,373.59972109999944,375.89726769999834,375.89726769999834,375.89726769999834,375.89726769999834,375.89726769999834,375.89726769999834,375.89726769999834,52,52,70,36,52,70,375.89726769999834,377.6648252999985,,,,,,,,,,,,３１０,f,２０,2023-05-18_15h29.42.282,RL,2022.2.5,60.143249191195075,
54,65,76,42,0,61,61,61,,,,,,,,,,,None,377.6648252999985,377.6648252999985,377.6648252999985,377.6648252999985,377.6648252999985,377.6648252999985,i,0.2773697999982687,377.9701462999983,377.9701462999983,377.9701462999983,377.9701462999983,377.9701462999983,377.9701462999983,378.2651979000002,379.63194219999787,379.63194219999787,379.63194219999787,379.63194219999787,379.63194219999787,379.63194219999787,379.63194219999787,379.63194219999787,379.63194219999787,379.63194219999787,379.63194219999787,379.63194219999787,379.63194219999787,379.63194219999787,381.29614310000034,381.29614310000034,381.29614310000034,381.29614310000034,381.29614310000034,381.29614310000034,381.29614310000034,65,54,76,42,76,70,381.29614310000034,382.9475887000008,,,,,,,,,,,,３１０,f,２０,2023-05-18_15h29.42.282,RL,2022.2.5,60.143249191195075,
43,55,79,36,0,62,62,62,,,,,,,,,,,None,382.9475887000008,382.9475887000008,382.9475887000008,382.9475887000008,382.9475887000008,382.9475887000008,i,0.3506734000002325,383.3332244999983,383.3332244999983,383.3332244999983,383.3332244999983,383.3332244999983,383.3332244999983,383.61461489999783,384.5306970999991,384.5306970999991,384.5306970999991,384.5306970999991,384.5306970999991,384.5306970999991,384.5141509999994,384.5306970999991,384.5306970999991,384.5306970999991,384.5306970999991,384.5306970999991,384.5306970999991,384.5306970999991,385.72908579999785,385.72908579999785,385.72908579999785,385.72908579999785,385.72908579999785,385.72908579999785,385.72908579999785,55,43,79,36,79,70,385.72908579999785,387.5302518999997,,,,,,,,,,,,３１０,f,２０,2023-05-18_15h29.42.282,RL,2022.2.5,60.143249191195075,
53,57,72,42,0,63,63,63,,,,,,,,,,,None,387.5302518999997,387.5302518999997,387.5302518999997,387.5302518999997,387.5302518999997,387.5302518999997,i,0.3107830000008107,387.86374779999824,387.86374779999824,387.86374779999824,387.86374779999824,387.86374779999824,387.86374779999824,388.146783199998,389.49655399999756,389.49655399999756,389.49655399999756,389.49655399999756,389.49655399999756,389.49655399999756,389.48012279999966,389.49655399999756,389.49655399999756,389.49655399999756,389.49655399999756,389.49655399999756,389.49655399999756,389.49655399999756,391.1279175999989,391.1279175999989,391.1279175999989,391.1279175999989,391.1279175999989,391.1279175999989,391.1279175999989,57,53,72,42,72,70,391.1279175999989,392.96281369999997,,,,,,,,,,,,３１０,f,２０,2023-05-18_15h29.42.282,RL,2022.2.5,60.143249191195075,
43,45,70,31,0,64,64,64,,,,,,,,,,,None,392.96281369999997,392.96281369999997,392.96281369999997,392.96281369999997,392.96281369999997,392.96281369999997,i,0.3726819000003161,393.3628060999981,393.3628060999981,393.3628060999981,393.3628060999981,393.3628060999981,393.3628060999981,393.6626421000001,394.52927400000044,394.52927400000044,394.52927400000044,394.52927400000044,394.52927400000044,394.52927400000044,394.52927400000044,394.52927400000044,394.52927400000044,394.52927400000044,394.52927400000044,394.52927400000044,394.52927400000044,394.52927400000044,395.6946035000001,395.6946035000001,395.6946035000001,395.6946035000001,395.6946035000001,395.6946035000001,395.6946035000001,45,43,70,31,70,70,395.6946035000001,397.54467609999847,,,,,,,,,,,,３１０,f,２０,2023-05-18_15h29.42.282,RL,2022.2.5,60.143249191195075,
49,38,70,34,0,65,65,65,,,,,,,,,,,None,397.54467609999847,397.54467609999847,397.54467609999847,397.54467609999847,397.54467609999847,397.54467609999847,i,0.2993200999990222,397.8636019999976,397.8636019999976,397.8636019999976,397.8636019999976,397.8636019999976,397.8636019999976,398.145541599999,399.0450223000007,399.0450223000007,399.0450223000007,399.0450223000007,399.0450223000007,399.0450223000007,399.0289621999982,399.0450223000007,399.0450223000007,399.0450223000007,399.0450223000007,399.0450223000007,399.0450223000007,399.0450223000007,400.22657459999755,400.22657459999755,400.22657459999755,400.22657459999755,400.22657459999755,400.22657459999755,400.22657459999755,38,49,70,34,70,70,400.22657459999755,401.87831079999887,,,,,,,,,,,,３１０,f,２０,2023-05-18_15h29.42.282,RL,2022.2.5,60.143249191195075,
41,45,59,28,0,66,66,66,,,,,,,,,,,None,401.87831079999887,401.87831079999887,401.87831079999887,401.87831079999887,401.87831079999887,401.87831079999887,i,0.32497220000004745,402.22808449999866,402.22808449999866,402.22808449999866,402.22808449999866,402.22808449999866,402.22808449999866,402.5113380999974,404.0443161000003,404.0443161000003,404.0443161000003,404.0443161000003,404.0443161000003,404.0443161000003,404.02761180000016,404.0443161000003,404.0443161000003,404.0443161000003,404.0443161000003,404.0443161000003,404.0443161000003,404.0443161000003,405.85865170000034,405.85865170000034,405.85865170000034,405.85865170000034,405.85865170000034,405.85865170000034,405.85865170000034,45,41,59,28,59,70,405.85865170000034,407.4931390999991,,,,,,,,,,,,３１０,f,２０,2023-05-18_15h29.42.282,RL,2022.2.5,60.143249191195075,
50,48,66,30,0,67,67,67,,,,,,,,,,,None,407.4931390999991,407.4931390999991,407.4931390999991,407.4931390999991,407.4931390999991,407.4931390999991,i,0.26474659999803407,407.7777774999995,407.7777774999995,407.7777774999995,407.7777774999995,407.7777774999995,407.7777774999995,408.07688899999994,409.5431215999997,409.5431215999997,409.5431215999997,409.5431215999997,409.5431215999997,409.5431215999997,409.5431215999997,409.5431215999997,409.5431215999997,409.5431215999997,409.5431215999997,409.5431215999997,409.5431215999997,409.5431215999997,411.3082479000004,411.3082479000004,411.3082479000004,411.3082479000004,411.3082479000004,411.3082479000004,411.3082479000004,48,50,66,30,66,70,411.3082479000004,412.8591039999992,,,,,,,,,,,,３１０,f,２０,2023-05-18_15h29.42.282,RL,2022.2.5,60.143249191195075,
43,43,66,27,0,68,68,68,,,,,,,,,,,None,412.8591039999992,412.8591039999992,412.8591039999992,412.8591039999992,412.8591039999992,412.8591039999992,i,0.31382120000125724,413.19426960000055,413.19426960000055,413.19426960000055,413.19426960000055,413.19426960000055,413.19426960000055,413.49294929999814,414.35925249999855,414.35925249999855,414.35925249999855,414.35925249999855,414.35925249999855,414.35925249999855,414.35925249999855,414.35925249999855,414.35925249999855,414.35925249999855,414.35925249999855,414.35925249999855,414.35925249999855,414.35925249999855,415.5242051999994,415.5242051999994,415.5242051999994,415.5242051999994,415.5242051999994,415.5242051999994,415.5242051999994,43,43,66,27,66,70,415.5242051999994,417.2417810000006,,,,,,,,,,,,３１０,f,２０,2023-05-18_15h29.42.282,RL,2022.2.5,60.143249191195075,
45,45,67,22,0,69,69,69,,,,,,,,,,,None,417.2417810000006,417.2417810000006,417.2417810000006,417.2417810000006,417.2417810000006,417.2417810000006,i,0.5437143000017386,417.8089491999999,417.8089491999999,417.8089491999999,417.8089491999999,417.8089491999999,417.8089491999999,418.09145369999897,418.99202859999787,418.99202859999787,418.99202859999787,418.99202859999787,418.99202859999787,418.99202859999787,418.97525459999815,418.99202859999787,418.99202859999787,418.99202859999787,418.99202859999787,418.99202859999787,418.99202859999787,418.99202859999787,420.1731480999988,420.1731480999988,420.1731480999988,420.1731480999988,420.1731480999988,420.1731480999988,420.1731480999988,45,45,67,22,67,70,420.1731480999988,421.8241431999995,,,,,,,,,,,,３１０,f,２０,2023-05-18_15h29.42.282,RL,2022.2.5,60.143249191195075,
44,46,66,24,0,70,70,70,,,,,,,,,,,None,421.8241431999995,421.8241431999995,421.8241431999995,421.8241431999995,421.8241431999995,421.8241431999995,i,0.3719020999997156,422.224498399999,422.224498399999,422.224498399999,422.224498399999,422.224498399999,422.224498399999,422.5242271999996,423.4406025999997,423.4406025999997,423.4406025999997,423.4406025999997,423.4406025999997,423.4406025999997,423.4406025999997,423.4406025999997,423.4406025999997,423.4406025999997,423.4406025999997,423.4406025999997,423.4406025999997,423.4406025999997,424.65579499999876,424.65579499999876,424.65579499999876,424.65579499999876,424.65579499999876,424.65579499999876,424.65579499999876,46,44,66,24,66,70,424.65579499999876,426.4402181000005,,,,,,,,,,,,３１０,f,２０,2023-05-18_15h29.42.282,RL,2022.2.5,60.143249191195075,
41,55,63,20,0,71,71,71,,,,,,,,,,,None,426.4402181000005,426.4402181000005,426.4402181000005,426.4402181000005,426.4402181000005,426.4402181000005,f,0.30315340000015567,426.7754774999994,426.7754774999994,426.7754774999994,426.7754774999994,426.7754774999994,426.7754774999994,427.0572651000002,428.85628440000073,428.85628440000073,428.85628440000073,428.85628440000073,428.85628440000073,428.85628440000073,428.83969459999935,428.85628440000073,428.85628440000073,428.85628440000073,428.85628440000073,428.85628440000073,428.85628440000073,428.85628440000073,430.9378515999997,430.9378515999997,430.9378515999997,430.9378515999997,430.9378515999997,430.9378515999997,430.9378515999997,55,41,63,20,55,70,430.9378515999997,432.73880500000087,,,,,,,,,,,,３１０,f,２０,2023-05-18_15h29.42.282,RL,2022.2.5,60.143249191195075,
43,48,68,28,0,72,72,72,,,,,,,,,,,None,432.73880500000087,432.73880500000087,432.73880500000087,432.73880500000087,432.73880500000087,432.73880500000087,j,0.3189148000019486,433.0964294000005,433.0964294000005,433.0964294000005,433.0964294000005,433.0964294000005,433.0964294000005,433.3726553999986,434.3220263999974,434.3220263999974,434.3220263999974,434.3220263999974,434.3220263999974,434.3220263999974,434.2893041999996,434.3220263999974,434.3220263999974,434.3220263999974,434.3220263999974,434.3220263999974,434.3220263999974,434.3220263999974,435.53722019999987,435.53722019999987,435.53722019999987,435.53722019999987,435.53722019999987,435.53722019999987,435.53722019999987,48,43,68,28,28,70,435.53722019999987,437.5047541999993,,,,,,,,,,,,３１０,f,２０,2023-05-18_15h29.42.282,RL,2022.2.5,60.143249191195075,
49,50,66,23,0,73,73,73,,,,,,,,,,,None,437.5047541999993,437.5047541999993,437.5047541999993,437.5047541999993,437.5047541999993,437.5047541999993,i,0.30168219999904977,437.84472129999995,437.84472129999995,437.84472129999995,437.84472129999995,437.84472129999995,437.84472129999995,438.1219796000005,439.9712585999987,439.9712585999987,439.9712585999987,439.9712585999987,439.9712585999987,439.9712585999987,439.9543874999981,439.9712585999987,439.9712585999987,439.9712585999987,439.9712585999987,439.9712585999987,439.9712585999987,439.9712585999987,442.1027471999987,442.1027471999987,442.1027471999987,442.1027471999987,442.1027471999987,442.1027471999987,442.1027471999987,50,49,66,23,66,70,442.1027471999987,444.1034658999997,,,,,,,,,,,,３１０,f,２０,2023-05-18_15h29.42.282,RL,2022.2.5,60.143249191195075,
42,57,62,21,0,74,74,74,,,,,,,,,,,None,444.1034658999997,444.1034658999997,444.1034658999997,444.1034658999997,444.1034658999997,444.1034658999997,i,0.23554190000140807,444.3746475000007,444.3746475000007,444.3746475000007,444.3746475000007,444.3746475000007,444.3746475000007,444.6703000999987,446.10330509999767,446.10330509999767,446.10330509999767,446.10330509999767,446.10330509999767,446.10330509999767,446.10330509999767,446.10330509999767,446.10330509999767,446.10330509999767,446.10330509999767,446.10330509999767,446.10330509999767,446.10330509999767,447.8349034999992,447.8349034999992,447.8349034999992,447.8349034999992,447.8349034999992,447.8349034999992,447.8349034999992,57,42,62,21,62,70,447.8349034999992,449.3518459000006,,,,,,,,,,,,３１０,f,２０,2023-05-18_15h29.42.282,RL,2022.2.5,60.143249191195075,
40,43,65,24,0,75,75,75,,,,,,,,,,,q,463.86641939999754,463.86641939999754,463.86641939999754,463.86641939999754,463.86641939999754,463.86641939999754,j,0.8256409999994503,464.718198999999,464.718198999999,464.718198999999,464.718198999999,464.718198999999,464.718198999999,465.01694900000075,466.60007069999847,466.60007069999847,466.60007069999847,466.60007069999847,466.60007069999847,466.60007069999847,466.60007069999847,466.60007069999847,466.60007069999847,466.60007069999847,466.60007069999847,466.60007069999847,466.60007069999847,466.60007069999847,468.4810652999986,468.4810652999986,468.4810652999986,468.4810652999986,468.4810652999986,468.4810652999986,468.4810652999986,43,40,65,24,24,70,468.4810652999986,470.1155065999992,449.3518459000006,449.3518459000006,9.47329670000181,458.8515604999993,458.8515604999993,463.86641939999754,463.86641939999754,,,,,３１０,f,２０,2023-05-18_15h29.42.282,RL,2022.2.5,60.143249191195075,
46,43,62,13,0,76,76,76,,,,,,,,,,,None,470.1155065999992,470.1155065999992,470.1155065999992,470.1155065999992,470.1155065999992,470.1155065999992,i,0.24446769999849494,470.3828919000007,470.3828919000007,470.3828919000007,470.3828919000007,470.3828919000007,470.3828919000007,470.6659359999976,472.23213380000016,472.23213380000016,472.23213380000016,472.23213380000016,472.23213380000016,472.23213380000016,472.2155129999992,472.23213380000016,472.23213380000016,472.23213380000016,472.23213380000016,472.23213380000016,472.23213380000016,472.23213380000016,474.08050549999825,474.08050549999825,474.08050549999825,474.08050549999825,474.08050549999825,474.08050549999825,474.08050549999825,43,46,62,13,62,70,474.08050549999825,476.0652107999995,,,,,,,,,,,,３１０,f,２０,2023-05-18_15h29.42.282,RL,2022.2.5,60.143249191195075,
40,56,55,14,0,77,77,77,,,,,,,,,,,None,476.0652107999995,476.0652107999995,476.0652107999995,476.0652107999995,476.0652107999995,476.0652107999995,f,0.28462410000065574,476.38788139999815,476.38788139999815,476.38788139999815,476.38788139999815,476.38788139999815,476.38788139999815,476.664955799999,478.26453819999733,478.26453819999733,478.26453819999733,478.26453819999733,478.26453819999733,478.26453819999733,478.24779729999864,478.26453819999733,478.26453819999733,478.26453819999733,478.26453819999733,478.26453819999733,478.26453819999733,478.26453819999733,480.14595799999734,480.14595799999734,480.14595799999734,480.14595799999734,480.14595799999734,480.14595799999734,480.14595799999734,56,40,55,14,56,70,480.14595799999734,482.1139411999975,,,,,,,,,,,,３１０,f,２０,2023-05-18_15h29.42.282,RL,2022.2.5,60.143249191195075,
40,51,55,15,0,78,78,78,,,,,,,,,,,None,482.1139411999975,482.1139411999975,482.1139411999975,482.1139411999975,482.1139411999975,482.1139411999975,i,0.24305070000264095,482.38534199999776,482.38534199999776,482.38534199999776,482.38534199999776,482.38534199999776,482.38534199999776,482.6807098999998,483.54741880000074,483.54741880000074,483.54741880000074,483.54741880000074,483.54741880000074,483.54741880000074,483.54741880000074,483.54741880000074,483.54741880000074,483.54741880000074,483.54741880000074,483.54741880000074,483.54741880000074,483.54741880000074,484.7118640000008,484.7118640000008,484.7118640000008,484.7118640000008,484.7118640000008,484.7118640000008,484.7118640000008,51,40,55,15,55,70,484.7118640000008,486.2795671999993,,,,,,,,,,,,３１０,f,２０,2023-05-18_15h29.42.282,RL,2022.2.5,60.143249191195075,
42,48,64,19,0,79,79,79,,,,,,,,,,,None,486.2795671999993,486.2795671999993,486.2795671999993,486.2795671999993,486.2795671999993,486.2795671999993,r,0.28200120000110473,486.58164810000017,486.58164810000017,486.58164810000017,486.58164810000017,486.58164810000017,486.58164810000017,486.86326039999767,488.0629678999976,488.0629678999976,488.0629678999976,488.0629678999976,488.0629678999976,488.0629678999976,488.04650949999996,488.0629678999976,488.0629678999976,488.0629678999976,488.0629678999976,488.0629678999976,488.0629678999976,488.0629678999976,489.54428499999995,489.54428499999995,489.54428499999995,489.54428499999995,489.54428499999995,489.54428499999995,489.54428499999995,48,42,64,19,42,70,489.54428499999995,491.1617903000006,,,,,,,,,,,,３１０,f,２０,2023-05-18_15h29.42.282,RL,2022.2.5,60.143249191195075,
30,57,52,19,0,80,80,80,,,,,,,,,,,None,491.1617903000006,491.1617903000006,491.1617903000006,491.1617903000006,491.1617903000006,491.1617903000006,f,0.2653301999998803,491.4498817999993,491.4498817999993,491.4498817999993,491.4498817999993,491.4498817999993,491.4498817999993,491.7458211999983,493.6451120999991,493.6451120999991,493.6451120999991,493.6451120999991,493.6451120999991,493.6451120999991,493.6451120999991,493.6451120999991,493.6451120999991,493.6451120999991,493.6451120999991,493.6451120999991,493.6451120999991,493.6451120999991,495.84331929999826,495.84331929999826,495.84331929999826,495.84331929999826,495.84331929999826,495.84331929999826,495.84331929999826,57,30,52,19,57,70,495.84331929999826,497.3944918999987,,,,,,,,,,,,３１０,f,２０,2023-05-18_15h29.42.282,RL,2022.2.5,60.143249191195075,
41,66,57,18,0,81,81,81,,,,,,,,,,,None,497.3944918999987,497.3944918999987,497.3944918999987,497.3944918999987,497.3944918999987,497.3944918999987,i,0.28607389999888255,497.71515329999966,497.71515329999966,497.71515329999966,497.71515329999966,497.71515329999966,497.71515329999966,498.01117239999803,499.79413209999984,499.79413209999984,499.79413209999984,499.79413209999984,499.79413209999984,499.79413209999984,499.79413209999984,499.79413209999984,499.79413209999984,499.79413209999984,499.79413209999984,499.79413209999984,499.79413209999984,499.79413209999984,501.87609339999835,501.87609339999835,501.87609339999835,501.87609339999835,501.87609339999835,501.87609339999835,501.87609339999835,66,41,57,18,57,70,501.87609339999835,503.4433843000006,,,,,,,,,,,,３１０,f,２０,2023-05-18_15h29.42.282,RL,2022.2.5,60.143249191195075,
33,66,61,16,0,82,82,82,,,,,,,,,,,None,503.4433843000006,503.4433843000006,503.4433843000006,503.4433843000006,503.4433843000006,503.4433843000006,j,0.3751821000005293,503.8477619000005,503.8477619000005,503.8477619000005,503.8477619000005,503.8477619000005,503.8477619000005,504.1430588999974,505.1932878999978,505.1932878999978,505.1932878999978,505.1932878999978,505.1932878999978,505.1932878999978,505.1932878999978,505.1932878999978,505.1932878999978,505.1932878999978,505.1932878999978,505.1932878999978,505.1932878999978,505.1932878999978,506.54167360000065,506.54167360000065,506.54167360000065,506.54167360000065,506.54167360000065,506.54167360000065,506.54167360000065,66,33,61,16,16,70,506.54167360000065,508.25892979999844,,,,,,,,,,,,３１０,f,２０,2023-05-18_15h29.42.282,RL,2022.2.5,60.143249191195075,
32,60,60,29,0,83,83,83,,,,,,,,,,,None,508.25892979999844,508.25892979999844,508.25892979999844,508.25892979999844,508.25892979999844,508.25892979999844,f,0.35952870000255643,508.6441034999989,508.6441034999989,508.6441034999989,508.6441034999989,508.6441034999989,508.6441034999989,508.94268979999833,510.5257801000007,510.5257801000007,510.5257801000007,510.5257801000007,510.5257801000007,510.5257801000007,510.50944789999994,510.5257801000007,510.5257801000007,510.5257801000007,510.5257801000007,510.5257801000007,510.5257801000007,510.5257801000007,512.3901095000001,512.3901095000001,512.3901095000001,512.3901095000001,512.3901095000001,512.3901095000001,512.3901095000001,60,32,60,29,60,70,512.3901095000001,514.1580353999998,,,,,,,,,,,,３１０,f,２０,2023-05-18_15h29.42.282,RL,2022.2.5,60.143249191195075,
31,67,48,32,0,84,84,84,,,,,,,,,,,None,514.1580353999998,514.1580353999998,514.1580353999998,514.1580353999998,514.1580353999998,514.1580353999998,i,0.30043080000177724,514.4945168999984,514.4945168999984,514.4945168999984,514.4945168999984,514.4945168999984,514.4945168999984,514.7751253999995,516.1247183999985,516.1247183999985,516.1247183999985,516.1247183999985,516.1247183999985,516.1247183999985,516.1083952000008,516.1247183999985,516.1247183999985,516.1247183999985,516.1247183999985,516.1247183999985,516.1247183999985,516.1247183999985,517.7559022999994,517.7559022999994,517.7559022999994,517.7559022999994,517.7559022999994,517.7559022999994,517.7559022999994,67,31,48,32,48,70,517.7559022999994,519.6235080999977,,,,,,,,,,,,３１０,f,２０,2023-05-18_15h29.42.282,RL,2022.2.5,60.143249191195075,
33,57,58,24,0,85,85,85,,,,,,,,,,,None,519.6235080999977,519.6235080999977,519.6235080999977,519.6235080999977,519.6235080999977,519.6235080999977,r,0.3654452000009769,520.0077996,520.0077996,520.0077996,520.0077996,520.0077996,520.0077996,520.2907047999979,522.1237929999988,522.1237929999988,522.1237929999988,522.1237929999988,522.1237929999988,522.1237929999988,522.0905065999978,522.1237929999988,522.1237929999988,522.1237929999988,522.1237929999988,522.1237929999988,522.1237929999988,522.1237929999988,524.2216270999998,524.2216270999998,524.2216270999998,524.2216270999998,524.2216270999998,524.2216270999998,524.2216270999998,57,33,58,24,33,70,524.2216270999998,526.1557676999983,,,,,,,,,,,,３１０,f,２０,2023-05-18_15h29.42.282,RL,2022.2.5,60.143249191195075,
32,61,55,21,0,86,86,86,,,,,,,,,,,None,526.1557676999983,526.1557676999983,526.1557676999983,526.1557676999983,526.1557676999983,526.1557676999983,f,0.31641229999877396,526.4898369000002,526.4898369000002,526.4898369000002,526.4898369000002,526.4898369000002,526.4898369000002,526.7895862999976,527.9058632999986,527.9058632999986,527.9058632999986,527.9058632999986,527.9058632999986,527.9058632999986,527.8892138999981,527.9058632999986,527.9058632999986,527.9058632999986,527.9058632999986,527.9058632999986,527.9058632999986,527.9058632999986,529.3045053999995,529.3045053999995,529.3045053999995,529.3045053999995,529.3045053999995,529.3045053999995,529.3045053999995,61,32,55,21,61,70,529.3045053999995,531.1718149999979,,,,,,,,,,,,３１０,f,２０,2023-05-18_15h29.42.282,RL,2022.2.5,60.143249191195075,
35,60,55,29,0,87,87,87,,,,,,,,,,,None,531.1718149999979,531.1718149999979,531.1718149999979,531.1718149999979,531.1718149999979,531.1718149999979,f,0.2483990000000631,531.4387883999989,531.4387883999989,531.4387883999989,531.4387883999989,531.4387883999989,531.4387883999989,531.7386043999977,532.9053448999985,532.9053448999985,532.9053448999985,532.9053448999985,532.9053448999985,532.9053448999985,532.9053448999985,532.9053448999985,532.9053448999985,532.9053448999985,532.9053448999985,532.9053448999985,532.9053448999985,532.9053448999985,534.3700031000008,534.3700031000008,534.3700031000008,534.3700031000008,534.3700031000008,534.3700031000008,534.3700031000008,60,35,55,29,60,70,534.3700031000008,536.1712230999983,,,,,,,,,,,,３１０,f,２０,2023-05-18_15h29.42.282,RL,2022.2.5,60.143249191195075,
35,62,57,30,0,88,88,88,,,,,,,,,,,None,536.1712230999983,536.1712230999983,536.1712230999983,536.1712230999983,536.1712230999983,536.1712230999983,f,0.24739349999799742,536.4398495999994,536.4398495999994,536.4398495999994,536.4398495999994,536.4398495999994,536.4398495999994,536.7213978,538.4540736999988,538.4540736999988,538.4540736999988,538.4540736999988,538.4540736999988,538.4540736999988,538.4376740000007,538.4540736999988,538.4540736999988,538.4540736999988,538.4540736999988,538.4540736999988,538.4540736999988,538.4540736999988,540.4522035000009,540.4522035000009,540.4522035000009,540.4522035000009,540.4522035000009,540.4522035000009,540.4522035000009,62,35,57,30,62,70,540.4522035000009,542.0196257999996,,,,,,,,,,,,３１０,f,２０,2023-05-18_15h29.42.282,RL,2022.2.5,60.143249191195075,
39,50,52,32,0,89,89,89,,,,,,,,,,,None,542.0196257999996,542.0196257999996,542.0196257999996,542.0196257999996,542.0196257999996,542.0196257999996,f,0.24407869999777176,542.2880803000007,542.2880803000007,542.2880803000007,542.2880803000007,542.2880803000007,542.2880803000007,542.5704432999992,543.8698879000003,543.8698879000003,543.8698879000003,543.8698879000003,543.8698879000003,543.8698879000003,543.8530657999981,543.8698879000003,543.8698879000003,543.8698879000003,543.8698879000003,543.8698879000003,543.8698879000003,543.8698879000003,545.4518181999993,545.4518181999993,545.4518181999993,545.4518181999993,545.4518181999993,545.4518181999993,545.4518181999993,50,39,52,32,50,70,545.4518181999993,547.2189096000002,,,,,,,,,,,,３１０,f,２０,2023-05-18_15h29.42.282,RL,2022.2.5,60.143249191195075,
38,55,50,27,0,90,90,90,,,,,,,,,,,None,547.2189096000002,547.2189096000002,547.2189096000002,547.2189096000002,547.2189096000002,547.2189096000002,i,0.3867558999991161,547.6373740999989,547.6373740999989,547.6373740999989,547.6373740999989,547.6373740999989,547.6373740999989,547.9357692999984,549.8686510000007,549.8686510000007,549.8686510000007,549.8686510000007,549.8686510000007,549.8686510000007,549.8686510000007,549.8686510000007,549.8686510000007,549.8686510000007,549.8686510000007,549.8686510000007,549.8686510000007,549.8686510000007,552.1005244999978,552.1005244999978,552.1005244999978,552.1005244999978,552.1005244999978,552.1005244999978,552.1005244999978,55,38,50,27,50,70,552.1005244999978,553.934253899999,,,,,,,,,,,,３１０,f,２０,2023-05-18_15h29.42.282,RL,2022.2.5,60.143249191195075,
43,53,49,28,0,91,91,91,,,,,,,,,,,None,553.934253899999,553.934253899999,553.934253899999,553.934253899999,553.934253899999,553.934253899999,f,0.29737410000234377,554.2526875999974,554.2526875999974,554.2526875999974,554.2526875999974,554.2526875999974,554.2526875999974,554.5512629000004,555.8513003999979,555.8513003999979,555.8513003999979,555.8513003999979,555.8513003999979,555.8513003999979,555.8513003999979,555.8513003999979,555.8513003999979,555.8513003999979,555.8513003999979,555.8513003999979,555.8513003999979,555.8513003999979,557.4495848999977,557.4495848999977,557.4495848999977,557.4495848999977,557.4495848999977,557.4495848999977,557.4495848999977,53,43,49,28,53,70,557.4495848999977,559.0668819999992,,,,,,,,,,,,３１０,f,２０,2023-05-18_15h29.42.282,RL,2022.2.5,60.143249191195075,
44,50,40,20,0,92,92,92,,,,,,,,,,,None,559.0668819999992,559.0668819999992,559.0668819999992,559.0668819999992,559.0668819999992,559.0668819999992,i,0.27581399999689893,559.3681443999994,559.3681443999994,559.3681443999994,559.3681443999994,559.3681443999994,559.3681443999994,559.6671762999977,561.583382599998,561.583382599998,561.583382599998,561.583382599998,561.583382599998,561.583382599998,561.583382599998,561.583382599998,561.583382599998,561.583382599998,561.583382599998,561.583382599998,561.583382599998,561.583382599998,563.7984931999999,563.7984931999999,563.7984931999999,563.7984931999999,563.7984931999999,563.7984931999999,563.7984931999999,50,44,40,20,40,70,563.7984931999999,565.3159317999998,,,,,,,,,,,,３１０,f,２０,2023-05-18_15h29.42.282,RL,2022.2.5,60.143249191195075,
44,44,49,29,0,93,93,93,,,,,,,,,,,None,565.3159317999998,565.3159317999998,565.3159317999998,565.3159317999998,565.3159317999998,565.3159317999998,f,0.28636199999891687,565.6335164999982,565.6335164999982,565.6335164999982,565.6335164999982,565.6335164999982,565.6335164999982,565.9326010999976,567.2988640000003,567.2988640000003,567.2988640000003,567.2988640000003,567.2988640000003,567.2988640000003,567.2988640000003,567.2988640000003,567.2988640000003,567.2988640000003,567.2988640000003,567.2988640000003,567.2988640000003,567.2988640000003,568.9473982999989,568.9473982999989,568.9473982999989,568.9473982999989,568.9473982999989,568.9473982999989,568.9473982999989,44,44,49,29,44,70,568.9473982999989,570.4983632000003,,,,,,,,,,,,３１０,f,２０,2023-05-18_15h29.42.282,RL,2022.2.5,60.143249191195075,
51,48,56,33,0,94,94,94,,,,,,,,,,,None,570.4983632000003,570.4983632000003,570.4983632000003,570.4983632000003,570.4983632000003,570.4983632000003,r,0.3177834000016446,570.854249699998,570.854249699998,570.854249699998,570.854249699998,570.854249699998,570.854249699998,571.1318441000003,572.0482095000007,572.0482095000007,572.0482095000007,572.0482095000007,572.0482095000007,572.0482095000007,572.0149777999977,572.0482095000007,572.0482095000007,572.0482095000007,572.0482095000007,572.0482095000007,572.0482095000007,572.0482095000007,573.2297500999994,573.2297500999994,573.2297500999994,573.2297500999994,573.2297500999994,573.2297500999994,573.2297500999994,48,51,56,33,51,70,573.2297500999994,575.2308916000002,,,,,,,,,,,,３１０,f,２０,2023-05-18_15h29.42.282,RL,2022.2.5,60.143249191195075,
51,49,52,28,0,95,95,95,,,,,,,,,,,None,575.2308916000002,575.2308916000002,575.2308916000002,575.2308916000002,575.2308916000002,575.2308916000002,j,0.4185202999979083,575.6853398999992,575.6853398999992,575.6853398999992,575.6853398999992,575.6853398999992,575.6853398999992,575.9809523999975,577.8471925999984,577.8471925999984,577.8471925999984,577.8471925999984,577.8471925999984,577.8471925999984,577.8471925999984,577.8471925999984,577.8471925999984,577.8471925999984,577.8471925999984,577.8471925999984,577.8471925999984,577.8471925999984,580.0117855999997,580.0117855999997,580.0117855999997,580.0117855999997,580.0117855999997,580.0117855999997,580.0117855999997,49,51,52,28,28,70,580.0117855999997,581.7129075999983,,,,,,,,,,,,３１０,f,２０,2023-05-18_15h29.42.282,RL,2022.2.5,60.143249191195075,
49,49,52,35,0,96,96,96,,,,,,,,,,,None,581.7129075999983,581.7129075999983,581.7129075999983,581.7129075999983,581.7129075999983,581.7129075999983,r,0.2560640000010608,581.9970744999991,581.9970744999991,581.9970744999991,581.9970744999991,581.9970744999991,581.9970744999991,582.2800711999989,584.2794405999994,584.2794405999994,584.2794405999994,584.2794405999994,584.2794405999994,584.2794405999994,584.2628654,584.2794405999994,584.2794405999994,584.2794405999994,584.2794405999994,584.2794405999994,584.2794405999994,584.2794405999994,586.5605825999992,586.5605825999992,586.5605825999992,586.5605825999992,586.5605825999992,586.5605825999992,586.5605825999992,49,49,52,35,49,70,586.5605825999992,588.4121312999996,,,,,,,,,,,,３１０,f,２０,2023-05-18_15h29.42.282,RL,2022.2.5,60.143249191195075,
48,50,44,40,0,97,97,97,,,,,,,,,,,None,588.4121312999996,588.4121312999996,588.4121312999996,588.4121312999996,588.4121312999996,588.4121312999996,f,0.2343204999997397,588.6848021999976,588.6848021999976,588.6848021999976,588.6848021999976,588.6848021999976,588.6848021999976,588.9788017999999,590.3787112999998,590.3787112999998,590.3787112999998,590.3787112999998,590.3787112999998,590.3787112999998,590.3787112999998,590.3787112999998,590.3787112999998,590.3787112999998,590.3787112999998,590.3787112999998,590.3787112999998,590.3787112999998,592.0767005999987,592.0767005999987,592.0767005999987,592.0767005999987,592.0767005999987,592.0767005999987,592.0767005999987,50,48,44,40,50,70,592.0767005999987,593.7945142999997,,,,,,,,,,,,３１０,f,２０,2023-05-18_15h29.42.282,RL,2022.2.5,60.143249191195075,
45,45,47,34,0,98,98,98,,,,,,,,,,,None,593.7945142999997,593.7945142999997,593.7945142999997,593.7945142999997,593.7945142999997,593.7945142999997,i,0.3970932999982324,594.2113511999996,594.2113511999996,594.2113511999996,594.2113511999996,594.2113511999996,594.2113511999996,594.4947485999983,595.7942727000009,595.7942727000009,595.7942727000009,595.7942727000009,595.7942727000009,595.7942727000009,595.7778025000007,595.7942727000009,595.7942727000009,595.7942727000009,595.7942727000009,595.7942727000009,595.7942727000009,595.7942727000009,597.3760366999995,597.3760366999995,597.3760366999995,597.3760366999995,597.3760366999995,597.3760366999995,597.3760366999995,45,45,47,34,47,70,597.3760366999995,598.9770437999978,,,,,,,,,,,,３１０,f,２０,2023-05-18_15h29.42.282,RL,2022.2.5,60.143249191195075,
47,46,49,38,0,99,99,99,,,,,,,,,,,None,598.9770437999978,598.9770437999978,598.9770437999978,598.9770437999978,598.9770437999978,598.9770437999978,f,0.23581189999822527,599.2438168000008,599.2438168000008,599.2438168000008,599.2438168000008,599.2438168000008,599.2438168000008,599.5272331999986,600.3602551000004,600.3602551000004,600.3602551000004,600.3602551000004,600.3602551000004,600.3602551000004,600.3438671000004,600.3602551000004,600.3602551000004,600.3602551000004,600.3602551000004,600.3602551000004,600.3602551000004,600.3602551000004,601.474898299999,601.474898299999,601.474898299999,601.474898299999,601.474898299999,601.474898299999,601.474898299999,46,47,49,38,46,70,601.474898299999,603.1091745999984,,,,,,,,,,,,３１０,f,２０,2023-05-18_15h29.42.282,RL,2022.2.5,60.143249191195075,
47,43,44,26,0,100,100,100,,,,,,,,,,,None,603.1091745999984,603.1091745999984,603.1091745999984,603.1091745999984,603.1091745999984,603.1091745999984,r,0.2842068999998446,603.4296657999985,603.4296657999985,603.4296657999985,603.4296657999985,603.4296657999985,603.4296657999985,603.7097694000004,604.9928794999978,604.9928794999978,604.9928794999978,604.9928794999978,604.9928794999978,604.9928794999978,604.9761679999974,604.9928794999978,604.9928794999978,604.9928794999978,604.9928794999978,604.9928794999978,604.9928794999978,604.9928794999978,606.5571930000006,606.5571930000006,606.5571930000006,606.5571930000006,606.5571930000006,606.5571930000006,606.5571930000006,43,47,44,26,47,70,606.5571930000006,608.558681999999,,,,,,,,,,,,３１０,f,２０,2023-05-18_15h29.42.282,RL,2022.2.5,60.143249191195075,
44,49,36,29,0,101,101,101,,,,,,,,,,,None,608.558681999999,608.558681999999,608.558681999999,608.558681999999,608.558681999999,608.558681999999,f,0.240493699999206,608.8263134999979,608.8263134999979,608.8263134999979,608.8263134999979,608.8263134999979,608.8263134999979,609.1086689999975,610.4414408999983,610.4414408999983,610.4414408999983,610.4414408999983,610.4414408999983,610.4414408999983,610.4249810000001,610.4414408999983,610.4414408999983,610.4414408999983,610.4414408999983,610.4414408999983,610.4414408999983,610.4414408999983,612.0565891000006,612.0565891000006,612.0565891000006,612.0565891000006,612.0565891000006,612.0565891000006,612.0565891000006,49,44,36,29,49,70,612.0565891000006,613.6412371999977,,,,,,,,,,,,３１０,f,２０,2023-05-18_15h29.42.282,RL,2022.2.5,60.143249191195075,
50,49,38,32,0,102,102,102,,,,,,,,,,,None,613.6412371999977,613.6412371999977,613.6412371999977,613.6412371999977,613.6412371999977,613.6412371999977,i,0.25251380000190693,613.9263529999989,613.9263529999989,613.9263529999989,613.9263529999989,613.9263529999989,613.9263529999989,614.2078493999979,615.6907492999999,615.6907492999999,615.6907492999999,615.6907492999999,615.6907492999999,615.6907492999999,615.6738280999998,615.6907492999999,615.6907492999999,615.6907492999999,615.6907492999999,615.6907492999999,615.6907492999999,615.6907492999999,617.4556875999988,617.4556875999988,617.4556875999988,617.4556875999988,617.4556875999988,617.4556875999988,617.4556875999988,49,50,38,32,38,70,617.4556875999988,619.3232285999984,,,,,,,,,,,,３１０,f,２０,2023-05-18_15h29.42.282,RL,2022.2.5,60.143249191195075,
54,58,38,28,0,103,103,103,,,,,,,,,,,None,619.3232285999984,619.3232285999984,619.3232285999984,619.3232285999984,619.3232285999984,619.3232285999984,r,0.24070620000202325,619.5902626999996,619.5902626999996,619.5902626999996,619.5902626999996,619.5902626999996,619.5902626999996,619.8904731999974,621.1067478000004,621.1067478000004,621.1067478000004,621.1067478000004,621.1067478000004,621.1067478000004,621.1067478000004,621.1067478000004,621.1067478000004,621.1067478000004,621.1067478000004,621.1067478000004,621.1067478000004,621.1067478000004,622.6209755999989,622.6209755999989,622.6209755999989,622.6209755999989,622.6209755999989,622.6209755999989,622.6209755999989,58,54,38,28,54,70,622.6209755999989,624.1725418999995,,,,,,,,,,,,３１０,f,２０,2023-05-18_15h29.42.282,RL,2022.2.5,60.143249191195075,
52,48,32,42,0,104,104,104,,,,,,,,,,,None,624.1725418999995,624.1725418999995,624.1725418999995,624.1725418999995,624.1725418999995,624.1725418999995,f,0.2455965000008291,624.4416689999998,624.4416689999998,624.4416689999998,624.4416689999998,624.4416689999998,624.4416689999998,624.7390962999998,626.0058398000001,626.0058398000001,626.0058398000001,626.0058398000001,626.0058398000001,626.0058398000001,626.0058398000001,626.0058398000001,626.0058398000001,626.0058398000001,626.0058398000001,626.0058398000001,626.0058398000001,626.0058398000001,627.5705965999987,627.5705965999987,627.5705965999987,627.5705965999987,627.5705965999987,627.5705965999987,627.5705965999987,48,52,32,42,48,70,627.5705965999987,629.4878148999996,,,,,,,,,,,,３１０,f,２０,2023-05-18_15h29.42.282,RL,2022.2.5,60.143249191195075,
57,51,36,36,0,105,105,105,,,,,,,,,,,None,629.4878148999996,629.4878148999996,629.4878148999996,629.4878148999996,629.4878148999996,629.4878148999996,r,0.22864969999864115,629.7397616999988,629.7397616999988,629.7397616999988,629.7397616999988,629.7397616999988,629.7397616999988,630.0219561999984,631.0547841999978,631.0547841999978,631.0547841999978,631.0547841999978,631.0547841999978,631.0547841999978,631.0386613999981,631.0547841999978,631.0547841999978,631.0547841999978,631.0547841999978,631.0547841999978,631.0547841999978,631.0547841999978,632.3696435999991,632.3696435999991,632.3696435999991,632.3696435999991,632.3696435999991,632.3696435999991,632.3696435999991,51,57,36,36,57,70,632.3696435999991,634.2539179999985,,,,,,,,,,,,３１０,f,２０,2023-05-18_15h29.42.282,RL,2022.2.5,60.143249191195075,
49,52,44,37,0,106,106,106,,,,,,,,,,,None,634.2539179999985,634.2539179999985,634.2539179999985,634.2539179999985,634.2539179999985,634.2539179999985,r,0.21361460000116494,634.4878633999979,634.4878633999979,634.4878633999979,634.4878633999979,634.4878633999979,634.4878633999979,634.7710227999996,636.2537511999981,636.2537511999981,636.2537511999981,636.2537511999981,636.2537511999981,636.2537511999981,636.2375633999982,636.2537511999981,636.2537511999981,636.2537511999981,636.2537511999981,636.2537511999981,636.2537511999981,636.2537511999981,638.0186723999977,638.0186723999977,638.0186723999977,638.0186723999977,638.0186723999977,638.0186723999977,638.0186723999977,52,49,44,37,49,70,638.0186723999977,639.8528412999985,,,,,,,,,,,,３１０,f,２０,2023-05-18_15h29.42.282,RL,2022.2.5,60.143249191195075,
46,49,39,40,0,107,107,107,,,,,,,,,,,None,639.8528412999985,639.8528412999985,639.8528412999985,639.8528412999985,639.8528412999985,639.8528412999985,f,0.2233048999987659,640.1059079000006,640.1059079000006,640.1059079000006,640.1059079000006,640.1059079000006,640.1059079000006,640.3868948999989,641.6695483999974,641.6695483999974,641.6695483999974,641.6695483999974,641.6695483999974,641.6695483999974,641.652973100001,641.6695483999974,641.6695483999974,641.6695483999974,641.6695483999974,641.6695483999974,641.6695483999974,641.6695483999974,643.2346149999976,643.2346149999976,643.2346149999976,643.2346149999976,643.2346149999976,643.2346149999976,643.2346149999976,49,46,39,40,49,70,643.2346149999976,644.9353346999997,,,,,,,,,,,,３１０,f,２０,2023-05-18_15h29.42.282,RL,2022.2.5,60.143249191195075,
52,43,41,36,0,108,108,108,,,,,,,,,,,None,644.9353346999997,644.9353346999997,644.9353346999997,644.9353346999997,644.9353346999997,644.9353346999997,i,0.2704921000004106,645.2400471000001,645.2400471000001,645.2400471000001,645.2400471000001,645.2400471000001,645.2400471000001,645.5361056000002,647.4855499999976,647.4855499999976,647.4855499999976,647.4855499999976,647.4855499999976,647.4855499999976,647.4688065999981,647.4855499999976,647.4855499999976,647.4855499999976,647.4855499999976,647.4855499999976,647.4855499999976,647.4855499999976,649.7169101,649.7169101,649.7169101,649.7169101,649.7169101,649.7169101,649.7169101,43,52,41,36,41,70,649.7169101,651.3676625000007,,,,,,,,,,,,３１０,f,２０,2023-05-18_15h29.42.282,RL,2022.2.5,60.143249191195075,
56,37,39,45,0,109,109,109,,,,,,,,,,,None,651.3676625000007,651.3676625000007,651.3676625000007,651.3676625000007,651.3676625000007,651.3676625000007,j,0.3254530000012892,651.7216383999985,651.7216383999985,651.7216383999985,651.7216383999985,651.7216383999985,651.7216383999985,652.0177621999974,653.6008049999982,653.6008049999982,653.6008049999982,653.6008049999982,653.6008049999982,653.6008049999982,653.584184299998,653.6008049999982,653.6008049999982,653.6008049999982,653.6008049999982,653.6008049999982,653.6008049999982,653.6008049999982,655.4659312000003,655.4659312000003,655.4659312000003,655.4659312000003,655.4659312000003,655.4659312000003,655.4659312000003,37,56,39,45,45,70,655.4659312000003,657.2335593999996,,,,,,,,,,,,３１０,f,２０,2023-05-18_15h29.42.282,RL,2022.2.5,60.143249191195075,
51,34,36,40,0,110,110,110,,,,,,,,,,,None,657.2335593999996,657.2335593999996,657.2335593999996,657.2335593999996,657.2335593999996,657.2335593999996,f,0.24616720000267378,657.5049703999975,657.5049703999975,657.5049703999975,657.5049703999975,657.5049703999975,657.5049703999975,657.8003417,658.8833024999985,658.8833024999985,658.8833024999985,658.8833024999985,658.8833024999985,658.8833024999985,658.8833024999985,658.8833024999985,658.8833024999985,658.8833024999985,658.8833024999985,658.8833024999985,658.8833024999985,658.8833024999985,660.2645668999976,660.2645668999976,660.2645668999976,660.2645668999976,660.2645668999976,660.2645668999976,660.2645668999976,34,51,36,40,34,70,660.2645668999976,662.0662585999999,,,,,,,,,,,,３１０,f,２０,2023-05-18_15h29.42.282,RL,2022.2.5,60.143249191195075,
51,46,48,53,0,111,111,111,,,,,,,,,,,None,662.0662585999999,662.0662585999999,662.0662585999999,662.0662585999999,662.0662585999999,662.0662585999999,r,0.25018959999943036,662.3527226000006,662.3527226000006,662.3527226000006,662.3527226000006,662.3527226000006,662.3527226000006,662.633006600001,664.2988794999983,664.2988794999983,664.2988794999983,664.2988794999983,664.2988794999983,664.2988794999983,664.2826210999992,664.2988794999983,664.2988794999983,664.2988794999983,664.2988794999983,664.2988794999983,664.2988794999983,664.2988794999983,666.2307230999977,666.2307230999977,666.2307230999977,666.2307230999977,666.2307230999977,666.2307230999977,666.2307230999977,46,51,48,53,51,70,666.2307230999977,668.0815125000008,,,,,,,,,,,,３１０,f,２０,2023-05-18_15h29.42.282,RL,2022.2.5,60.143249191195075,
60,40,46,45,0,112,112,112,,,,,,,,,,,None,668.0815125000008,668.0815125000008,668.0815125000008,668.0815125000008,668.0815125000008,668.0815125000008,r,0.2965648000026704,668.3984567000007,668.3984567000007,668.3984567000007,668.3984567000007,668.3984567000007,668.3984567000007,668.681604999998,670.547875799999,670.547875799999,670.547875799999,670.547875799999,670.547875799999,670.547875799999,670.5317170999988,670.547875799999,670.547875799999,670.547875799999,670.547875799999,670.547875799999,670.547875799999,670.547875799999,672.696248100001,672.696248100001,672.696248100001,672.696248100001,672.696248100001,672.696248100001,672.696248100001,40,60,46,45,60,70,672.696248100001,674.6135331000005,,,,,,,,,,,,３１０,f,２０,2023-05-18_15h29.42.282,RL,2022.2.5,60.143249191195075,
61,41,48,49,0,113,113,113,,,,,,,,,,,None,674.6135331000005,674.6135331000005,674.6135331000005,674.6135331000005,674.6135331000005,674.6135331000005,r,0.2522925999983272,674.906552299999,674.906552299999,674.906552299999,674.906552299999,674.906552299999,674.906552299999,675.1975920999976,676.1470183999991,676.1470183999991,676.1470183999991,676.1470183999991,676.1470183999991,676.1470183999991,676.1306565999985,676.1470183999991,676.1470183999991,676.1470183999991,676.1470183999991,676.1470183999991,676.1470183999991,676.1470183999991,677.3782664999999,677.3782664999999,677.3782664999999,677.3782664999999,677.3782664999999,677.3782664999999,677.3782664999999,41,61,48,49,61,70,677.3782664999999,679.1126034999979,,,,,,,,,,,,３１０,f,２０,2023-05-18_15h29.42.282,RL,2022.2.5,60.143249191195075,
54,42,49,39,0,114,114,114,,,,,,,,,,,None,679.1126034999979,679.1126034999979,679.1126034999979,679.1126034999979,679.1126034999979,679.1126034999979,r,0.3344723999980488,679.4632476000006,679.4632476000006,679.4632476000006,679.4632476000006,679.4632476000006,679.4632476000006,679.7633545999997,680.6795388999999,680.6795388999999,680.6795388999999,680.6795388999999,680.6795388999999,680.6795388999999,680.6795388999999,680.6795388999999,680.6795388999999,680.6795388999999,680.6795388999999,680.6795388999999,680.6795388999999,680.6795388999999,681.8941535999984,681.8941535999984,681.8941535999984,681.8941535999984,681.8941535999984,681.8941535999984,681.8941535999984,42,54,49,39,54,70,681.8941535999984,683.7456497999992,,,,,,,,,,,,３１０,f,２０,2023-05-18_15h29.42.282,RL,2022.2.5,60.143249191195075,
68,39,56,37,0,115,115,115,,,,,,,,,,,None,683.7456497999992,683.7456497999992,683.7456497999992,683.7456497999992,683.7456497999992,683.7456497999992,r,0.3919728999971994,684.1627174999994,684.1627174999994,684.1627174999994,684.1627174999994,684.1627174999994,684.1627174999994,684.4455552,685.5454088999977,685.5454088999977,685.5454088999977,685.5454088999977,685.5454088999977,685.5454088999977,685.5285403999987,685.5454088999977,685.5454088999977,685.5454088999977,685.5454088999977,685.5454088999977,685.5454088999977,685.5454088999977,686.926999299998,686.926999299998,686.926999299998,686.926999299998,686.926999299998,686.926999299998,686.926999299998,39,68,56,37,68,70,686.926999299998,688.4442940000008,,,,,,,,,,,,３１０,f,２０,2023-05-18_15h29.42.282,RL,2022.2.5,60.143249191195075,
62,36,52,31,0,116,116,116,,,,,,,,,,,None,688.4442940000008,688.4442940000008,688.4442940000008,688.4442940000008,688.4442940000008,688.4442940000008,r,0.2189098999988346,688.7017476000001,688.7017476000001,688.7017476000001,688.7017476000001,688.7017476000001,688.7017476000001,688.9783377999993,690.4277244000004,690.4277244000004,690.4277244000004,690.4277244000004,690.4277244000004,690.4277244000004,690.4111311999986,690.4277244000004,690.4277244000004,690.4277244000004,690.4277244000004,690.4277244000004,690.4277244000004,690.4277244000004,692.1590615999994,692.1590615999994,692.1590615999994,692.1590615999994,692.1590615999994,692.1590615999994,692.1590615999994,36,62,52,31,62,70,692.1590615999994,694.0272468000003,,,,,,,,,,,,３１０,f,２０,2023-05-18_15h29.42.282,RL,2022.2.5,60.143249191195075,
55,40,47,43,0,117,117,117,,,,,,,,,,,None,694.0272468000003,694.0272468000003,694.0272468000003,694.0272468000003,694.0272468000003,694.0272468000003,r,0.24998079999932088,694.295957899998,694.295957899998,694.295957899998,694.295957899998,694.295957899998,694.295957899998,694.5936732000009,695.5606683000005,695.5606683000005,695.5606683000005,695.5606683000005,695.5606683000005,695.5606683000005,695.5606683000005,695.5606683000005,695.5606683000005,695.5606683000005,695.5606683000005,695.5606683000005,695.5606683000005,695.5606683000005,696.8249007999984,696.8249007999984,696.8249007999984,696.8249007999984,696.8249007999984,696.8249007999984,696.8249007999984,40,55,47,43,55,70,696.8249007999984,698.4595311999983,,,,,,,,,,,,３１０,f,２０,2023-05-18_15h29.42.282,RL,2022.2.5,60.143249191195075,
51,40,48,45,0,118,118,118,,,,,,,,,,,None,698.4595311999983,698.4595311999983,698.4595311999983,698.4595311999983,698.4595311999983,698.4595311999983,r,0.28172580000318703,698.7614909000004,698.7614909000004,698.7614909000004,698.7614909000004,698.7614909000004,698.7614909000004,699.0597544999982,700.5095010999976,700.5095010999976,700.5095010999976,700.5095010999976,700.5095010999976,700.5095010999976,700.5095010999976,700.5095010999976,700.5095010999976,700.5095010999976,700.5095010999976,700.5095010999976,700.5095010999976,700.5095010999976,702.2578557999987,702.2578557999987,702.2578557999987,702.2578557999987,702.2578557999987,702.2578557999987,702.2578557999987,40,51,48,45,51,70,702.2578557999987,703.9581687999998,,,,,,,,,,,,３１０,f,２０,2023-05-18_15h29.42.282,RL,2022.2.5,60.143249191195075,
57,42,47,48,0,119,119,119,,,,,,,,,,,None,703.9581687999998,703.9581687999998,703.9581687999998,703.9581687999998,703.9581687999998,703.9581687999998,f,0.2190392000011343,704.2127967999986,704.2127967999986,704.2127967999986,704.2127967999986,704.2127967999986,704.2127967999986,704.4919836000008,705.9589712999987,705.9589712999987,705.9589712999987,705.9589712999987,705.9589712999987,705.9589712999987,705.9421631999976,705.9589712999987,705.9589712999987,705.9589712999987,705.9589712999987,705.9589712999987,705.9589712999987,705.9589712999987,707.7065948999989,707.7065948999989,707.7065948999989,707.7065948999989,707.7065948999989,707.7065948999989,707.7065948999989,42,57,47,48,42,70,707.7065948999989,709.3075764999994,,,,,,,,,,,,３１０,f,２０,2023-05-18_15h29.42.282,RL,2022.2.5,60.143249191195075,
57,32,60,45,0,120,120,120,,,,,,,,,,,None,709.3075764999994,709.3075764999994,709.3075764999994,709.3075764999994,709.3075764999994,709.3075764999994,i,0.2634279999983846,709.5936270999991,709.5936270999991,709.5936270999991,709.5936270999991,709.5936270999991,709.5936270999991,709.8744321999984,711.8078706999986,711.8078706999986,711.8078706999986,711.8078706999986,711.8078706999986,711.8078706999986,711.791220799998,711.8078706999986,711.8078706999986,711.8078706999986,711.8078706999986,711.8078706999986,711.8078706999986,711.8078706999986,714.0223573999974,714.0223573999974,714.0223573999974,714.0223573999974,714.0223573999974,714.0223573999974,714.0223573999974,32,57,60,45,60,70,714.0223573999974,715.9229392999987,,,,,,,,,,,,３１０,f,２０,2023-05-18_15h29.42.282,RL,2022.2.5,60.143249191195075,
