arm1,arm2,arm3,arm4,trials.thisRepN,trials.thisTrialN,trials.thisN,trials.thisIndex,instru_img1.started,instru_resp.started,instru_resp.keys,instru_resp.rt,image_2.started,text_2.started,image_2.stopped,text_2.stopped,fixbefore_2.started,fixbefore_2.stopped,rest_response.keys,red.started,green.started,yellow.started,blue.started,choose_bandit.started,Fixation.started,choose_bandit.keys,choose_bandit.rt,black.started,red_2.started,green_2.started,yellow_2.started,blue_2.started,fixation_2.started,docs.started,docs.stopped,black.stopped,red_2.stopped,green_2.stopped,yellow_2.stopped,blue_2.stopped,fixation_2.stopped,black_com.started,reward_sub.started,reward__sub.started,red_compare.started,green_com.started,yellow_com.started,blue_com.started,black_com.stopped,reward_sub.stopped,reward__sub.stopped,red_compare.stopped,green_com.stopped,yellow_com.stopped,blue_com.stopped,rewardred,rewardyellow,rewardblue,rewardgreen,subchoose,expectation,intertrialfix.started,intertrialfix.stopped,rest_image.started,rest_response.started,rest_response.rt,image_expect_after.started,text_exp_after.started,image_expect_after.stopped,text_exp_after.stopped,image.started,key_resp.started,key_resp.keys,key_resp.rt,participant,Gender,Age,date,expName,psychopyVersion,frameRate,
,,,,,,,,12.704434300001594,12.704434300001594,space,2.365352000000712,,,,,,,,,,,,,,,,,,,,,,,,,,,,,,,,,,,,,,,,,,,,,,,,,,,,,,,,,,,,,,,３１１,f,1９,2023-05-18_15h54.02.804,RL,2022.2.5,59.821349522503645,
30,40,55,71,0,0,0,0,,,,,15.087571500000195,15.087571500000195,20.08677589999934,20.08677589999934,20.08677589999934,21.091265200000635,None,21.091265200000635,21.091265200000635,21.091265200000635,21.091265200000635,21.091265200000635,21.091265200000635,i,0.8017401000033715,21.929976100000204,21.929976100000204,21.929976100000204,21.929976100000204,21.929976100000204,21.929976100000204,22.22176010000112,23.988698000001023,24.005591400000412,24.005591400000412,24.005591400000412,24.005591400000412,24.005591400000412,24.005591400000412,24.005591400000412,24.005591400000412,24.005591400000412,24.005591400000412,24.005591400000412,24.005591400000412,24.005591400000412,26.115734700000758,26.115734700000758,26.115734700000758,26.115734700000758,26.115734700000758,26.115734700000758,26.115734700000758,40,71,55,30,55,60,26.115734700000758,27.670582300001115,,,,,,,,,,,,３１１,f,1９,2023-05-18_15h54.02.804,RL,2022.2.5,59.821349522503645,
43,41,45,68,0,1,1,1,,,,,,,,,,,None,27.670582300001115,27.670582300001115,27.670582300001115,27.670582300001115,27.670582300001115,27.670582300001115,r,0.9187294999974256,28.621017000001302,28.621017000001302,28.621017000001302,28.621017000001302,28.621017000001302,28.621017000001302,28.903752800000802,30.154670100000658,30.172144500000286,30.172144500000286,30.172144500000286,30.172144500000286,30.172144500000286,30.172144500000286,30.172144500000286,30.172144500000286,30.172144500000286,30.172144500000286,30.172144500000286,30.172144500000286,30.172144500000286,31.735357100002147,31.735357100002147,31.735357100002147,31.735357100002147,31.735357100002147,31.735357100002147,31.735357100002147,41,68,45,43,68,60,31.735357100002147,33.68650770000022,,,,,,,,,,,,３１１,f,1９,2023-05-18_15h54.02.804,RL,2022.2.5,59.821349522503645,
30,40,36,70,0,2,2,2,,,,,,,,,,,None,33.68650770000022,33.68650770000022,33.68650770000022,33.68650770000022,33.68650770000022,33.68650770000022,f,0.551077100000839,34.274214900000516,34.274214900000516,34.274214900000516,34.274214900000516,34.274214900000516,34.274214900000516,34.55306220000057,35.453225699999166,35.48578460000135,35.48578460000135,35.48578460000135,35.48578460000135,35.48578460000135,35.48578460000135,35.48578460000135,35.48578460000135,35.48578460000135,35.48578460000135,35.48578460000135,35.48578460000135,35.48578460000135,36.68419410000206,36.68419410000206,36.68419410000206,36.68419410000206,36.68419410000206,36.68419410000206,36.68419410000206,40,70,36,30,40,60,36.68419410000206,38.318627200002084,,,,,,,,,,,,３１１,f,1９,2023-05-18_15h54.02.804,RL,2022.2.5,59.821349522503645,
34,45,42,75,0,3,3,3,,,,,,,,,,,None,38.318627200002084,38.318627200002084,38.318627200002084,38.318627200002084,38.318627200002084,38.318627200002084,j,0.7779287000012118,39.11920889999965,39.11920889999965,39.11920889999965,39.11920889999965,39.11920889999965,39.11920889999965,39.40242349999971,41.03553119999924,41.0520961000002,41.0520961000002,41.0520961000002,41.0520961000002,41.0520961000002,41.0520961000002,41.0520961000002,41.0520961000002,41.0520961000002,41.0520961000002,41.0520961000002,41.0520961000002,41.0520961000002,42.98335510000106,42.98335510000106,42.98335510000106,42.98335510000106,42.98335510000106,42.98335510000106,42.98335510000106,45,75,42,34,34,60,42.98335510000106,44.68443180000031,,,,,,,,,,,,３１１,f,1９,2023-05-18_15h54.02.804,RL,2022.2.5,59.821349522503645,
33,55,46,72,0,4,4,4,,,,,,,,,,,None,44.68443180000031,44.68443180000031,44.68443180000031,44.68443180000031,44.68443180000031,44.68443180000031,r,0.5887282000003324,45.30121480000162,45.30121480000162,45.30121480000162,45.30121480000162,45.30121480000162,45.30121480000162,45.601270700000896,46.7005668999991,46.7005668999991,46.7005668999991,46.7005668999991,46.7005668999991,46.7005668999991,46.7005668999991,46.7005668999991,46.7005668999991,46.7005668999991,46.7005668999991,46.7005668999991,46.7005668999991,46.7005668999991,48.09899570000198,48.09899570000198,48.09899570000198,48.09899570000198,48.09899570000198,48.09899570000198,48.09899570000198,55,72,46,33,72,60,48.09899570000198,49.86708799999906,,,,,,,,,,,,３１１,f,1９,2023-05-18_15h54.02.804,RL,2022.2.5,59.821349522503645,
43,40,41,68,0,5,5,5,,,,,,,,,,,None,49.86708799999906,49.86708799999906,49.86708799999906,49.86708799999906,49.86708799999906,49.86708799999906,i,0.6220425999999861,50.51954100000148,50.51954100000148,50.51954100000148,50.51954100000148,50.51954100000148,50.51954100000148,50.80065939999986,52.15001190000112,52.16621420000229,52.16621420000229,52.16621420000229,52.16621420000229,52.16621420000229,52.16621420000229,52.16621420000229,52.16621420000229,52.16621420000229,52.16621420000229,52.16621420000229,52.16621420000229,52.16621420000229,53.81468469999891,53.81468469999891,53.81468469999891,53.81468469999891,53.81468469999891,53.81468469999891,53.81468469999891,40,68,41,43,41,60,53.81468469999891,55.449050300001545,,,,,,,,,,,,３１１,f,1９,2023-05-18_15h54.02.804,RL,2022.2.5,59.821349522503645,
38,53,43,71,0,6,6,6,,,,,,,,,,,None,55.449050300001545,55.449050300001545,55.449050300001545,55.449050300001545,55.449050300001545,55.449050300001545,f,0.5401373000022431,56.01606019999963,56.01606019999963,56.01606019999963,56.01606019999963,56.01606019999963,56.01606019999963,56.29927800000223,58.049448500001745,58.065237999999226,58.065237999999226,58.065237999999226,58.065237999999226,58.065237999999226,58.065237999999226,58.065237999999226,58.065237999999226,58.065237999999226,58.065237999999226,58.065237999999226,58.065237999999226,58.065237999999226,60.11374910000086,60.11374910000086,60.11374910000086,60.11374910000086,60.11374910000086,60.11374910000086,60.11374910000086,53,71,43,38,53,60,60.11374910000086,62.04809849999947,,,,,,,,,,,,３１１,f,1９,2023-05-18_15h54.02.804,RL,2022.2.5,59.821349522503645,
39,49,36,68,0,7,7,7,,,,,,,,,,,None,62.04809849999947,62.04809849999947,62.04809849999947,62.04809849999947,62.04809849999947,62.04809849999947,j,0.5031931999983499,62.58279699999912,62.58279699999912,62.58279699999912,62.58279699999912,62.58279699999912,62.58279699999912,62.86447799999951,64.61435450000135,64.63119110000116,64.63119110000116,64.63119110000116,64.63119110000116,64.63119110000116,64.63119110000116,64.63119110000116,64.63119110000116,64.63119110000116,64.63119110000116,64.63119110000116,64.63119110000116,64.63119110000116,66.6795239000021,66.6795239000021,66.6795239000021,66.6795239000021,66.6795239000021,66.6795239000021,66.6795239000021,49,68,36,39,39,60,66.6795239000021,68.68051930000001,,,,,,,,,,,,３１１,f,1９,2023-05-18_15h54.02.804,RL,2022.2.5,59.821349522503645,
45,43,33,67,0,8,8,8,,,,,,,,,,,None,68.68051930000001,68.68051930000001,68.68051930000001,68.68051930000001,68.68051930000001,68.68051930000001,i,0.6181655000000319,69.33661230000143,69.33661230000143,69.33661230000143,69.33661230000143,69.33661230000143,69.33661230000143,69.61367830000017,70.78017550000004,70.79666150000048,70.79666150000048,70.79666150000048,70.79666150000048,70.79666150000048,70.79666150000048,70.79666150000048,70.79666150000048,70.79666150000048,70.79666150000048,70.79666150000048,70.79666150000048,70.79666150000048,72.261760100002,72.261760100002,72.261760100002,72.261760100002,72.261760100002,72.261760100002,72.261760100002,43,67,33,45,33,60,72.261760100002,74.11278030000176,,,,,,,,,,,,３１１,f,1９,2023-05-18_15h54.02.804,RL,2022.2.5,59.821349522503645,
46,54,46,62,0,9,9,9,,,,,,,,,,,None,74.11278030000176,74.11278030000176,74.11278030000176,74.11278030000176,74.11278030000176,74.11278030000176,f,0.41056860000026063,74.54685149999932,74.54685149999932,74.54685149999932,74.54685149999932,74.54685149999932,74.54685149999932,74.8296279999995,76.79605839999931,76.81248889999915,76.81248889999915,76.81248889999915,76.81248889999915,76.81248889999915,76.81248889999915,76.81248889999915,76.81248889999915,76.81248889999915,76.81248889999915,76.81248889999915,76.81248889999915,76.81248889999915,79.07709790000081,79.07709790000081,79.07709790000081,79.07709790000081,79.07709790000081,79.07709790000081,79.07709790000081,54,62,46,46,54,60,79.07709790000081,80.6451476000002,,,,,,,,,,,,３１１,f,1９,2023-05-18_15h54.02.804,RL,2022.2.5,59.821349522503645,
42,49,36,63,0,10,10,10,,,,,,,,,,,None,80.6451476000002,80.6451476000002,80.6451476000002,80.6451476000002,80.6451476000002,80.6451476000002,r,0.8261517000028107,81.49497770000016,81.49497770000016,81.49497770000016,81.49497770000016,81.49497770000016,81.49497770000016,81.77816209999946,83.1448730000011,83.161351499999,83.161351499999,83.161351499999,83.161351499999,83.161351499999,83.161351499999,83.161351499999,83.161351499999,83.161351499999,83.161351499999,83.161351499999,83.161351499999,83.161351499999,84.82636280000224,84.82636280000224,84.82636280000224,84.82636280000224,84.82636280000224,84.82636280000224,84.82636280000224,49,63,36,42,63,60,84.82636280000224,86.77699819999907,,,,,,,,,,,,３１１,f,1９,2023-05-18_15h54.02.804,RL,2022.2.5,59.821349522503645,
34,57,44,54,0,11,11,11,,,,,,,,,,,None,86.77699819999907,86.77699819999907,86.77699819999907,86.77699819999907,86.77699819999907,86.77699819999907,j,0.539614100001927,87.34394330000214,87.34394330000214,87.34394330000214,87.34394330000214,87.34394330000214,87.34394330000214,87.62747210000089,88.726692799999,88.74348780000219,88.74348780000219,88.74348780000219,88.74348780000219,88.74348780000219,88.74348780000219,88.74348780000219,88.74348780000219,88.74348780000219,88.74348780000219,88.74348780000219,88.74348780000219,88.74348780000219,90.1416672000014,90.1416672000014,90.1416672000014,90.1416672000014,90.1416672000014,90.1416672000014,90.1416672000014,57,54,44,34,34,60,90.1416672000014,91.74318490000223,,,,,,,,,,,,３１１,f,1９,2023-05-18_15h54.02.804,RL,2022.2.5,59.821349522503645,
44,53,50,60,0,12,12,12,,,,,,,,,,,None,91.74318490000223,91.74318490000223,91.74318490000223,91.74318490000223,91.74318490000223,91.74318490000223,i,0.7869695000008505,92.56118470000001,92.56118470000001,92.56118470000001,92.56118470000001,92.56118470000001,92.56118470000001,92.8433561999991,94.2931783999993,94.3092355000008,94.3092355000008,94.3092355000008,94.3092355000008,94.3092355000008,94.3092355000008,94.3092355000008,94.3092355000008,94.3092355000008,94.3092355000008,94.3092355000008,94.3092355000008,94.3092355000008,96.05737819999922,96.05737819999922,96.05737819999922,96.05737819999922,96.05737819999922,96.05737819999922,96.05737819999922,53,60,50,44,50,60,96.05737819999922,97.59229260000211,,,,,,,,,,,,３１１,f,1９,2023-05-18_15h54.02.804,RL,2022.2.5,59.821349522503645,
46,57,37,66,0,13,13,13,,,,,,,,,,,None,97.59229260000211,97.59229260000211,97.59229260000211,97.59229260000211,97.59229260000211,97.59229260000211,r,0.6252676000003703,98.24319780000224,98.24319780000224,98.24319780000224,98.24319780000224,98.24319780000224,98.24319780000224,98.52548899999965,100.52500599999985,100.54157889999988,100.54157889999988,100.54157889999988,100.54157889999988,100.54157889999988,100.54157889999988,100.54157889999988,100.54157889999988,100.54157889999988,100.54157889999988,100.54157889999988,100.54157889999988,100.54157889999988,102.83974790000138,102.83974790000138,102.83974790000138,102.83974790000138,102.83974790000138,102.83974790000138,102.83974790000138,57,66,37,46,66,60,102.83974790000138,104.42395060000126,,,,,,,,,,,,３１１,f,1９,2023-05-18_15h54.02.804,RL,2022.2.5,59.821349522503645,
42,57,37,61,0,14,14,14,,,,,,,,,,,None,104.42395060000126,104.42395060000126,104.42395060000126,104.42395060000126,104.42395060000126,104.42395060000126,r,0.6605310999984795,105.10918339999989,105.10918339999989,105.10918339999989,105.10918339999989,105.10918339999989,105.10918339999989,105.4075257000004,106.54093950000242,106.54093950000242,106.54093950000242,106.54093950000242,106.54093950000242,106.54093950000242,106.54093950000242,106.54093950000242,106.54093950000242,106.54093950000242,106.54093950000242,106.54093950000242,106.54093950000242,106.54093950000242,107.97190039999987,107.97190039999987,107.97190039999987,107.97190039999987,107.97190039999987,107.97190039999987,107.97190039999987,57,61,37,42,61,60,107.97190039999987,109.80641420000029,,,,,,,,,,,,３１１,f,1９,2023-05-18_15h54.02.804,RL,2022.2.5,59.821349522503645,
40,57,41,65,0,15,15,15,,,,,,,,,,,None,109.80641420000029,109.80641420000029,109.80641420000029,109.80641420000029,109.80641420000029,109.80641420000029,i,0.4559551000020292,110.29021510000166,110.29021510000166,110.29021510000166,110.29021510000166,110.29021510000166,110.29021510000166,110.59015949999957,111.7395854000024,111.7395854000024,111.7395854000024,111.7395854000024,111.7395854000024,111.7395854000024,111.7395854000024,111.7395854000024,111.7395854000024,111.7395854000024,111.7395854000024,111.7395854000024,111.7395854000024,111.7395854000024,113.18761699999959,113.18761699999959,113.18761699999959,113.18761699999959,113.18761699999959,113.18761699999959,113.18761699999959,57,65,41,40,41,60,113.18761699999959,114.88877520000096,,,,,,,,,,,,３１１,f,1９,2023-05-18_15h54.02.804,RL,2022.2.5,59.821349522503645,
47,56,40,69,0,16,16,16,,,,,,,,,,,None,114.88877520000096,114.88877520000096,114.88877520000096,114.88877520000096,114.88877520000096,114.88877520000096,f,0.44754069999908097,115.35596160000205,115.35596160000205,115.35596160000205,115.35596160000205,115.35596160000205,115.35596160000205,115.63921340000161,117.40536590000193,117.42187230000127,117.42187230000127,117.42187230000127,117.42187230000127,117.42187230000127,117.42187230000127,117.42187230000127,117.42187230000127,117.42187230000127,117.42187230000127,117.42187230000127,117.42187230000127,117.42187230000127,119.48691010000039,119.48691010000039,119.48691010000039,119.48691010000039,119.48691010000039,119.48691010000039,119.48691010000039,56,69,40,47,56,60,119.48691010000039,121.10446550000052,,,,,,,,,,,,３１１,f,1９,2023-05-18_15h54.02.804,RL,2022.2.5,59.821349522503645,
36,58,42,65,0,17,17,17,,,,,,,,,,,None,121.10446550000052,121.10446550000052,121.10446550000052,121.10446550000052,121.10446550000052,121.10446550000052,r,0.42671580000023823,121.55527150000125,121.55527150000125,121.55527150000125,121.55527150000125,121.55527150000125,121.55527150000125,121.83781359999921,123.30421059999935,123.32087730000057,123.32087730000057,123.32087730000057,123.32087730000057,123.32087730000057,123.32087730000057,123.32087730000057,123.32087730000057,123.32087730000057,123.32087730000057,123.32087730000057,123.32087730000057,123.32087730000057,125.08594710000034,125.08594710000034,125.08594710000034,125.08594710000034,125.08594710000034,125.08594710000034,125.08594710000034,58,65,42,36,65,60,125.08594710000034,126.95339460000105,,,,,,,,,,,,３１１,f,1９,2023-05-18_15h54.02.804,RL,2022.2.5,59.821349522503645,
45,54,46,70,0,18,18,18,,,,,,,,,,,None,126.95339460000105,126.95339460000105,126.95339460000105,126.95339460000105,126.95339460000105,126.95339460000105,r,0.5256679000012809,127.50379389999944,127.50379389999944,127.50379389999944,127.50379389999944,127.50379389999944,127.50379389999944,127.78694410000026,128.9534167999991,128.96995000000243,128.96995000000243,128.96995000000243,128.96995000000243,128.96995000000243,128.96995000000243,128.96995000000243,128.96995000000243,128.96995000000243,128.96995000000243,128.96995000000243,128.96995000000243,128.96995000000243,130.4346743999995,130.4346743999995,130.4346743999995,130.4346743999995,130.4346743999995,130.4346743999995,130.4346743999995,54,70,46,45,70,60,130.4346743999995,131.985915199999,,,,,,,,,,,,３１１,f,1９,2023-05-18_15h54.02.804,RL,2022.2.5,59.821349522503645,
43,58,40,71,0,19,19,19,,,,,,,,,,,None,131.985915199999,131.985915199999,131.985915199999,131.985915199999,131.985915199999,131.985915199999,r,0.46175270000094315,132.46965439999985,132.46965439999985,132.46965439999985,132.46965439999985,132.46965439999985,132.46965439999985,132.75251389999903,133.65238039999895,133.66922540000087,133.66922540000087,133.66922540000087,133.66922540000087,133.66922540000087,133.66922540000087,133.66922540000087,133.66922540000087,133.66922540000087,133.66922540000087,133.66922540000087,133.66922540000087,133.66922540000087,134.86746200000198,134.86746200000198,134.86746200000198,134.86746200000198,134.86746200000198,134.86746200000198,134.86746200000198,58,71,40,43,71,60,134.86746200000198,136.58517470000152,,,,,,,,,,,,３１１,f,1９,2023-05-18_15h54.02.804,RL,2022.2.5,59.821349522503645,
37,55,47,76,0,20,20,20,,,,,,,,,,,None,136.58517470000152,136.58517470000152,136.58517470000152,136.58517470000152,136.58517470000152,136.58517470000152,r,0.6909971999994013,137.3042862000002,137.3042862000002,137.3042862000002,137.3042862000002,137.3042862000002,137.3042862000002,137.5850477999993,139.13482830000066,139.15154679999978,139.15154679999978,139.15154679999978,139.15154679999978,139.15154679999978,139.15154679999978,139.15154679999978,139.15154679999978,139.15154679999978,139.15154679999978,139.15154679999978,139.15154679999978,139.15154679999978,140.99962380000215,140.99962380000215,140.99962380000215,140.99962380000215,140.99962380000215,140.99962380000215,140.99962380000215,55,76,47,37,76,60,140.99962380000215,142.98365510000076,,,,,,,,,,,,３１１,f,1９,2023-05-18_15h54.02.804,RL,2022.2.5,59.821349522503645,
37,49,49,71,0,21,21,21,,,,,,,,,,,None,142.98365510000076,142.98365510000076,142.98365510000076,142.98365510000076,142.98365510000076,142.98365510000076,j,0.6771573000005446,143.68430409999928,143.68430409999928,143.68430409999928,143.68430409999928,143.68430409999928,143.68430409999928,143.98402400000123,145.53383140000005,145.53383140000005,145.53383140000005,145.53383140000005,145.53383140000005,145.53383140000005,145.53383140000005,145.53383140000005,145.53383140000005,145.53383140000005,145.53383140000005,145.53383140000005,145.53383140000005,145.53383140000005,147.38136590000067,147.38136590000067,147.38136590000067,147.38136590000067,147.38136590000067,147.38136590000067,147.38136590000067,49,71,49,37,37,60,147.38136590000067,149.11664290000044,,,,,,,,,,,,３１１,f,1９,2023-05-18_15h54.02.804,RL,2022.2.5,59.821349522503645,
50,46,37,79,0,22,22,22,,,,,,,,,,,None,149.11664290000044,149.11664290000044,149.11664290000044,149.11664290000044,149.11664290000044,149.11664290000044,r,0.37705039999855217,149.5165945000008,149.5165945000008,149.5165945000008,149.5165945000008,149.5165945000008,149.5165945000008,149.7997447000016,151.16591590000098,151.18268470000112,151.18268470000112,151.18268470000112,151.18268470000112,151.18268470000112,151.18268470000112,151.18268470000112,151.18268470000112,151.18268470000112,151.18268470000112,151.18268470000112,151.18268470000112,151.18268470000112,152.84731079999983,152.84731079999983,152.84731079999983,152.84731079999983,152.84731079999983,152.84731079999983,152.84731079999983,46,79,37,50,79,60,152.84731079999983,154.76546190000226,,,,,,,,,,,,３１１,f,1９,2023-05-18_15h54.02.804,RL,2022.2.5,59.821349522503645,
42,54,36,78,0,23,23,23,,,,,,,,,,,None,154.76546190000226,154.76546190000226,154.76546190000226,154.76546190000226,154.76546190000226,154.76546190000226,r,0.42161639999903855,155.21687730000122,155.21687730000122,155.21687730000122,155.21687730000122,155.21687730000122,155.21687730000122,155.4987101000006,157.14852919999976,157.18179400000008,157.18179400000008,157.18179400000008,157.18179400000008,157.18179400000008,157.18179400000008,157.18179400000008,157.18179400000008,157.18179400000008,157.18179400000008,157.18179400000008,157.18179400000008,157.18179400000008,159.12975410000217,159.12975410000217,159.12975410000217,159.12975410000217,159.12975410000217,159.12975410000217,159.12975410000217,54,78,36,42,78,60,159.12975410000217,161.06445900000108,,,,,,,,,,,,３１１,f,1９,2023-05-18_15h54.02.804,RL,2022.2.5,59.821349522503645,
46,56,46,82,0,24,24,24,,,,,,,,,,,None,161.06445900000108,161.06445900000108,161.06445900000108,161.06445900000108,161.06445900000108,161.06445900000108,f,0.39064479999797186,161.48301100000026,161.48301100000026,161.48301100000026,161.48301100000026,161.48301100000026,161.48301100000026,161.7646003000009,163.59732749999966,163.63056340000185,163.63056340000185,163.63056340000185,163.63056340000185,163.63056340000185,163.63056340000185,163.63056340000185,163.63056340000185,163.63056340000185,163.63056340000185,163.63056340000185,163.63056340000185,163.63056340000185,165.7624133999998,165.7624133999998,165.7624133999998,165.7624133999998,165.7624133999998,165.7624133999998,165.7624133999998,56,82,46,46,56,60,165.7624133999998,167.27984690000085,,,,,,,,,,,,３１１,f,1９,2023-05-18_15h54.02.804,RL,2022.2.5,59.821349522503645,
41,61,56,79,0,25,25,25,,,,,,,,,,,None,167.27984690000085,167.27984690000085,167.27984690000085,167.27984690000085,167.27984690000085,167.27984690000085,i,0.3912000000018452,167.69676520000212,167.69676520000212,167.69676520000212,167.69676520000212,167.69676520000212,167.69676520000212,167.99674190000223,169.8131041000015,169.8131041000015,169.8131041000015,169.8131041000015,169.8131041000015,169.8131041000015,169.8131041000015,169.8131041000015,169.8131041000015,169.8131041000015,169.8131041000015,169.8131041000015,169.8131041000015,169.8131041000015,171.92783100000088,171.92783100000088,171.92783100000088,171.92783100000088,171.92783100000088,171.92783100000088,171.92783100000088,61,79,56,41,56,60,171.92783100000088,173.46226000000024,,,,,,,,,,,,３１１,f,1９,2023-05-18_15h54.02.804,RL,2022.2.5,59.821349522503645,
50,57,50,80,0,26,26,26,,,,,,,,,,,None,173.46226000000024,173.46226000000024,173.46226000000024,173.46226000000024,173.46226000000024,173.46226000000024,r,0.2650933000004443,173.74711240000033,173.74711240000033,173.74711240000033,173.74711240000033,173.74711240000033,173.74711240000033,174.04522999999972,175.62852180000118,175.62852180000118,175.62852180000118,175.62852180000118,175.62852180000118,175.62852180000118,175.62852180000118,175.62852180000118,175.62852180000118,175.62852180000118,175.62852180000118,175.62852180000118,175.62852180000118,175.62852180000118,177.50947110000197,177.50947110000197,177.50947110000197,177.50947110000197,177.50947110000197,177.50947110000197,177.50947110000197,57,80,50,50,80,60,177.50947110000197,179.32746269999916,,,,,,,,,,,,３１１,f,1９,2023-05-18_15h54.02.804,RL,2022.2.5,59.821349522503645,
49,64,43,75,0,27,27,27,,,,,,,,,,,None,179.32746269999916,179.32746269999916,179.32746269999916,179.32746269999916,179.32746269999916,179.32746269999916,r,0.3544307000011031,179.71125029999894,179.71125029999894,179.71125029999894,179.71125029999894,179.71125029999894,179.71125029999894,180.0115990000013,181.71080599999914,181.71080599999914,181.71080599999914,181.71080599999914,181.71080599999914,181.71080599999914,181.71080599999914,181.71080599999914,181.71080599999914,181.71080599999914,181.71080599999914,181.71080599999914,181.71080599999914,181.71080599999914,183.7087414000016,183.7087414000016,183.7087414000016,183.7087414000016,183.7087414000016,183.7087414000016,183.7087414000016,64,75,43,49,75,60,183.7087414000016,185.6600737000008,,,,,,,,,,,,３１１,f,1９,2023-05-18_15h54.02.804,RL,2022.2.5,59.821349522503645,
45,61,47,78,0,28,28,28,,,,,,,,,,,None,185.6600737000008,185.6600737000008,185.6600737000008,185.6600737000008,185.6600737000008,185.6600737000008,r,0.4571267999999691,186.1458722999996,186.1458722999996,186.1458722999996,186.1458722999996,186.1458722999996,186.1458722999996,186.4432353000011,188.15959440000006,188.15959440000006,188.15959440000006,188.15959440000006,188.15959440000006,188.15959440000006,188.15959440000006,188.15959440000006,188.15959440000006,188.15959440000006,188.15959440000006,188.15959440000006,188.15959440000006,188.15959440000006,190.17434159999902,190.17434159999902,190.17434159999902,190.17434159999902,190.17434159999902,190.17434159999902,190.17434159999902,61,78,47,45,78,60,190.17434159999902,191.69258810000247,,,,,,,,,,,,３１１,f,1９,2023-05-18_15h54.02.804,RL,2022.2.5,59.821349522503645,
40,64,43,73,0,29,29,29,,,,,,,,,,,None,191.69258810000247,191.69258810000247,191.69258810000247,191.69258810000247,191.69258810000247,191.69258810000247,r,0.49302410000018426,192.2103214000017,192.2103214000017,192.2103214000017,192.2103214000017,192.2103214000017,192.2103214000017,192.49223100000017,193.70873420000135,193.7254705000014,193.7254705000014,193.7254705000014,193.7254705000014,193.7254705000014,193.7254705000014,193.7254705000014,193.7254705000014,193.7254705000014,193.7254705000014,193.7254705000014,193.7254705000014,193.7254705000014,195.24035189999995,195.24035189999995,195.24035189999995,195.24035189999995,195.24035189999995,195.24035189999995,195.24035189999995,64,73,43,40,73,60,195.24035189999995,197.2409630000002,,,,,,,,,,,,３１１,f,1９,2023-05-18_15h54.02.804,RL,2022.2.5,59.821349522503645,
42,62,56,77,0,30,30,30,,,,,,,,,,,None,197.2409630000002,197.2409630000002,197.2409630000002,197.2409630000002,197.2409630000002,197.2409630000002,r,0.40125130000160425,197.68578880000132,197.68578880000132,197.68578880000132,197.68578880000132,197.68578880000132,197.68578880000132,197.95814729999984,198.87456759999986,198.90794839999944,198.90794839999944,198.90794839999944,198.90794839999944,198.90794839999944,198.90794839999944,198.90794839999944,198.90794839999944,198.90794839999944,198.90794839999944,198.90794839999944,198.90794839999944,198.90794839999944,200.12288310000076,200.12288310000076,200.12288310000076,200.12288310000076,200.12288310000076,200.12288310000076,200.12288310000076,62,77,56,42,77,60,200.12288310000076,202.04056570000103,,,,,,,,,,,,３１１,f,1９,2023-05-18_15h54.02.804,RL,2022.2.5,59.821349522503645,
40,66,47,79,0,31,31,31,,,,,,,,,,,None,202.04056570000103,202.04056570000103,202.04056570000103,202.04056570000103,202.04056570000103,202.04056570000103,j,0.56929570000284,202.64553660000092,202.64553660000092,202.64553660000092,202.64553660000092,202.64553660000092,202.64553660000092,202.92403280000144,204.4237233999993,204.45697220000147,204.45697220000147,204.45697220000147,204.45697220000147,204.45697220000147,204.45697220000147,204.45697220000147,204.45697220000147,204.45697220000147,204.45697220000147,204.45697220000147,204.45697220000147,204.45697220000147,206.25522210000054,206.25522210000054,206.25522210000054,206.25522210000054,206.25522210000054,206.25522210000054,206.25522210000054,66,79,47,40,40,60,206.25522210000054,207.82278249999945,,,,,,,,,,,,３１１,f,1９,2023-05-18_15h54.02.804,RL,2022.2.5,59.821349522503645,
46,62,44,75,0,32,32,32,,,,,,,,,,,None,207.82278249999945,207.82278249999945,207.82278249999945,207.82278249999945,207.82278249999945,207.82278249999945,r,0.3321418999985326,208.17524910000066,208.17524910000066,208.17524910000066,208.17524910000066,208.17524910000066,208.17524910000066,208.47292369999923,210.20584149999922,210.20584149999922,210.20584149999922,210.20584149999922,210.20584149999922,210.20584149999922,210.20584149999922,210.20584149999922,210.20584149999922,210.20584149999922,210.20584149999922,210.20584149999922,210.20584149999922,210.20584149999922,212.23743409999952,212.23743409999952,212.23743409999952,212.23743409999952,212.23743409999952,212.23743409999952,212.23743409999952,62,75,44,46,75,60,212.23743409999952,214.03874840000208,,,,,,,,,,,,３１１,f,1９,2023-05-18_15h54.02.804,RL,2022.2.5,59.821349522503645,
34,63,43,81,0,33,33,33,,,,,,,,,,,None,214.03874840000208,214.03874840000208,214.03874840000208,214.03874840000208,214.03874840000208,214.03874840000208,r,0.40358150000247406,214.47211529999913,214.47211529999913,214.47211529999913,214.47211529999913,214.47211529999913,214.47211529999913,214.77207970000018,216.18855640000038,216.18855640000038,216.18855640000038,216.18855640000038,216.18855640000038,216.18855640000038,216.18855640000038,216.18855640000038,216.18855640000038,216.18855640000038,216.18855640000038,216.18855640000038,216.18855640000038,216.18855640000038,217.90282239999942,217.90282239999942,217.90282239999942,217.90282239999942,217.90282239999942,217.90282239999942,217.90282239999942,63,81,43,34,81,60,217.90282239999942,219.60369050000008,,,,,,,,,,,,３１１,f,1９,2023-05-18_15h54.02.804,RL,2022.2.5,59.821349522503645,
35,61,49,68,0,34,34,34,,,,,,,,,,,None,219.60369050000008,219.60369050000008,219.60369050000008,219.60369050000008,219.60369050000008,219.60369050000008,r,0.44586340000023483,220.0725456,220.0725456,220.0725456,220.0725456,220.0725456,220.0725456,220.37113690000115,221.5369935000017,221.5369935000017,221.5369935000017,221.5369935000017,221.5369935000017,221.5369935000017,221.5369935000017,221.5369935000017,221.5369935000017,221.5369935000017,221.5369935000017,221.5369935000017,221.5369935000017,221.5369935000017,223.002371999999,223.002371999999,223.002371999999,223.002371999999,223.002371999999,223.002371999999,223.002371999999,61,68,49,35,68,60,223.002371999999,224.57009839999955,,,,,,,,,,,,３１１,f,1９,2023-05-18_15h54.02.804,RL,2022.2.5,59.821349522503645,
34,58,51,69,0,35,35,35,,,,,,,,,,,None,224.57009839999955,224.57009839999955,224.57009839999955,224.57009839999955,224.57009839999955,224.57009839999955,f,0.6739750000015192,225.2701205000012,225.2701205000012,225.2701205000012,225.2701205000012,225.2701205000012,225.2701205000012,225.55318780000016,227.15320730000167,227.16994370000248,227.16994370000248,227.16994370000248,227.16994370000248,227.16994370000248,227.16994370000248,227.16994370000248,227.16994370000248,227.16994370000248,227.16994370000248,227.16994370000248,227.16994370000248,227.16994370000248,229.06748960000186,229.06748960000186,229.06748960000186,229.06748960000186,229.06748960000186,229.06748960000186,229.06748960000186,58,69,51,34,58,60,229.06748960000186,230.70224919999964,,,,,,,,,,,,３１１,f,1９,2023-05-18_15h54.02.804,RL,2022.2.5,59.821349522503645,
33,59,43,69,0,36,36,36,,,,,,,,,,,None,230.70224919999964,230.70224919999964,230.70224919999964,230.70224919999964,230.70224919999964,230.70224919999964,j,0.4685195999991265,231.20765759999995,231.20765759999995,231.20765759999995,231.20765759999995,231.20765759999995,231.20765759999995,231.48561940000218,232.85244610000154,232.8687549999995,232.8687549999995,232.8687549999995,232.8687549999995,232.8687549999995,232.8687549999995,232.8687549999995,232.8687549999995,232.8687549999995,232.8687549999995,232.8687549999995,232.8687549999995,232.8687549999995,234.5334776999989,234.5334776999989,234.5334776999989,234.5334776999989,234.5334776999989,234.5334776999989,234.5334776999989,59,69,43,33,33,60,234.5334776999989,236.26797050000096,,,,,,,,,,,,３１１,f,1９,2023-05-18_15h54.02.804,RL,2022.2.5,59.821349522503645,
38,69,46,79,0,37,37,37,,,,,,,,,,,None,236.26797050000096,236.26797050000096,236.26797050000096,236.26797050000096,236.26797050000096,236.26797050000096,r,0.3290479999996023,236.61891060000198,236.61891060000198,236.61891060000198,236.61891060000198,236.61891060000198,236.61891060000198,236.91835329999958,238.7846434000021,238.7846434000021,238.7846434000021,238.7846434000021,238.7846434000021,238.7846434000021,238.7846434000021,238.7846434000021,238.7846434000021,238.7846434000021,238.7846434000021,238.7846434000021,238.7846434000021,238.7846434000021,240.94894299999942,240.94894299999942,240.94894299999942,240.94894299999942,240.94894299999942,240.94894299999942,240.94894299999942,69,79,46,38,79,60,240.94894299999942,242.93349089999901,,,,,,,,,,,,３１１,f,1９,2023-05-18_15h54.02.804,RL,2022.2.5,59.821349522503645,
28,68,40,77,0,38,38,38,,,,,,,,,,,None,242.93349089999901,242.93349089999901,242.93349089999901,242.93349089999901,242.93349089999901,242.93349089999901,r,0.39842160000262083,243.35040930000105,243.35040930000105,243.35040930000105,243.35040930000105,243.35040930000105,243.35040930000105,243.6501962000002,244.83300940000117,244.83300940000117,244.83300940000117,244.83300940000117,244.83300940000117,244.83300940000117,244.83300940000117,244.83300940000117,244.83300940000117,244.83300940000117,244.83300940000117,244.83300940000117,244.83300940000117,244.83300940000117,246.31493980000232,246.31493980000232,246.31493980000232,246.31493980000232,246.31493980000232,246.31493980000232,246.31493980000232,68,77,40,28,77,60,246.31493980000232,248.048817400002,,,,,,,,,,,,３１１,f,1９,2023-05-18_15h54.02.804,RL,2022.2.5,59.821349522503645,
29,68,45,76,0,39,39,39,,,,,,,,,,,None,248.048817400002,248.048817400002,248.048817400002,248.048817400002,248.048817400002,248.048817400002,r,0.3898751999986416,248.46664500000043,248.46664500000043,248.46664500000043,248.46664500000043,248.46664500000043,248.46664500000043,248.74966920000224,250.69881560000067,250.7155098000003,250.7155098000003,250.7155098000003,250.7155098000003,250.7155098000003,250.7155098000003,250.7155098000003,250.7155098000003,250.7155098000003,250.7155098000003,250.7155098000003,250.7155098000003,250.7155098000003,252.96307299999899,252.96307299999899,252.96307299999899,252.96307299999899,252.96307299999899,252.96307299999899,252.96307299999899,68,76,45,29,76,60,252.96307299999899,254.53152730000147,,,,,,,,,,,,３１１,f,1９,2023-05-18_15h54.02.804,RL,2022.2.5,59.821349522503645,
28,65,45,73,0,40,40,40,,,,,,,,,,,None,254.53152730000147,254.53152730000147,254.53152730000147,254.53152730000147,254.53152730000147,254.53152730000147,r,0.3094453000012436,254.86597650000112,254.86597650000112,254.86597650000112,254.86597650000112,254.86597650000112,254.86597650000112,255.16495230000146,257.0811304000017,257.0811304000017,257.0811304000017,257.0811304000017,257.0811304000017,257.0811304000017,257.0811304000017,257.0811304000017,257.0811304000017,257.0811304000017,257.0811304000017,257.0811304000017,257.0811304000017,257.0811304000017,259.29596630000015,259.29596630000015,259.29596630000015,259.29596630000015,259.29596630000015,259.29596630000015,259.29596630000015,65,73,45,28,73,60,259.29596630000015,261.2633769999993,,,,,,,,,,,,３１１,f,1９,2023-05-18_15h54.02.804,RL,2022.2.5,59.821349522503645,
26,67,37,73,0,41,41,41,,,,,,,,,,,None,261.2633769999993,261.2633769999993,261.2633769999993,261.2633769999993,261.2633769999993,261.2633769999993,r,0.44962840000152937,261.7321797000004,261.7321797000004,261.7321797000004,261.7321797000004,261.7321797000004,261.7321797000004,262.03009440000096,262.980275599999,262.980275599999,262.980275599999,262.980275599999,262.980275599999,262.980275599999,262.980275599999,262.980275599999,262.980275599999,262.980275599999,262.980275599999,262.980275599999,262.980275599999,262.980275599999,264.2281511000001,264.2281511000001,264.2281511000001,264.2281511000001,264.2281511000001,264.2281511000001,264.2281511000001,67,73,37,26,73,60,264.2281511000001,265.8461558000017,,,,,,,,,,,,３１１,f,1９,2023-05-18_15h54.02.804,RL,2022.2.5,59.821349522503645,
33,62,33,75,0,42,42,42,,,,,,,,,,,None,265.8461558000017,265.8461558000017,265.8461558000017,265.8461558000017,265.8461558000017,265.8461558000017,i,0.4337545999987924,266.3182850000012,266.3182850000012,266.3182850000012,266.3182850000012,266.3182850000012,266.3182850000012,266.5966737000017,267.9791198000021,267.9958480999994,267.9958480999994,267.9958480999994,267.9958480999994,267.9958480999994,267.9958480999994,267.9958480999994,267.9958480999994,267.9958480999994,267.9958480999994,267.9958480999994,267.9958480999994,267.9958480999994,269.67761000000246,269.67761000000246,269.67761000000246,269.67761000000246,269.67761000000246,269.67761000000246,269.67761000000246,62,75,33,33,33,60,269.67761000000246,271.4951361000021,,,,,,,,,,,,３１１,f,1９,2023-05-18_15h54.02.804,RL,2022.2.5,59.821349522503645,
29,57,31,69,0,43,43,43,,,,,,,,,,,None,271.4951361000021,271.4951361000021,271.4951361000021,271.4951361000021,271.4951361000021,271.4951361000021,r,0.30933899999945424,271.8301496999993,271.8301496999993,271.8301496999993,271.8301496999993,271.8301496999993,271.8301496999993,272.1117852000025,273.59492390000014,273.61148120000144,273.61148120000144,273.61148120000144,273.61148120000144,273.61148120000144,273.61148120000144,273.61148120000144,273.61148120000144,273.61148120000144,273.61148120000144,273.61148120000144,273.61148120000144,273.61148120000144,275.39275439999983,275.39275439999983,275.39275439999983,275.39275439999983,275.39275439999983,275.39275439999983,275.39275439999983,57,69,31,29,69,60,275.39275439999983,277.177511599999,,,,,,,,,,,,３１１,f,1９,2023-05-18_15h54.02.804,RL,2022.2.5,59.821349522503645,
29,69,29,70,0,44,44,44,,,,,,,,,,,None,277.177511599999,277.177511599999,277.177511599999,277.177511599999,277.177511599999,277.177511599999,r,0.4095108000001346,277.6110731000008,277.6110731000008,277.6110731000008,277.6110731000008,277.6110731000008,277.6110731000008,277.9107347999998,279.14395140000124,279.14395140000124,279.14395140000124,279.14395140000124,279.14395140000124,279.14395140000124,279.14395140000124,279.14395140000124,279.14395140000124,279.14395140000124,279.14395140000124,279.14395140000124,279.14395140000124,279.14395140000124,280.67511450000165,280.67511450000165,280.67511450000165,280.67511450000165,280.67511450000165,280.67511450000165,280.67511450000165,69,70,29,29,70,60,280.67511450000165,282.24301750000086,,,,,,,,,,,,３１１,f,1９,2023-05-18_15h54.02.804,RL,2022.2.5,59.821349522503645,
29,63,27,72,0,45,45,45,,,,,,,,,,,None,282.24301750000086,282.24301750000086,282.24301750000086,282.24301750000086,282.24301750000086,282.24301750000086,r,0.3578832999992301,282.62878080000155,282.62878080000155,282.62878080000155,282.62878080000155,282.62878080000155,282.62878080000155,282.9265536000021,284.5762012000014,284.5929419000022,284.5929419000022,284.5929419000022,284.5929419000022,284.5929419000022,284.5929419000022,284.5929419000022,284.5929419000022,284.5929419000022,284.5929419000022,284.5929419000022,284.5929419000022,284.5929419000022,286.540983400002,286.540983400002,286.540983400002,286.540983400002,286.540983400002,286.540983400002,286.540983400002,63,72,27,29,72,60,286.540983400002,288.1924285000023,,,,,,,,,,,,３１１,f,1９,2023-05-18_15h54.02.804,RL,2022.2.5,59.821349522503645,
21,69,27,68,0,46,46,46,,,,,,,,,,,None,288.1924285000023,288.1924285000023,288.1924285000023,288.1924285000023,288.1924285000023,288.1924285000023,f,0.5484944999989239,288.7611209000024,288.7611209000024,288.7611209000024,288.7611209000024,288.7611209000024,288.7611209000024,289.05872499999896,291.008552700001,291.008552700001,291.008552700001,291.008552700001,291.008552700001,291.008552700001,291.008552700001,291.008552700001,291.008552700001,291.008552700001,291.008552700001,291.008552700001,291.008552700001,291.008552700001,293.2564287000023,293.2564287000023,293.2564287000023,293.2564287000023,293.2564287000023,293.2564287000023,293.2564287000023,69,68,27,21,69,60,293.2564287000023,294.94081500000175,,,,,,,,,,,,３１１,f,1９,2023-05-18_15h54.02.804,RL,2022.2.5,59.821349522503645,
27,67,36,67,0,47,47,47,,,,,,,,,,,None,294.94081500000175,294.94081500000175,294.94081500000175,294.94081500000175,294.94081500000175,294.94081500000175,f,0.42885300000125426,295.3915095000011,295.3915095000011,295.3915095000011,295.3915095000011,295.3915095000011,295.3915095000011,295.6743682000015,297.6741155000018,297.6906259000025,297.6906259000025,297.6906259000025,297.6906259000025,297.6906259000025,297.6906259000025,297.6906259000025,297.6906259000025,297.6906259000025,297.6906259000025,297.6906259000025,297.6906259000025,297.6906259000025,299.98901660000047,299.98901660000047,299.98901660000047,299.98901660000047,299.98901660000047,299.98901660000047,299.98901660000047,67,67,36,27,67,60,299.98901660000047,301.9733182000018,,,,,,,,,,,,３１１,f,1９,2023-05-18_15h54.02.804,RL,2022.2.5,59.821349522503645,
36,65,31,62,0,48,48,48,,,,,,,,,,,None,301.9733182000018,301.9733182000018,301.9733182000018,301.9733182000018,301.9733182000018,301.9733182000018,f,0.3536567999981344,302.3592552000009,302.3592552000009,302.3592552000009,302.3592552000009,302.3592552000009,302.3592552000009,302.6400429000023,304.07327870000154,304.0897119000001,304.0897119000001,304.0897119000001,304.0897119000001,304.0897119000001,304.0897119000001,304.0897119000001,304.0897119000001,304.0897119000001,304.0897119000001,304.0897119000001,304.0897119000001,304.0897119000001,305.8211728000024,305.8211728000024,305.8211728000024,305.8211728000024,305.8211728000024,305.8211728000024,305.8211728000024,65,62,31,36,65,60,305.8211728000024,307.4718661000006,,,,,,,,,,,,３１１,f,1９,2023-05-18_15h54.02.804,RL,2022.2.5,59.821349522503645,
38,61,35,61,0,49,49,49,,,,,,,,,,,None,307.4718661000006,307.4718661000006,307.4718661000006,307.4718661000006,307.4718661000006,307.4718661000006,f,0.4810337000017171,307.9736856000018,307.9736856000018,307.9736856000018,307.9736856000018,307.9736856000018,307.9736856000018,308.25577070000145,309.2057911000011,309.2389460000013,309.2389460000013,309.2389460000013,309.2389460000013,309.2389460000013,309.2389460000013,309.2389460000013,309.2389460000013,309.2389460000013,309.2389460000013,309.2389460000013,309.2389460000013,309.2389460000013,310.48696960000234,310.48696960000234,310.48696960000234,310.48696960000234,310.48696960000234,310.48696960000234,310.48696960000234,61,61,35,38,61,60,310.48696960000234,312.22129230000064,,,,,,,,,,,,３１１,f,1９,2023-05-18_15h54.02.804,RL,2022.2.5,59.821349522503645,
44,60,29,73,0,50,50,50,,,,,,,,,,,None,312.22129230000064,312.22129230000064,312.22129230000064,312.22129230000064,312.22129230000064,312.22129230000064,i,0.42885739999837824,312.67311189999964,312.67311189999964,312.67311189999964,312.67311189999964,312.67311189999964,312.67311189999964,312.95457969999916,314.3047203000024,314.32100320000245,314.32100320000245,314.32100320000245,314.32100320000245,314.32100320000245,314.32100320000245,314.32100320000245,314.32100320000245,314.32100320000245,314.32100320000245,314.32100320000245,314.32100320000245,314.32100320000245,315.96948840000186,315.96948840000186,315.96948840000186,315.96948840000186,315.96948840000186,315.96948840000186,315.96948840000186,60,73,29,44,29,60,315.96948840000186,317.553513400002,,,,,,,,,,,,３１１,f,1９,2023-05-18_15h54.02.804,RL,2022.2.5,59.821349522503645,
49,59,20,75,0,51,51,51,,,,,,,,,,,None,317.553513400002,317.553513400002,317.553513400002,317.553513400002,317.553513400002,317.553513400002,r,0.2916086000004725,317.8718031999997,317.8718031999997,317.8718031999997,317.8718031999997,317.8718031999997,317.8718031999997,318.15402059999906,319.9370108000003,319.95354170000064,319.95354170000064,319.95354170000064,319.95354170000064,319.95354170000064,319.95354170000064,319.95354170000064,319.95354170000064,319.95354170000064,319.95354170000064,319.95354170000064,319.95354170000064,319.95354170000064,322.03468350000185,322.03468350000185,322.03468350000185,322.03468350000185,322.03468350000185,322.03468350000185,322.03468350000185,59,75,20,49,75,60,322.03468350000185,323.9023108000001,,,,,,,,,,,,３１１,f,1９,2023-05-18_15h54.02.804,RL,2022.2.5,59.821349522503645,
48,59,30,65,0,52,52,52,,,,,,,,,,,None,323.9023108000001,323.9023108000001,323.9023108000001,323.9023108000001,323.9023108000001,323.9023108000001,r,0.4366316999985429,324.3723836999998,324.3723836999998,324.3723836999998,324.3723836999998,324.3723836999998,324.3723836999998,324.65287460000036,326.5193470000013,326.53583340000114,326.53583340000114,326.53583340000114,326.53583340000114,326.53583340000114,326.53583340000114,326.53583340000114,326.53583340000114,326.53583340000114,326.53583340000114,326.53583340000114,326.53583340000114,326.53583340000114,328.70030509999924,328.70030509999924,328.70030509999924,328.70030509999924,328.70030509999924,328.70030509999924,328.70030509999924,59,65,30,48,65,60,328.70030509999924,330.501817700002,,,,,,,,,,,,３１１,f,1９,2023-05-18_15h54.02.804,RL,2022.2.5,59.821349522503645,
45,54,31,60,0,53,53,53,,,,,,,,,,,None,330.501817700002,330.501817700002,330.501817700002,330.501817700002,330.501817700002,330.501817700002,f,0.47677350000230945,331.00233579999986,331.00233579999986,331.00233579999986,331.00233579999986,331.00233579999986,331.00233579999986,331.2849649999989,333.0678497000008,333.0846401000017,333.0846401000017,333.0846401000017,333.0846401000017,333.0846401000017,333.0846401000017,333.0846401000017,333.0846401000017,333.0846401000017,333.0846401000017,333.0846401000017,333.0846401000017,333.0846401000017,335.166118000001,335.166118000001,335.166118000001,335.166118000001,335.166118000001,335.166118000001,335.166118000001,54,60,31,45,54,60,335.166118000001,336.90043499999956,,,,,,,,,,,,３１１,f,1９,2023-05-18_15h54.02.804,RL,2022.2.5,59.821349522503645,
49,56,27,62,0,54,54,54,,,,,,,,,,,None,336.90043499999956,336.90043499999956,336.90043499999956,336.90043499999956,336.90043499999956,336.90043499999956,r,0.3011607999978878,337.2388026000008,337.2388026000008,337.2388026000008,337.2388026000008,337.2388026000008,337.2388026000008,337.5172218000007,339.183721100002,339.2169208000014,339.2169208000014,339.2169208000014,339.2169208000014,339.2169208000014,339.2169208000014,339.2169208000014,339.2169208000014,339.2169208000014,339.2169208000014,339.2169208000014,339.2169208000014,339.2169208000014,341.18161659999896,341.18161659999896,341.18161659999896,341.18161659999896,341.18161659999896,341.18161659999896,341.18161659999896,56,62,27,49,62,60,341.18161659999896,342.9328502999997,,,,,,,,,,,,３１１,f,1９,2023-05-18_15h54.02.804,RL,2022.2.5,59.821349522503645,
47,54,35,64,0,55,55,55,,,,,,,,,,,None,342.9328502999997,342.9328502999997,342.9328502999997,342.9328502999997,342.9328502999997,342.9328502999997,r,0.30268729999806965,343.2690631000005,343.2690631000005,343.2690631000005,343.2690631000005,343.2690631000005,343.2690631000005,343.54944760000217,344.63264139999956,344.649034500002,344.649034500002,344.649034500002,344.649034500002,344.649034500002,344.649034500002,344.649034500002,344.649034500002,344.649034500002,344.649034500002,344.649034500002,344.649034500002,344.649034500002,346.0311543000025,346.0311543000025,346.0311543000025,346.0311543000025,346.0311543000025,346.0311543000025,346.0311543000025,54,64,35,47,64,60,346.0311543000025,347.89852959999916,,,,,,,,,,,,３１１,f,1９,2023-05-18_15h54.02.804,RL,2022.2.5,59.821349522503645,
48,56,29,62,0,56,56,56,,,,,,,,,,,None,347.89852959999916,347.89852959999916,347.89852959999916,347.89852959999916,347.89852959999916,347.89852959999916,j,0.3745048999990104,348.29879260000234,348.29879260000234,348.29879260000234,348.29879260000234,348.29879260000234,348.29879260000234,348.582325899999,349.631905000002,349.6484167000017,349.6484167000017,349.6484167000017,349.6484167000017,349.6484167000017,349.6484167000017,349.6484167000017,349.6484167000017,349.6484167000017,349.6484167000017,349.6484167000017,349.6484167000017,349.6484167000017,350.99680739999894,350.99680739999894,350.99680739999894,350.99680739999894,350.99680739999894,350.99680739999894,350.99680739999894,56,62,29,48,48,60,350.99680739999894,352.7808222999993,,,,,,,,,,,,３１１,f,1９,2023-05-18_15h54.02.804,RL,2022.2.5,59.821349522503645,
50,59,26,67,0,57,57,57,,,,,,,,,,,None,352.7808222999993,352.7808222999993,352.7808222999993,352.7808222999993,352.7808222999993,352.7808222999993,f,0.4516494000017701,353.26931909999985,353.26931909999985,353.26931909999985,353.26931909999985,353.26931909999985,353.26931909999985,353.56459130000076,355.48721410000144,355.48721410000144,355.48721410000144,355.48721410000144,355.48721410000144,355.48721410000144,355.48721410000144,355.48721410000144,355.48721410000144,355.48721410000144,355.48721410000144,355.48721410000144,355.48721410000144,355.48721410000144,357.6621840000007,357.6621840000007,357.6621840000007,357.6621840000007,357.6621840000007,357.6621840000007,357.6621840000007,59,67,26,50,59,60,357.6621840000007,359.2465396000007,,,,,,,,,,,,３１１,f,1９,2023-05-18_15h54.02.804,RL,2022.2.5,59.821349522503645,
47,60,29,64,0,58,58,58,,,,,,,,,,,None,359.2465396000007,359.2465396000007,359.2465396000007,359.2465396000007,359.2465396000007,359.2465396000007,r,0.3988916000016616,359.66436460000114,359.66436460000114,359.66436460000114,359.66436460000114,359.66436460000114,359.66436460000114,359.9634485000024,360.9131913000019,360.9131913000019,360.9131913000019,360.9131913000019,360.9131913000019,360.9131913000019,360.9131913000019,360.9131913000019,360.9131913000019,360.9131913000019,360.9131913000019,360.9131913000019,360.9131913000019,360.9131913000019,362.16130260000136,362.16130260000136,362.16130260000136,362.16130260000136,362.16130260000136,362.16130260000136,362.16130260000136,60,64,29,47,64,60,362.16130260000136,363.9122868000013,,,,,,,,,,,,３１１,f,1９,2023-05-18_15h54.02.804,RL,2022.2.5,59.821349522503645,
47,54,30,62,0,59,59,59,,,,,,,,,,,None,363.9122868000013,363.9122868000013,363.9122868000013,363.9122868000013,363.9122868000013,363.9122868000013,r,0.47019360000194865,364.41601680000167,364.41601680000167,364.41601680000167,364.41601680000167,364.41601680000167,364.41601680000167,364.71222829999897,366.04596030000175,366.04596030000175,366.04596030000175,366.04596030000175,366.04596030000175,366.04596030000175,366.04596030000175,366.04596030000175,366.04596030000175,366.04596030000175,366.04596030000175,366.04596030000175,366.04596030000175,366.04596030000175,367.67678259999957,367.67678259999957,367.67678259999957,367.67678259999957,367.67678259999957,367.67678259999957,367.67678259999957,54,62,30,47,62,60,367.67678259999957,369.6276729000019,,,,,,,,,,,,３１１,f,1９,2023-05-18_15h54.02.804,RL,2022.2.5,59.821349522503645,
49,51,35,61,0,60,60,60,,,,,,,,,,,None,369.6276729000019,369.6276729000019,369.6276729000019,369.6276729000019,369.6276729000019,369.6276729000019,f,0.5274334999994608,370.1784121000019,370.1784121000019,370.1784121000019,370.1784121000019,370.1784121000019,370.1784121000019,370.4618233000001,371.37811050000164,371.39459010000064,371.39459010000064,371.39459010000064,371.39459010000064,371.39459010000064,371.39459010000064,371.39459010000064,371.39459010000064,371.39459010000064,371.39459010000064,371.39459010000064,371.39459010000064,371.39459010000064,372.6092091999999,372.6092091999999,372.6092091999999,372.6092091999999,372.6092091999999,372.6092091999999,372.6092091999999,51,61,35,49,51,60,372.6092091999999,374.49364250000144,,,,,,,,,,,,３１１,f,1９,2023-05-18_15h54.02.804,RL,2022.2.5,59.821349522503645,
51,50,41,56,0,61,61,61,,,,,,,,,,,None,374.49364250000144,374.49364250000144,374.49364250000144,374.49364250000144,374.49364250000144,374.49364250000144,r,0.4910134999990987,375.01159800000096,375.01159800000096,375.01159800000096,375.01159800000096,375.01159800000096,375.01159800000096,375.29426850000164,376.1274230000017,376.1438128000009,376.1438128000009,376.1438128000009,376.1438128000009,376.1438128000009,376.1438128000009,376.1438128000009,376.1438128000009,376.1438128000009,376.1438128000009,376.1438128000009,376.1438128000009,376.1438128000009,377.2751003000012,377.2751003000012,377.2751003000012,377.2751003000012,377.2751003000012,377.2751003000012,377.2751003000012,50,56,41,51,56,60,377.2751003000012,379.00981580000007,,,,,,,,,,,,３１１,f,1９,2023-05-18_15h54.02.804,RL,2022.2.5,59.821349522503645,
47,44,37,59,0,62,62,62,,,,,,,,,,,None,379.00981580000007,379.00981580000007,379.00981580000007,379.00981580000007,379.00981580000007,379.00981580000007,r,0.41213409999909345,379.44531540000025,379.44531540000025,379.44531540000025,379.44531540000025,379.44531540000025,379.44531540000025,379.74328049999895,381.4094600999997,381.4094600999997,381.4094600999997,381.4094600999997,381.4094600999997,381.4094600999997,381.4094600999997,381.4094600999997,381.4094600999997,381.4094600999997,381.4094600999997,381.4094600999997,381.4094600999997,381.4094600999997,383.3741102000022,383.3741102000022,383.3741102000022,383.3741102000022,383.3741102000022,383.3741102000022,383.3741102000022,44,59,37,47,59,60,383.3741102000022,385.1752434000009,,,,,,,,,,,,３１１,f,1９,2023-05-18_15h54.02.804,RL,2022.2.5,59.821349522503645,
52,45,41,65,0,63,63,63,,,,,,,,,,,None,385.1752434000009,385.1752434000009,385.1752434000009,385.1752434000009,385.1752434000009,385.1752434000009,i,0.4796755999996094,385.67551860000094,385.67551860000094,385.67551860000094,385.67551860000094,385.67551860000094,385.67551860000094,385.97535770000104,387.02501610000036,387.02501610000036,387.02501610000036,387.02501610000036,387.02501610000036,387.02501610000036,387.02501610000036,387.02501610000036,387.02501610000036,387.02501610000036,387.02501610000036,387.02501610000036,387.02501610000036,387.02501610000036,388.37347710000176,388.37347710000176,388.37347710000176,388.37347710000176,388.37347710000176,388.37347710000176,388.37347710000176,45,65,41,52,41,60,388.37347710000176,389.9914288,,,,,,,,,,,,３１１,f,1９,2023-05-18_15h54.02.804,RL,2022.2.5,59.821349522503645,
37,40,47,58,0,64,64,64,,,,,,,,,,,None,389.9914288,389.9914288,389.9914288,389.9914288,389.9914288,389.9914288,f,0.4434398000012152,390.4580281000017,390.4580281000017,390.4580281000017,390.4580281000017,390.4580281000017,390.4580281000017,390.7578202000004,391.69115260000035,391.69115260000035,391.69115260000035,391.69115260000035,391.69115260000035,391.69115260000035,391.69115260000035,391.69115260000035,391.69115260000035,391.69115260000035,391.69115260000035,391.69115260000035,391.69115260000035,391.69115260000035,392.9224584000003,392.9224584000003,392.9224584000003,392.9224584000003,392.9224584000003,392.9224584000003,392.9224584000003,40,58,47,37,40,60,392.9224584000003,394.85713730000134,,,,,,,,,,,,３１１,f,1９,2023-05-18_15h54.02.804,RL,2022.2.5,59.821349522503645,
46,41,43,54,0,65,65,65,,,,,,,,,,,None,394.85713730000134,394.85713730000134,394.85713730000134,394.85713730000134,394.85713730000134,394.85713730000134,r,0.2539457000020775,395.14243179999903,395.14243179999903,395.14243179999903,395.14243179999903,395.14243179999903,395.14243179999903,395.4404695000012,397.17367170000216,397.17367170000216,397.17367170000216,397.17367170000216,397.17367170000216,397.17367170000216,397.17367170000216,397.17367170000216,397.17367170000216,397.17367170000216,397.17367170000216,397.17367170000216,397.17367170000216,397.17367170000216,399.20466210000086,399.20466210000086,399.20466210000086,399.20466210000086,399.20466210000086,399.20466210000086,399.20466210000086,41,54,43,46,54,60,399.20466210000086,401.0895187000024,,,,,,,,,,,,３１１,f,1９,2023-05-18_15h54.02.804,RL,2022.2.5,59.821349522503645,
41,34,41,58,0,66,66,66,,,,,,,,,,,None,401.0895187000024,401.0895187000024,401.0895187000024,401.0895187000024,401.0895187000024,401.0895187000024,r,0.4778760000008333,401.5896821000024,401.5896821000024,401.5896821000024,401.5896821000024,401.5896821000024,401.5896821000024,401.8724265000019,403.78902390000076,403.8057191000007,403.8057191000007,403.8057191000007,403.8057191000007,403.8057191000007,403.8057191000007,403.8057191000007,403.8057191000007,403.8057191000007,403.8057191000007,403.8057191000007,403.8057191000007,403.8057191000007,406.0204312999995,406.0204312999995,406.0204312999995,406.0204312999995,406.0204312999995,406.0204312999995,406.0204312999995,34,58,41,41,58,60,406.0204312999995,407.8214814000021,,,,,,,,,,,,３１１,f,1９,2023-05-18_15h54.02.804,RL,2022.2.5,59.821349522503645,
46,36,36,51,0,67,67,67,,,,,,,,,,,None,407.8214814000021,407.8214814000021,407.8214814000021,407.8214814000021,407.8214814000021,407.8214814000021,r,0.32708000000275206,408.1721445000003,408.1721445000003,408.1721445000003,408.1721445000003,408.1721445000003,408.1721445000003,408.4717774000019,409.8543935000016,409.8543935000016,409.8543935000016,409.8543935000016,409.8543935000016,409.8543935000016,409.8543935000016,409.8543935000016,409.8543935000016,409.8543935000016,409.8543935000016,409.8543935000016,409.8543935000016,409.8543935000016,411.53603959999964,411.53603959999964,411.53603959999964,411.53603959999964,411.53603959999964,411.53603959999964,411.53603959999964,36,51,36,46,51,60,411.53603959999964,413.0536514000014,,,,,,,,,,,,３１１,f,1９,2023-05-18_15h54.02.804,RL,2022.2.5,59.821349522503645,
35,30,25,47,0,68,68,68,,,,,,,,,,,None,413.0536514000014,413.0536514000014,413.0536514000014,413.0536514000014,413.0536514000014,413.0536514000014,f,0.47351569999955245,413.5542471000008,413.5542471000008,413.5542471000008,413.5542471000008,413.5542471000008,413.5542471000008,413.8377060000021,415.7204687000012,415.73682610000105,415.73682610000105,415.73682610000105,415.73682610000105,415.73682610000105,415.73682610000105,415.73682610000105,415.73682610000105,415.73682610000105,415.73682610000105,415.73682610000105,415.73682610000105,415.73682610000105,417.91795379999894,417.91795379999894,417.91795379999894,417.91795379999894,417.91795379999894,417.91795379999894,417.91795379999894,30,47,25,35,30,60,417.91795379999894,419.5526032000016,,,,,,,,,,,,３１１,f,1９,2023-05-18_15h54.02.804,RL,2022.2.5,59.821349522503645,
32,36,40,51,0,69,69,69,,,,,,,,,,,None,419.5526032000016,419.5526032000016,419.5526032000016,419.5526032000016,419.5526032000016,419.5526032000016,r,0.30310450000251876,419.8875048000009,419.8875048000009,419.8875048000009,419.8875048000009,419.8875048000009,419.8875048000009,420.1864071000018,421.41939280000224,421.41939280000224,421.41939280000224,421.41939280000224,421.41939280000224,421.41939280000224,421.41939280000224,421.41939280000224,421.41939280000224,421.41939280000224,421.41939280000224,421.41939280000224,421.41939280000224,421.41939280000224,422.9506275999993,422.9506275999993,422.9506275999993,422.9506275999993,422.9506275999993,422.9506275999993,422.9506275999993,36,51,40,32,51,60,422.9506275999993,424.6687199000007,,,,,,,,,,,,３１１,f,1９,2023-05-18_15h54.02.804,RL,2022.2.5,59.821349522503645,
34,37,40,50,0,70,70,70,,,,,,,,,,,None,424.6687199000007,424.6687199000007,424.6687199000007,424.6687199000007,424.6687199000007,424.6687199000007,i,0.3493352999976196,425.03630859999976,425.03630859999976,425.03630859999976,425.03630859999976,425.03630859999976,425.03630859999976,425.3190133999997,426.61857050000253,426.63500770000246,426.63500770000246,426.63500770000246,426.63500770000246,426.63500770000246,426.63500770000246,426.63500770000246,426.63500770000246,426.63500770000246,426.63500770000246,426.63500770000246,426.63500770000246,426.63500770000246,428.23295770000186,428.23295770000186,428.23295770000186,428.23295770000186,428.23295770000186,428.23295770000186,428.23295770000186,37,50,40,34,40,60,428.23295770000186,430.03413329999967,,,,,,,,,,,,３１１,f,1９,2023-05-18_15h54.02.804,RL,2022.2.5,59.821349522503645,
39,35,24,51,0,71,71,71,,,,,,,,,,,None,430.03413329999967,430.03413329999967,430.03413329999967,430.03413329999967,430.03413329999967,430.03413329999967,j,0.3982722000000649,430.4514721000014,430.4514721000014,430.4514721000014,430.4514721000014,430.4514721000014,430.4514721000014,430.75149769999916,432.417384700002,432.417384700002,432.417384700002,432.417384700002,432.417384700002,432.417384700002,432.417384700002,432.417384700002,432.417384700002,432.417384700002,432.417384700002,432.417384700002,432.417384700002,432.417384700002,434.3821100999994,434.3821100999994,434.3821100999994,434.3821100999994,434.3821100999994,434.3821100999994,434.3821100999994,35,51,24,39,39,60,434.3821100999994,435.9997785000014,,,,,,,,,,,,３１１,f,1９,2023-05-18_15h54.02.804,RL,2022.2.5,59.821349522503645,
32,33,27,48,0,72,72,72,,,,,,,,,,,None,435.9997785000014,435.9997785000014,435.9997785000014,435.9997785000014,435.9997785000014,435.9997785000014,f,0.3703395999982604,436.4008157999997,436.4008157999997,436.4008157999997,436.4008157999997,436.4008157999997,436.4008157999997,436.6834280000003,437.63339300000007,437.6500292000019,437.6500292000019,437.6500292000019,437.6500292000019,437.6500292000019,437.6500292000019,437.6500292000019,437.6500292000019,437.6500292000019,437.6500292000019,437.6500292000019,437.6500292000019,437.6500292000019,438.8981368999994,438.8981368999994,438.8981368999994,438.8981368999994,438.8981368999994,438.8981368999994,438.8981368999994,33,48,27,32,33,60,438.8981368999994,440.89874989999953,,,,,,,,,,,,３１１,f,1９,2023-05-18_15h54.02.804,RL,2022.2.5,59.821349522503645,
38,31,29,56,0,73,73,73,,,,,,,,,,,None,440.89874989999953,440.89874989999953,440.89874989999953,440.89874989999953,440.89874989999953,440.89874989999953,r,0.2847199999996519,441.22198520000165,441.22198520000165,441.22198520000165,441.22198520000165,441.22198520000165,441.22198520000165,441.5158979000007,442.4153995000015,442.43273110000155,442.43273110000155,442.43273110000155,442.43273110000155,442.43273110000155,442.43273110000155,442.43273110000155,442.43273110000155,442.43273110000155,442.43273110000155,442.43273110000155,442.43273110000155,442.43273110000155,443.6305687999993,443.6305687999993,443.6305687999993,443.6305687999993,443.6305687999993,443.6305687999993,443.6305687999993,31,56,29,38,56,60,443.6305687999993,445.49838330000057,,,,,,,,,,,,３１１,f,1９,2023-05-18_15h54.02.804,RL,2022.2.5,59.821349522503645,
31,32,32,53,0,74,74,74,,,,,,,,,,,None,445.49838330000057,445.49838330000057,445.49838330000057,445.49838330000057,445.49838330000057,445.49838330000057,r,0.40138260000094306,445.94153039999946,445.94153039999946,445.94153039999946,445.94153039999946,445.94153039999946,445.94153039999946,446.23195620000115,447.93143770000097,447.94793729999947,447.94793729999947,447.94793729999947,447.94793729999947,447.94793729999947,447.94793729999947,447.94793729999947,447.94793729999947,447.94793729999947,447.94793729999947,447.94793729999947,447.94793729999947,447.94793729999947,449.9458995999994,449.9458995999994,449.9458995999994,449.9458995999994,449.9458995999994,449.9458995999994,449.9458995999994,32,53,32,31,53,60,449.9458995999994,451.84658110000237,,,,,,,,,,,,３１１,f,1９,2023-05-18_15h54.02.804,RL,2022.2.5,59.821349522503645,
25,41,33,52,0,75,75,75,,,,,,,,,,,q,474.293035900002,474.293035900002,474.293035900002,474.293035900002,474.293035900002,474.293035900002,i,0.9748598000005586,475.2956548000002,475.2956548000002,475.2956548000002,475.2956548000002,475.2956548000002,475.2956548000002,475.57700079999995,477.47643059999973,477.4927185000015,477.4927185000015,477.4927185000015,477.4927185000015,477.4927185000015,477.4927185000015,477.4927185000015,477.4927185000015,477.4927185000015,477.4927185000015,477.4927185000015,477.4927185000015,477.4927185000015,479.6904781000012,479.6904781000012,479.6904781000012,479.6904781000012,479.6904781000012,479.6904781000012,479.6904781000012,41,52,33,25,33,60,479.6904781000012,481.6582072000019,451.84658110000237,451.84658110000237,17.405611899997893,469.27830860000176,469.27830860000176,474.293035900002,474.293035900002,,,,,３１１,f,1９,2023-05-18_15h54.02.804,RL,2022.2.5,59.821349522503645,
35,44,45,49,0,76,76,76,,,,,,,,,,,None,481.6582072000019,481.6582072000019,481.6582072000019,481.6582072000019,481.6582072000019,481.6582072000019,r,0.5893424000023515,482.2769582000001,482.2769582000001,482.2769582000001,482.2769582000001,482.2769582000001,482.2769582000001,482.5586297000009,483.69194190000053,483.7084035000007,483.7084035000007,483.7084035000007,483.7084035000007,483.7084035000007,483.7084035000007,483.7084035000007,483.7084035000007,483.7084035000007,483.7084035000007,483.7084035000007,483.7084035000007,483.7084035000007,485.14025519999996,485.14025519999996,485.14025519999996,485.14025519999996,485.14025519999996,485.14025519999996,485.14025519999996,44,49,45,35,49,60,485.14025519999996,487.0076491,,,,,,,,,,,,３１１,f,1９,2023-05-18_15h54.02.804,RL,2022.2.5,59.821349522503645,
37,49,44,48,0,77,77,77,,,,,,,,,,,None,487.0076491,487.0076491,487.0076491,487.0076491,487.0076491,487.0076491,i,0.5031414000004588,487.5426695000024,487.5426695000024,487.5426695000024,487.5426695000024,487.5426695000024,487.5426695000024,487.84074229999896,489.32429240000056,489.32429240000056,489.32429240000056,489.32429240000056,489.32429240000056,489.32429240000056,489.32429240000056,489.32429240000056,489.32429240000056,489.32429240000056,489.32429240000056,489.32429240000056,489.32429240000056,489.32429240000056,491.10556500000166,491.10556500000166,491.10556500000166,491.10556500000166,491.10556500000166,491.10556500000166,491.10556500000166,49,48,44,37,44,60,491.10556500000166,492.98975040000005,,,,,,,,,,,,３１１,f,1９,2023-05-18_15h54.02.804,RL,2022.2.5,59.821349522503645,
30,41,37,60,0,78,78,78,,,,,,,,,,,None,492.98975040000005,492.98975040000005,492.98975040000005,492.98975040000005,492.98975040000005,492.98975040000005,f,0.34455030000026454,493.3570666000014,493.3570666000014,493.3570666000014,493.3570666000014,493.3570666000014,493.3570666000014,493.6403781000008,494.9236641999996,494.9400654000019,494.9400654000019,494.9400654000019,494.9400654000019,494.9400654000019,494.9400654000019,494.9400654000019,494.9400654000019,494.9400654000019,494.9400654000019,494.9400654000019,494.9400654000019,494.9400654000019,496.52140190000136,496.52140190000136,496.52140190000136,496.52140190000136,496.52140190000136,496.52140190000136,496.52140190000136,41,60,37,30,41,60,496.52140190000136,498.32225929999913,,,,,,,,,,,,３１１,f,1９,2023-05-18_15h54.02.804,RL,2022.2.5,59.821349522503645,
29,44,41,53,0,79,79,79,,,,,,,,,,,None,498.32225929999913,498.32225929999913,498.32225929999913,498.32225929999913,498.32225929999913,498.32225929999913,j,0.44351170000300044,498.79029470000023,498.79029470000023,498.79029470000023,498.79029470000023,498.79029470000023,498.79029470000023,499.0723797999999,500.1222318,500.1388125000012,500.1388125000012,500.1388125000012,500.1388125000012,500.1388125000012,500.1388125000012,500.1388125000012,500.1388125000012,500.1388125000012,500.1388125000012,500.1388125000012,500.1388125000012,500.1388125000012,501.48709790000066,501.48709790000066,501.48709790000066,501.48709790000066,501.48709790000066,501.48709790000066,501.48709790000066,44,53,41,29,29,60,501.48709790000066,503.2550764000007,,,,,,,,,,,,３１１,f,1９,2023-05-18_15h54.02.804,RL,2022.2.5,59.821349522503645,
26,44,46,57,0,80,80,80,,,,,,,,,,,None,503.2550764000007,503.2550764000007,503.2550764000007,503.2550764000007,503.2550764000007,503.2550764000007,r,0.6003280000004452,503.8937143000003,503.8937143000003,503.8937143000003,503.8937143000003,503.8937143000003,503.8937143000003,504.18822830000136,506.0044401000014,506.02106320000166,506.02106320000166,506.02106320000166,506.02106320000166,506.02106320000166,506.02106320000166,506.02106320000166,506.02106320000166,506.02106320000166,506.02106320000166,506.02106320000166,506.02106320000166,506.02106320000166,508.13628099999914,508.13628099999914,508.13628099999914,508.13628099999914,508.13628099999914,508.13628099999914,508.13628099999914,44,57,46,26,57,60,508.13628099999914,509.88680840000234,,,,,,,,,,,,３１１,f,1９,2023-05-18_15h54.02.804,RL,2022.2.5,59.821349522503645,
34,48,40,58,0,81,81,81,,,,,,,,,,,None,509.88680840000234,509.88680840000234,509.88680840000234,509.88680840000234,509.88680840000234,509.88680840000234,r,0.5375504000003275,510.4547095000016,510.4547095000016,510.4547095000016,510.4547095000016,510.4547095000016,510.4547095000016,510.7536657000019,512.2199747000013,512.2199747000013,512.2199747000013,512.2199747000013,512.2199747000013,512.2199747000013,512.2199747000013,512.2199747000013,512.2199747000013,512.2199747000013,512.2199747000013,512.2199747000013,512.2199747000013,512.2199747000013,513.9847179999997,513.9847179999997,513.9847179999997,513.9847179999997,513.9847179999997,513.9847179999997,513.9847179999997,48,58,40,34,58,60,513.9847179999997,515.7027192000023,,,,,,,,,,,,３１１,f,1９,2023-05-18_15h54.02.804,RL,2022.2.5,59.821349522503645,
37,53,44,49,0,82,82,82,,,,,,,,,,,None,515.7027192000023,515.7027192000023,515.7027192000023,515.7027192000023,515.7027192000023,515.7027192000023,r,0.38203079999948386,516.1060848000016,516.1060848000016,516.1060848000016,516.1060848000016,516.1060848000016,516.1060848000016,516.4026212999997,517.8524447999989,517.8524447999989,517.8524447999989,517.8524447999989,517.8524447999989,517.8524447999989,517.8524447999989,517.8524447999989,517.8524447999989,517.8524447999989,517.8524447999989,517.8524447999989,517.8524447999989,517.8524447999989,519.600319000001,519.600319000001,519.600319000001,519.600319000001,519.600319000001,519.600319000001,519.600319000001,53,49,44,37,49,60,519.600319000001,521.3515259000014,,,,,,,,,,,,３１１,f,1９,2023-05-18_15h54.02.804,RL,2022.2.5,59.821349522503645,
41,50,44,56,0,83,83,83,,,,,,,,,,,None,521.3515259000014,521.3515259000014,521.3515259000014,521.3515259000014,521.3515259000014,521.3515259000014,i,0.4593538000008266,521.8351982000022,521.8351982000022,521.8351982000022,521.8351982000022,521.8351982000022,521.8351982000022,522.1185122000024,522.9847723999992,523.0014809000022,523.0014809000022,523.0014809000022,523.0014809000022,523.0014809000022,523.0014809000022,523.0014809000022,523.0014809000022,523.0014809000022,523.0014809000022,523.0014809000022,523.0014809000022,523.0014809000022,524.1662663000025,524.1662663000025,524.1662663000025,524.1662663000025,524.1662663000025,524.1662663000025,524.1662663000025,50,56,44,41,44,60,524.1662663000025,526.0175238000011,,,,,,,,,,,,３１１,f,1９,2023-05-18_15h54.02.804,RL,2022.2.5,59.821349522503645,
31,58,43,63,0,84,84,84,,,,,,,,,,,None,526.0175238000011,526.0175238000011,526.0175238000011,526.0175238000011,526.0175238000011,526.0175238000011,f,0.4733922999985225,526.517782400002,526.517782400002,526.517782400002,526.517782400002,526.517782400002,526.517782400002,526.8010603000002,527.6180419000011,527.6343820000002,527.6343820000002,527.6343820000002,527.6343820000002,527.6343820000002,527.6343820000002,527.6343820000002,527.6343820000002,527.6343820000002,527.6343820000002,527.6343820000002,527.6343820000002,527.6343820000002,528.748975999999,528.748975999999,528.748975999999,528.748975999999,528.748975999999,528.748975999999,528.748975999999,58,63,43,31,58,60,528.748975999999,530.3333925000006,,,,,,,,,,,,３１１,f,1９,2023-05-18_15h54.02.804,RL,2022.2.5,59.821349522503645,
34,57,39,58,0,85,85,85,,,,,,,,,,,None,530.3333925000006,530.3333925000006,530.3333925000006,530.3333925000006,530.3333925000006,530.3333925000006,f,0.5652351000026101,530.9182641000007,530.9182641000007,530.9182641000007,530.9182641000007,530.9182641000007,530.9182641000007,531.2001941000017,532.733194299999,532.7665407999993,532.7665407999993,532.7665407999993,532.7665407999993,532.7665407999993,532.7665407999993,532.7665407999993,532.7665407999993,532.7665407999993,532.7665407999993,532.7665407999993,532.7665407999993,532.7665407999993,534.5978938000007,534.5978938000007,534.5978938000007,534.5978938000007,534.5978938000007,534.5978938000007,534.5978938000007,57,58,39,34,57,60,534.5978938000007,536.5827583999999,,,,,,,,,,,,３１１,f,1９,2023-05-18_15h54.02.804,RL,2022.2.5,59.821349522503645,
26,58,47,66,0,86,86,86,,,,,,,,,,,None,536.5827583999999,536.5827583999999,536.5827583999999,536.5827583999999,536.5827583999999,536.5827583999999,r,0.42931099999987055,537.0363958000016,537.0363958000016,537.0363958000016,537.0363958000016,537.0363958000016,537.0363958000016,537.3325285999999,538.8989077000006,538.8989077000006,538.8989077000006,538.8989077000006,538.8989077000006,538.8989077000006,538.8989077000006,538.8989077000006,538.8989077000006,538.8989077000006,538.8989077000006,538.8989077000006,538.8989077000006,538.8989077000006,540.764098399999,540.764098399999,540.764098399999,540.764098399999,540.764098399999,540.764098399999,540.764098399999,58,66,47,26,66,60,540.764098399999,542.7144324000001,,,,,,,,,,,,３１１,f,1９,2023-05-18_15h54.02.804,RL,2022.2.5,59.821349522503645,
35,58,44,71,0,87,87,87,,,,,,,,,,,None,542.7144324000001,542.7144324000001,542.7144324000001,542.7144324000001,542.7144324000001,542.7144324000001,j,0.502362199997151,543.2483382999999,543.2483382999999,543.2483382999999,543.2483382999999,543.2483382999999,543.2483382999999,543.5312264000022,544.5647858000011,544.5811265000011,544.5811265000011,544.5811265000011,544.5811265000011,544.5811265000011,544.5811265000011,544.5811265000011,544.5811265000011,544.5811265000011,544.5811265000011,544.5811265000011,544.5811265000011,544.5811265000011,545.9128549000015,545.9128549000015,545.9128549000015,545.9128549000015,545.9128549000015,545.9128549000015,545.9128549000015,58,71,44,35,35,60,545.9128549000015,547.6804588000014,,,,,,,,,,,,３１１,f,1９,2023-05-18_15h54.02.804,RL,2022.2.5,59.821349522503645,
31,63,42,63,0,88,88,88,,,,,,,,,,,None,547.6804588000014,547.6804588000014,547.6804588000014,547.6804588000014,547.6804588000014,547.6804588000014,r,0.30616379999992205,548.016279200001,548.016279200001,548.016279200001,548.016279200001,548.016279200001,548.016279200001,548.314392799999,549.397264700001,549.397264700001,549.397264700001,549.397264700001,549.397264700001,549.397264700001,549.397264700001,549.397264700001,549.397264700001,549.397264700001,549.397264700001,549.397264700001,549.397264700001,549.397264700001,550.7787621000025,550.7787621000025,550.7787621000025,550.7787621000025,550.7787621000025,550.7787621000025,550.7787621000025,63,63,42,31,63,60,550.7787621000025,552.5463204000007,,,,,,,,,,,,３１１,f,1９,2023-05-18_15h54.02.804,RL,2022.2.5,59.821349522503645,
33,63,42,71,0,89,89,89,,,,,,,,,,,None,552.5463204000007,552.5463204000007,552.5463204000007,552.5463204000007,552.5463204000007,552.5463204000007,r,0.6432041000007303,553.2145032000008,553.2145032000008,553.2145032000008,553.2145032000008,553.2145032000008,553.2145032000008,553.5132161000001,555.4127007000025,555.4127007000025,555.4127007000025,555.4127007000025,555.4127007000025,555.4127007000025,555.4127007000025,555.4127007000025,555.4127007000025,555.4127007000025,555.4127007000025,555.4127007000025,555.4127007000025,555.4127007000025,557.6105260000004,557.6105260000004,557.6105260000004,557.6105260000004,557.6105260000004,557.6105260000004,557.6105260000004,63,71,42,33,71,60,557.6105260000004,559.4120346999989,,,,,,,,,,,,３１１,f,1９,2023-05-18_15h54.02.804,RL,2022.2.5,59.821349522503645,
39,69,41,70,0,90,90,90,,,,,,,,,,,None,559.4120346999989,559.4120346999989,559.4120346999989,559.4120346999989,559.4120346999989,559.4120346999989,r,0.47093089999907534,559.9121395000002,559.9121395000002,559.9121395000002,559.9121395000002,559.9121395000002,559.9121395000002,560.1952698000023,561.0454059000003,561.0619231000019,561.0619231000019,561.0619231000019,561.0619231000019,561.0619231000019,561.0619231000019,561.0619231000019,561.0619231000019,561.0619231000019,561.0619231000019,561.0619231000019,561.0619231000019,561.0619231000019,562.2095324000002,562.2095324000002,562.2095324000002,562.2095324000002,562.2095324000002,562.2095324000002,562.2095324000002,69,70,41,39,70,60,562.2095324000002,564.1440270999992,,,,,,,,,,,,３１１,f,1９,2023-05-18_15h54.02.804,RL,2022.2.5,59.821349522503645,
30,60,42,66,0,91,91,91,,,,,,,,,,,None,564.1440270999992,564.1440270999992,564.1440270999992,564.1440270999992,564.1440270999992,564.1440270999992,r,0.3230766000015137,564.4947167999999,564.4947167999999,564.4947167999999,564.4947167999999,564.4947167999999,564.4947167999999,564.7946857999996,566.5941774000021,566.5941774000021,566.5941774000021,566.5941774000021,566.5941774000021,566.5941774000021,566.5941774000021,566.5941774000021,566.5941774000021,566.5941774000021,566.5941774000021,566.5941774000021,566.5941774000021,566.5941774000021,568.6918523999993,568.6918523999993,568.6918523999993,568.6918523999993,568.6918523999993,568.6918523999993,568.6918523999993,60,66,42,30,66,60,568.6918523999993,570.5427890999999,,,,,,,,,,,,３１１,f,1９,2023-05-18_15h54.02.804,RL,2022.2.5,59.821349522503645,
36,52,38,69,0,92,92,92,,,,,,,,,,,None,570.5427890999999,570.5427890999999,570.5427890999999,570.5427890999999,570.5427890999999,570.5427890999999,f,0.35145030000057886,570.9300936,570.9300936,570.9300936,570.9300936,570.9300936,570.9300936,571.2101760000005,572.5098364000005,572.5266092999991,572.5266092999991,572.5266092999991,572.5266092999991,572.5266092999991,572.5266092999991,572.5266092999991,572.5266092999991,572.5266092999991,572.5266092999991,572.5266092999991,572.5266092999991,572.5266092999991,574.1244838999992,574.1244838999992,574.1244838999992,574.1244838999992,574.1244838999992,574.1244838999992,574.1244838999992,52,69,38,36,52,60,574.1244838999992,576.075562500002,,,,,,,,,,,,３１１,f,1９,2023-05-18_15h54.02.804,RL,2022.2.5,59.821349522503645,
30,71,40,69,0,93,93,93,,,,,,,,,,,None,576.075562500002,576.075562500002,576.075562500002,576.075562500002,576.075562500002,576.075562500002,r,0.46810069999992265,576.5883262000025,576.5883262000025,576.5883262000025,576.5883262000025,576.5883262000025,576.5883262000025,576.8760322000016,578.0254937999998,578.0420613999995,578.0420613999995,578.0420613999995,578.0420613999995,578.0420613999995,578.0420613999995,578.0420613999995,578.0420613999995,578.0420613999995,578.0420613999995,578.0420613999995,578.0420613999995,578.0420613999995,579.4898615999991,579.4898615999991,579.4898615999991,579.4898615999991,579.4898615999991,579.4898615999991,579.4898615999991,71,69,40,30,69,60,579.4898615999991,581.3584197000018,,,,,,,,,,,,３１１,f,1９,2023-05-18_15h54.02.804,RL,2022.2.5,59.821349522503645,
35,55,35,63,0,94,94,94,,,,,,,,,,,None,581.3584197000018,581.3584197000018,581.3584197000018,581.3584197000018,581.3584197000018,581.3584197000018,r,0.50750639999751,581.8924812000005,581.8924812000005,581.8924812000005,581.8924812000005,581.8924812000005,581.8924812000005,582.1746206000025,583.0083610000001,583.0248864999994,583.0248864999994,583.0248864999994,583.0248864999994,583.0248864999994,583.0248864999994,583.0248864999994,583.0248864999994,583.0248864999994,583.0248864999994,583.0248864999994,583.0248864999994,583.0248864999994,584.1560538000012,584.1560538000012,584.1560538000012,584.1560538000012,584.1560538000012,584.1560538000012,584.1560538000012,55,63,35,35,63,60,584.1560538000012,586.1570974999995,,,,,,,,,,,,３１１,f,1９,2023-05-18_15h54.02.804,RL,2022.2.5,59.821349522503645,
37,60,34,63,0,95,95,95,,,,,,,,,,,None,586.1570974999995,586.1570974999995,586.1570974999995,586.1570974999995,586.1570974999995,586.1570974999995,r,0.3655925999992178,586.5410276000002,586.5410276000002,586.5410276000002,586.5410276000002,586.5410276000002,586.5410276000002,586.8241621000016,588.0239872999991,588.0404479999997,588.0404479999997,588.0404479999997,588.0404479999997,588.0404479999997,588.0404479999997,588.0404479999997,588.0404479999997,588.0404479999997,588.0404479999997,588.0404479999997,588.0404479999997,588.0404479999997,589.5387330000012,589.5387330000012,589.5387330000012,589.5387330000012,589.5387330000012,589.5387330000012,589.5387330000012,60,63,34,37,63,60,589.5387330000012,591.4893781999999,,,,,,,,,,,,３１１,f,1９,2023-05-18_15h54.02.804,RL,2022.2.5,59.821349522503645,
29,61,45,67,0,96,96,96,,,,,,,,,,,None,591.4893781999999,591.4893781999999,591.4893781999999,591.4893781999999,591.4893781999999,591.4893781999999,i,0.4583891999973275,591.9748839000022,591.9748839000022,591.9748839000022,591.9748839000022,591.9748839000022,591.9748839000022,592.2730164999994,593.1394096000004,593.1394096000004,593.1394096000004,593.1394096000004,593.1394096000004,593.1394096000004,593.1394096000004,593.1394096000004,593.1394096000004,593.1394096000004,593.1394096000004,593.1394096000004,593.1394096000004,593.1394096000004,594.3042645999994,594.3042645999994,594.3042645999994,594.3042645999994,594.3042645999994,594.3042645999994,594.3042645999994,61,67,45,29,45,60,594.3042645999994,596.2555099000019,,,,,,,,,,,,３１１,f,1９,2023-05-18_15h54.02.804,RL,2022.2.5,59.821349522503645,
38,60,38,72,0,97,97,97,,,,,,,,,,,None,596.2555099000019,596.2555099000019,596.2555099000019,596.2555099000019,596.2555099000019,596.2555099000019,f,0.3325987999996869,596.6059338000014,596.6059338000014,596.6059338000014,596.6059338000014,596.6059338000014,596.6059338000014,596.889311400002,597.8053318999991,597.822016099999,597.822016099999,597.822016099999,597.822016099999,597.822016099999,597.822016099999,597.822016099999,597.822016099999,597.822016099999,597.822016099999,597.822016099999,597.822016099999,597.822016099999,599.036884000001,599.036884000001,599.036884000001,599.036884000001,599.036884000001,599.036884000001,599.036884000001,60,72,38,38,60,60,599.036884000001,600.9042909000018,,,,,,,,,,,,３１１,f,1９,2023-05-18_15h54.02.804,RL,2022.2.5,59.821349522503645,
42,60,48,58,0,98,98,98,,,,,,,,,,,None,600.9042909000018,600.9042909000018,600.9042909000018,600.9042909000018,600.9042909000018,600.9042909000018,r,0.399403399998846,601.3222946000024,601.3222946000024,601.3222946000024,601.3222946000024,601.3222946000024,601.3222946000024,601.6215420000008,603.021328400002,603.021328400002,603.021328400002,603.021328400002,603.021328400002,603.021328400002,603.021328400002,603.021328400002,603.021328400002,603.021328400002,603.021328400002,603.021328400002,603.021328400002,603.021328400002,604.7191289000002,604.7191289000002,604.7191289000002,604.7191289000002,604.7191289000002,604.7191289000002,604.7191289000002,60,58,48,42,58,60,604.7191289000002,606.453824799999,,,,,,,,,,,,３１１,f,1９,2023-05-18_15h54.02.804,RL,2022.2.5,59.821349522503645,
48,60,44,60,0,99,99,99,,,,,,,,,,,None,606.453824799999,606.453824799999,606.453824799999,606.453824799999,606.453824799999,606.453824799999,f,0.4891986000002362,606.9704755999992,606.9704755999992,606.9704755999992,606.9704755999992,606.9704755999992,606.9704755999992,607.2704835000004,608.5873028999995,608.5873028999995,608.5873028999995,608.5873028999995,608.5873028999995,608.5873028999995,608.5873028999995,608.5873028999995,608.5873028999995,608.5873028999995,608.5873028999995,608.5873028999995,608.5873028999995,608.5873028999995,610.2020752999997,610.2020752999997,610.2020752999997,610.2020752999997,610.2020752999997,610.2020752999997,610.2020752999997,60,60,44,48,60,60,610.2020752999997,612.1526382000011,,,,,,,,,,,,３１１,f,1９,2023-05-18_15h54.02.804,RL,2022.2.5,59.821349522503645,
45,50,45,59,0,100,100,100,,,,,,,,,,,None,612.1526382000011,612.1526382000011,612.1526382000011,612.1526382000011,612.1526382000011,612.1526382000011,f,0.43908880000162753,612.6205962000022,612.6205962000022,612.6205962000022,612.6205962000022,612.6205962000022,612.6205962000022,612.919210600001,613.8025416000019,613.8025416000019,613.8025416000019,613.8025416000019,613.8025416000019,613.8025416000019,613.8025416000019,613.8025416000019,613.8025416000019,613.8025416000019,613.8025416000019,613.8025416000019,613.8025416000019,613.8025416000019,614.9839278,614.9839278,614.9839278,614.9839278,614.9839278,614.9839278,614.9839278,50,59,45,45,50,60,614.9839278,616.6517370000001,,,,,,,,,,,,３１１,f,1９,2023-05-18_15h54.02.804,RL,2022.2.5,59.821349522503645,
43,56,50,63,0,101,101,101,,,,,,,,,,,None,616.6517370000001,616.6517370000001,616.6517370000001,616.6517370000001,616.6517370000001,616.6517370000001,r,0.527008000000933,617.2025381999993,617.2025381999993,617.2025381999993,617.2025381999993,617.2025381999993,617.2025381999993,617.4855439999992,619.3187552000018,619.335227399999,619.335227399999,619.335227399999,619.335227399999,619.335227399999,619.335227399999,619.335227399999,619.335227399999,619.335227399999,619.335227399999,619.335227399999,619.335227399999,619.335227399999,621.4662874999995,621.4662874999995,621.4662874999995,621.4662874999995,621.4662874999995,621.4662874999995,621.4662874999995,56,63,50,43,63,60,621.4662874999995,623.084190900001,,,,,,,,,,,,３１１,f,1９,2023-05-18_15h54.02.804,RL,2022.2.5,59.821349522503645,
40,61,37,65,0,102,102,102,,,,,,,,,,,None,623.084190900001,623.084190900001,623.084190900001,623.084190900001,623.084190900001,623.084190900001,j,1.0092554000002565,624.1210079000011,624.1210079000011,624.1210079000011,624.1210079000011,624.1210079000011,624.1210079000011,624.4009092000015,626.0668750000004,626.0835662999998,626.0835662999998,626.0835662999998,626.0835662999998,626.0835662999998,626.0835662999998,626.0835662999998,626.0835662999998,626.0835662999998,626.0835662999998,626.0835662999998,626.0835662999998,626.0835662999998,628.0318052000002,628.0318052000002,628.0318052000002,628.0318052000002,628.0318052000002,628.0318052000002,628.0318052000002,61,65,37,40,40,60,628.0318052000002,629.7827543999992,,,,,,,,,,,,３１１,f,1９,2023-05-18_15h54.02.804,RL,2022.2.5,59.821349522503645,
42,58,48,67,0,103,103,103,,,,,,,,,,,None,629.7827543999992,629.7827543999992,629.7827543999992,629.7827543999992,629.7827543999992,629.7827543999992,i,0.3771388000022853,630.1848458999993,630.1848458999993,630.1848458999993,630.1848458999993,630.1848458999993,630.1848458999993,630.4666164000009,632.0993746000022,632.1160880000025,632.1160880000025,632.1160880000025,632.1160880000025,632.1160880000025,632.1160880000025,632.1160880000025,632.1160880000025,632.1160880000025,632.1160880000025,632.1160880000025,632.1160880000025,632.1160880000025,634.0472933000019,634.0472933000019,634.0472933000019,634.0472933000019,634.0472933000019,634.0472933000019,634.0472933000019,58,67,48,42,48,60,634.0472933000019,635.6984110000012,,,,,,,,,,,,３１１,f,1９,2023-05-18_15h54.02.804,RL,2022.2.5,59.821349522503645,
48,53,42,56,0,104,104,104,,,,,,,,,,,None,635.6984110000012,635.6984110000012,635.6984110000012,635.6984110000012,635.6984110000012,635.6984110000012,r,0.35614750000240747,636.084012700001,636.084012700001,636.084012700001,636.084012700001,636.084012700001,636.084012700001,636.3824219000016,637.8150242000011,637.8150242000011,637.8150242000011,637.8150242000011,637.8150242000011,637.8150242000011,637.8150242000011,637.8150242000011,637.8150242000011,637.8150242000011,637.8150242000011,637.8150242000011,637.8150242000011,637.8150242000011,639.5462549000003,639.5462549000003,639.5462549000003,639.5462549000003,639.5462549000003,639.5462549000003,639.5462549000003,53,56,42,48,56,60,639.5462549000003,641.2811168000007,,,,,,,,,,,,３１１,f,1９,2023-05-18_15h54.02.804,RL,2022.2.5,59.821349522503645,
40,45,45,57,0,105,105,105,,,,,,,,,,,None,641.2811168000007,641.2811168000007,641.2811168000007,641.2811168000007,641.2811168000007,641.2811168000007,f,0.3412946999997075,641.6479551000011,641.6479551000011,641.6479551000011,641.6479551000011,641.6479551000011,641.6479551000011,641.9313393000011,642.7476124999994,642.7640159000002,642.7640159000002,642.7640159000002,642.7640159000002,642.7640159000002,642.7640159000002,642.7640159000002,642.7640159000002,642.7640159000002,642.7640159000002,642.7640159000002,642.7640159000002,642.7640159000002,643.879423800001,643.879423800001,643.879423800001,643.879423800001,643.879423800001,643.879423800001,643.879423800001,45,57,45,40,45,60,643.879423800001,645.629972499999,,,,,,,,,,,,３１１,f,1９,2023-05-18_15h54.02.804,RL,2022.2.5,59.821349522503645,
39,55,45,64,0,106,106,106,,,,,,,,,,,None,645.629972499999,645.629972499999,645.629972499999,645.629972499999,645.629972499999,645.629972499999,r,0.4213389999968058,646.0805891000018,646.0805891000018,646.0805891000018,646.0805891000018,646.0805891000018,646.0805891000018,646.3635818000002,648.2466349999995,648.2636765000025,648.2636765000025,648.2636765000025,648.2636765000025,648.2636765000025,648.2636765000025,648.2636765000025,648.2636765000025,648.2636765000025,648.2636765000025,648.2636765000025,648.2636765000025,648.2636765000025,650.4444963999995,650.4444963999995,650.4444963999995,650.4444963999995,650.4444963999995,650.4444963999995,650.4444963999995,55,64,45,39,64,60,650.4444963999995,652.4286456000009,,,,,,,,,,,,３１１,f,1９,2023-05-18_15h54.02.804,RL,2022.2.5,59.821349522503645,
34,55,45,68,0,107,107,107,,,,,,,,,,,None,652.4286456000009,652.4286456000009,652.4286456000009,652.4286456000009,652.4286456000009,652.4286456000009,r,0.3569786000007298,652.8162268000015,652.8162268000015,652.8162268000015,652.8162268000015,652.8162268000015,652.8162268000015,653.1124412999998,654.662118799999,654.662118799999,654.662118799999,654.662118799999,654.662118799999,654.662118799999,654.662118799999,654.662118799999,654.662118799999,654.662118799999,654.662118799999,654.662118799999,654.662118799999,654.662118799999,656.5104759999995,656.5104759999995,656.5104759999995,656.5104759999995,656.5104759999995,656.5104759999995,656.5104759999995,55,68,45,34,68,60,656.5104759999995,658.0444014000022,,,,,,,,,,,,３１１,f,1９,2023-05-18_15h54.02.804,RL,2022.2.5,59.821349522503645,
36,52,38,61,0,108,108,108,,,,,,,,,,,None,658.0444014000022,658.0444014000022,658.0444014000022,658.0444014000022,658.0444014000022,658.0444014000022,f,0.9630265999985568,659.0295522000015,659.0295522000015,659.0295522000015,659.0295522000015,659.0295522000015,659.0295522000015,659.328012599999,660.5444243999991,660.5444243999991,660.5444243999991,660.5444243999991,660.5444243999991,660.5444243999991,660.5444243999991,660.5444243999991,660.5444243999991,660.5444243999991,660.5444243999991,660.5444243999991,660.5444243999991,660.5444243999991,662.0594313000001,662.0594313000001,662.0594313000001,662.0594313000001,662.0594313000001,662.0594313000001,662.0594313000001,52,61,38,36,52,60,662.0594313000001,663.9603939000008,,,,,,,,,,,,３１１,f,1９,2023-05-18_15h54.02.804,RL,2022.2.5,59.821349522503645,
38,60,44,60,0,109,109,109,,,,,,,,,,,None,663.9603939000008,663.9603939000008,663.9603939000008,663.9603939000008,663.9603939000008,663.9603939000008,r,0.3833204999973532,664.381661899999,664.381661899999,664.381661899999,664.381661899999,664.381661899999,664.381661899999,664.6604455000015,666.493821600001,666.510070100001,666.510070100001,666.510070100001,666.510070100001,666.510070100001,666.510070100001,666.510070100001,666.510070100001,666.510070100001,666.510070100001,666.510070100001,666.510070100001,666.510070100001,668.641169999999,668.641169999999,668.641169999999,668.641169999999,668.641169999999,668.641169999999,668.641169999999,60,60,44,38,60,60,668.641169999999,670.2255745000002,,,,,,,,,,,,３１１,f,1９,2023-05-18_15h54.02.804,RL,2022.2.5,59.821349522503645,
39,60,52,65,0,110,110,110,,,,,,,,,,,None,670.2255745000002,670.2255745000002,670.2255745000002,670.2255745000002,670.2255745000002,670.2255745000002,r,0.3333392000022286,670.5935487000024,670.5935487000024,670.5935487000024,670.5935487000024,670.5935487000024,670.5935487000024,670.8760509000022,672.8092508000009,672.8254849000004,672.8254849000004,672.8254849000004,672.8254849000004,672.8254849000004,672.8254849000004,672.8254849000004,672.8254849000004,672.8254849000004,672.8254849000004,672.8254849000004,672.8254849000004,672.8254849000004,675.0574310000011,675.0574310000011,675.0574310000011,675.0574310000011,675.0574310000011,675.0574310000011,675.0574310000011,60,65,52,39,65,60,675.0574310000011,676.5745470000002,,,,,,,,,,,,３１１,f,1９,2023-05-18_15h54.02.804,RL,2022.2.5,59.821349522503645,
37,52,50,55,0,111,111,111,,,,,,,,,,,None,676.5745470000002,676.5745470000002,676.5745470000002,676.5745470000002,676.5745470000002,676.5745470000002,r,0.38603460000013,676.9963468999995,676.9963468999995,676.9963468999995,676.9963468999995,676.9963468999995,676.9963468999995,677.2751945000018,679.2414328000013,679.2577562000006,679.2577562000006,679.2577562000006,679.2577562000006,679.2577562000006,679.2577562000006,679.2577562000006,679.2577562000006,679.2577562000006,679.2577562000006,679.2577562000006,679.2577562000006,679.2577562000006,681.5225764000024,681.5225764000024,681.5225764000024,681.5225764000024,681.5225764000024,681.5225764000024,681.5225764000024,52,55,50,37,55,60,681.5225764000024,683.1738896999996,,,,,,,,,,,,３１１,f,1９,2023-05-18_15h54.02.804,RL,2022.2.5,59.821349522503645,
41,54,52,61,0,112,112,112,,,,,,,,,,,None,683.1738896999996,683.1738896999996,683.1738896999996,683.1738896999996,683.1738896999996,683.1738896999996,r,0.3726969999988796,683.5747985000016,683.5747985000016,683.5747985000016,683.5747985000016,683.5747985000016,683.5747985000016,683.8579352000015,684.7405304000022,684.7570502000017,684.7570502000017,684.7570502000017,684.7570502000017,684.7570502000017,684.7570502000017,684.7570502000017,684.7570502000017,684.7570502000017,684.7570502000017,684.7570502000017,684.7570502000017,684.7570502000017,685.9382323999998,685.9382323999998,685.9382323999998,685.9382323999998,685.9382323999998,685.9382323999998,685.9382323999998,54,61,52,41,61,60,685.9382323999998,687.6725268000009,,,,,,,,,,,,３１１,f,1９,2023-05-18_15h54.02.804,RL,2022.2.5,59.821349522503645,
41,51,50,60,0,113,113,113,,,,,,,,,,,None,687.6725268000009,687.6725268000009,687.6725268000009,687.6725268000009,687.6725268000009,687.6725268000009,f,0.3205259999995178,688.0248036000012,688.0248036000012,688.0248036000012,688.0248036000012,688.0248036000012,688.0248036000012,688.3230335000007,689.3563400000021,689.3563400000021,689.3563400000021,689.3563400000021,689.3563400000021,689.3563400000021,689.3563400000021,689.3563400000021,689.3563400000021,689.3563400000021,689.3563400000021,689.3563400000021,689.3563400000021,689.3563400000021,690.6875827000003,690.6875827000003,690.6875827000003,690.6875827000003,690.6875827000003,690.6875827000003,690.6875827000003,51,60,50,41,51,60,690.6875827000003,692.5886190000019,,,,,,,,,,,,３１１,f,1９,2023-05-18_15h54.02.804,RL,2022.2.5,59.821349522503645,
38,54,56,40,0,114,114,114,,,,,,,,,,,None,692.5886190000019,692.5886190000019,692.5886190000019,692.5886190000019,692.5886190000019,692.5886190000019,i,0.42462890000024345,693.0388429000013,693.0388429000013,693.0388429000013,693.0388429000013,693.0388429000013,693.0388429000013,693.3224026000025,695.1222960000014,695.1387370000011,695.1387370000011,695.1387370000011,695.1387370000011,695.1387370000011,695.1387370000011,695.1387370000011,695.1387370000011,695.1387370000011,695.1387370000011,695.1387370000011,695.1387370000011,695.1387370000011,697.2363901999997,697.2363901999997,697.2363901999997,697.2363901999997,697.2363901999997,697.2363901999997,697.2363901999997,54,40,56,38,56,60,697.2363901999997,699.2379824000018,,,,,,,,,,,,３１１,f,1９,2023-05-18_15h54.02.804,RL,2022.2.5,59.821349522503645,
34,49,60,48,0,115,115,115,,,,,,,,,,,None,699.2379824000018,699.2379824000018,699.2379824000018,699.2379824000018,699.2379824000018,699.2379824000018,i,0.44591120000040974,699.7044105999994,699.7044105999994,699.7044105999994,699.7044105999994,699.7044105999994,699.7044105999994,700.0042677999991,701.5206519000021,701.5206519000021,701.5206519000021,701.5206519000021,701.5206519000021,701.5206519000021,701.5206519000021,701.5206519000021,701.5206519000021,701.5206519000021,701.5206519000021,701.5206519000021,701.5206519000021,701.5206519000021,703.3352693000015,703.3352693000015,703.3352693000015,703.3352693000015,703.3352693000015,703.3352693000015,703.3352693000015,49,48,60,34,60,60,703.3352693000015,705.2699338999992,,,,,,,,,,,,３１１,f,1９,2023-05-18_15h54.02.804,RL,2022.2.5,59.821349522503645,
45,57,57,52,0,116,116,116,,,,,,,,,,,None,705.2699338999992,705.2699338999992,705.2699338999992,705.2699338999992,705.2699338999992,705.2699338999992,j,0.4612833999999566,705.7563766999992,705.7563766999992,705.7563766999992,705.7563766999992,705.7563766999992,705.7563766999992,706.0371842999994,707.9201151000016,707.936486300001,707.936486300001,707.936486300001,707.936486300001,707.936486300001,707.936486300001,707.936486300001,707.936486300001,707.936486300001,707.936486300001,707.936486300001,707.936486300001,707.936486300001,710.1179202000021,710.1179202000021,710.1179202000021,710.1179202000021,710.1179202000021,710.1179202000021,710.1179202000021,57,52,57,45,45,60,710.1179202000021,711.8351139000006,,,,,,,,,,,,３１１,f,1９,2023-05-18_15h54.02.804,RL,2022.2.5,59.821349522503645,
43,45,60,47,0,117,117,117,,,,,,,,,,,None,711.8351139000006,711.8351139000006,711.8351139000006,711.8351139000006,711.8351139000006,711.8351139000006,f,0.3512473000009777,712.2225341000012,712.2225341000012,712.2225341000012,712.2225341000012,712.2225341000012,712.2225341000012,712.5023933000011,713.7187305000007,713.7351569999992,713.7351569999992,713.7351569999992,713.7351569999992,713.7351569999992,713.7351569999992,713.7351569999992,713.7351569999992,713.7351569999992,713.7351569999992,713.7351569999992,713.7351569999992,713.7351569999992,715.2501824999999,715.2501824999999,715.2501824999999,715.2501824999999,715.2501824999999,715.2501824999999,715.2501824999999,45,47,60,43,45,60,715.2501824999999,717.184617400002,,,,,,,,,,,,３１１,f,1９,2023-05-18_15h54.02.804,RL,2022.2.5,59.821349522503645,
50,53,56,40,0,118,118,118,,,,,,,,,,,None,717.184617400002,717.184617400002,717.184617400002,717.184617400002,717.184617400002,717.184617400002,i,0.5806910999999673,717.7884905999999,717.7884905999999,717.7884905999999,717.7884905999999,717.7884905999999,717.7884905999999,718.068042400002,719.2012558999995,719.2179663000024,719.2179663000024,719.2179663000024,719.2179663000024,719.2179663000024,719.2179663000024,719.2179663000024,719.2179663000024,719.2179663000024,719.2179663000024,719.2179663000024,719.2179663000024,719.2179663000024,720.6490397000016,720.6490397000016,720.6490397000016,720.6490397000016,720.6490397000016,720.6490397000016,720.6490397000016,53,40,56,50,56,60,720.6490397000016,722.3830467000007,,,,,,,,,,,,３１１,f,1９,2023-05-18_15h54.02.804,RL,2022.2.5,59.821349522503645,
46,58,58,39,0,119,119,119,,,,,,,,,,,None,722.3830467000007,722.3830467000007,722.3830467000007,722.3830467000007,722.3830467000007,722.3830467000007,r,0.31501420000131475,722.721465999999,722.721465999999,722.721465999999,722.721465999999,722.721465999999,722.721465999999,723.0167105,723.9168750999997,723.9168750999997,723.9168750999997,723.9168750999997,723.9168750999997,723.9168750999997,723.9168750999997,723.9168750999997,723.9168750999997,723.9168750999997,723.9168750999997,723.9168750999997,723.9168750999997,723.9168750999997,725.1149466000024,725.1149466000024,725.1149466000024,725.1149466000024,725.1149466000024,725.1149466000024,725.1149466000024,58,39,58,46,39,60,725.1149466000024,726.8327887000014,,,,,,,,,,,,３１１,f,1９,2023-05-18_15h54.02.804,RL,2022.2.5,59.821349522503645,
46,52,64,36,0,120,120,120,,,,,,,,,,,None,726.8327887000014,726.8327887000014,726.8327887000014,726.8327887000014,726.8327887000014,726.8327887000014,i,0.29307930000140914,727.1524680000002,727.1524680000002,727.1524680000002,727.1524680000002,727.1524680000002,727.1524680000002,727.4496070000023,729.182564499999,729.182564499999,729.182564499999,729.182564499999,729.182564499999,729.182564499999,729.182564499999,729.182564499999,729.182564499999,729.182564499999,729.182564499999,729.182564499999,729.182564499999,729.182564499999,731.2143004999998,731.2143004999998,731.2143004999998,731.2143004999998,731.2143004999998,731.2143004999998,731.2143004999998,52,36,64,46,64,60,731.2143004999998,732.9147059999996,,,,,,,,,,,,３１１,f,1９,2023-05-18_15h54.02.804,RL,2022.2.5,59.821349522503645,
