arm1,arm2,arm3,arm4,trials.thisRepN,trials.thisTrialN,trials.thisN,trials.thisIndex,instru_img1.started,instru_resp.started,instru_resp.keys,instru_resp.rt,image_2.started,text_2.started,image_2.stopped,text_2.stopped,fixbefore_2.started,fixbefore_2.stopped,rest_response.keys,red.started,green.started,yellow.started,blue.started,choose_bandit.started,Fixation.started,choose_bandit.keys,choose_bandit.rt,black.started,red_2.started,green_2.started,yellow_2.started,blue_2.started,fixation_2.started,docs.started,black.stopped,red_2.stopped,green_2.stopped,yellow_2.stopped,blue_2.stopped,fixation_2.stopped,docs.stopped,black_com.started,reward_sub.started,reward__sub.started,red_compare.started,green_com.started,yellow_com.started,blue_com.started,black_com.stopped,reward_sub.stopped,reward__sub.stopped,red_compare.stopped,green_com.stopped,yellow_com.stopped,blue_com.stopped,rewardred,rewardyellow,rewardblue,rewardgreen,subchoose,expectation,intertrialfix.started,intertrialfix.stopped,rest_image.started,rest_response.started,rest_response.rt,image_expect_after.started,text_exp_after.started,image_expect_after.stopped,text_exp_after.stopped,red.stopped,green.stopped,yellow.stopped,blue.stopped,choose_bandit.stopped,Fixation.stopped,bigx.started,bigx.stopped,image.started,key_resp.started,key_resp.keys,key_resp.rt,participant,Gender,Age,date,expName,psychopyVersion,frameRate,
,,,,,,,,14.231395900002099,14.231395900002099,space,13.417972600000212,,,,,,,,,,,,,,,,,,,,,,,,,,,,,,,,,,,,,,,,,,,,,,,,,,,,,,,,,,,,,,,,,,,,,,,３１２,f,１９,2023-05-18_16h18.34.348,RL,2022.2.5,60.085212847630295,
30,40,55,71,0,0,0,0,,,,,27.676409600000625,27.676409600000625,32.675822100001824,32.675822100001824,32.675822100001824,33.679269100000965,None,33.679269100000965,33.679269100000965,33.679269100000965,33.679269100000965,33.679269100000965,33.679269100000965,f,0.5476708999995026,34.25154760000078,34.25154760000078,34.25154760000078,34.25154760000078,34.25154760000078,34.25154760000078,34.54386020000311,36.179385000003094,36.179385000003094,36.179385000003094,36.179385000003094,36.179385000003094,36.179385000003094,36.179385000003094,36.179385000003094,36.179385000003094,36.179385000003094,36.179385000003094,36.179385000003094,36.179385000003094,36.179385000003094,38.15171290000217,38.15171290000217,38.15171290000217,38.15171290000217,38.15171290000217,38.15171290000217,38.15171290000217,71,40,30,55,71,70,38.15171290000217,40.07626500000333,,,,,,,,,,,,,,,,,,,,３１２,f,１９,2023-05-18_16h18.34.348,RL,2022.2.5,60.085212847630295,
43,41,45,68,0,1,1,1,,,,,,,,,,,None,40.07626500000333,40.07626500000333,40.07626500000333,40.07626500000333,40.07626500000333,40.07626500000333,j,0.4211442999985593,40.53020070000275,40.53020070000275,40.53020070000275,40.53020070000275,40.53020070000275,40.53020070000275,40.80998210000325,42.026837200002774,42.026837200002774,42.026837200002774,42.026837200002774,42.026837200002774,42.026837200002774,42.009573000003,42.026837200002774,42.026837200002774,42.026837200002774,42.026837200002774,42.026837200002774,42.026837200002774,42.026837200002774,43.52458590000242,43.52458590000242,43.52458590000242,43.52458590000242,43.52458590000242,43.52458590000242,43.52458590000242,68,41,43,45,45,70,43.52458590000242,45.525258000001486,,,,,,,,,,,,,,,,,,,,３１２,f,１９,2023-05-18_16h18.34.348,RL,2022.2.5,60.085212847630295,
30,40,36,70,0,2,2,2,,,,,,,,,,,None,45.525258000001486,45.525258000001486,45.525258000001486,45.525258000001486,45.525258000001486,45.525258000001486,i,0.3526596999981848,45.908881800001836,45.908881800001836,45.908881800001836,45.908881800001836,45.908881800001836,45.908881800001836,46.192395699999906,47.04166170000099,47.04166170000099,47.04166170000099,47.04166170000099,47.04166170000099,47.04166170000099,47.02553679999983,47.04166170000099,47.04166170000099,47.04166170000099,47.04166170000099,47.04166170000099,47.04166170000099,47.04166170000099,48.17371060000005,48.17371060000005,48.17371060000005,48.17371060000005,48.17371060000005,48.17371060000005,48.17371060000005,70,40,30,36,30,70,48.17371060000005,49.990732500002196,,,,,,,,,,,,,,,,,,,,３１２,f,１９,2023-05-18_16h18.34.348,RL,2022.2.5,60.085212847630295,
34,45,42,75,0,3,3,3,,,,,,,,,,,None,49.990732500002196,49.990732500002196,49.990732500002196,49.990732500002196,49.990732500002196,49.990732500002196,f,0.48183760000028997,50.494107800001075,50.494107800001075,50.494107800001075,50.494107800001075,50.494107800001075,50.494107800001075,50.774712800001,52.00754380000217,52.00754380000217,52.00754380000217,52.00754380000217,52.00754380000217,52.00754380000217,51.99131710000074,52.00754380000217,52.00754380000217,52.00754380000217,52.00754380000217,52.00754380000217,52.00754380000217,52.00754380000217,53.5222754000024,53.5222754000024,53.5222754000024,53.5222754000024,53.5222754000024,53.5222754000024,53.5222754000024,75,45,34,42,75,70,53.5222754000024,55.52320790000158,,,,,,,,,,,,,,,,,,,,３１２,f,１９,2023-05-18_16h18.34.348,RL,2022.2.5,60.085212847630295,
33,55,46,72,0,4,4,4,,,,,,,,,,,None,55.52320790000158,55.52320790000158,55.52320790000158,55.52320790000158,55.52320790000158,55.52320790000158,r,0.7104561000014655,56.257663800002774,56.257663800002774,56.257663800002774,56.257663800002774,56.257663800002774,56.257663800002774,56.55701180000324,57.506752700002835,57.506752700002835,57.506752700002835,57.506752700002835,57.506752700002835,57.506752700002835,57.506752700002835,57.506752700002835,57.506752700002835,57.506752700002835,57.506752700002835,57.506752700002835,57.506752700002835,57.506752700002835,58.755000900000596,58.755000900000596,58.755000900000596,58.755000900000596,58.755000900000596,58.755000900000596,58.755000900000596,72,55,33,46,55,70,58.755000900000596,60.37234460000036,,,,,,,,,,,,,,,,,,,,３１２,f,１９,2023-05-18_16h18.34.348,RL,2022.2.5,60.085212847630295,
43,40,41,68,0,5,5,5,,,,,,,,,,,None,60.37234460000036,60.37234460000036,60.37234460000036,60.37234460000036,60.37234460000036,60.37234460000036,f,0.45612659999824245,60.85767390000183,60.85767390000183,60.85767390000183,60.85767390000183,60.85767390000183,60.85767390000183,61.13967010000124,62.75553740000032,62.75553740000032,62.75553740000032,62.75553740000032,62.75553740000032,62.75553740000032,62.73916950000057,62.75553740000032,62.75553740000032,62.75553740000032,62.75553740000032,62.75553740000032,62.75553740000032,62.75553740000032,64.65372870000283,64.65372870000283,64.65372870000283,64.65372870000283,64.65372870000283,64.65372870000283,64.65372870000283,68,40,43,41,68,70,64.65372870000283,66.5881859000001,,,,,,,,,,,,,,,,,,,,３１２,f,１９,2023-05-18_16h18.34.348,RL,2022.2.5,60.085212847630295,
38,53,43,71,0,6,6,6,,,,,,,,,,,None,66.5881859000001,66.5881859000001,66.5881859000001,66.5881859000001,66.5881859000001,66.5881859000001,f,0.32378980000066804,66.9385254000008,66.9385254000008,66.9385254000008,66.9385254000008,66.9385254000008,66.9385254000008,67.22154210000008,68.25496650000059,68.25496650000059,68.25496650000059,68.25496650000059,68.25496650000059,68.25496650000059,68.23842409999997,68.25496650000059,68.25496650000059,68.25496650000059,68.25496650000059,68.25496650000059,68.25496650000059,68.25496650000059,69.56996660000004,69.56996660000004,69.56996660000004,69.56996660000004,69.56996660000004,69.56996660000004,69.56996660000004,71,53,38,43,71,70,69.56996660000004,71.48744070000248,,,,,,,,,,,,,,,,,,,,３１２,f,１９,2023-05-18_16h18.34.348,RL,2022.2.5,60.085212847630295,
39,49,36,68,0,7,7,7,,,,,,,,,,,None,71.48744070000248,71.48744070000248,71.48744070000248,71.48744070000248,71.48744070000248,71.48744070000248,j,0.8906864000018686,72.40418460000001,72.40418460000001,72.40418460000001,72.40418460000001,72.40418460000001,72.40418460000001,72.68715220000013,73.58734220000042,73.58734220000042,73.58734220000042,73.58734220000042,73.58734220000042,73.58734220000042,73.57042840000213,73.58734220000042,73.58734220000042,73.58734220000042,73.58734220000042,73.58734220000042,73.58734220000042,73.58734220000042,74.76885570000013,74.76885570000013,74.76885570000013,74.76885570000013,74.76885570000013,74.76885570000013,74.76885570000013,68,49,39,36,36,70,74.76885570000013,76.73673170000257,,,,,,,,,,,,,,,,,,,,３１２,f,１９,2023-05-18_16h18.34.348,RL,2022.2.5,60.085212847630295,
45,43,33,67,0,8,8,8,,,,,,,,,,,None,76.73673170000257,76.73673170000257,76.73673170000257,76.73673170000257,76.73673170000257,76.73673170000257,f,0.5360604000015883,77.30844190000062,77.30844190000062,77.30844190000062,77.30844190000062,77.30844190000062,77.30844190000062,77.60329810000258,78.45295900000201,78.45295900000201,78.45295900000201,78.45295900000201,78.45295900000201,78.45295900000201,78.45295900000201,78.45295900000201,78.45295900000201,78.45295900000201,78.45295900000201,78.45295900000201,78.45295900000201,78.45295900000201,79.60146140000143,79.60146140000143,79.60146140000143,79.60146140000143,79.60146140000143,79.60146140000143,79.60146140000143,67,43,45,33,67,70,79.60146140000143,81.41893390000041,,,,,,,,,,,,,,,,,,,,３１２,f,１９,2023-05-18_16h18.34.348,RL,2022.2.5,60.085212847630295,
46,54,46,62,0,9,9,9,,,,,,,,,,,None,81.41893390000041,81.41893390000041,81.41893390000041,81.41893390000041,81.41893390000041,81.41893390000041,i,0.6767566000016814,82.12154820000069,82.12154820000069,82.12154820000069,82.12154820000069,82.12154820000069,82.12154820000069,82.4193004000008,83.35235780000221,83.35235780000221,83.35235780000221,83.35235780000221,83.35235780000221,83.35235780000221,83.35235780000221,83.35235780000221,83.35235780000221,83.35235780000221,83.35235780000221,83.35235780000221,83.35235780000221,83.35235780000221,84.58361010000226,84.58361010000226,84.58361010000226,84.58361010000226,84.58361010000226,84.58361010000226,84.58361010000226,62,54,46,46,46,70,84.58361010000226,86.518028100003,,,,,,,,,,,,,,,,,,,,３１２,f,１９,2023-05-18_16h18.34.348,RL,2022.2.5,60.085212847630295,
42,49,36,63,0,10,10,10,,,,,,,,,,,None,86.518028100003,86.518028100003,86.518028100003,86.518028100003,86.518028100003,86.518028100003,f,0.8179094999977679,87.37184479999996,87.37184479999996,87.37184479999996,87.37184479999996,87.37184479999996,87.37184479999996,87.65192480000042,89.20125220000045,89.20125220000045,89.20125220000045,89.20125220000045,89.20125220000045,89.20125220000045,89.18501480000123,89.20125220000045,89.20125220000045,89.20125220000045,89.20125220000045,89.20125220000045,89.20125220000045,89.20125220000045,91.0325198999999,91.0325198999999,91.0325198999999,91.0325198999999,91.0325198999999,91.0325198999999,91.0325198999999,63,49,42,36,63,70,91.0325198999999,92.98379850000128,,,,,,,,,,,,,,,,,,,,３１２,f,１９,2023-05-18_16h18.34.348,RL,2022.2.5,60.085212847630295,
34,57,44,54,0,11,11,11,,,,,,,,,,,None,92.98379850000128,92.98379850000128,92.98379850000128,92.98379850000128,92.98379850000128,92.98379850000128,r,0.6474434999981895,93.65181440000015,93.65181440000015,93.65181440000015,93.65181440000015,93.65181440000015,93.65181440000015,93.95023220000076,95.40038679999998,95.40038679999998,95.40038679999998,95.40038679999998,95.40038679999998,95.40038679999998,95.40038679999998,95.40038679999998,95.40038679999998,95.40038679999998,95.40038679999998,95.40038679999998,95.40038679999998,95.40038679999998,97.14845750000313,97.14845750000313,97.14845750000313,97.14845750000313,97.14845750000313,97.14845750000313,97.14845750000313,54,57,34,44,57,70,97.14845750000313,98.71610990000045,,,,,,,,,,,,,,,,,,,,３１２,f,１９,2023-05-18_16h18.34.348,RL,2022.2.5,60.085212847630295,
44,53,50,60,0,12,12,12,,,,,,,,,,,None,98.71610990000045,98.71610990000045,98.71610990000045,98.71610990000045,98.71610990000045,98.71610990000045,f,0.42962989999796264,99.16642290000163,99.16642290000163,99.16642290000163,99.16642290000163,99.16642290000163,99.16642290000163,99.44961790000161,100.5158986000024,100.5158986000024,100.5158986000024,100.5158986000024,100.5158986000024,100.5158986000024,100.49928300000101,100.5158986000024,100.5158986000024,100.5158986000024,100.5158986000024,100.5158986000024,100.5158986000024,100.5158986000024,101.864250300001,101.864250300001,101.864250300001,101.864250300001,101.864250300001,101.864250300001,101.864250300001,60,53,44,50,60,70,101.864250300001,103.3819822000005,,,,,,,,,,,,,,,,,,,,３１２,f,１９,2023-05-18_16h18.34.348,RL,2022.2.5,60.085212847630295,
46,57,37,66,0,13,13,13,,,,,,,,,,,None,103.3819822000005,103.3819822000005,103.3819822000005,103.3819822000005,103.3819822000005,103.3819822000005,j,0.6129141999990679,104.01628250000067,104.01628250000067,104.01628250000067,104.01628250000067,104.01628250000067,104.01628250000067,104.3154695000012,105.68185129999983,105.68185129999983,105.68185129999983,105.68185129999983,105.68185129999983,105.68185129999983,105.68185129999983,105.68185129999983,105.68185129999983,105.68185129999983,105.68185129999983,105.68185129999983,105.68185129999983,105.68185129999983,107.34625250000317,107.34625250000317,107.34625250000317,107.34625250000317,107.34625250000317,107.34625250000317,107.34625250000317,66,57,46,37,37,70,107.34625250000317,109.31405730000188,,,,,,,,,,,,,,,,,,,,３１２,f,１９,2023-05-18_16h18.34.348,RL,2022.2.5,60.085212847630295,
42,57,37,61,0,14,14,14,,,,,,,,,,,None,109.31405730000188,109.31405730000188,109.31405730000188,109.31405730000188,109.31405730000188,109.31405730000188,f,0.30849730000045383,109.64977070000168,109.64977070000168,109.64977070000168,109.64977070000168,109.64977070000168,109.64977070000168,109.94779750000089,110.84762260000207,110.84762260000207,110.84762260000207,110.84762260000207,110.84762260000207,110.84762260000207,110.84762260000207,110.84762260000207,110.84762260000207,110.84762260000207,110.84762260000207,110.84762260000207,110.84762260000207,110.84762260000207,112.04553320000196,112.04553320000196,112.04553320000196,112.04553320000196,112.04553320000196,112.04553320000196,112.04553320000196,61,57,42,37,61,70,112.04553320000196,113.61314459999994,,,,,,,,,,,,,,,,,,,,３１２,f,１９,2023-05-18_16h18.34.348,RL,2022.2.5,60.085212847630295,
40,57,41,65,0,15,15,15,,,,,,,,,,,None,113.61314459999994,113.61314459999994,113.61314459999994,113.61314459999994,113.61314459999994,113.61314459999994,i,0.8903865000029327,114.5304243999999,114.5304243999999,114.5304243999999,114.5304243999999,114.5304243999999,114.5304243999999,114.83030340000187,115.91342760000043,115.91342760000043,115.91342760000043,115.91342760000043,115.91342760000043,115.91342760000043,115.91342760000043,115.91342760000043,115.91342760000043,115.91342760000043,115.91342760000043,115.91342760000043,115.91342760000043,115.91342760000043,117.29488450000281,117.29488450000281,117.29488450000281,117.29488450000281,117.29488450000281,117.29488450000281,117.29488450000281,65,57,40,41,40,70,117.29488450000281,118.87914620000083,,,,,,,,,,,,,,,,,,,,３１２,f,１９,2023-05-18_16h18.34.348,RL,2022.2.5,60.085212847630295,
47,56,40,69,0,16,16,16,,,,,,,,,,,None,118.87914620000083,118.87914620000083,118.87914620000083,118.87914620000083,118.87914620000083,118.87914620000083,i,0.24615179999818793,119.14747120000175,119.14747120000175,119.14747120000175,119.14747120000175,119.14747120000175,119.14747120000175,119.42993350000324,121.41230150000047,121.41230150000047,121.41230150000047,121.41230150000047,121.41230150000047,121.41230150000047,121.39565370000128,121.41230150000047,121.41230150000047,121.41230150000047,121.41230150000047,121.41230150000047,121.41230150000047,121.41230150000047,123.67695410000306,123.67695410000306,123.67695410000306,123.67695410000306,123.67695410000306,123.67695410000306,123.67695410000306,69,56,47,40,47,70,123.67695410000306,125.37801460000264,,,,,,,,,,,,,,,,,,,,３１２,f,１９,2023-05-18_16h18.34.348,RL,2022.2.5,60.085212847630295,
36,58,42,65,0,17,17,17,,,,,,,,,,,None,125.37801460000264,125.37801460000264,125.37801460000264,125.37801460000264,125.37801460000264,125.37801460000264,f,0.8533304000011412,126.26469830000133,126.26469830000133,126.26469830000133,126.26469830000133,126.26469830000133,126.26469830000133,126.54515090000132,127.79438010000013,127.79438010000013,127.79438010000013,127.79438010000013,127.79438010000013,127.79438010000013,127.77784000000247,127.79438010000013,127.79438010000013,127.79438010000013,127.79438010000013,127.79438010000013,127.79438010000013,127.79438010000013,129.32601160000195,129.32601160000195,129.32601160000195,129.32601160000195,129.32601160000195,129.32601160000195,129.32601160000195,65,58,36,42,65,70,129.32601160000195,131.29352620000282,,,,,,,,,,,,,,,,,,,,３１２,f,１９,2023-05-18_16h18.34.348,RL,2022.2.5,60.085212847630295,
45,54,46,70,0,18,18,18,,,,,,,,,,,None,131.29352620000282,131.29352620000282,131.29352620000282,131.29352620000282,131.29352620000282,131.29352620000282,f,0.6951234000007389,132.0116592000013,132.0116592000013,132.0116592000013,132.0116592000013,132.0116592000013,132.0116592000013,132.3103540000011,133.74338630000057,133.74338630000057,133.74338630000057,133.74338630000057,133.74338630000057,133.74338630000057,133.74338630000057,133.74338630000057,133.74338630000057,133.74338630000057,133.74338630000057,133.74338630000057,133.74338630000057,133.74338630000057,135.47493510000277,135.47493510000277,135.47493510000277,135.47493510000277,135.47493510000277,135.47493510000277,135.47493510000277,70,54,45,46,70,70,135.47493510000277,137.15966790000311,,,,,,,,,,,,,,,,,,,,３１２,f,１９,2023-05-18_16h18.34.348,RL,2022.2.5,60.085212847630295,
43,58,40,71,0,19,19,19,,,,,,,,,,,None,137.15966790000311,137.15966790000311,137.15966790000311,137.15966790000311,137.15966790000311,137.15966790000311,f,0.8539429000011296,138.04350690000138,138.04350690000138,138.04350690000138,138.04350690000138,138.04350690000138,138.04350690000138,138.34274390000064,139.35919880000074,139.35919880000074,139.35919880000074,139.35919880000074,139.35919880000074,139.35919880000074,139.35919880000074,139.35919880000074,139.35919880000074,139.35919880000074,139.35919880000074,139.35919880000074,139.35919880000074,139.35919880000074,140.6743419000013,140.6743419000013,140.6743419000013,140.6743419000013,140.6743419000013,140.6743419000013,140.6743419000013,71,58,43,40,71,70,140.6743419000013,142.2918673000022,,,,,,,,,,,,,,,,,,,,３１２,f,１９,2023-05-18_16h18.34.348,RL,2022.2.5,60.085212847630295,
37,55,47,76,0,20,20,20,,,,,,,,,,,None,142.2918673000022,142.2918673000022,142.2918673000022,142.2918673000022,142.2918673000022,142.2918673000022,r,0.6269931999995606,142.9421265000019,142.9421265000019,142.9421265000019,142.9421265000019,142.9421265000019,142.9421265000019,143.24185790000047,144.8750592000033,144.8750592000033,144.8750592000033,144.8750592000033,144.8750592000033,144.8750592000033,144.8750592000033,144.8750592000033,144.8750592000033,144.8750592000033,144.8750592000033,144.8750592000033,144.8750592000033,144.8750592000033,146.78987540000162,146.78987540000162,146.78987540000162,146.78987540000162,146.78987540000162,146.78987540000162,146.78987540000162,76,55,37,47,55,70,146.78987540000162,148.62403919999997,,,,,,,,,,,,,,,,,,,,３１２,f,１９,2023-05-18_16h18.34.348,RL,2022.2.5,60.085212847630295,
37,49,49,71,0,21,21,21,,,,,,,,,,,None,148.62403919999997,148.62403919999997,148.62403919999997,148.62403919999997,148.62403919999997,148.62403919999997,f,0.5447738000002573,149.19095230000312,149.19095230000312,149.19095230000312,149.19095230000312,149.19095230000312,149.19095230000312,149.47424930000125,150.69067070000165,150.69067070000165,150.69067070000165,150.69067070000165,150.69067070000165,150.69067070000165,150.6741114000033,150.69067070000165,150.69067070000165,150.69067070000165,150.69067070000165,150.69067070000165,150.69067070000165,150.69067070000165,152.18900030000077,152.18900030000077,152.18900030000077,152.18900030000077,152.18900030000077,152.18900030000077,152.18900030000077,71,49,37,49,71,70,152.18900030000077,153.7732324000026,,,,,,,,,,,,,,,,,,,,３１２,f,１９,2023-05-18_16h18.34.348,RL,2022.2.5,60.085212847630295,
50,46,37,79,0,22,22,22,,,,,,,,,,,None,153.7732324000026,153.7732324000026,153.7732324000026,153.7732324000026,153.7732324000026,153.7732324000026,f,0.5941448000012315,154.39276410000093,154.39276410000093,154.39276410000093,154.39276410000093,154.39276410000093,154.39276410000093,154.6897026000006,155.8564221000015,155.8564221000015,155.8564221000015,155.8564221000015,155.8564221000015,155.8564221000015,155.8564221000015,155.8564221000015,155.8564221000015,155.8564221000015,155.8564221000015,155.8564221000015,155.8564221000015,155.8564221000015,157.3211493000017,157.3211493000017,157.3211493000017,157.3211493000017,157.3211493000017,157.3211493000017,157.3211493000017,79,46,50,37,79,70,157.3211493000017,159.2387497000018,,,,,,,,,,,,,,,,,,,,３１２,f,１９,2023-05-18_16h18.34.348,RL,2022.2.5,60.085212847630295,
42,54,36,78,0,23,23,23,,,,,,,,,,,None,159.2387497000018,159.2387497000018,159.2387497000018,159.2387497000018,159.2387497000018,159.2387497000018,i,0.21267330000046059,159.4736890000022,159.4736890000022,159.4736890000022,159.4736890000022,159.4736890000022,159.4736890000022,159.7555667000015,161.33862829999998,161.33862829999998,161.33862829999998,161.33862829999998,161.33862829999998,161.33862829999998,161.3223429000027,161.33862829999998,161.33862829999998,161.33862829999998,161.33862829999998,161.33862829999998,161.33862829999998,161.33862829999998,163.20322099999976,163.20322099999976,163.20322099999976,163.20322099999976,163.20322099999976,163.20322099999976,163.20322099999976,78,54,42,36,42,70,163.20322099999976,164.85487860000285,,,,,,,,,,,,,,,,,,,,３１２,f,１９,2023-05-18_16h18.34.348,RL,2022.2.5,60.085212847630295,
46,56,46,82,0,24,24,24,,,,,,,,,,,None,164.85487860000285,164.85487860000285,164.85487860000285,164.85487860000285,164.85487860000285,164.85487860000285,r,1.1115556999975524,165.98888350000198,165.98888350000198,165.98888350000198,165.98888350000198,165.98888350000198,165.98888350000198,166.27124810000169,167.97086940000008,167.97086940000008,167.97086940000008,167.97086940000008,167.97086940000008,167.97086940000008,167.9545986000012,167.97086940000008,167.97086940000008,167.97086940000008,167.97086940000008,167.97086940000008,167.97086940000008,167.97086940000008,169.95218380000006,169.95218380000006,169.95218380000006,169.95218380000006,169.95218380000006,169.95218380000006,169.95218380000006,82,56,46,46,56,70,169.95218380000006,171.78690460000144,,,,,,,,,,,,,,,,,,,,３１２,f,１９,2023-05-18_16h18.34.348,RL,2022.2.5,60.085212847630295,
41,61,56,79,0,25,25,25,,,,,,,,,,,None,171.78690460000144,171.78690460000144,171.78690460000144,171.78690460000144,171.78690460000144,171.78690460000144,f,0.5868520000003628,172.40366100000028,172.40366100000028,172.40366100000028,172.40366100000028,172.40366100000028,172.40366100000028,172.68707140000333,173.62005409999983,173.62005409999983,173.62005409999983,173.62005409999983,173.62005409999983,173.62005409999983,173.60346310000023,173.62005409999983,173.62005409999983,173.62005409999983,173.62005409999983,173.62005409999983,173.62005409999983,173.62005409999983,174.8345592000005,174.8345592000005,174.8345592000005,174.8345592000005,174.8345592000005,174.8345592000005,174.8345592000005,79,61,41,56,79,70,174.8345592000005,176.61941149999984,,,,,,,,,,,,,,,,,,,,３１２,f,１９,2023-05-18_16h18.34.348,RL,2022.2.5,60.085212847630295,
50,57,50,80,0,26,26,26,,,,,,,,,,,None,176.61941149999984,176.61941149999984,176.61941149999984,176.61941149999984,176.61941149999984,176.61941149999984,f,0.25923079999847687,176.90300780000325,176.90300780000325,176.90300780000325,176.90300780000325,176.90300780000325,176.90300780000325,177.20305160000134,178.33571400000073,178.33571400000073,178.33571400000073,178.33571400000073,178.33571400000073,178.33571400000073,178.33571400000073,178.33571400000073,178.33571400000073,178.33571400000073,178.33571400000073,178.33571400000073,178.33571400000073,178.33571400000073,179.76741949999996,179.76741949999996,179.76741949999996,179.76741949999996,179.76741949999996,179.76741949999996,179.76741949999996,80,57,50,50,80,70,179.76741949999996,181.75145410000187,,,,,,,,,,,,,,,,,,,,３１２,f,１９,2023-05-18_16h18.34.348,RL,2022.2.5,60.085212847630295,
49,64,43,75,0,27,27,27,,,,,,,,,,,None,181.75145410000187,181.75145410000187,181.75145410000187,181.75145410000187,181.75145410000187,181.75145410000187,f,0.7600520000014512,182.53832300000067,182.53832300000067,182.53832300000067,182.53832300000067,182.53832300000067,182.53832300000067,182.83501960000285,184.66793060000055,184.66793060000055,184.66793060000055,184.66793060000055,184.66793060000055,184.66793060000055,184.66793060000055,184.66793060000055,184.66793060000055,184.66793060000055,184.66793060000055,184.66793060000055,184.66793060000055,184.66793060000055,186.79946200000268,186.79946200000268,186.79946200000268,186.79946200000268,186.79946200000268,186.79946200000268,186.79946200000268,75,64,49,43,75,70,186.79946200000268,188.58353070000157,,,,,,,,,,,,,,,,,,,,３１２,f,１９,2023-05-18_16h18.34.348,RL,2022.2.5,60.085212847630295,
45,61,47,78,0,28,28,28,,,,,,,,,,,None,188.58353070000157,188.58353070000157,188.58353070000157,188.58353070000157,188.58353070000157,188.58353070000157,j,0.4922483000009379,189.1020905000005,189.1020905000005,189.1020905000005,189.1020905000005,189.1020905000005,189.1020905000005,189.40094110000064,190.53359060000003,190.53359060000003,190.53359060000003,190.53359060000003,190.53359060000003,190.53359060000003,190.53359060000003,190.53359060000003,190.53359060000003,190.53359060000003,190.53359060000003,190.53359060000003,190.53359060000003,190.53359060000003,191.96507490000295,191.96507490000295,191.96507490000295,191.96507490000295,191.96507490000295,191.96507490000295,191.96507490000295,78,61,45,47,47,70,191.96507490000295,193.58252429999993,,,,,,,,,,,,,,,,,,,,３１２,f,１９,2023-05-18_16h18.34.348,RL,2022.2.5,60.085212847630295,
40,64,43,73,0,29,29,29,,,,,,,,,,,None,193.58252429999993,193.58252429999993,193.58252429999993,193.58252429999993,193.58252429999993,193.58252429999993,f,0.20310590000008233,193.81650830000217,193.81650830000217,193.81650830000217,193.81650830000217,193.81650830000217,193.81650830000217,194.09975810000105,195.1995895,195.1995895,195.1995895,195.1995895,195.1995895,195.1995895,195.18273180000324,195.1995895,195.1995895,195.1995895,195.1995895,195.1995895,195.1995895,195.1995895,196.58084830000007,196.58084830000007,196.58084830000007,196.58084830000007,196.58084830000007,196.58084830000007,196.58084830000007,73,64,40,43,73,70,196.58084830000007,198.28201770000305,,,,,,,,,,,,,,,,,,,,３１２,f,１９,2023-05-18_16h18.34.348,RL,2022.2.5,60.085212847630295,
42,62,56,77,0,30,30,30,,,,,,,,,,,None,198.28201770000305,198.28201770000305,198.28201770000305,198.28201770000305,198.28201770000305,198.28201770000305,f,0.45469739999680314,198.766309300001,198.766309300001,198.766309300001,198.766309300001,198.766309300001,198.766309300001,199.06530710000152,200.4156933000013,200.4156933000013,200.4156933000013,200.4156933000013,200.4156933000013,200.4156933000013,200.4156933000013,200.4156933000013,200.4156933000013,200.4156933000013,200.4156933000013,200.4156933000013,200.4156933000013,200.4156933000013,202.0636838999999,202.0636838999999,202.0636838999999,202.0636838999999,202.0636838999999,202.0636838999999,202.0636838999999,77,62,42,56,77,70,202.0636838999999,203.79761780000263,,,,,,,,,,,,,,,,,,,,３１２,f,１９,2023-05-18_16h18.34.348,RL,2022.2.5,60.085212847630295,
40,66,47,79,0,31,31,31,,,,,,,,,,,None,203.79761780000263,203.79761780000263,203.79761780000263,203.79761780000263,203.79761780000263,203.79761780000263,f,0.3064924999998766,204.13165120000122,204.13165120000122,204.13165120000122,204.13165120000122,204.13165120000122,204.13165120000122,204.43153870000242,205.31424640000114,205.31424640000114,205.31424640000114,205.31424640000114,205.31424640000114,205.31424640000114,205.31424640000114,205.31424640000114,205.31424640000114,205.31424640000114,205.31424640000114,205.31424640000114,205.31424640000114,205.31424640000114,206.4959129000017,206.4959129000017,206.4959129000017,206.4959129000017,206.4959129000017,206.4959129000017,206.4959129000017,79,66,40,47,79,70,206.4959129000017,208.19692030000078,,,,,,,,,,,,,,,,,,,,３１２,f,１９,2023-05-18_16h18.34.348,RL,2022.2.5,60.085212847630295,
46,62,44,75,0,32,32,32,,,,,,,,,,,None,208.19692030000078,208.19692030000078,208.19692030000078,208.19692030000078,208.19692030000078,208.19692030000078,f,0.5070706000005885,208.73186080000232,208.73186080000232,208.73186080000232,208.73186080000232,208.73186080000232,208.73186080000232,209.01414160000058,210.04684540000017,210.04684540000017,210.04684540000017,210.04684540000017,210.04684540000017,210.04684540000017,210.0302945000003,210.04684540000017,210.04684540000017,210.04684540000017,210.04684540000017,210.04684540000017,210.04684540000017,210.04684540000017,211.36151050000262,211.36151050000262,211.36151050000262,211.36151050000262,211.36151050000262,211.36151050000262,211.36151050000262,75,62,46,44,75,70,211.36151050000262,213.21263770000223,,,,,,,,,,,,,,,,,,,,３１２,f,１９,2023-05-18_16h18.34.348,RL,2022.2.5,60.085212847630295,
34,63,43,81,0,33,33,33,,,,,,,,,,,None,213.21263770000223,213.21263770000223,213.21263770000223,213.21263770000223,213.21263770000223,213.21263770000223,f,0.8743961000000127,214.11365900000237,214.11365900000237,214.11365900000237,214.11365900000237,214.11365900000237,214.11365900000237,214.39597760000106,215.66259040000295,215.66259040000295,215.66259040000295,215.66259040000295,215.66259040000295,215.66259040000295,215.6459665000002,215.66259040000295,215.66259040000295,215.66259040000295,215.66259040000295,215.66259040000295,215.66259040000295,215.66259040000295,217.210581000003,217.210581000003,217.210581000003,217.210581000003,217.210581000003,217.210581000003,217.210581000003,81,63,34,43,81,70,217.210581000003,218.74501760000203,,,,,,,,,,,,,,,,,,,,３１２,f,１９,2023-05-18_16h18.34.348,RL,2022.2.5,60.085212847630295,
35,61,49,68,0,34,34,34,,,,,,,,,,,None,218.74501760000203,218.74501760000203,218.74501760000203,218.74501760000203,218.74501760000203,218.74501760000203,f,0.595520499999111,219.36226670000178,219.36226670000178,219.36226670000178,219.36226670000178,219.36226670000178,219.36226670000178,219.64520630000334,220.59527810000145,220.59527810000145,220.59527810000145,220.59527810000145,220.59527810000145,220.59527810000145,220.578502700002,220.59527810000145,220.59527810000145,220.59527810000145,220.59527810000145,220.59527810000145,220.59527810000145,220.59527810000145,221.8267603000022,221.8267603000022,221.8267603000022,221.8267603000022,221.8267603000022,221.8267603000022,221.8267603000022,68,61,35,49,68,70,221.8267603000022,223.59422480000285,,,,,,,,,,,,,,,,,,,,３１２,f,１９,2023-05-18_16h18.34.348,RL,2022.2.5,60.085212847630295,
34,58,51,69,0,35,35,35,,,,,,,,,,,None,223.59422480000285,223.59422480000285,223.59422480000285,223.59422480000285,223.59422480000285,223.59422480000285,f,0.29688959999839426,223.91224900000088,223.91224900000088,223.91224900000088,223.91224900000088,223.91224900000088,223.91224900000088,224.1943295000019,225.41107300000294,225.41107300000294,225.41107300000294,225.41107300000294,225.41107300000294,225.41107300000294,225.39413940000304,225.41107300000294,225.41107300000294,225.41107300000294,225.41107300000294,225.41107300000294,225.41107300000294,225.41107300000294,226.90910150000127,226.90910150000127,226.90910150000127,226.90910150000127,226.90910150000127,226.90910150000127,226.90910150000127,69,58,34,51,69,70,226.90910150000127,228.45987230000173,,,,,,,,,,,,,,,,,,,,３１２,f,１９,2023-05-18_16h18.34.348,RL,2022.2.5,60.085212847630295,
33,59,43,69,0,36,36,36,,,,,,,,,,,None,228.45987230000173,228.45987230000173,228.45987230000173,228.45987230000173,228.45987230000173,228.45987230000173,i,0.36313529999824823,228.84362390000024,228.84362390000024,228.84362390000024,228.84362390000024,228.84362390000024,228.84362390000024,229.12679500000013,230.9932441000019,230.9932441000019,230.9932441000019,230.9932441000019,230.9932441000019,230.9932441000019,230.97664260000238,230.9932441000019,230.9932441000019,230.9932441000019,230.9932441000019,230.9932441000019,230.9932441000019,230.9932441000019,233.1410270000015,233.1410270000015,233.1410270000015,233.1410270000015,233.1410270000015,233.1410270000015,233.1410270000015,69,59,33,43,33,70,233.1410270000015,235.02597120000064,,,,,,,,,,,,,,,,,,,,３１２,f,１９,2023-05-18_16h18.34.348,RL,2022.2.5,60.085212847630295,
38,69,46,79,0,37,37,37,,,,,,,,,,,None,235.02597120000064,235.02597120000064,235.02597120000064,235.02597120000064,235.02597120000064,235.02597120000064,f,0.4484086999982537,235.49790440000288,235.49790440000288,235.49790440000288,235.49790440000288,235.49790440000288,235.49790440000288,235.792327500003,237.75864560000264,237.75864560000264,237.75864560000264,237.75864560000264,237.75864560000264,237.75864560000264,237.75864560000264,237.75864560000264,237.75864560000264,237.75864560000264,237.75864560000264,237.75864560000264,237.75864560000264,237.75864560000264,240.02328050000142,240.02328050000142,240.02328050000142,240.02328050000142,240.02328050000142,240.02328050000142,240.02328050000142,79,69,38,46,79,70,240.02328050000142,241.70761520000087,,,,,,,,,,,,,,,,,,,,３１２,f,１９,2023-05-18_16h18.34.348,RL,2022.2.5,60.085212847630295,
28,68,40,77,0,38,38,38,,,,,,,,,,,None,241.70761520000087,241.70761520000087,241.70761520000087,241.70761520000087,241.70761520000087,241.70761520000087,f,0.9364773999986937,242.67898630000127,242.67898630000127,242.67898630000127,242.67898630000127,242.67898630000127,242.67898630000127,242.97445119999975,244.9240393,244.9240393,244.9240393,244.9240393,244.9240393,244.9240393,244.9240393,244.9240393,244.9240393,244.9240393,244.9240393,244.9240393,244.9240393,244.9240393,247.17210570000316,247.17210570000316,247.17210570000316,247.17210570000316,247.17210570000316,247.17210570000316,247.17210570000316,77,68,28,40,77,70,247.17210570000316,249.00644920000195,,,,,,,,,,,,,,,,,,,,３１２,f,１９,2023-05-18_16h18.34.348,RL,2022.2.5,60.085212847630295,
29,68,45,76,0,39,39,39,,,,,,,,,,,None,249.00644920000195,249.00644920000195,249.00644920000195,249.00644920000195,249.00644920000195,249.00644920000195,j,0.49982380000074045,249.5435376000023,249.5435376000023,249.5435376000023,249.5435376000023,249.5435376000023,249.5435376000023,249.8233786000019,250.90635370000018,250.90635370000018,250.90635370000018,250.90635370000018,250.90635370000018,250.90635370000018,250.89014580000003,250.90635370000018,250.90635370000018,250.90635370000018,250.90635370000018,250.90635370000018,250.90635370000018,250.90635370000018,252.27126900000076,252.27126900000076,252.27126900000076,252.27126900000076,252.27126900000076,252.27126900000076,252.27126900000076,76,68,29,45,45,70,252.27126900000076,254.17213840000113,,,,,,,,,,,,,,,,,,,,３１２,f,１９,2023-05-18_16h18.34.348,RL,2022.2.5,60.085212847630295,
28,65,45,73,0,40,40,40,,,,,,,,,,,None,254.17213840000113,254.17213840000113,254.17213840000113,254.17213840000113,254.17213840000113,254.17213840000113,f,0.4759320999983174,254.6751921000032,254.6751921000032,254.6751921000032,254.6751921000032,254.6751921000032,254.6751921000032,254.9561388000002,256.27207740000085,256.27207740000085,256.27207740000085,256.27207740000085,256.27207740000085,256.27207740000085,256.2390185000004,256.27207740000085,256.27207740000085,256.27207740000085,256.27207740000085,256.27207740000085,256.27207740000085,256.27207740000085,257.8533094000013,257.8533094000013,257.8533094000013,257.8533094000013,257.8533094000013,257.8533094000013,257.8533094000013,73,65,28,45,73,70,257.8533094000013,259.5545286000015,,,,,,,,,,,,,,,,,,,,３１２,f,１９,2023-05-18_16h18.34.348,RL,2022.2.5,60.085212847630295,
26,67,37,73,0,41,41,41,,,,,,,,,,,None,259.5545286000015,259.5545286000015,259.5545286000015,259.5545286000015,259.5545286000015,259.5545286000015,f,0.5652089999966847,260.1389095000013,260.1389095000013,260.1389095000013,260.1389095000013,260.1389095000013,260.1389095000013,260.4215335000008,261.8544397000005,261.8544397000005,261.8544397000005,261.8544397000005,261.8544397000005,261.8544397000005,261.8378552000031,261.8544397000005,261.8544397000005,261.8544397000005,261.8544397000005,261.8544397000005,261.8544397000005,261.8544397000005,263.56926960000055,263.56926960000055,263.56926960000055,263.56926960000055,263.56926960000055,263.56926960000055,263.56926960000055,73,67,26,37,73,70,263.56926960000055,265.28711939999994,,,,,,,,,,,,,,,,,,,,３１２,f,１９,2023-05-18_16h18.34.348,RL,2022.2.5,60.085212847630295,
33,62,33,75,0,42,42,42,,,,,,,,,,,None,265.28711939999994,265.28711939999994,265.28711939999994,265.28711939999994,265.28711939999994,265.28711939999994,f,0.769365199997992,266.08747850000145,266.08747850000145,266.08747850000145,266.08747850000145,266.08747850000145,266.08747850000145,266.3706450999998,267.37022849999994,267.37022849999994,267.37022849999994,267.37022849999994,267.37022849999994,267.37022849999994,267.353460600003,267.37022849999994,267.37022849999994,267.37022849999994,267.37022849999994,267.37022849999994,267.37022849999994,267.37022849999994,268.65145850000044,268.65145850000044,268.65145850000044,268.65145850000044,268.65145850000044,268.65145850000044,268.65145850000044,75,62,33,33,75,70,268.65145850000044,270.4529039000008,,,,,,,,,,,,,,,,,,,,３１２,f,１９,2023-05-18_16h18.34.348,RL,2022.2.5,60.085212847630295,
29,57,31,69,0,43,43,43,,,,,,,,,,,None,270.4529039000008,270.4529039000008,270.4529039000008,270.4529039000008,270.4529039000008,270.4529039000008,f,0.40610430000015185,270.8864953000011,270.8864953000011,270.8864953000011,270.8864953000011,270.8864953000011,270.8864953000011,271.1860456000031,273.13613960000293,273.13613960000293,273.13613960000293,273.13613960000293,273.13613960000293,273.13613960000293,273.13613960000293,273.13613960000293,273.13613960000293,273.13613960000293,273.13613960000293,273.13613960000293,273.13613960000293,273.13613960000293,275.38402230000065,275.38402230000065,275.38402230000065,275.38402230000065,275.38402230000065,275.38402230000065,275.38402230000065,69,57,29,31,69,70,275.38402230000065,277.28462560000116,,,,,,,,,,,,,,,,,,,,３１２,f,１９,2023-05-18_16h18.34.348,RL,2022.2.5,60.085212847630295,
29,69,29,70,0,44,44,44,,,,,,,,,,,None,277.28462560000116,277.28462560000116,277.28462560000116,277.28462560000116,277.28462560000116,277.28462560000116,r,0.31542289999924833,277.618989300001,277.618989300001,277.618989300001,277.618989300001,277.618989300001,277.618989300001,277.9019451000022,279.26815660000284,279.26815660000284,279.26815660000284,279.26815660000284,279.26815660000284,279.26815660000284,279.25162530000307,279.26815660000284,279.26815660000284,279.26815660000284,279.26815660000284,279.26815660000284,279.26815660000284,279.26815660000284,280.91655190000165,280.91655190000165,280.91655190000165,280.91655190000165,280.91655190000165,280.91655190000165,280.91655190000165,70,69,29,29,69,70,280.91655190000165,282.4506160000019,,,,,,,,,,,,,,,,,,,,３１２,f,１９,2023-05-18_16h18.34.348,RL,2022.2.5,60.085212847630295,
29,63,27,72,0,45,45,45,,,,,,,,,,,None,282.4506160000019,282.4506160000019,282.4506160000019,282.4506160000019,282.4506160000019,282.4506160000019,r,0.2619401999982074,282.7363626000006,282.7363626000006,282.7363626000006,282.7363626000006,282.7363626000006,282.7363626000006,283.03403679999974,284.03406370000084,284.03406370000084,284.03406370000084,284.03406370000084,284.03406370000084,284.03406370000084,284.03406370000084,284.03406370000084,284.03406370000084,284.03406370000084,284.03406370000084,284.03406370000084,284.03406370000084,284.03406370000084,285.3320534000013,285.3320534000013,285.3320534000013,285.3320534000013,285.3320534000013,285.3320534000013,285.3320534000013,72,63,29,27,63,70,285.3320534000013,287.09973360000004,,,,,,,,,,,,,,,,,,,,３１２,f,１９,2023-05-18_16h18.34.348,RL,2022.2.5,60.085212847630295,
21,69,27,68,0,46,46,46,,,,,,,,,,,None,287.09973360000004,287.09973360000004,287.09973360000004,287.09973360000004,287.09973360000004,287.09973360000004,f,0.2695863000008103,287.4004539000016,287.4004539000016,287.4004539000016,287.4004539000016,287.4004539000016,287.4004539000016,287.6833269000017,289.5996919999998,289.5996919999998,289.5996919999998,289.5996919999998,289.5996919999998,289.5996919999998,289.5830323000009,289.5996919999998,289.5996919999998,289.5996919999998,289.5996919999998,289.5996919999998,289.5996919999998,289.5996919999998,291.7978534000031,291.7978534000031,291.7978534000031,291.7978534000031,291.7978534000031,291.7978534000031,291.7978534000031,68,69,21,27,68,70,291.7978534000031,293.6652869999998,,,,,,,,,,,,,,,,,,,,３１２,f,１９,2023-05-18_16h18.34.348,RL,2022.2.5,60.085212847630295,
27,67,36,67,0,47,47,47,,,,,,,,,,,None,293.6652869999998,293.6652869999998,293.6652869999998,293.6652869999998,293.6652869999998,293.6652869999998,i,0.5091033999997308,294.19914320000316,294.19914320000316,294.19914320000316,294.19914320000316,294.19914320000316,294.19914320000316,294.49914790000184,296.31511820000014,296.31511820000014,296.31511820000014,296.31511820000014,296.31511820000014,296.31511820000014,296.31511820000014,296.31511820000014,296.31511820000014,296.31511820000014,296.31511820000014,296.31511820000014,296.31511820000014,296.31511820000014,298.42965710000135,298.42965710000135,298.42965710000135,298.42965710000135,298.42965710000135,298.42965710000135,298.42965710000135,67,67,27,36,27,70,298.42965710000135,299.99753460000284,,,,,,,,,,,,,,,,,,,,３１２,f,１９,2023-05-18_16h18.34.348,RL,2022.2.5,60.085212847630295,
36,65,31,62,0,48,48,48,,,,,,,,,,,None,299.99753460000284,299.99753460000284,299.99753460000284,299.99753460000284,299.99753460000284,299.99753460000284,f,0.327681599999778,300.34804540000187,300.34804540000187,300.34804540000187,300.34804540000187,300.34804540000187,300.34804540000187,300.63110080000115,302.4141176000012,302.4141176000012,302.4141176000012,302.4141176000012,302.4141176000012,302.4141176000012,302.3975774000028,302.4141176000012,302.4141176000012,302.4141176000012,302.4141176000012,302.4141176000012,302.4141176000012,302.4141176000012,304.4790381000021,304.4790381000021,304.4790381000021,304.4790381000021,304.4790381000021,304.4790381000021,304.4790381000021,62,65,36,31,62,70,304.4790381000021,306.3630825,,,,,,,,,,,,,,,,,,,,３１２,f,１９,2023-05-18_16h18.34.348,RL,2022.2.5,60.085212847630295,
38,61,35,61,0,49,49,49,,,,,,,,,,,None,306.3630825,306.3630825,306.3630825,306.3630825,306.3630825,306.3630825,r,0.2951481000018248,306.68062160000045,306.68062160000045,306.68062160000045,306.68062160000045,306.68062160000045,306.68062160000045,306.9637513000016,307.9633543000018,307.9633543000018,307.9633543000018,307.9633543000018,307.9633543000018,307.9633543000018,307.9471508000024,307.9633543000018,307.9633543000018,307.9633543000018,307.9633543000018,307.9633543000018,307.9633543000018,307.9633543000018,309.24485950000235,309.24485950000235,309.24485950000235,309.24485950000235,309.24485950000235,309.24485950000235,309.24485950000235,61,61,38,35,61,70,309.24485950000235,311.22893860000113,,,,,,,,,,,,,,,,,,,,３１２,f,１９,2023-05-18_16h18.34.348,RL,2022.2.5,60.085212847630295,
44,60,29,73,0,50,50,50,,,,,,,,,,,None,311.22893860000113,311.22893860000113,311.22893860000113,311.22893860000113,311.22893860000113,311.22893860000113,f,0.3169971999996051,311.56437240000014,311.56437240000014,311.56437240000014,311.56437240000014,311.56437240000014,311.56437240000014,311.8627532999999,312.96256370000265,312.96256370000265,312.96256370000265,312.96256370000265,312.96256370000265,312.96256370000265,312.96256370000265,312.96256370000265,312.96256370000265,312.96256370000265,312.96256370000265,312.96256370000265,312.96256370000265,312.96256370000265,314.3606355000011,314.3606355000011,314.3606355000011,314.3606355000011,314.3606355000011,314.3606355000011,314.3606355000011,73,60,44,29,73,70,314.3606355000011,316.19524079999974,,,,,,,,,,,,,,,,,,,,３１２,f,１９,2023-05-18_16h18.34.348,RL,2022.2.5,60.085212847630295,
49,59,20,75,0,51,51,51,,,,,,,,,,,None,316.19524079999974,316.19524079999974,316.19524079999974,316.19524079999974,316.19524079999974,316.19524079999974,f,0.2627683999999135,316.48139380000066,316.48139380000066,316.48139380000066,316.48139380000066,316.48139380000066,316.48139380000066,316.76228450000053,318.5616641000015,318.5616641000015,318.5616641000015,318.5616641000015,318.5616641000015,318.5616641000015,318.5285369000012,318.5616641000015,318.5616641000015,318.5616641000015,318.5616641000015,318.5616641000015,318.5616641000015,318.5616641000015,320.6261838999999,320.6261838999999,320.6261838999999,320.6261838999999,320.6261838999999,320.6261838999999,320.6261838999999,75,59,49,20,75,70,320.6261838999999,322.49371280000196,,,,,,,,,,,,,,,,,,,,３１２,f,１９,2023-05-18_16h18.34.348,RL,2022.2.5,60.085212847630295,
48,59,30,65,0,52,52,52,,,,,,,,,,,None,322.49371280000196,322.49371280000196,322.49371280000196,322.49371280000196,322.49371280000196,322.49371280000196,f,0.26578730000255746,322.7776976000023,322.7776976000023,322.7776976000023,322.7776976000023,322.7776976000023,322.7776976000023,323.0608393000002,324.1772086000019,324.1772086000019,324.1772086000019,324.1772086000019,324.1772086000019,324.1772086000019,324.1606653000017,324.1772086000019,324.1772086000019,324.1772086000019,324.1772086000019,324.1772086000019,324.1772086000019,324.1772086000019,325.5751240999998,325.5751240999998,325.5751240999998,325.5751240999998,325.5751240999998,325.5751240999998,325.5751240999998,65,59,48,30,65,70,325.5751240999998,327.4096027000014,,,,,,,,,,,,,,,,,,,,３１２,f,１９,2023-05-18_16h18.34.348,RL,2022.2.5,60.085212847630295,
45,54,31,60,0,53,53,53,,,,,,,,,,,None,327.4096027000014,327.4096027000014,327.4096027000014,327.4096027000014,327.4096027000014,327.4096027000014,f,0.786435399997572,328.22751060000155,328.22751060000155,328.22751060000155,328.22751060000155,328.22751060000155,328.22751060000155,328.5265657000018,330.49275409999973,330.49275409999973,330.49275409999973,330.49275409999973,330.49275409999973,330.49275409999973,330.49275409999973,330.49275409999973,330.49275409999973,330.49275409999973,330.49275409999973,330.49275409999973,330.49275409999973,330.49275409999973,332.75763540000116,332.75763540000116,332.75763540000116,332.75763540000116,332.75763540000116,332.75763540000116,332.75763540000116,60,54,45,31,60,70,332.75763540000116,334.50878360000206,,,,,,,,,,,,,,,,,,,,３１２,f,１９,2023-05-18_16h18.34.348,RL,2022.2.5,60.085212847630295,
49,56,27,62,0,54,54,54,,,,,,,,,,,None,334.50878360000206,334.50878360000206,334.50878360000206,334.50878360000206,334.50878360000206,334.50878360000206,f,0.27345969999805675,334.8104861000029,334.8104861000029,334.8104861000029,334.8104861000029,334.8104861000029,334.8104861000029,335.10860970000067,337.04156370000055,337.04156370000055,337.04156370000055,337.04156370000055,337.04156370000055,337.04156370000055,337.024871900001,337.04156370000055,337.04156370000055,337.04156370000055,337.04156370000055,337.04156370000055,337.04156370000055,337.04156370000055,339.2565085000024,339.2565085000024,339.2565085000024,339.2565085000024,339.2565085000024,339.2565085000024,339.2565085000024,62,56,49,27,62,70,339.2565085000024,341.2074603000001,,,,,,,,,,,,,,,,,,,,３１２,f,１９,2023-05-18_16h18.34.348,RL,2022.2.5,60.085212847630295,
47,54,35,64,0,55,55,55,,,,,,,,,,,None,341.2074603000001,341.2074603000001,341.2074603000001,341.2074603000001,341.2074603000001,341.2074603000001,i,0.2956110999984958,341.5254311000026,341.5254311000026,341.5254311000026,341.5254311000026,341.5254311000026,341.5254311000026,341.8246717000002,343.207379200001,343.207379200001,343.207379200001,343.207379200001,343.207379200001,343.207379200001,343.207379200001,343.207379200001,343.207379200001,343.207379200001,343.207379200001,343.207379200001,343.207379200001,343.207379200001,344.88865510000323,344.88865510000323,344.88865510000323,344.88865510000323,344.88865510000323,344.88865510000323,344.88865510000323,64,54,47,35,47,70,344.88865510000323,346.7898673000018,,,,,,,,,,,,,,,,,,,,３１２,f,１９,2023-05-18_16h18.34.348,RL,2022.2.5,60.085212847630295,
48,56,29,62,0,56,56,56,,,,,,,,,,,None,346.7898673000018,346.7898673000018,346.7898673000018,346.7898673000018,346.7898673000018,346.7898673000018,f,0.24809100000129547,347.0565910000005,347.0565910000005,347.0565910000005,347.0565910000005,347.0565910000005,347.0565910000005,347.33958930000153,348.3395279000033,348.3395279000033,348.3395279000033,348.3395279000033,348.3395279000033,348.3395279000033,348.322888900002,348.3395279000033,348.3395279000033,348.3395279000033,348.3395279000033,348.3395279000033,348.3395279000033,348.3395279000033,349.62088460000086,349.62088460000086,349.62088460000086,349.62088460000086,349.62088460000086,349.62088460000086,349.62088460000086,62,56,48,29,62,70,349.62088460000086,351.3554690000019,,,,,,,,,,,,,,,,,,,,３１２,f,１９,2023-05-18_16h18.34.348,RL,2022.2.5,60.085212847630295,
50,59,26,67,0,57,57,57,,,,,,,,,,,None,351.3554690000019,351.3554690000019,351.3554690000019,351.3554690000019,351.3554690000019,351.3554690000019,r,0.2705554000021948,351.65588410000055,351.65588410000055,351.65588410000055,351.65588410000055,351.65588410000055,351.65588410000055,351.93902640000306,353.9096383000033,353.9096383000033,353.9096383000033,353.9096383000033,353.9096383000033,353.9096383000033,353.85555150000073,353.9096383000033,353.9096383000033,353.9096383000033,353.9096383000033,353.9096383000033,353.9096383000033,353.9096383000033,356.13658639999994,356.13658639999994,356.13658639999994,356.13658639999994,356.13658639999994,356.13658639999994,356.13658639999994,67,59,50,26,59,70,356.13658639999994,358.1041843000021,,,,,,,,,,,,,,,,,,,,３１２,f,１９,2023-05-18_16h18.34.348,RL,2022.2.5,60.085212847630295,
47,60,29,64,0,58,58,58,,,,,,,,,,,None,358.1041843000021,358.1041843000021,358.1041843000021,358.1041843000021,358.1041843000021,358.1041843000021,j,0.23803380000026664,358.37352490000194,358.37352490000194,358.37352490000194,358.37352490000194,358.37352490000194,358.37352490000194,358.6716274999999,360.22070220000023,360.22070220000023,360.22070220000023,360.22070220000023,360.22070220000023,360.22070220000023,360.22070220000023,360.22070220000023,360.22070220000023,360.22070220000023,360.22070220000023,360.22070220000023,360.22070220000023,360.22070220000023,362.0687515000027,362.0687515000027,362.0687515000027,362.0687515000027,362.0687515000027,362.0687515000027,362.0687515000027,64,60,47,29,29,70,362.0687515000027,363.9533186000008,,,,,,,,,,,,,,,,,,,,３１２,f,１９,2023-05-18_16h18.34.348,RL,2022.2.5,60.085212847630295,
47,54,30,62,0,59,59,59,,,,,,,,,,,None,363.9533186000008,363.9533186000008,363.9533186000008,363.9533186000008,363.9533186000008,363.9533186000008,f,0.2367541000021447,364.2205165000014,364.2205165000014,364.2205165000014,364.2205165000014,364.2205165000014,364.2205165000014,364.52017620000333,366.3030018000027,366.3030018000027,366.3030018000027,366.3030018000027,366.3030018000027,366.3030018000027,366.3030018000027,366.3030018000027,366.3030018000027,366.3030018000027,366.3030018000027,366.3030018000027,366.3030018000027,366.3030018000027,368.38448320000316,368.38448320000316,368.38448320000316,368.38448320000316,368.38448320000316,368.38448320000316,368.38448320000316,62,54,47,30,62,70,368.38448320000316,370.0190442000021,,,,,,,,,,,,,,,,,,,,３１２,f,１９,2023-05-18_16h18.34.348,RL,2022.2.5,60.085212847630295,
49,51,35,61,0,60,60,60,,,,,,,,,,,None,370.0190442000021,370.0190442000021,370.0190442000021,370.0190442000021,370.0190442000021,370.0190442000021,f,0.28559189999941736,370.3415105000022,370.3415105000022,370.3415105000022,370.3415105000022,370.3415105000022,370.3415105000022,370.6361441000008,371.9354561,371.9354561,371.9354561,371.9354561,371.9354561,371.9354561,371.9187739000008,371.9354561,371.9354561,371.9354561,371.9354561,371.9354561,371.9354561,371.9354561,373.51740190000055,373.51740190000055,373.51740190000055,373.51740190000055,373.51740190000055,373.51740190000055,373.51740190000055,61,51,49,35,61,70,373.51740190000055,375.31779780000215,,,,,,,,,,,,,,,,,,,,３１２,f,１９,2023-05-18_16h18.34.348,RL,2022.2.5,60.085212847630295,
51,50,41,56,0,61,61,61,,,,,,,,,,,None,375.31779780000215,375.31779780000215,375.31779780000215,375.31779780000215,375.31779780000215,375.31779780000215,r,0.47937840000304277,375.8205411000017,375.8205411000017,375.8205411000017,375.8205411000017,375.8205411000017,375.8205411000017,376.11827050000284,377.2180549000004,377.2180549000004,377.2180549000004,377.2180549000004,377.2180549000004,377.2180549000004,377.2180549000004,377.2180549000004,377.2180549000004,377.2180549000004,377.2180549000004,377.2180549000004,377.2180549000004,377.2180549000004,378.61641600000075,378.61641600000075,378.61641600000075,378.61641600000075,378.61641600000075,378.61641600000075,378.61641600000075,56,50,51,41,50,70,378.61641600000075,380.56734040000083,,,,,,,,,,,,,,,,,,,,３１２,f,１９,2023-05-18_16h18.34.348,RL,2022.2.5,60.085212847630295,
47,44,37,59,0,62,62,62,,,,,,,,,,,None,380.56734040000083,380.56734040000083,380.56734040000083,380.56734040000083,380.56734040000083,380.56734040000083,f,0.5337537000013981,381.1379618000028,381.1379618000028,381.1379618000028,381.1379618000028,381.1379618000028,381.1379618000028,381.417436300002,382.6669615000028,382.6669615000028,382.6669615000028,382.6669615000028,382.6669615000028,382.6669615000028,382.65029030000005,382.6669615000028,382.6669615000028,382.6669615000028,382.6669615000028,382.6669615000028,382.6669615000028,382.6669615000028,384.19843160000164,384.19843160000164,384.19843160000164,384.19843160000164,384.19843160000164,384.19843160000164,384.19843160000164,59,44,47,37,59,70,384.19843160000164,386.04942780000056,,,,,,,,,,,,,,,,,,,,３１２,f,１９,2023-05-18_16h18.34.348,RL,2022.2.5,60.085212847630295,
52,45,41,65,0,63,63,63,,,,,,,,,,,None,386.04942780000056,386.04942780000056,386.04942780000056,386.04942780000056,386.04942780000056,386.04942780000056,i,0.27551089999906253,386.35025670000323,386.35025670000323,386.35025670000323,386.35025670000323,386.35025670000323,386.35025670000323,386.632913700003,388.1325622000004,388.1325622000004,388.1325622000004,388.1325622000004,388.1325622000004,388.1325622000004,388.1160423000001,388.1325622000004,388.1325622000004,388.1325622000004,388.1325622000004,388.1325622000004,388.1325622000004,388.1325622000004,389.91420730000027,389.91420730000027,389.91420730000027,389.91420730000027,389.91420730000027,389.91420730000027,389.91420730000027,65,45,52,41,52,70,389.91420730000027,391.69844640000156,,,,,,,,,,,,,,,,,,,,３１２,f,１９,2023-05-18_16h18.34.348,RL,2022.2.5,60.085212847630295,
37,40,47,58,0,64,64,64,,,,,,,,,,,None,391.69844640000156,391.69844640000156,391.69844640000156,391.69844640000156,391.69844640000156,391.69844640000156,f,0.3200847000007343,392.0502785000026,392.0502785000026,392.0502785000026,392.0502785000026,392.0502785000026,392.0502785000026,392.3485105,394.2819906000004,394.2819906000004,394.2819906000004,394.2819906000004,394.2819906000004,394.2819906000004,394.2819906000004,394.2819906000004,394.2819906000004,394.2819906000004,394.2819906000004,394.2819906000004,394.2819906000004,394.2819906000004,396.5127981000005,396.5127981000005,396.5127981000005,396.5127981000005,396.5127981000005,396.5127981000005,396.5127981000005,58,40,37,47,58,70,396.5127981000005,398.4305420000019,,,,,,,,,,,,,,,,,,,,３１２,f,１９,2023-05-18_16h18.34.348,RL,2022.2.5,60.085212847630295,
46,41,43,54,0,65,65,65,,,,,,,,,,,None,398.4305420000019,398.4305420000019,398.4305420000019,398.4305420000019,398.4305420000019,398.4305420000019,i,0.7780031000002054,399.2330065000024,399.2330065000024,399.2330065000024,399.2330065000024,399.2330065000024,399.2330065000024,399.5307307000003,401.51391570000123,401.51391570000123,401.51391570000123,401.51391570000123,401.51391570000123,401.51391570000123,401.51391570000123,401.51391570000123,401.51391570000123,401.51391570000123,401.51391570000123,401.51391570000123,401.51391570000123,401.51391570000123,403.79533900000024,403.79533900000024,403.79533900000024,403.79533900000024,403.79533900000024,403.79533900000024,403.79533900000024,54,41,46,43,46,70,403.79533900000024,405.34642990000066,,,,,,,,,,,,,,,,,,,,３１２,f,１９,2023-05-18_16h18.34.348,RL,2022.2.5,60.085212847630295,
41,34,41,58,0,66,66,66,,,,,,,,,,,None,405.34642990000066,405.34642990000066,405.34642990000066,405.34642990000066,405.34642990000066,405.34642990000066,j,0.537472500000149,405.91526350000277,405.91526350000277,405.91526350000277,405.91526350000277,405.91526350000277,405.91526350000277,406.21321979999993,407.71295850000024,407.71295850000024,407.71295850000024,407.71295850000024,407.71295850000024,407.71295850000024,407.71295850000024,407.71295850000024,407.71295850000024,407.71295850000024,407.71295850000024,407.71295850000024,407.71295850000024,407.71295850000024,409.51076880000255,409.51076880000255,409.51076880000255,409.51076880000255,409.51076880000255,409.51076880000255,409.51076880000255,58,34,41,41,41,70,409.51076880000255,411.2115012000031,,,,,,,,,,,,,,,,,,,,３１２,f,１９,2023-05-18_16h18.34.348,RL,2022.2.5,60.085212847630295,
46,36,36,51,0,67,67,67,,,,,,,,,,,None,411.2115012000031,411.2115012000031,411.2115012000031,411.2115012000031,411.2115012000031,411.2115012000031,f,0.5228504999977304,411.76210880000144,411.76210880000144,411.76210880000144,411.76210880000144,411.76210880000144,411.76210880000144,412.0618714000011,413.4617225000002,413.4617225000002,413.4617225000002,413.4617225000002,413.4617225000002,413.4617225000002,413.4617225000002,413.4617225000002,413.4617225000002,413.4617225000002,413.4617225000002,413.4617225000002,413.4617225000002,413.4617225000002,415.1594248000001,415.1594248000001,415.1594248000001,415.1594248000001,415.1594248000001,415.1594248000001,415.1594248000001,51,36,46,36,51,70,415.1594248000001,416.84418260000166,,,,,,,,,,,,,,,,,,,,３１２,f,１９,2023-05-18_16h18.34.348,RL,2022.2.5,60.085212847630295,
35,30,25,47,0,68,68,68,,,,,,,,,,,None,416.84418260000166,416.84418260000166,416.84418260000166,416.84418260000166,416.84418260000166,416.84418260000166,f,0.5866203999976278,417.4612304000002,417.4612304000002,417.4612304000002,417.4612304000002,417.4612304000002,417.4612304000002,417.7447107000007,419.27715700000044,419.27715700000044,419.27715700000044,419.27715700000044,419.27715700000044,419.27715700000044,419.26056230000177,419.27715700000044,419.27715700000044,419.27715700000044,419.27715700000044,419.27715700000044,419.27715700000044,419.27715700000044,421.0918571000002,421.0918571000002,421.0918571000002,421.0918571000002,421.0918571000002,421.0918571000002,421.0918571000002,47,30,35,25,47,70,421.0918571000002,422.7766980000015,,,,,,,,,,,,,,,,,,,,３１２,f,１９,2023-05-18_16h18.34.348,RL,2022.2.5,60.085212847630295,
32,36,40,51,0,69,69,69,,,,,,,,,,,None,422.7766980000015,422.7766980000015,422.7766980000015,422.7766980000015,422.7766980000015,422.7766980000015,r,0.6846210000003339,423.4951406,423.4951406,423.4951406,423.4951406,423.4951406,423.4951406,423.7766917000008,425.4429221999999,425.4429221999999,425.4429221999999,425.4429221999999,425.4429221999999,425.4429221999999,425.4259856000026,425.4429221999999,425.4429221999999,425.4429221999999,425.4429221999999,425.4429221999999,425.4429221999999,425.4429221999999,427.390653800001,427.390653800001,427.390653800001,427.390653800001,427.390653800001,427.390653800001,427.390653800001,51,36,32,40,36,70,427.390653800001,429.32533220000187,,,,,,,,,,,,,,,,,,,,３１２,f,１９,2023-05-18_16h18.34.348,RL,2022.2.5,60.085212847630295,
34,37,40,50,0,70,70,70,,,,,,,,,,,None,429.32533220000187,429.32533220000187,429.32533220000187,429.32533220000187,429.32533220000187,429.32533220000187,f,0.24883240000053775,429.59531360000256,429.59531360000256,429.59531360000256,429.59531360000256,429.59531360000256,429.59531360000256,429.8923251000015,431.29165920000014,431.29165920000014,431.29165920000014,431.29165920000014,431.29165920000014,431.29165920000014,431.27508060000036,431.29165920000014,431.29165920000014,431.29165920000014,431.29165920000014,431.29165920000014,431.29165920000014,431.29165920000014,432.9732428000025,432.9732428000025,432.9732428000025,432.9732428000025,432.9732428000025,432.9732428000025,432.9732428000025,50,37,34,40,50,70,432.9732428000025,434.60764290000225,,,,,,,,,,,,,,,,,,,,３１２,f,１９,2023-05-18_16h18.34.348,RL,2022.2.5,60.085212847630295,
39,35,24,51,0,71,71,71,,,,,,,,,,,None,434.60764290000225,434.60764290000225,434.60764290000225,434.60764290000225,434.60764290000225,434.60764290000225,i,0.24951839999994263,434.8757028,434.8757028,434.8757028,434.8757028,434.8757028,434.8757028,435.17447300000276,436.0744771999998,436.0744771999998,436.0744771999998,436.0744771999998,436.0744771999998,436.0744771999998,436.0744771999998,436.0744771999998,436.0744771999998,436.0744771999998,436.0744771999998,436.0744771999998,436.0744771999998,436.0744771999998,437.27230180000333,437.27230180000333,437.27230180000333,437.27230180000333,437.27230180000333,437.27230180000333,437.27230180000333,51,35,39,24,39,70,437.27230180000333,438.7736272000002,,,,,,,,,,,,,,,,,,,,３１２,f,１９,2023-05-18_16h18.34.348,RL,2022.2.5,60.085212847630295,
32,33,27,48,0,72,72,72,,,,,,,,,,,None,438.7736272000002,438.7736272000002,438.7736272000002,438.7736272000002,438.7736272000002,438.7736272000002,f,0.3420516000005591,439.1408119000007,439.1408119000007,439.1408119000007,439.1408119000007,439.1408119000007,439.1408119000007,439.42377450000276,441.15720070000316,441.15720070000316,441.15720070000316,441.15720070000316,441.15720070000316,441.15720070000316,441.1407278000006,441.15720070000316,441.15720070000316,441.15720070000316,441.15720070000316,441.15720070000316,441.15720070000316,441.15720070000316,443.1718443000027,443.1718443000027,443.1718443000027,443.1718443000027,443.1718443000027,443.1718443000027,443.1718443000027,48,33,32,27,48,70,443.1718443000027,444.9223133000014,,,,,,,,,,,,,,,,,,,,３１２,f,１９,2023-05-18_16h18.34.348,RL,2022.2.5,60.085212847630295,
38,31,29,56,0,73,73,73,,,,,,,,,,,None,444.9223133000014,444.9223133000014,444.9223133000014,444.9223133000014,444.9223133000014,444.9223133000014,f,0.0035047999990638345,444.9575657000023,444.9575657000023,444.9575657000023,444.9575657000023,444.9575657000023,444.9575657000023,445.2567869000013,447.0059281000031,447.0059281000031,447.0059281000031,447.0059281000031,447.0059281000031,447.0059281000031,447.0059281000031,447.0059281000031,447.0059281000031,447.0059281000031,447.0059281000031,447.0059281000031,447.0059281000031,447.0059281000031,449.05410790000315,449.05410790000315,449.05410790000315,449.05410790000315,449.05410790000315,449.05410790000315,449.05410790000315,56,31,38,29,56,70,449.05410790000315,450.9878961000031,,,,,,,,,,,,,,,,,,,,３１２,f,１９,2023-05-18_16h18.34.348,RL,2022.2.5,60.085212847630295,
31,32,32,53,0,74,74,74,,,,,,,,,,,None,450.9878961000031,450.9878961000031,450.9878961000031,450.9878961000031,450.9878961000031,450.9878961000031,j,0.5774821000013617,451.58960370000204,451.58960370000204,451.58960370000204,451.58960370000204,451.58960370000204,451.58960370000204,451.87157339999976,453.8711891000021,453.8711891000021,453.8711891000021,453.8711891000021,453.8711891000021,453.8711891000021,453.8546505000013,453.8711891000021,453.8711891000021,453.8711891000021,453.8711891000021,453.8711891000021,453.8711891000021,453.8711891000021,456.1526870000016,456.1526870000016,456.1526870000016,456.1526870000016,456.1526870000016,456.1526870000016,456.1526870000016,53,32,31,32,32,70,456.1526870000016,457.81931520000217,,,,,,,,,,,,,,,,,,,,３１２,f,１９,2023-05-18_16h18.34.348,RL,2022.2.5,60.085212847630295,
25,41,33,52,0,75,75,75,,,,,,,,,,,q,476.6005331000015,476.6005331000015,476.6005331000015,476.6005331000015,476.6005331000015,476.6005331000015,None,,,,,,,,,,,,,,,,,,,,,,,,,,,,,,52,41,25,33,0,70,484.11457990000054,486.08239700000195,457.81931520000217,457.81931520000217,13.734715900001902,471.58560560000114,471.58560560000114,476.6005331000015,476.6005331000015,478.10050850000334,478.10050850000334,478.10050850000334,478.10050850000334,478.10050850000334,478.10050850000334,478.10050850000334,484.11457990000054,,,,,３１２,f,１９,2023-05-18_16h18.34.348,RL,2022.2.5,60.085212847630295,
35,44,45,49,0,76,76,76,,,,,,,,,,,None,486.08239700000195,486.08239700000195,486.08239700000195,486.08239700000195,486.08239700000195,486.08239700000195,r,0.5234727000024577,486.63783230000263,486.63783230000263,486.63783230000263,486.63783230000263,486.63783230000263,486.63783230000263,486.93215000000055,488.58222810000007,488.58222810000007,488.58222810000007,488.58222810000007,488.58222810000007,488.58222810000007,488.58222810000007,488.58222810000007,488.58222810000007,488.58222810000007,488.58222810000007,488.58222810000007,488.58222810000007,488.58222810000007,490.5300382000023,490.5300382000023,490.5300382000023,490.5300382000023,490.5300382000023,490.5300382000023,490.5300382000023,49,44,35,45,44,70,490.5300382000023,492.3142485000026,,,,,,,,,,,,,,,,,,,,３１２,f,１９,2023-05-18_16h18.34.348,RL,2022.2.5,60.085212847630295,
37,49,44,48,0,77,77,77,,,,,,,,,,,None,492.3142485000026,492.3142485000026,492.3142485000026,492.3142485000026,492.3142485000026,492.3142485000026,f,0.7892374000002746,493.1316037000033,493.1316037000033,493.1316037000033,493.1316037000033,493.1316037000033,493.1316037000033,493.41444180000326,494.56439140000293,494.56439140000293,494.56439140000293,494.56439140000293,494.56439140000293,494.56439140000293,494.5480318000009,494.56439140000293,494.56439140000293,494.56439140000293,494.56439140000293,494.56439140000293,494.56439140000293,494.56439140000293,495.99568510000245,495.99568510000245,495.99568510000245,495.99568510000245,495.99568510000245,495.99568510000245,495.99568510000245,48,49,37,44,48,70,495.99568510000245,497.6302538000018,,,,,,,,,,,,,,,,,,,,３１２,f,１９,2023-05-18_16h18.34.348,RL,2022.2.5,60.085212847630295,
30,41,37,60,0,78,78,78,,,,,,,,,,,None,497.6302538000018,497.6302538000018,497.6302538000018,497.6302538000018,497.6302538000018,497.6302538000018,j,0.510928600000625,498.1637776000025,498.1637776000025,498.1637776000025,498.1637776000025,498.1637776000025,498.1637776000025,498.44744560000254,499.98013530000026,499.98013530000026,499.98013530000026,499.98013530000026,499.98013530000026,499.98013530000026,499.9631733000024,499.98013530000026,499.98013530000026,499.98013530000026,499.98013530000026,499.98013530000026,499.98013530000026,499.98013530000026,501.7949249000012,501.7949249000012,501.7949249000012,501.7949249000012,501.7949249000012,501.7949249000012,501.7949249000012,60,41,30,37,37,70,501.7949249000012,503.31263899999976,,,,,,,,,,,,,,,,,,,,３１２,f,１９,2023-05-18_16h18.34.348,RL,2022.2.5,60.085212847630295,
29,44,41,53,0,79,79,79,,,,,,,,,,,None,503.31263899999976,503.31263899999976,503.31263899999976,503.31263899999976,503.31263899999976,503.31263899999976,f,0.6360047999987728,503.98715230000016,503.98715230000016,503.98715230000016,503.98715230000016,503.98715230000016,503.98715230000016,504.26266469999973,505.7122732000025,505.7122732000025,505.7122732000025,505.7122732000025,505.7122732000025,505.7122732000025,505.6790697000033,505.7122732000025,505.7122732000025,505.7122732000025,505.7122732000025,505.7122732000025,505.7122732000025,505.7122732000025,507.42668590000176,507.42668590000176,507.42668590000176,507.42668590000176,507.42668590000176,507.42668590000176,507.42668590000176,53,44,29,41,53,70,507.42668590000176,509.2117055000017,,,,,,,,,,,,,,,,,,,,３１２,f,１９,2023-05-18_16h18.34.348,RL,2022.2.5,60.085212847630295,
26,44,46,57,0,80,80,80,,,,,,,,,,,None,509.2117055000017,509.2117055000017,509.2117055000017,509.2117055000017,509.2117055000017,509.2117055000017,f,1.0525355999998283,510.2978976000013,510.2978976000013,510.2978976000013,510.2978976000013,510.2978976000013,510.2978976000013,510.59485450000284,511.7446036000001,511.7446036000001,511.7446036000001,511.7446036000001,511.7446036000001,511.7446036000001,511.7282437000031,511.7446036000001,511.7446036000001,511.7446036000001,511.7446036000001,511.7446036000001,511.7446036000001,511.7446036000001,513.1760181999998,513.1760181999998,513.1760181999998,513.1760181999998,513.1760181999998,513.1760181999998,513.1760181999998,57,44,26,46,57,70,513.1760181999998,514.8437236999998,,,,,,,,,,,,,,,,,,,,３１２,f,１９,2023-05-18_16h18.34.348,RL,2022.2.5,60.085212847630295,
34,48,40,58,0,81,81,81,,,,,,,,,,,None,514.8437236999998,514.8437236999998,514.8437236999998,514.8437236999998,514.8437236999998,514.8437236999998,i,0.49738929999875836,515.3658403000009,515.3658403000009,515.3658403000009,515.3658403000009,515.3658403000009,515.3658403000009,515.6441735000008,516.9437152999999,516.9437152999999,516.9437152999999,516.9437152999999,516.9437152999999,516.9437152999999,516.9273070000017,516.9437152999999,516.9437152999999,516.9437152999999,516.9437152999999,516.9437152999999,516.9437152999999,516.9437152999999,518.5254447000007,518.5254447000007,518.5254447000007,518.5254447000007,518.5254447000007,518.5254447000007,518.5254447000007,58,48,34,40,34,70,518.5254447000007,520.1767790000013,,,,,,,,,,,,,,,,,,,,３１２,f,１９,2023-05-18_16h18.34.348,RL,2022.2.5,60.085212847630295,
37,53,44,49,0,82,82,82,,,,,,,,,,,None,520.1767790000013,520.1767790000013,520.1767790000013,520.1767790000013,520.1767790000013,520.1767790000013,f,0.3116053000012471,520.5101582000025,520.5101582000025,520.5101582000025,520.5101582000025,520.5101582000025,520.5101582000025,520.7931310000022,521.7926782000031,521.7926782000031,521.7926782000031,521.7926782000031,521.7926782000031,521.7926782000031,521.7760264999997,521.7926782000031,521.7926782000031,521.7926782000031,521.7926782000031,521.7926782000031,521.7926782000031,521.7926782000031,523.0742252000018,523.0742252000018,523.0742252000018,523.0742252000018,523.0742252000018,523.0742252000018,523.0742252000018,49,53,37,44,49,70,523.0742252000018,524.8255107000005,,,,,,,,,,,,,,,,,,,,３１２,f,１９,2023-05-18_16h18.34.348,RL,2022.2.5,60.085212847630295,
41,50,44,56,0,83,83,83,,,,,,,,,,,None,524.8255107000005,524.8255107000005,524.8255107000005,524.8255107000005,524.8255107000005,524.8255107000005,r,0.4642381000012392,525.3110309000003,525.3110309000003,525.3110309000003,525.3110309000003,525.3110309000003,525.3110309000003,525.6088453000011,527.2417727000029,527.2417727000029,527.2417727000029,527.2417727000029,527.2417727000029,527.2417727000029,527.2417727000029,527.2417727000029,527.2417727000029,527.2417727000029,527.2417727000029,527.2417727000029,527.2417727000029,527.2417727000029,529.1733875000027,529.1733875000027,529.1733875000027,529.1733875000027,529.1733875000027,529.1733875000027,529.1733875000027,56,50,41,44,50,70,529.1733875000027,530.9910227,,,,,,,,,,,,,,,,,,,,３１２,f,１９,2023-05-18_16h18.34.348,RL,2022.2.5,60.085212847630295,
31,58,43,63,0,84,84,84,,,,,,,,,,,None,530.9910227,530.9910227,530.9910227,530.9910227,530.9910227,530.9910227,f,0.21629849999953876,531.2246126000027,531.2246126000027,531.2246126000027,531.2246126000027,531.2246126000027,531.2246126000027,531.5077404000003,532.5577021000026,532.5577021000026,532.5577021000026,532.5577021000026,532.5577021000026,532.5577021000026,532.5410233000002,532.5577021000026,532.5577021000026,532.5577021000026,532.5577021000026,532.5577021000026,532.5577021000026,532.5577021000026,533.8892633000032,533.8892633000032,533.8892633000032,533.8892633000032,533.8892633000032,533.8892633000032,533.8892633000032,63,58,31,43,63,70,533.8892633000032,535.8236255000011,,,,,,,,,,,,,,,,,,,,３１２,f,１９,2023-05-18_16h18.34.348,RL,2022.2.5,60.085212847630295,
34,57,39,58,0,85,85,85,,,,,,,,,,,None,535.8236255000011,535.8236255000011,535.8236255000011,535.8236255000011,535.8236255000011,535.8236255000011,f,0.40757360000134213,536.257156300002,536.257156300002,536.257156300002,536.257156300002,536.257156300002,536.257156300002,536.5405265000009,538.3901956000009,538.3901956000009,538.3901956000009,538.3901956000009,538.3901956000009,538.3901956000009,538.3737749000029,538.3901956000009,538.3901956000009,538.3901956000009,538.3901956000009,538.3901956000009,538.3901956000009,538.3901956000009,540.5214282000015,540.5214282000015,540.5214282000015,540.5214282000015,540.5214282000015,540.5214282000015,540.5214282000015,58,57,34,39,58,70,540.5214282000015,542.2890367,,,,,,,,,,,,,,,,,,,,３１２,f,１９,2023-05-18_16h18.34.348,RL,2022.2.5,60.085212847630295,
26,58,47,66,0,86,86,86,,,,,,,,,,,None,542.2890367,542.2890367,542.2890367,542.2890367,542.2890367,542.2890367,r,0.2489415000018198,542.5562219000021,542.5562219000021,542.5562219000021,542.5562219000021,542.5562219000021,542.5562219000021,542.8389989000025,543.9893061000002,543.9893061000002,543.9893061000002,543.9893061000002,543.9893061000002,543.9893061000002,543.9725598000005,543.9893061000002,543.9893061000002,543.9893061000002,543.9893061000002,543.9893061000002,543.9893061000002,543.9893061000002,545.4208402000004,545.4208402000004,545.4208402000004,545.4208402000004,545.4208402000004,545.4208402000004,545.4208402000004,66,58,26,47,58,70,545.4208402000004,547.2884365000027,,,,,,,,,,,,,,,,,,,,３１２,f,１９,2023-05-18_16h18.34.348,RL,2022.2.5,60.085212847630295,
35,58,44,71,0,87,87,87,,,,,,,,,,,None,547.2884365000027,547.2884365000027,547.2884365000027,547.2884365000027,547.2884365000027,547.2884365000027,r,0.22742450000077952,547.5387441000021,547.5387441000021,547.5387441000021,547.5387441000021,547.5387441000021,547.5387441000021,547.8219209000017,549.2383827000012,549.2383827000012,549.2383827000012,549.2383827000012,549.2383827000012,549.2383827000012,549.2219038000003,549.2383827000012,549.2383827000012,549.2383827000012,549.2383827000012,549.2383827000012,549.2383827000012,549.2383827000012,550.9362149000008,550.9362149000008,550.9362149000008,550.9362149000008,550.9362149000008,550.9362149000008,550.9362149000008,71,58,35,44,58,70,550.9362149000008,552.7207011999999,,,,,,,,,,,,,,,,,,,,３１２,f,１９,2023-05-18_16h18.34.348,RL,2022.2.5,60.085212847630295,
31,63,42,63,0,88,88,88,,,,,,,,,,,None,552.7207011999999,552.7207011999999,552.7207011999999,552.7207011999999,552.7207011999999,552.7207011999999,r,0.13686479999887524,552.8877939000013,552.8877939000013,552.8877939000013,552.8877939000013,552.8877939000013,552.8877939000013,553.171178200002,554.7539416,554.7539416,554.7539416,554.7539416,554.7539416,554.7539416,554.7374049999999,554.7539416,554.7539416,554.7539416,554.7539416,554.7539416,554.7539416,554.7539416,556.6186737000025,556.6186737000025,556.6186737000025,556.6186737000025,556.6186737000025,556.6186737000025,556.6186737000025,63,63,31,42,63,70,556.6186737000025,558.4862740000026,,,,,,,,,,,,,,,,,,,,３１２,f,１９,2023-05-18_16h18.34.348,RL,2022.2.5,60.085212847630295,
33,63,42,71,0,89,89,89,,,,,,,,,,,None,558.4862740000026,558.4862740000026,558.4862740000026,558.4862740000026,558.4862740000026,558.4862740000026,r,0.19102310000016587,558.7046203999998,558.7046203999998,558.7046203999998,558.7046203999998,558.7046203999998,558.7046203999998,558.9865691000014,560.2361487000016,560.2361487000016,560.2361487000016,560.2361487000016,560.2361487000016,560.2361487000016,560.2195412000001,560.2361487000016,560.2361487000016,560.2361487000016,560.2361487000016,560.2361487000016,560.2361487000016,560.2361487000016,561.7677786000022,561.7677786000022,561.7677786000022,561.7677786000022,561.7677786000022,561.7677786000022,561.7677786000022,71,63,33,42,63,70,561.7677786000022,563.469054600002,,,,,,,,,,,,,,,,,,,,３１２,f,１９,2023-05-18_16h18.34.348,RL,2022.2.5,60.085212847630295,
39,69,41,70,0,90,90,90,,,,,,,,,,,None,563.469054600002,563.469054600002,563.469054600002,563.469054600002,563.469054600002,563.469054600002,r,0.5620127000001958,564.0550029000005,564.0550029000005,564.0550029000005,564.0550029000005,564.0550029000005,564.0550029000005,564.3354779000001,565.2187578000012,565.2187578000012,565.2187578000012,565.2187578000012,565.2187578000012,565.2187578000012,565.202454600003,565.2187578000012,565.2187578000012,565.2187578000012,565.2187578000012,565.2187578000012,565.2187578000012,565.2187578000012,566.3838165000016,566.3838165000016,566.3838165000016,566.3838165000016,566.3838165000016,566.3838165000016,566.3838165000016,70,69,39,41,69,70,566.3838165000016,567.9344913000023,,,,,,,,,,,,,,,,,,,,３１２,f,１９,2023-05-18_16h18.34.348,RL,2022.2.5,60.085212847630295,
30,60,42,66,0,91,91,91,,,,,,,,,,,None,567.9344913000023,567.9344913000023,567.9344913000023,567.9344913000023,567.9344913000023,567.9344913000023,r,0.9554008999984944,568.9199542000024,568.9199542000024,568.9199542000024,568.9199542000024,568.9199542000024,568.9199542000024,569.2015252000019,571.0012464000029,571.0012464000029,571.0012464000029,571.0012464000029,571.0012464000029,571.0012464000029,570.9843160000019,571.0012464000029,571.0012464000029,571.0012464000029,571.0012464000029,571.0012464000029,571.0012464000029,571.0012464000029,573.0827086000027,573.0827086000027,573.0827086000027,573.0827086000027,573.0827086000027,573.0827086000027,573.0827086000027,66,60,30,42,60,70,573.0827086000027,574.8665811999999,,,,,,,,,,,,,,,,,,,,３１２,f,１９,2023-05-18_16h18.34.348,RL,2022.2.5,60.085212847630295,
36,52,38,69,0,92,92,92,,,,,,,,,,,None,574.8665811999999,574.8665811999999,574.8665811999999,574.8665811999999,574.8665811999999,574.8665811999999,f,0.4532502000001841,575.3537322000011,575.3537322000011,575.3537322000011,575.3537322000011,575.3537322000011,575.3537322000011,575.6337480000002,577.2168498000028,577.2168498000028,577.2168498000028,577.2168498000028,577.2168498000028,577.2168498000028,577.2004523000032,577.2168498000028,577.2168498000028,577.2168498000028,577.2168498000028,577.2168498000028,577.2168498000028,577.2168498000028,579.0814893000024,579.0814893000024,579.0814893000024,579.0814893000024,579.0814893000024,579.0814893000024,579.0814893000024,69,52,36,38,69,70,579.0814893000024,580.8659323000029,,,,,,,,,,,,,,,,,,,,３１２,f,１９,2023-05-18_16h18.34.348,RL,2022.2.5,60.085212847630295,
30,71,40,69,0,93,93,93,,,,,,,,,,,None,580.8659323000029,580.8659323000029,580.8659323000029,580.8659323000029,580.8659323000029,580.8659323000029,j,0.5793560999991314,581.4686256000023,581.4686256000023,581.4686256000023,581.4686256000023,581.4686256000023,581.4686256000023,581.766295100002,583.1487263000017,583.1487263000017,583.1487263000017,583.1487263000017,583.1487263000017,583.1487263000017,583.1487263000017,583.1487263000017,583.1487263000017,583.1487263000017,583.1487263000017,583.1487263000017,583.1487263000017,583.1487263000017,584.8302779000005,584.8302779000005,584.8302779000005,584.8302779000005,584.8302779000005,584.8302779000005,584.8302779000005,69,71,30,40,40,70,584.8302779000005,586.4312900000004,,,,,,,,,,,,,,,,,,,,３１２,f,１９,2023-05-18_16h18.34.348,RL,2022.2.5,60.085212847630295,
35,55,35,63,0,94,94,94,,,,,,,,,,,None,586.4312900000004,586.4312900000004,586.4312900000004,586.4312900000004,586.4312900000004,586.4312900000004,i,0.165709799999604,586.6151406000026,586.6151406000026,586.6151406000026,586.6151406000026,586.6151406000026,586.6151406000026,586.8981660999998,588.797886700002,588.797886700002,588.797886700002,588.797886700002,588.797886700002,588.797886700002,588.7813983000015,588.797886700002,588.797886700002,588.797886700002,588.797886700002,588.797886700002,588.797886700002,588.797886700002,590.9794063000008,590.9794063000008,590.9794063000008,590.9794063000008,590.9794063000008,590.9794063000008,590.9794063000008,63,55,35,35,35,70,590.9794063000008,592.6636383000005,,,,,,,,,,,,,,,,,,,,３１２,f,１９,2023-05-18_16h18.34.348,RL,2022.2.5,60.085212847630295,
37,60,34,63,0,95,95,95,,,,,,,,,,,None,592.6636383000005,592.6636383000005,592.6636383000005,592.6636383000005,592.6636383000005,592.6636383000005,f,0.24026640000010957,592.9323246000022,592.9323246000022,592.9323246000022,592.9323246000022,592.9323246000022,592.9323246000022,593.2309689000031,594.7969846000015,594.7969846000015,594.7969846000015,594.7969846000015,594.7969846000015,594.7969846000015,594.7969846000015,594.7969846000015,594.7969846000015,594.7969846000015,594.7969846000015,594.7969846000015,594.7969846000015,594.7969846000015,596.6620868000027,596.6620868000027,596.6620868000027,596.6620868000027,596.6620868000027,596.6620868000027,596.6620868000027,63,60,37,34,63,70,596.6620868000027,598.5455825000026,,,,,,,,,,,,,,,,,,,,３１２,f,１９,2023-05-18_16h18.34.348,RL,2022.2.5,60.085212847630295,
29,61,45,67,0,96,96,96,,,,,,,,,,,None,598.5455825000026,598.5455825000026,598.5455825000026,598.5455825000026,598.5455825000026,598.5455825000026,f,0.22919329999785987,598.7963092000027,598.7963092000027,598.7963092000027,598.7963092000027,598.7963092000027,598.7963092000027,599.0796085000002,599.9628865000013,599.9628865000013,599.9628865000013,599.9628865000013,599.9628865000013,599.9628865000013,599.9465587000013,599.9628865000013,599.9628865000013,599.9628865000013,599.9628865000013,599.9628865000013,599.9628865000013,599.9628865000013,601.1273297000007,601.1273297000007,601.1273297000007,601.1273297000007,601.1273297000007,601.1273297000007,601.1273297000007,67,61,29,45,67,70,601.1273297000007,602.778523500001,,,,,,,,,,,,,,,,,,,,３１２,f,１９,2023-05-18_16h18.34.348,RL,2022.2.5,60.085212847630295,
38,60,38,72,0,97,97,97,,,,,,,,,,,None,602.778523500001,602.778523500001,602.778523500001,602.778523500001,602.778523500001,602.778523500001,f,0.30409250000229804,603.1127607000017,603.1127607000017,603.1127607000017,603.1127607000017,603.1127607000017,603.1127607000017,603.3954235000019,604.5952632000008,604.5952632000008,604.5952632000008,604.5952632000008,604.5952632000008,604.5952632000008,604.5619141000025,604.5952632000008,604.5952632000008,604.5952632000008,604.5952632000008,604.5952632000008,604.5952632000008,604.5952632000008,606.0601850000021,606.0601850000021,606.0601850000021,606.0601850000021,606.0601850000021,606.0601850000021,606.0601850000021,72,60,38,38,72,70,606.0601850000021,607.6610906000024,,,,,,,,,,,,,,,,,,,,３１２,f,１９,2023-05-18_16h18.34.348,RL,2022.2.5,60.085212847630295,
42,60,48,58,0,98,98,98,,,,,,,,,,,None,607.6610906000024,607.6610906000024,607.6610906000024,607.6610906000024,607.6610906000024,607.6610906000024,f,0.3042786000005435,607.9981537000021,607.9981537000021,607.9981537000021,607.9981537000021,607.9981537000021,607.9981537000021,608.2948761000007,609.2444525999999,609.2444525999999,609.2444525999999,609.2444525999999,609.2444525999999,609.2444525999999,609.2279918000022,609.2444525999999,609.2444525999999,609.2444525999999,609.2444525999999,609.2444525999999,609.2444525999999,609.2444525999999,610.4757293000002,610.4757293000002,610.4757293000002,610.4757293000002,610.4757293000002,610.4757293000002,610.4757293000002,58,60,42,48,58,70,610.4757293000002,612.4101039000016,,,,,,,,,,,,,,,,,,,,３１２,f,１９,2023-05-18_16h18.34.348,RL,2022.2.5,60.085212847630295,
48,60,44,60,0,99,99,99,,,,,,,,,,,None,612.4101039000016,612.4101039000016,612.4101039000016,612.4101039000016,612.4101039000016,612.4101039000016,r,0.25538049999886425,612.6954048000007,612.6954048000007,612.6954048000007,612.6954048000007,612.6954048000007,612.6954048000007,612.9941494000013,614.9436208000006,614.9436208000006,614.9436208000006,614.9436208000006,614.9436208000006,614.9436208000006,614.9436208000006,614.9436208000006,614.9436208000006,614.9436208000006,614.9436208000006,614.9436208000006,614.9436208000006,614.9436208000006,617.1913258000022,617.1913258000022,617.1913258000022,617.1913258000022,617.1913258000022,617.1913258000022,617.1913258000022,60,60,48,44,60,70,617.1913258000022,619.1756395000011,,,,,,,,,,,,,,,,,,,,３１２,f,１９,2023-05-18_16h18.34.348,RL,2022.2.5,60.085212847630295,
45,50,45,59,0,100,100,100,,,,,,,,,,,None,619.1756395000011,619.1756395000011,619.1756395000011,619.1756395000011,619.1756395000011,619.1756395000011,f,0.24512479999975767,619.4442073000027,619.4442073000027,619.4442073000027,619.4442073000027,619.4442073000027,619.4442073000027,619.7258581000024,620.9593363000022,620.9593363000022,620.9593363000022,620.9593363000022,620.9593363000022,620.9593363000022,620.9424894000003,620.9593363000022,620.9593363000022,620.9593363000022,620.9593363000022,620.9593363000022,620.9593363000022,620.9593363000022,622.4737706000014,622.4737706000014,622.4737706000014,622.4737706000014,622.4737706000014,622.4737706000014,622.4737706000014,59,50,45,45,59,70,622.4737706000014,624.4749219000005,,,,,,,,,,,,,,,,,,,,３１２,f,１９,2023-05-18_16h18.34.348,RL,2022.2.5,60.085212847630295,
43,56,50,63,0,101,101,101,,,,,,,,,,,None,624.4749219000005,624.4749219000005,624.4749219000005,624.4749219000005,624.4749219000005,624.4749219000005,r,0.24572249999982887,624.7425151000025,624.7425151000025,624.7425151000025,624.7425151000025,624.7425151000025,624.7425151000025,625.0416291000001,626.691479000001,626.691479000001,626.691479000001,626.691479000001,626.691479000001,626.691479000001,626.691479000001,626.691479000001,626.691479000001,626.691479000001,626.691479000001,626.691479000001,626.691479000001,626.691479000001,628.6391500999998,628.6391500999998,628.6391500999998,628.6391500999998,628.6391500999998,628.6391500999998,628.6391500999998,63,56,43,50,56,70,628.6391500999998,630.306846200001,,,,,,,,,,,,,,,,,,,,３１２,f,１９,2023-05-18_16h18.34.348,RL,2022.2.5,60.085212847630295,
40,61,37,65,0,102,102,102,,,,,,,,,,,None,630.306846200001,630.306846200001,630.306846200001,630.306846200001,630.306846200001,630.306846200001,f,0.3176184999974794,630.6618866000026,630.6618866000026,630.6618866000026,630.6618866000026,630.6618866000026,630.6618866000026,630.9410448000017,632.2568446000005,632.2568446000005,632.2568446000005,632.2568446000005,632.2568446000005,632.2568446000005,632.2404031000005,632.2568446000005,632.2568446000005,632.2568446000005,632.2568446000005,632.2568446000005,632.2568446000005,632.2568446000005,633.8552006000027,633.8552006000027,633.8552006000027,633.8552006000027,633.8552006000027,633.8552006000027,633.8552006000027,65,61,40,37,65,70,633.8552006000027,635.8564032000031,,,,,,,,,,,,,,,,,,,,３１２,f,１９,2023-05-18_16h18.34.348,RL,2022.2.5,60.085212847630295,
42,58,48,67,0,103,103,103,,,,,,,,,,,None,635.8564032000031,635.8564032000031,635.8564032000031,635.8564032000031,635.8564032000031,635.8564032000031,i,0.12143009999999776,636.0105445000008,636.0105445000008,636.0105445000008,636.0105445000008,636.0105445000008,636.0105445000008,636.2898986,638.1227060000019,638.1227060000019,638.1227060000019,638.1227060000019,638.1227060000019,638.1227060000019,638.1061146000029,638.1227060000019,638.1227060000019,638.1227060000019,638.1227060000019,638.1227060000019,638.1227060000019,638.1227060000019,640.237356900001,640.237356900001,640.237356900001,640.237356900001,640.237356900001,640.237356900001,640.237356900001,67,58,42,48,42,70,640.237356900001,641.788249600002,,,,,,,,,,,,,,,,,,,,３１２,f,１９,2023-05-18_16h18.34.348,RL,2022.2.5,60.085212847630295,
48,53,42,56,0,104,104,104,,,,,,,,,,,None,641.788249600002,641.788249600002,641.788249600002,641.788249600002,641.788249600002,641.788249600002,f,0.15832050000244635,641.9749796000033,641.9749796000033,641.9749796000033,641.9749796000033,641.9749796000033,641.9749796000033,642.2557529000005,643.8049775,643.8049775,643.8049775,643.8049775,643.8049775,643.8049775,643.7885696000012,643.8049775,643.8049775,643.8049775,643.8049775,643.8049775,643.8049775,643.8049775,645.6364967000009,645.6364967000009,645.6364967000009,645.6364967000009,645.6364967000009,645.6364967000009,645.6364967000009,56,53,48,42,56,70,645.6364967000009,647.537051700001,,,,,,,,,,,,,,,,,,,,３１２,f,１９,2023-05-18_16h18.34.348,RL,2022.2.5,60.085212847630295,
40,45,45,57,0,105,105,105,,,,,,,,,,,None,647.537051700001,647.537051700001,647.537051700001,647.537051700001,647.537051700001,647.537051700001,r,0.26522389999809093,647.8211998000006,647.8211998000006,647.8211998000006,647.8211998000006,647.8211998000006,647.8211998000006,648.1049808000025,649.7705052000019,649.7705052000019,649.7705052000019,649.7705052000019,649.7705052000019,649.7705052000019,649.7539837000004,649.7705052000019,649.7705052000019,649.7705052000019,649.7705052000019,649.7705052000019,649.7705052000019,649.7705052000019,651.7183378000009,651.7183378000009,651.7183378000009,651.7183378000009,651.7183378000009,651.7183378000009,651.7183378000009,57,45,40,45,45,70,651.7183378000009,653.636250800002,,,,,,,,,,,,,,,,,,,,３１２,f,１９,2023-05-18_16h18.34.348,RL,2022.2.5,60.085212847630295,
39,55,45,64,0,106,106,106,,,,,,,,,,,None,653.636250800002,653.636250800002,653.636250800002,653.636250800002,653.636250800002,653.636250800002,f,0.25205300000015995,653.9239823000025,653.9239823000025,653.9239823000025,653.9239823000025,653.9239823000025,653.9239823000025,654.2205918,655.5699939000006,655.5699939000006,655.5699939000006,655.5699939000006,655.5699939000006,655.5699939000006,655.5699939000006,655.5699939000006,655.5699939000006,655.5699939000006,655.5699939000006,655.5699939000006,655.5699939000006,655.5699939000006,657.2178985000028,657.2178985000028,657.2178985000028,657.2178985000028,657.2178985000028,657.2178985000028,657.2178985000028,64,55,39,45,64,70,657.2178985000028,658.8023672000018,,,,,,,,,,,,,,,,,,,,３１２,f,１９,2023-05-18_16h18.34.348,RL,2022.2.5,60.085212847630295,
34,55,45,68,0,107,107,107,,,,,,,,,,,None,658.8023672000018,658.8023672000018,658.8023672000018,658.8023672000018,658.8023672000018,658.8023672000018,f,0.31071390000215615,659.1358729000021,659.1358729000021,659.1358729000021,659.1358729000021,659.1358729000021,659.1358729000021,659.4189508000018,660.8188671000025,660.8188671000025,660.8188671000025,660.8188671000025,660.8188671000025,660.8188671000025,660.8025288000026,660.8188671000025,660.8188671000025,660.8188671000025,660.8188671000025,660.8188671000025,660.8188671000025,660.8188671000025,662.5001119000008,662.5001119000008,662.5001119000008,662.5001119000008,662.5001119000008,662.5001119000008,662.5001119000008,68,55,34,45,68,70,662.5001119000008,664.318385300001,,,,,,,,,,,,,,,,,,,,３１２,f,１９,2023-05-18_16h18.34.348,RL,2022.2.5,60.085212847630295,
36,52,38,61,0,108,108,108,,,,,,,,,,,None,664.318385300001,664.318385300001,664.318385300001,664.318385300001,664.318385300001,664.318385300001,f,0.31463850000000093,664.6516323000033,664.6516323000033,664.6516323000033,664.6516323000033,664.6516323000033,664.6516323000033,664.9351701000014,666.4179375000022,666.4179375000022,666.4179375000022,666.4179375000022,666.4179375000022,666.4179375000022,666.4013742000025,666.4179375000022,666.4179375000022,666.4179375000022,666.4179375000022,666.4179375000022,666.4179375000022,666.4179375000022,668.1826493000008,668.1826493000008,668.1826493000008,668.1826493000008,668.1826493000008,668.1826493000008,668.1826493000008,61,52,36,38,61,70,668.1826493000008,669.9503887000028,,,,,,,,,,,,,,,,,,,,３１２,f,１９,2023-05-18_16h18.34.348,RL,2022.2.5,60.085212847630295,
38,60,44,60,0,109,109,109,,,,,,,,,,,None,669.9503887000028,669.9503887000028,669.9503887000028,669.9503887000028,669.9503887000028,669.9503887000028,f,0.3191657999996096,670.3026022000013,670.3026022000013,670.3026022000013,670.3026022000013,670.3026022000013,670.3026022000013,670.5837592000025,671.700303200003,671.700303200003,671.700303200003,671.700303200003,671.700303200003,671.700303200003,671.6838395000013,671.700303200003,671.700303200003,671.700303200003,671.700303200003,671.700303200003,671.700303200003,671.700303200003,673.0988162000031,673.0988162000031,673.0988162000031,673.0988162000031,673.0988162000031,673.0988162000031,673.0988162000031,60,60,38,44,60,70,673.0988162000031,674.7995489000023,,,,,,,,,,,,,,,,,,,,３１２,f,１９,2023-05-18_16h18.34.348,RL,2022.2.5,60.085212847630295,
39,60,52,65,0,110,110,110,,,,,,,,,,,None,674.7995489000023,674.7995489000023,674.7995489000023,674.7995489000023,674.7995489000023,674.7995489000023,r,0.555127800002083,675.3831304000014,675.3831304000014,675.3831304000014,675.3831304000014,675.3831304000014,675.3831304000014,675.6665791000014,677.4664144000017,677.4664144000017,677.4664144000017,677.4664144000017,677.4664144000017,677.4664144000017,677.4496282,677.4664144000017,677.4664144000017,677.4664144000017,677.4664144000017,677.4664144000017,677.4664144000017,677.4664144000017,679.5470550999999,679.5470550999999,679.5470550999999,679.5470550999999,679.5470550999999,679.5470550999999,679.5470550999999,65,60,39,52,60,70,679.5470550999999,681.2316979000025,,,,,,,,,,,,,,,,,,,,３１２,f,１９,2023-05-18_16h18.34.348,RL,2022.2.5,60.085212847630295,
37,52,50,55,0,111,111,111,,,,,,,,,,,None,681.2316979000025,681.2316979000025,681.2316979000025,681.2316979000025,681.2316979000025,681.2316979000025,i,0.290944500000478,681.5488667999998,681.5488667999998,681.5488667999998,681.5488667999998,681.5488667999998,681.5488667999998,681.8318558999999,682.6814340000019,682.6814340000019,682.6814340000019,682.6814340000019,682.6814340000019,682.6814340000019,682.6649493000004,682.6814340000019,682.6814340000019,682.6814340000019,682.6814340000019,682.6814340000019,682.6814340000019,682.6814340000019,683.8132285000029,683.8132285000029,683.8132285000029,683.8132285000029,683.8132285000029,683.8132285000029,683.8132285000029,55,52,37,50,37,70,683.8132285000029,685.397815100001,,,,,,,,,,,,,,,,,,,,３１２,f,１９,2023-05-18_16h18.34.348,RL,2022.2.5,60.085212847630295,
41,54,52,61,0,112,112,112,,,,,,,,,,,None,685.397815100001,685.397815100001,685.397815100001,685.397815100001,685.397815100001,685.397815100001,r,0.4783824000005552,685.8979386999999,685.8979386999999,685.8979386999999,685.8979386999999,685.8979386999999,685.8979386999999,686.1809494000008,687.5639101000015,687.5639101000015,687.5639101000015,687.5639101000015,687.5639101000015,687.5639101000015,687.5476952999998,687.5639101000015,687.5639101000015,687.5639101000015,687.5639101000015,687.5639101000015,687.5639101000015,687.5639101000015,689.2288799000016,689.2288799000016,689.2288799000016,689.2288799000016,689.2288799000016,689.2288799000016,689.2288799000016,61,54,41,52,54,70,689.2288799000016,690.8967213000033,,,,,,,,,,,,,,,,,,,,３１２,f,１９,2023-05-18_16h18.34.348,RL,2022.2.5,60.085212847630295,
41,51,50,60,0,113,113,113,,,,,,,,,,,None,690.8967213000033,690.8967213000033,690.8967213000033,690.8967213000033,690.8967213000033,690.8967213000033,f,0.2480085000024701,691.1638375000002,691.1638375000002,691.1638375000002,691.1638375000002,691.1638375000002,691.1638375000002,691.4469637000002,692.713333300002,692.713333300002,692.713333300002,692.713333300002,692.713333300002,692.713333300002,692.6965863000005,692.713333300002,692.713333300002,692.713333300002,692.713333300002,692.713333300002,692.713333300002,692.713333300002,694.2613732999998,694.2613732999998,694.2613732999998,694.2613732999998,694.2613732999998,694.2613732999998,694.2613732999998,60,51,41,50,60,70,694.2613732999998,695.9622630000013,,,,,,,,,,,,,,,,,,,,３１２,f,１９,2023-05-18_16h18.34.348,RL,2022.2.5,60.085212847630295,
38,54,56,40,0,114,114,114,,,,,,,,,,,None,695.9622630000013,695.9622630000013,695.9622630000013,695.9622630000013,695.9622630000013,695.9622630000013,f,0.26286400000026333,696.2469449000018,696.2469449000018,696.2469449000018,696.2469449000018,696.2469449000018,696.2469449000018,696.5458798,698.2454362000026,698.2454362000026,698.2454362000026,698.2454362000026,698.2454362000026,698.2454362000026,698.2454362000026,698.2454362000026,698.2454362000026,698.2454362000026,698.2454362000026,698.2454362000026,698.2454362000026,698.2454362000026,700.2437473000027,700.2437473000027,700.2437473000027,700.2437473000027,700.2437473000027,700.2437473000027,700.2437473000027,40,54,38,56,40,70,700.2437473000027,701.9778221000015,,,,,,,,,,,,,,,,,,,,３１２,f,１９,2023-05-18_16h18.34.348,RL,2022.2.5,60.085212847630295,
34,49,60,48,0,115,115,115,,,,,,,,,,,None,701.9778221000015,701.9778221000015,701.9778221000015,701.9778221000015,701.9778221000015,701.9778221000015,f,0.4155854000018735,702.4121732000021,702.4121732000021,702.4121732000021,702.4121732000021,702.4121732000021,702.4121732000021,702.7119756000029,703.8444358000015,703.8444358000015,703.8444358000015,703.8444358000015,703.8444358000015,703.8444358000015,703.8444358000015,703.8444358000015,703.8444358000015,703.8444358000015,703.8444358000015,703.8444358000015,703.8444358000015,703.8444358000015,705.2759401000003,705.2759401000003,705.2759401000003,705.2759401000003,705.2759401000003,705.2759401000003,705.2759401000003,48,49,34,60,48,70,705.2759401000003,707.1937693,,,,,,,,,,,,,,,,,,,,３１２,f,１９,2023-05-18_16h18.34.348,RL,2022.2.5,60.085212847630295,
45,57,57,52,0,116,116,116,,,,,,,,,,,None,707.1937693,707.1937693,707.1937693,707.1937693,707.1937693,707.1937693,r,0.3041248000008636,707.5282882000029,707.5282882000029,707.5282882000029,707.5282882000029,707.5282882000029,707.5282882000029,707.8270698000015,709.2601212000009,709.2601212000009,709.2601212000009,709.2601212000009,709.2601212000009,709.2601212000009,709.2601212000009,709.2601212000009,709.2601212000009,709.2601212000009,709.2601212000009,709.2601212000009,709.2601212000009,709.2601212000009,710.9918879000033,710.9918879000033,710.9918879000033,710.9918879000033,710.9918879000033,710.9918879000033,710.9918879000033,52,57,45,57,57,70,710.9918879000033,712.6426446000005,,,,,,,,,,,,,,,,,,,,３１２,f,１９,2023-05-18_16h18.34.348,RL,2022.2.5,60.085212847630295,
43,45,60,47,0,117,117,117,,,,,,,,,,,None,712.6426446000005,712.6426446000005,712.6426446000005,712.6426446000005,712.6426446000005,712.6426446000005,r,0.33342549999724724,713.0141810000023,713.0141810000023,713.0141810000023,713.0141810000023,713.0141810000023,713.0141810000023,713.2929482,714.7091591000026,714.7091591000026,714.7091591000026,714.7091591000026,714.7091591000026,714.7091591000026,714.6760299000016,714.7091591000026,714.7091591000026,714.7091591000026,714.7091591000026,714.7091591000026,714.7091591000026,714.7091591000026,716.3906908999998,716.3906908999998,716.3906908999998,716.3906908999998,716.3906908999998,716.3906908999998,716.3906908999998,47,45,43,60,45,70,716.3906908999998,718.3915483000019,,,,,,,,,,,,,,,,,,,,３１２,f,１９,2023-05-18_16h18.34.348,RL,2022.2.5,60.085212847630295,
50,53,56,40,0,118,118,118,,,,,,,,,,,None,718.3915483000019,718.3915483000019,718.3915483000019,718.3915483000019,718.3915483000019,718.3915483000019,f,0.2434328999988793,718.6589012000004,718.6589012000004,718.6589012000004,718.6589012000004,718.6589012000004,718.6589012000004,718.9422535000012,720.7415123000028,720.7415123000028,720.7415123000028,720.7415123000028,720.7415123000028,720.7415123000028,720.7248850000033,720.7415123000028,720.7415123000028,720.7415123000028,720.7415123000028,720.7415123000028,720.7415123000028,720.7415123000028,722.8228167000016,722.8228167000016,722.8228167000016,722.8228167000016,722.8228167000016,722.8228167000016,722.8228167000016,40,53,50,56,40,70,722.8228167000016,724.457885900003,,,,,,,,,,,,,,,,,,,,３１２,f,１９,2023-05-18_16h18.34.348,RL,2022.2.5,60.085212847630295,
46,58,58,39,0,119,119,119,,,,,,,,,,,None,724.457885900003,724.457885900003,724.457885900003,724.457885900003,724.457885900003,724.457885900003,i,0.30324540000219713,724.7952385999997,724.7952385999997,724.7952385999997,724.7952385999997,724.7952385999997,724.7952385999997,725.074432100002,726.1907035000004,726.1907035000004,726.1907035000004,726.1907035000004,726.1907035000004,726.1907035000004,726.1742604000028,726.1907035000004,726.1907035000004,726.1907035000004,726.1907035000004,726.1907035000004,726.1907035000004,726.1907035000004,727.5888741000017,727.5888741000017,727.5888741000017,727.5888741000017,727.5888741000017,727.5888741000017,727.5888741000017,39,58,46,58,46,70,727.5888741000017,729.2232868000028,,,,,,,,,,,,,,,,,,,,３１２,f,１９,2023-05-18_16h18.34.348,RL,2022.2.5,60.085212847630295,
46,52,64,36,0,120,120,120,,,,,,,,,,,None,729.2232868000028,729.2232868000028,729.2232868000028,729.2232868000028,729.2232868000028,729.2232868000028,j,0.3369961999997031,729.5904682,729.5904682,729.5904682,729.5904682,729.5904682,729.5904682,729.8732346000033,731.4729880000014,731.4729880000014,731.4729880000014,731.4729880000014,731.4729880000014,731.4729880000014,731.456616200001,731.4729880000014,731.4729880000014,731.4729880000014,731.4729880000014,731.4729880000014,731.4729880000014,731.4729880000014,733.3547920000019,733.3547920000019,733.3547920000019,733.3547920000019,733.3547920000019,733.3547920000019,733.3547920000019,36,52,46,64,64,70,733.3547920000019,735.2058380000017,,,,,,,,,,,,,,,,,,,,３１２,f,１９,2023-05-18_16h18.34.348,RL,2022.2.5,60.085212847630295,
