arm1,arm2,arm3,arm4,trials.thisRepN,trials.thisTrialN,trials.thisN,trials.thisIndex,instru_img1.started,instru_resp.started,instru_resp.keys,instru_resp.rt,image_2.started,text_2.started,image_2.stopped,text_2.stopped,fixbefore_2.started,fixbefore_2.stopped,rest_response.keys,red.started,green.started,yellow.started,blue.started,choose_bandit.started,Fixation.started,choose_bandit.keys,choose_bandit.rt,black.started,red_2.started,green_2.started,yellow_2.started,blue_2.started,fixation_2.started,docs.started,docs.stopped,black.stopped,red_2.stopped,green_2.stopped,yellow_2.stopped,blue_2.stopped,fixation_2.stopped,black_com.started,reward_sub.started,reward__sub.started,red_compare.started,green_com.started,yellow_com.started,blue_com.started,black_com.stopped,reward_sub.stopped,reward__sub.stopped,red_compare.stopped,green_com.stopped,yellow_com.stopped,blue_com.stopped,rewardred,rewardyellow,rewardblue,rewardgreen,subchoose,expectation,intertrialfix.started,intertrialfix.stopped,bigx.started,bigx.stopped,red.stopped,green.stopped,yellow.stopped,blue.stopped,choose_bandit.stopped,Fixation.stopped,rest_image.started,rest_response.started,rest_response.rt,image_expect_after.started,text_exp_after.started,image_expect_after.stopped,text_exp_after.stopped,image.started,key_resp.started,key_resp.keys,key_resp.rt,participant,Gender,Age,date,expName,psychopyVersion,frameRate,
,,,,,,,,16.06775850000122,16.06775850000122,space,7.7782842999986315,,,,,,,,,,,,,,,,,,,,,,,,,,,,,,,,,,,,,,,,,,,,,,,,,,,,,,,,,,,,,,,,,,,,,,,３１３,f,１８,2023-05-18_17h39.49.102,RL,2022.2.5,60.0228206763731,
28,28,47,74,0,0,0,0,,,,,23.86568289999923,23.86568289999923,28.865169900000183,28.865169900000183,28.865169900000183,29.866893599999457,None,29.866893599999457,29.866893599999457,29.866893599999457,29.866893599999457,29.866893599999457,29.866893599999457,r,0.4544611999990593,30.35534800000096,30.35534800000096,30.35534800000096,30.35534800000096,30.35534800000096,30.35534800000096,30.650676000001113,32.3817315999986,32.39910460000101,32.39910460000101,32.39910460000101,32.39910460000101,32.39910460000101,32.39910460000101,32.39910460000101,32.39910460000101,32.39910460000101,32.39910460000101,32.39910460000101,32.39910460000101,32.39910460000101,34.47570989999804,34.47570989999804,34.47570989999804,34.47570989999804,34.47570989999804,34.47570989999804,34.47570989999804,28,28,74,47,28,60,34.47570989999804,36.34886800000095,,,,,,,,,,,,,,,,,,,,３１３,f,１８,2023-05-18_17h39.49.102,RL,2022.2.5,60.0228206763731,
27,40,49,68,0,1,1,1,,,,,,,,,,,None,36.34886800000095,36.34886800000095,36.34886800000095,36.34886800000095,36.34886800000095,36.34886800000095,f,0.5356609000009485,36.921935599999415,36.921935599999415,36.921935599999415,36.921935599999415,36.921935599999415,36.921935599999415,37.199105699997745,38.68176859999949,38.71769719999793,38.71769719999793,38.71769719999793,38.71769719999793,38.71769719999793,38.71769719999793,38.71769719999793,38.71769719999793,38.71769719999793,38.71769719999793,38.71769719999793,38.71769719999793,38.71769719999793,40.51314939999793,40.51314939999793,40.51314939999793,40.51314939999793,40.51314939999793,40.51314939999793,40.51314939999793,40,27,68,49,40,60,40.51314939999793,42.197771600000124,,,,,,,,,,,,,,,,,,,,３１３,f,１８,2023-05-18_17h39.49.102,RL,2022.2.5,60.0228206763731,
34,31,51,74,0,2,2,2,,,,,,,,,,,None,42.197771600000124,42.197771600000124,42.197771600000124,42.197771600000124,42.197771600000124,42.197771600000124,f,0.6252597000020614,42.848464599999716,42.848464599999716,42.848464599999716,42.848464599999716,42.848464599999716,42.848464599999716,43.13099289999809,44.114093899999716,44.13085599999977,44.13085599999977,44.13085599999977,44.13085599999977,44.13085599999977,44.13085599999977,44.13085599999977,44.13085599999977,44.13085599999977,44.13085599999977,44.13085599999977,44.13085599999977,44.13085599999977,45.41247049999947,45.41247049999947,45.41247049999947,45.41247049999947,45.41247049999947,45.41247049999947,45.41247049999947,31,34,74,51,31,60,45.41247049999947,47.413502600000356,,,,,,,,,,,,,,,,,,,,３１３,f,１８,2023-05-18_17h39.49.102,RL,2022.2.5,60.0228206763731,
27,28,51,66,0,3,3,3,,,,,,,,,,,None,47.413502600000356,47.413502600000356,47.413502600000356,47.413502600000356,47.413502600000356,47.413502600000356,r,0.5058089000012842,47.94885380000051,47.94885380000051,47.94885380000051,47.94885380000051,47.94885380000051,47.94885380000051,48.24691569999777,49.57952260000093,49.57952260000093,49.57952260000093,49.57952260000093,49.57952260000093,49.57952260000093,49.57952260000093,49.57952260000093,49.57952260000093,49.57952260000093,49.57952260000093,49.57952260000093,49.57952260000093,49.57952260000093,51.211527799998294,51.211527799998294,51.211527799998294,51.211527799998294,51.211527799998294,51.211527799998294,51.211527799998294,28,27,66,51,27,60,51.211527799998294,52.962771300000895,,,,,,,,,,,,,,,,,,,,３１３,f,１８,2023-05-18_17h39.49.102,RL,2022.2.5,60.0228206763731,
26,34,50,71,0,4,4,4,,,,,,,,,,,None,52.962771300000895,52.962771300000895,52.962771300000895,52.962771300000895,52.962771300000895,52.962771300000895,j,0.4715747000009287,53.4626892999986,53.4626892999986,53.4626892999986,53.4626892999986,53.4626892999986,53.4626892999986,53.76237889999902,54.71230690000084,54.71230690000084,54.71230690000084,54.71230690000084,54.71230690000084,54.71230690000084,54.71230690000084,54.71230690000084,54.71230690000084,54.71230690000084,54.71230690000084,54.71230690000084,54.71230690000084,54.71230690000084,55.96022969999831,55.96022969999831,55.96022969999831,55.96022969999831,55.96022969999831,55.96022969999831,55.96022969999831,34,26,71,50,50,60,55.96022969999831,57.827924400000484,,,,,,,,,,,,,,,,,,,,３１３,f,１８,2023-05-18_17h39.49.102,RL,2022.2.5,60.0228206763731,
27,33,52,77,0,5,5,5,,,,,,,,,,,None,57.827924400000484,57.827924400000484,57.827924400000484,57.827924400000484,57.827924400000484,57.827924400000484,r,0.6148951000031957,58.4618616000007,58.4618616000007,58.4618616000007,58.4618616000007,58.4618616000007,58.4618616000007,58.76200980000067,60.161418100000446,60.161418100000446,60.161418100000446,60.161418100000446,60.161418100000446,60.161418100000446,60.161418100000446,60.161418100000446,60.161418100000446,60.161418100000446,60.161418100000446,60.161418100000446,60.161418100000446,60.161418100000446,61.859383300001355,61.859383300001355,61.859383300001355,61.859383300001355,61.859383300001355,61.859383300001355,61.859383300001355,33,27,77,52,27,60,61.859383300001355,63.3775358999992,,,,,,,,,,,,,,,,,,,,３１３,f,１８,2023-05-18_17h39.49.102,RL,2022.2.5,60.0228206763731,
32,38,55,68,0,6,6,6,,,,,,,,,,,None,63.3775358999992,63.3775358999992,63.3775358999992,63.3775358999992,63.3775358999992,63.3775358999992,i,0.45560740000291844,63.86204290000023,63.86204290000023,63.86204290000023,63.86204290000023,63.86204290000023,63.86204290000023,64.14436310000019,65.57723049999913,65.59351909999896,65.59351909999896,65.59351909999896,65.59351909999896,65.59351909999896,65.59351909999896,65.59351909999896,65.59351909999896,65.59351909999896,65.59351909999896,65.59351909999896,65.59351909999896,65.59351909999896,67.32557839999936,67.32557839999936,67.32557839999936,67.32557839999936,67.32557839999936,67.32557839999936,67.32557839999936,38,32,68,55,68,60,67.32557839999936,69.25984919999973,,,,,,,,,,,,,,,,,,,,３１３,f,１８,2023-05-18_17h39.49.102,RL,2022.2.5,60.0228206763731,
35,43,53,77,0,7,7,7,,,,,,,,,,,None,69.25984919999973,69.25984919999973,69.25984919999973,69.25984919999973,69.25984919999973,69.25984919999973,i,0.524241200000688,69.8117717999994,69.8117717999994,69.8117717999994,69.8117717999994,69.8117717999994,69.8117717999994,70.10989669999981,72.00937709999926,72.00937709999926,72.00937709999926,72.00937709999926,72.00937709999926,72.00937709999926,72.00937709999926,72.00937709999926,72.00937709999926,72.00937709999926,72.00937709999926,72.00937709999926,72.00937709999926,72.00937709999926,74.20732209999915,74.20732209999915,74.20732209999915,74.20732209999915,74.20732209999915,74.20732209999915,74.20732209999915,43,35,77,53,77,60,74.20732209999915,75.97537039999952,,,,,,,,,,,,,,,,,,,,３１３,f,１８,2023-05-18_17h39.49.102,RL,2022.2.5,60.0228206763731,
39,39,57,81,0,8,8,8,,,,,,,,,,,None,75.97537039999952,75.97537039999952,75.97537039999952,75.97537039999952,75.97537039999952,75.97537039999952,r,0.395697800002381,76.39351399999941,76.39351399999941,76.39351399999941,76.39351399999941,76.39351399999941,76.39351399999941,76.69193939999968,78.49136409999846,78.49136409999846,78.49136409999846,78.49136409999846,78.49136409999846,78.49136409999846,78.49136409999846,78.49136409999846,78.49136409999846,78.49136409999846,78.49136409999846,78.49136409999846,78.49136409999846,78.49136409999846,80.58973920000062,80.58973920000062,80.58973920000062,80.58973920000062,80.58973920000062,80.58973920000062,80.58973920000062,39,39,81,57,39,60,80.58973920000062,82.57416789999843,,,,,,,,,,,,,,,,,,,,３１３,f,１８,2023-05-18_17h39.49.102,RL,2022.2.5,60.0228206763731,
42,42,51,74,0,9,9,9,,,,,,,,,,,None,82.57416789999843,82.57416789999843,82.57416789999843,82.57416789999843,82.57416789999843,82.57416789999843,r,0.5926647000014782,83.19285989999844,83.19285989999844,83.19285989999844,83.19285989999844,83.19285989999844,83.19285989999844,83.49070089999805,84.75722870000027,84.75722870000027,84.75722870000027,84.75722870000027,84.75722870000027,84.75722870000027,84.75722870000027,84.75722870000027,84.75722870000027,84.75722870000027,84.75722870000027,84.75722870000027,84.75722870000027,84.75722870000027,86.3219027999985,86.3219027999985,86.3219027999985,86.3219027999985,86.3219027999985,86.3219027999985,86.3219027999985,42,42,74,51,42,60,86.3219027999985,88.05654890000005,,,,,,,,,,,,,,,,,,,,３１３,f,１８,2023-05-18_17h39.49.102,RL,2022.2.5,60.0228206763731,
41,48,47,68,0,10,10,10,,,,,,,,,,,None,88.05654890000005,88.05654890000005,88.05654890000005,88.05654890000005,88.05654890000005,88.05654890000005,j,0.628643899999588,88.70811820000017,88.70811820000017,88.70811820000017,88.70811820000017,88.70811820000017,88.70811820000017,89.00642119999975,90.78945440000098,90.78945440000098,90.78945440000098,90.78945440000098,90.78945440000098,90.78945440000098,90.78945440000098,90.78945440000098,90.78945440000098,90.78945440000098,90.78945440000098,90.78945440000098,90.78945440000098,90.78945440000098,92.87109699999928,92.87109699999928,92.87109699999928,92.87109699999928,92.87109699999928,92.87109699999928,92.87109699999928,48,41,68,47,47,60,92.87109699999928,94.53860480000003,,,,,,,,,,,,,,,,,,,,３１３,f,１８,2023-05-18_17h39.49.102,RL,2022.2.5,60.0228206763731,
40,45,47,65,0,11,11,11,,,,,,,,,,,None,94.53860480000003,94.53860480000003,94.53860480000003,94.53860480000003,94.53860480000003,94.53860480000003,r,0.4643093999984558,95.02225800000087,95.02225800000087,95.02225800000087,95.02225800000087,95.02225800000087,95.02225800000087,95.30520289999913,96.70553160000054,96.72183170000062,96.72183170000062,96.72183170000062,96.72183170000062,96.72183170000062,96.72183170000062,96.72183170000062,96.72183170000062,96.72183170000062,96.72183170000062,96.72183170000062,96.72183170000062,96.72183170000062,98.42001569999775,98.42001569999775,98.42001569999775,98.42001569999775,98.42001569999775,98.42001569999775,98.42001569999775,45,40,65,47,40,60,98.42001569999775,100.15432859999783,,,,,,,,,,,,,,,,,,,,３１３,f,１８,2023-05-18_17h39.49.102,RL,2022.2.5,60.0228206763731,
50,48,40,73,0,12,12,12,,,,,,,,,,,None,100.15432859999783,100.15432859999783,100.15432859999783,100.15432859999783,100.15432859999783,100.15432859999783,f,0.7459750999987591,100.92258270000093,100.92258270000093,100.92258270000093,100.92258270000093,100.92258270000093,100.92258270000093,101.22125740000047,102.78721419999783,102.78721419999783,102.78721419999783,102.78721419999783,102.78721419999783,102.78721419999783,102.78721419999783,102.78721419999783,102.78721419999783,102.78721419999783,102.78721419999783,102.78721419999783,102.78721419999783,102.78721419999783,104.6516386000003,104.6516386000003,104.6516386000003,104.6516386000003,104.6516386000003,104.6516386000003,104.6516386000003,48,50,73,40,48,60,104.6516386000003,106.46969800000079,,,,,,,,,,,,,,,,,,,,３１３,f,１８,2023-05-18_17h39.49.102,RL,2022.2.5,60.0228206763731,
41,40,44,69,0,13,13,13,,,,,,,,,,,None,106.46969800000079,106.46969800000079,106.46969800000079,106.46969800000079,106.46969800000079,106.46969800000079,f,0.6241749999971944,107.12136850000024,107.12136850000024,107.12136850000024,107.12136850000024,107.12136850000024,107.12136850000024,107.42000949999783,109.38614759999837,109.38614759999837,109.38614759999837,109.38614759999837,109.38614759999837,109.38614759999837,109.38614759999837,109.38614759999837,109.38614759999837,109.38614759999837,109.38614759999837,109.38614759999837,109.38614759999837,109.38614759999837,111.6510586000004,111.6510586000004,111.6510586000004,111.6510586000004,111.6510586000004,111.6510586000004,111.6510586000004,40,41,69,44,40,60,111.6510586000004,113.53488110000035,,,,,,,,,,,,,,,,,,,,３１３,f,１８,2023-05-18_17h39.49.102,RL,2022.2.5,60.0228206763731,
38,38,48,65,0,14,14,14,,,,,,,,,,,None,113.53488110000035,113.53488110000035,113.53488110000035,113.53488110000035,113.53488110000035,113.53488110000035,r,0.6932701000005181,114.25399009999819,114.25399009999819,114.25399009999819,114.25399009999819,114.25399009999819,114.25399009999819,114.5519260000001,116.51824470000065,116.51824470000065,116.51824470000065,116.51824470000065,116.51824470000065,116.51824470000065,116.51824470000065,116.51824470000065,116.51824470000065,116.51824470000065,116.51824470000065,116.51824470000065,116.51824470000065,116.51824470000065,118.78303239999877,118.78303239999877,118.78303239999877,118.78303239999877,118.78303239999877,118.78303239999877,118.78303239999877,38,38,65,48,38,60,118.78303239999877,120.56723539999803,,,,,,,,,,,,,,,,,,,,３１３,f,１８,2023-05-18_17h39.49.102,RL,2022.2.5,60.0228206763731,
37,39,51,69,0,15,15,15,,,,,,,,,,,None,120.56723539999803,120.56723539999803,120.56723539999803,120.56723539999803,120.56723539999803,120.56723539999803,j,0.5919763999991119,121.18498679999902,121.18498679999902,121.18498679999902,121.18498679999902,121.18498679999902,121.18498679999902,121.46798409999974,122.43423640000037,122.45063339999979,122.45063339999979,122.45063339999979,122.45063339999979,122.45063339999979,122.45063339999979,122.45063339999979,122.45063339999979,122.45063339999979,122.45063339999979,122.45063339999979,122.45063339999979,122.45063339999979,123.71572630000082,123.71572630000082,123.71572630000082,123.71572630000082,123.71572630000082,123.71572630000082,123.71572630000082,39,37,69,51,51,60,123.71572630000082,125.43297520000124,,,,,,,,,,,,,,,,,,,,３１３,f,１８,2023-05-18_17h39.49.102,RL,2022.2.5,60.0228206763731,
42,26,37,67,0,16,16,16,,,,,,,,,,,None,125.43297520000124,125.43297520000124,125.43297520000124,125.43297520000124,125.43297520000124,125.43297520000124,i,0.6071666999996523,126.0678044999986,126.0678044999986,126.0678044999986,126.0678044999986,126.0678044999986,126.0678044999986,126.36672019999969,128.36615600000005,128.36615600000005,128.36615600000005,128.36615600000005,128.36615600000005,128.36615600000005,128.36615600000005,128.36615600000005,128.36615600000005,128.36615600000005,128.36615600000005,128.36615600000005,128.36615600000005,128.36615600000005,130.66410099999848,130.66410099999848,130.66410099999848,130.66410099999848,130.66410099999848,130.66410099999848,130.66410099999848,26,42,67,37,67,60,130.66410099999848,132.38207899999907,,,,,,,,,,,,,,,,,,,,３１３,f,１８,2023-05-18_17h39.49.102,RL,2022.2.5,60.0228206763731,
47,30,40,67,0,17,17,17,,,,,,,,,,,None,132.38207899999907,132.38207899999907,132.38207899999907,132.38207899999907,132.38207899999907,132.38207899999907,i,1.2369101000003866,133.64964250000048,133.64964250000048,133.64964250000048,133.64964250000048,133.64964250000048,133.64964250000048,133.94873649999863,135.64810439999928,135.64810439999928,135.64810439999928,135.64810439999928,135.64810439999928,135.64810439999928,135.64810439999928,135.64810439999928,135.64810439999928,135.64810439999928,135.64810439999928,135.64810439999928,135.64810439999928,135.64810439999928,137.64616110000134,137.64616110000134,137.64616110000134,137.64616110000134,137.64616110000134,137.64616110000134,137.64616110000134,30,47,67,40,67,60,137.64616110000134,139.5472566999997,,,,,,,,,,,,,,,,,,,,３１３,f,１８,2023-05-18_17h39.49.102,RL,2022.2.5,60.0228206763731,
48,31,39,73,0,18,18,18,,,,,,,,,,,None,139.5472566999997,139.5472566999997,139.5472566999997,139.5472566999997,139.5472566999997,139.5472566999997,r,0.8467577000010351,140.41545920000135,140.41545920000135,140.41545920000135,140.41545920000135,140.41545920000135,140.41545920000135,140.7143677999993,141.6973524999994,141.6973524999994,141.6973524999994,141.6973524999994,141.6973524999994,141.6973524999994,141.6973524999994,141.6973524999994,141.6973524999994,141.6973524999994,141.6973524999994,141.6973524999994,141.6973524999994,141.6973524999994,142.97865869999805,142.97865869999805,142.97865869999805,142.97865869999805,142.97865869999805,142.97865869999805,142.97865869999805,31,48,73,39,48,60,142.97865869999805,144.7467445000002,,,,,,,,,,,,,,,,,,,,３１３,f,１８,2023-05-18_17h39.49.102,RL,2022.2.5,60.0228206763731,
40,36,33,71,0,19,19,19,,,,,,,,,,,None,144.7467445000002,144.7467445000002,144.7467445000002,144.7467445000002,144.7467445000002,144.7467445000002,i,0.9449635999990278,145.71451979999983,145.71451979999983,145.71451979999983,145.71451979999983,145.71451979999983,145.71451979999983,145.99647069999992,147.096631299999,147.11325589999979,147.11325589999979,147.11325589999979,147.11325589999979,147.11325589999979,147.11325589999979,147.11325589999979,147.11325589999979,147.11325589999979,147.11325589999979,147.11325589999979,147.11325589999979,147.11325589999979,148.51107720000073,148.51107720000073,148.51107720000073,148.51107720000073,148.51107720000073,148.51107720000073,148.51107720000073,36,40,71,33,71,60,148.51107720000073,150.262423199998,,,,,,,,,,,,,,,,,,,,３１３,f,１８,2023-05-18_17h39.49.102,RL,2022.2.5,60.0228206763731,
33,33,40,69,0,20,20,20,,,,,,,,,,,None,150.262423199998,150.262423199998,150.262423199998,150.262423199998,150.262423199998,150.262423199998,j,1.3729682000011962,151.66344969999773,151.66344969999773,151.66344969999773,151.66344969999773,151.66344969999773,151.66344969999773,151.96232790000067,153.0286500000002,153.0286500000002,153.0286500000002,153.0286500000002,153.0286500000002,153.0286500000002,153.0286500000002,153.0286500000002,153.0286500000002,153.0286500000002,153.0286500000002,153.0286500000002,153.0286500000002,153.0286500000002,154.393413400001,154.393413400001,154.393413400001,154.393413400001,154.393413400001,154.393413400001,154.393413400001,33,33,69,40,40,60,154.393413400001,156.3444856999995,,,,,,,,,,,,,,,,,,,,３１３,f,１８,2023-05-18_17h39.49.102,RL,2022.2.5,60.0228206763731,
41,40,45,61,0,21,21,21,,,,,,,,,,,None,156.3444856999995,156.3444856999995,156.3444856999995,156.3444856999995,156.3444856999995,156.3444856999995,i,0.768788700002915,157.14494270000068,157.14494270000068,157.14494270000068,157.14494270000068,157.14494270000068,157.14494270000068,157.42815859999973,159.29435759999978,159.31079239999963,159.31079239999963,159.31079239999963,159.31079239999963,159.31079239999963,159.31079239999963,159.31079239999963,159.31079239999963,159.31079239999963,159.31079239999963,159.31079239999963,159.31079239999963,159.31079239999963,161.47589359999984,161.47589359999984,161.47589359999984,161.47589359999984,161.47589359999984,161.47589359999984,161.47589359999984,40,41,61,45,61,60,161.47589359999984,163.11036550000063,,,,,,,,,,,,,,,,,,,,３１３,f,１８,2023-05-18_17h39.49.102,RL,2022.2.5,60.0228206763731,
36,43,41,57,0,22,22,22,,,,,,,,,,,None,163.11036550000063,163.11036550000063,163.11036550000063,163.11036550000063,163.11036550000063,163.11036550000063,f,0.8884512000004179,164.02833979999923,164.02833979999923,164.02833979999923,164.02833979999923,164.02833979999923,164.02833979999923,164.32683159999942,165.42643569999927,165.42643569999927,165.42643569999927,165.42643569999927,165.42643569999927,165.42643569999927,165.42643569999927,165.42643569999927,165.42643569999927,165.42643569999927,165.42643569999927,165.42643569999927,165.42643569999927,165.42643569999927,166.8243709999988,166.8243709999988,166.8243709999988,166.8243709999988,166.8243709999988,166.8243709999988,166.8243709999988,43,36,57,41,43,60,166.8243709999988,168.592540499998,,,,,,,,,,,,,,,,,,,,３１３,f,１８,2023-05-18_17h39.49.102,RL,2022.2.5,60.0228206763731,
34,41,38,53,0,23,23,23,,,,,,,,,,,None,168.592540499998,168.592540499998,168.592540499998,168.592540499998,168.592540499998,168.592540499998,i,0.5560707000004186,169.17724660000022,169.17724660000022,169.17724660000022,169.17724660000022,169.17724660000022,169.17724660000022,169.47558420000132,171.32547129999875,171.32547129999875,171.32547129999875,171.32547129999875,171.32547129999875,171.32547129999875,171.32547129999875,171.32547129999875,171.32547129999875,171.32547129999875,171.32547129999875,171.32547129999875,171.32547129999875,171.32547129999875,173.47329080000054,173.47329080000054,173.47329080000054,173.47329080000054,173.47329080000054,173.47329080000054,173.47329080000054,41,34,53,38,53,60,173.47329080000054,175.1632909,,,,,,,,,,,,,,,,,,,,３１３,f,１８,2023-05-18_17h39.49.102,RL,2022.2.5,60.0228206763731,
28,41,46,53,0,24,24,24,,,,,,,,,,,None,175.1632909,175.1632909,175.1632909,175.1632909,175.1632909,175.1632909,j,0.7237868000011076,175.91165519999777,175.91165519999777,175.91165519999777,175.91165519999777,175.91165519999777,175.91165519999777,176.19145990000106,178.0412034000001,178.07449479999923,178.07449479999923,178.07449479999923,178.07449479999923,178.07449479999923,178.07449479999923,178.07449479999923,178.07449479999923,178.07449479999923,178.07449479999923,178.07449479999923,178.07449479999923,178.07449479999923,180.22244169999976,180.22244169999976,180.22244169999976,180.22244169999976,180.22244169999976,180.22244169999976,180.22244169999976,41,28,53,46,46,60,180.22244169999976,181.7730107999996,,,,,,,,,,,,,,,,,,,,３１３,f,１８,2023-05-18_17h39.49.102,RL,2022.2.5,60.0228206763731,
32,42,50,63,0,25,25,25,,,,,,,,,,,None,181.7730107999996,181.7730107999996,181.7730107999996,181.7730107999996,181.7730107999996,181.7730107999996,i,0.9872963999987405,182.79056149999815,182.79056149999815,182.79056149999815,182.79056149999815,182.79056149999815,182.79056149999815,183.07312639999873,184.3234225999986,184.33992650000073,184.33992650000073,184.33992650000073,184.33992650000073,184.33992650000073,184.33992650000073,184.33992650000073,184.33992650000073,184.33992650000073,184.33992650000073,184.33992650000073,184.33992650000073,184.33992650000073,185.8881653999997,185.8881653999997,185.8881653999997,185.8881653999997,185.8881653999997,185.8881653999997,185.8881653999997,42,32,63,50,63,60,185.8881653999997,187.77220880000095,,,,,,,,,,,,,,,,,,,,３１３,f,１８,2023-05-18_17h39.49.102,RL,2022.2.5,60.0228206763731,
31,40,35,59,0,26,26,26,,,,,,,,,,,None,187.77220880000095,187.77220880000095,187.77220880000095,187.77220880000095,187.77220880000095,187.77220880000095,i,0.8897854000024381,188.68971189999866,188.68971189999866,188.68971189999866,188.68971189999866,188.68971189999866,188.68971189999866,188.97248150000087,189.78905880000093,189.8057716000003,189.8057716000003,189.8057716000003,189.8057716000003,189.8057716000003,189.8057716000003,189.8057716000003,189.8057716000003,189.8057716000003,189.8057716000003,189.8057716000003,189.8057716000003,189.8057716000003,190.920416500001,190.920416500001,190.920416500001,190.920416500001,190.920416500001,190.920416500001,190.920416500001,40,31,59,35,59,60,190.920416500001,192.80443970000124,,,,,,,,,,,,,,,,,,,,３１３,f,１８,2023-05-18_17h39.49.102,RL,2022.2.5,60.0228206763731,
40,45,43,53,0,27,27,27,,,,,,,,,,,None,192.80443970000124,192.80443970000124,192.80443970000124,192.80443970000124,192.80443970000124,192.80443970000124,r,0.7670504000016081,193.60514189999958,193.60514189999958,193.60514189999958,193.60514189999958,193.60514189999958,193.60514189999958,193.88838829999804,195.28826370000024,195.30461379999906,195.30461379999906,195.30461379999906,195.30461379999906,195.30461379999906,195.30461379999906,195.30461379999906,195.30461379999906,195.30461379999906,195.30461379999906,195.30461379999906,195.30461379999906,195.30461379999906,197.00305540000045,197.00305540000045,197.00305540000045,197.00305540000045,197.00305540000045,197.00305540000045,197.00305540000045,45,40,53,43,40,60,197.00305540000045,198.92049659999975,,,,,,,,,,,,,,,,,,,,３１３,f,１８,2023-05-18_17h39.49.102,RL,2022.2.5,60.0228206763731,
43,43,39,62,0,28,28,28,,,,,,,,,,,None,198.92049659999975,198.92049659999975,198.92049659999975,198.92049659999975,198.92049659999975,198.92049659999975,f,0.7143271000022651,199.65398269999787,199.65398269999787,199.65398269999787,199.65398269999787,199.65398269999787,199.65398269999787,199.95369189999838,201.47063450000132,201.47063450000132,201.47063450000132,201.47063450000132,201.47063450000132,201.47063450000132,201.47063450000132,201.47063450000132,201.47063450000132,201.47063450000132,201.47063450000132,201.47063450000132,201.47063450000132,201.47063450000132,203.28504619999876,203.28504619999876,203.28504619999876,203.28504619999876,203.28504619999876,203.28504619999876,203.28504619999876,43,43,62,39,43,60,203.28504619999876,205.21951719999925,,,,,,,,,,,,,,,,,,,,３１３,f,１８,2023-05-18_17h39.49.102,RL,2022.2.5,60.0228206763731,
46,33,46,55,0,29,29,29,,,,,,,,,,,None,205.21951719999925,205.21951719999925,205.21951719999925,205.21951719999925,205.21951719999925,205.21951719999925,i,0.6820095999974001,205.91990969999824,205.91990969999824,205.91990969999824,205.91990969999824,205.91990969999824,205.91990969999824,206.20304549999855,207.1864930999982,207.2026991999992,207.2026991999992,207.2026991999992,207.2026991999992,207.2026991999992,207.2026991999992,207.2026991999992,207.2026991999992,207.2026991999992,207.2026991999992,207.2026991999992,207.2026991999992,207.2026991999992,208.48423019999973,208.48423019999973,208.48423019999973,208.48423019999973,208.48423019999973,208.48423019999973,208.48423019999973,33,46,55,46,55,60,208.48423019999973,210.05184720000034,,,,,,,,,,,,,,,,,,,,３１３,f,１８,2023-05-18_17h39.49.102,RL,2022.2.5,60.0228206763731,
43,46,38,63,0,30,30,30,,,,,,,,,,,None,210.05184720000034,210.05184720000034,210.05184720000034,210.05184720000034,210.05184720000034,210.05184720000034,j,0.8745968000002904,210.95217480000065,210.95217480000065,210.95217480000065,210.95217480000065,210.95217480000065,210.95217480000065,211.2355897999987,212.70179039999857,212.7185208999981,212.7185208999981,212.7185208999981,212.7185208999981,212.7185208999981,212.7185208999981,212.7185208999981,212.7185208999981,212.7185208999981,212.7185208999981,212.7185208999981,212.7185208999981,212.7185208999981,214.4826370999981,214.4826370999981,214.4826370999981,214.4826370999981,214.4826370999981,214.4826370999981,214.4826370999981,46,43,63,38,38,60,214.4826370999981,216.40049689999796,,,,,,,,,,,,,,,,,,,,３１３,f,１８,2023-05-18_17h39.49.102,RL,2022.2.5,60.0228206763731,
37,54,43,66,0,31,31,31,,,,,,,,,,,None,216.40049689999796,216.40049689999796,216.40049689999796,216.40049689999796,216.40049689999796,216.40049689999796,i,1.120243199999095,217.5511590999995,217.5511590999995,217.5511590999995,217.5511590999995,217.5511590999995,217.5511590999995,217.85082540000076,218.68423429999893,218.68423429999893,218.68423429999893,218.68423429999893,218.68423429999893,218.68423429999893,218.68423429999893,218.68423429999893,218.68423429999893,218.68423429999893,218.68423429999893,218.68423429999893,218.68423429999893,218.68423429999893,219.81503669999802,219.81503669999802,219.81503669999802,219.81503669999802,219.81503669999802,219.81503669999802,219.81503669999802,54,37,66,43,66,60,219.81503669999802,221.350226999999,,,,,,,,,,,,,,,,,,,,３１３,f,１８,2023-05-18_17h39.49.102,RL,2022.2.5,60.0228206763731,
38,50,31,61,0,32,32,32,,,,,,,,,,,None,221.350226999999,221.350226999999,221.350226999999,221.350226999999,221.350226999999,221.350226999999,i,1.0413695000024745,222.41748110000117,222.41748110000117,222.41748110000117,222.41748110000117,222.41748110000117,222.41748110000117,222.71641079999972,224.6660477000005,224.6660477000005,224.6660477000005,224.6660477000005,224.6660477000005,224.6660477000005,224.6660477000005,224.6660477000005,224.6660477000005,224.6660477000005,224.6660477000005,224.6660477000005,224.6660477000005,224.6660477000005,226.91406920000009,226.91406920000009,226.91406920000009,226.91406920000009,226.91406920000009,226.91406920000009,226.91406920000009,50,38,61,31,61,60,226.91406920000009,228.68217780000123,,,,,,,,,,,,,,,,,,,,３１３,f,１８,2023-05-18_17h39.49.102,RL,2022.2.5,60.0228206763731,
35,54,37,52,0,33,33,33,,,,,,,,,,,None,228.68217780000123,228.68217780000123,228.68217780000123,228.68217780000123,228.68217780000123,228.68217780000123,i,0.9622177999990527,229.6670368999985,229.6670368999985,229.6670368999985,229.6670368999985,229.6670368999985,229.6670368999985,229.96512169999914,231.61513130000094,231.61513130000094,231.61513130000094,231.61513130000094,231.61513130000094,231.61513130000094,231.61513130000094,231.61513130000094,231.61513130000094,231.61513130000094,231.61513130000094,231.61513130000094,231.61513130000094,231.61513130000094,233.5633646999995,233.5633646999995,233.5633646999995,233.5633646999995,233.5633646999995,233.5633646999995,233.5633646999995,54,35,52,37,52,60,233.5633646999995,235.39754950000133,,,,,,,,,,,,,,,,,,,,３１３,f,１８,2023-05-18_17h39.49.102,RL,2022.2.5,60.0228206763731,
38,53,43,53,0,34,34,34,,,,,,,,,,,None,235.39754950000133,235.39754950000133,235.39754950000133,235.39754950000133,235.39754950000133,235.39754950000133,r,1.3815444000028947,236.79773489999934,236.79773489999934,236.79773489999934,236.79773489999934,236.79773489999934,236.79773489999934,237.08061889999954,238.94761649999782,238.98070369999914,238.98070369999914,238.98070369999914,238.98070369999914,238.98070369999914,238.98070369999914,238.98070369999914,238.98070369999914,238.98070369999914,238.98070369999914,238.98070369999914,238.98070369999914,238.98070369999914,241.16148199999952,241.16148199999952,241.16148199999952,241.16148199999952,241.16148199999952,241.16148199999952,241.16148199999952,53,38,53,43,38,60,241.16148199999952,243.12912289999804,,,,,,,,,,,,,,,,,,,,３１３,f,１８,2023-05-18_17h39.49.102,RL,2022.2.5,60.0228206763731,
34,47,42,65,0,35,35,35,,,,,,,,,,,None,243.12912289999804,243.12912289999804,243.12912289999804,243.12912289999804,243.12912289999804,243.12912289999804,i,0.7666045000005397,243.9134879000012,243.9134879000012,243.9134879000012,243.9134879000012,243.9134879000012,243.9134879000012,244.21267019999868,245.26256099999955,245.26256099999955,245.26256099999955,245.26256099999955,245.26256099999955,245.26256099999955,245.26256099999955,245.26256099999955,245.26256099999955,245.26256099999955,245.26256099999955,245.26256099999955,245.26256099999955,245.26256099999955,246.61076580000008,246.61076580000008,246.61076580000008,246.61076580000008,246.61076580000008,246.61076580000008,246.61076580000008,47,34,65,42,65,60,246.61076580000008,248.41185359999872,,,,,,,,,,,,,,,,,,,,３１３,f,１８,2023-05-18_17h39.49.102,RL,2022.2.5,60.0228206763731,
37,41,38,54,0,36,36,36,,,,,,,,,,,None,248.41185359999872,248.41185359999872,248.41185359999872,248.41185359999872,248.41185359999872,248.41185359999872,i,0.8876741999993101,249.3287687000011,249.3287687000011,249.3287687000011,249.3287687000011,249.3287687000011,249.3287687000011,249.612090300001,250.69542720000027,250.71185909999986,250.71185909999986,250.71185909999986,250.71185909999986,250.71185909999986,250.71185909999986,250.71185909999986,250.71185909999986,250.71185909999986,250.71185909999986,250.71185909999986,250.71185909999986,250.71185909999986,252.09345380000013,252.09345380000013,252.09345380000013,252.09345380000013,252.09345380000013,252.09345380000013,252.09345380000013,41,37,54,38,54,60,252.09345380000013,253.71120800000062,,,,,,,,,,,,,,,,,,,,３１３,f,１８,2023-05-18_17h39.49.102,RL,2022.2.5,60.0228206763731,
39,47,42,68,0,37,37,37,,,,,,,,,,,None,253.71120800000062,253.71120800000062,253.71120800000062,253.71120800000062,253.71120800000062,253.71120800000062,i,0.8623074999995879,254.5973531999989,254.5973531999989,254.5973531999989,254.5973531999989,254.5973531999989,254.5973531999989,254.89456209999844,256.37741019999885,256.37741019999885,256.37741019999885,256.37741019999885,256.37741019999885,256.37741019999885,256.37741019999885,256.37741019999885,256.37741019999885,256.37741019999885,256.37741019999885,256.37741019999885,256.37741019999885,256.37741019999885,258.1589700000004,258.1589700000004,258.1589700000004,258.1589700000004,258.1589700000004,258.1589700000004,258.1589700000004,47,39,68,42,68,60,258.1589700000004,260.126532899998,,,,,,,,,,,,,,,,,,,,３１３,f,１８,2023-05-18_17h39.49.102,RL,2022.2.5,60.0228206763731,
31,47,38,61,0,38,38,38,,,,,,,,,,,None,260.126532899998,260.126532899998,260.126532899998,260.126532899998,260.126532899998,260.126532899998,j,0.8189894999995886,260.9803236999978,260.9803236999978,260.9803236999978,260.9803236999978,260.9803236999978,260.9803236999978,261.2598531000003,262.4097827000005,262.42625279999993,262.42625279999993,262.42625279999993,262.42625279999993,262.42625279999993,262.42625279999993,262.42625279999993,262.42625279999993,262.42625279999993,262.42625279999993,262.42625279999993,262.42625279999993,262.42625279999993,263.8745321999995,263.8745321999995,263.8745321999995,263.8745321999995,263.8745321999995,263.8745321999995,263.8745321999995,47,31,61,38,38,60,263.8745321999995,265.7756760000011,,,,,,,,,,,,,,,,,,,,３１３,f,１８,2023-05-18_17h39.49.102,RL,2022.2.5,60.0228206763731,
30,41,33,57,0,39,39,39,,,,,,,,,,,None,265.7756760000011,265.7756760000011,265.7756760000011,265.7756760000011,265.7756760000011,265.7756760000011,f,0.3286508999990474,266.12901789999887,266.12901789999887,266.12901789999887,266.12901789999887,266.12901789999887,266.12901789999887,266.40891199999896,267.7588379999979,267.77546670000083,267.77546670000083,267.77546670000083,267.77546670000083,267.77546670000083,267.77546670000083,267.77546670000083,267.77546670000083,267.77546670000083,267.77546670000083,267.77546670000083,267.77546670000083,267.77546670000083,269.42386590000024,269.42386590000024,269.42386590000024,269.42386590000024,269.42386590000024,269.42386590000024,269.42386590000024,41,30,57,33,41,60,269.42386590000024,271.09093669999857,,,,,,,,,,,,,,,,,,,,３１３,f,１８,2023-05-18_17h39.49.102,RL,2022.2.5,60.0228206763731,
30,43,37,56,0,40,40,40,,,,,,,,,,,None,271.09093669999857,271.09093669999857,271.09093669999857,271.09093669999857,271.09093669999857,271.09093669999857,i,0.5786329000002297,271.6931278999982,271.6931278999982,271.6931278999982,271.6931278999982,271.6931278999982,271.6931278999982,271.97487049999836,273.75791559999925,273.7745031000013,273.7745031000013,273.7745031000013,273.7745031000013,273.7745031000013,273.7745031000013,273.7745031000013,273.7745031000013,273.7745031000013,273.7745031000013,273.7745031000013,273.7745031000013,273.7745031000013,275.8560875000003,275.8560875000003,275.8560875000003,275.8560875000003,275.8560875000003,275.8560875000003,275.8560875000003,43,30,56,37,56,60,275.8560875000003,277.55652389999887,,,,,,,,,,,,,,,,,,,,３１３,f,１８,2023-05-18_17h39.49.102,RL,2022.2.5,60.0228206763731,
36,50,33,58,0,41,41,41,,,,,,,,,,,None,277.55652389999887,277.55652389999887,277.55652389999887,277.55652389999887,277.55652389999887,277.55652389999887,i,0.8105658999993466,278.39043820000006,278.39043820000006,278.39043820000006,278.39043820000006,278.39043820000006,278.39043820000006,278.67388610000125,280.40671179999845,280.42346499999985,280.42346499999985,280.42346499999985,280.42346499999985,280.42346499999985,280.42346499999985,280.42346499999985,280.42346499999985,280.42346499999985,280.42346499999985,280.42346499999985,280.42346499999985,280.42346499999985,282.454606700001,282.454606700001,282.454606700001,282.454606700001,282.454606700001,282.454606700001,282.454606700001,50,36,58,33,58,60,282.454606700001,284.0058026000006,,,,,,,,,,,,,,,,,,,,３１３,f,１８,2023-05-18_17h39.49.102,RL,2022.2.5,60.0228206763731,
42,51,44,51,0,42,42,42,,,,,,,,,,,None,284.0058026000006,284.0058026000006,284.0058026000006,284.0058026000006,284.0058026000006,284.0058026000006,i,1.0737154000016744,285.106181799998,285.106181799998,285.106181799998,285.106181799998,285.106181799998,285.106181799998,285.3896824000003,287.0719465000002,287.0886419999988,287.0886419999988,287.0886419999988,287.0886419999988,287.0886419999988,287.0886419999988,287.0886419999988,287.0886419999988,287.0886419999988,287.0886419999988,287.0886419999988,287.0886419999988,287.0886419999988,289.0700304999991,289.0700304999991,289.0700304999991,289.0700304999991,289.0700304999991,289.0700304999991,289.0700304999991,51,42,51,44,51,60,289.0700304999991,290.804334299999,,,,,,,,,,,,,,,,,,,,３１３,f,１８,2023-05-18_17h39.49.102,RL,2022.2.5,60.0228206763731,
27,58,38,64,0,43,43,43,,,,,,,,,,,None,290.804334299999,290.804334299999,290.804334299999,290.804334299999,290.804334299999,290.804334299999,i,0.7286313000004156,291.5557305000002,291.5557305000002,291.5557305000002,291.5557305000002,291.5557305000002,291.5557305000002,291.83826319999935,293.75417709999965,293.77118739999787,293.77118739999787,293.77118739999787,293.77118739999787,293.77118739999787,293.77118739999787,293.77118739999787,293.77118739999787,293.77118739999787,293.77118739999787,293.77118739999787,293.77118739999787,293.77118739999787,295.9857210000009,295.9857210000009,295.9857210000009,295.9857210000009,295.9857210000009,295.9857210000009,295.9857210000009,58,27,64,38,64,60,295.9857210000009,297.9868204000013,,,,,,,,,,,,,,,,,,,,３１３,f,１８,2023-05-18_17h39.49.102,RL,2022.2.5,60.0228206763731,
38,48,38,56,0,44,44,44,,,,,,,,,,,None,297.9868204000013,297.9868204000013,297.9868204000013,297.9868204000013,297.9868204000013,297.9868204000013,r,0.5620873999978357,298.57032139999865,298.57032139999865,298.57032139999865,298.57032139999865,298.57032139999865,298.57032139999865,298.85366910000084,300.58665689999907,300.6030174999978,300.6030174999978,300.6030174999978,300.6030174999978,300.6030174999978,300.6030174999978,300.6030174999978,300.6030174999978,300.6030174999978,300.6030174999978,300.6030174999978,300.6030174999978,300.6030174999978,302.6343697000011,302.6343697000011,302.6343697000011,302.6343697000011,302.6343697000011,302.6343697000011,302.6343697000011,48,38,56,38,38,60,302.6343697000011,304.4685939999981,,,,,,,,,,,,,,,,,,,,３１３,f,１８,2023-05-18_17h39.49.102,RL,2022.2.5,60.0228206763731,
36,47,40,62,0,45,45,45,,,,,,,,,,,None,304.4685939999981,304.4685939999981,304.4685939999981,304.4685939999981,304.4685939999981,304.4685939999981,i,0.6924992999993265,305.1856822000009,305.1856822000009,305.1856822000009,305.1856822000009,305.1856822000009,305.1856822000009,305.46889100000044,307.0022633999979,307.01902749999863,307.01902749999863,307.01902749999863,307.01902749999863,307.01902749999863,307.01902749999863,307.01902749999863,307.01902749999863,307.01902749999863,307.01902749999863,307.01902749999863,307.01902749999863,307.01902749999863,308.850061000001,308.850061000001,308.850061000001,308.850061000001,308.850061000001,308.850061000001,308.850061000001,47,36,62,40,62,60,308.850061000001,310.4180277999985,,,,,,,,,,,,,,,,,,,,３１３,f,１８,2023-05-18_17h39.49.102,RL,2022.2.5,60.0228206763731,
36,47,29,64,0,46,46,46,,,,,,,,,,,None,310.4180277999985,310.4180277999985,310.4180277999985,310.4180277999985,310.4180277999985,310.4180277999985,i,0.923367600000347,311.3717152999998,311.3717152999998,311.3717152999998,311.3717152999998,311.3717152999998,311.3717152999998,311.66799959999844,313.2676274000005,313.2676274000005,313.2676274000005,313.2676274000005,313.2676274000005,313.2676274000005,313.2676274000005,313.2676274000005,313.2676274000005,313.2676274000005,313.2676274000005,313.2676274000005,313.2676274000005,313.2676274000005,315.1657935000003,315.1657935000003,315.1657935000003,315.1657935000003,315.1657935000003,315.1657935000003,315.1657935000003,47,36,64,29,64,60,315.1657935000003,316.7500895000012,,,,,,,,,,,,,,,,,,,,３１３,f,１８,2023-05-18_17h39.49.102,RL,2022.2.5,60.0228206763731,
37,45,29,50,0,47,47,47,,,,,,,,,,,None,316.7500895000012,316.7500895000012,316.7500895000012,316.7500895000012,316.7500895000012,316.7500895000012,i,1.075252400001773,317.85388899999816,317.85388899999816,317.85388899999816,317.85388899999816,317.85388899999816,317.85388899999816,318.1335857999984,319.65021830000114,319.6668327999978,319.6668327999978,319.6668327999978,319.6668327999978,319.6668327999978,319.6668327999978,319.6668327999978,319.6668327999978,319.6668327999978,319.6668327999978,319.6668327999978,319.6668327999978,319.6668327999978,321.4812181999987,321.4812181999987,321.4812181999987,321.4812181999987,321.4812181999987,321.4812181999987,321.4812181999987,45,37,50,29,50,60,321.4812181999987,323.0819616000008,,,,,,,,,,,,,,,,,,,,３１３,f,１８,2023-05-18_17h39.49.102,RL,2022.2.5,60.0228206763731,
35,51,26,55,0,48,48,48,,,,,,,,,,,None,323.0819616000008,323.0819616000008,323.0819616000008,323.0819616000008,323.0819616000008,323.0819616000008,i,0.6869642999990901,323.8027968999995,323.8027968999995,323.8027968999995,323.8027968999995,323.8027968999995,323.8027968999995,324.0827872000009,325.1819676999985,325.19888309999806,325.19888309999806,325.19888309999806,325.19888309999806,325.19888309999806,325.19888309999806,325.19888309999806,325.19888309999806,325.19888309999806,325.19888309999806,325.19888309999806,325.19888309999806,325.19888309999806,326.5972703000007,326.5972703000007,326.5972703000007,326.5972703000007,326.5972703000007,326.5972703000007,326.5972703000007,51,35,55,26,55,60,326.5972703000007,328.5811672999989,,,,,,,,,,,,,,,,,,,,３１３,f,１８,2023-05-18_17h39.49.102,RL,2022.2.5,60.0228206763731,
41,51,23,47,0,49,49,49,,,,,,,,,,,None,328.5811672999989,328.5811672999989,328.5811672999989,328.5811672999989,328.5811672999989,328.5811672999989,f,0.9851609999968787,329.61108030000105,329.61108030000105,329.61108030000105,329.61108030000105,329.61108030000105,329.61108030000105,329.88166459999775,330.881011999998,330.91441470000063,330.91441470000063,330.91441470000063,330.91441470000063,330.91441470000063,330.91441470000063,330.91441470000063,330.91441470000063,330.91441470000063,330.91441470000063,330.91441470000063,330.91441470000063,330.91441470000063,332.2123217999979,332.2123217999979,332.2123217999979,332.2123217999979,332.2123217999979,332.2123217999979,332.2123217999979,51,41,47,23,51,60,332.2123217999979,333.8304387999997,,,,,,,,,,,,,,,,,,,,３１３,f,１８,2023-05-18_17h39.49.102,RL,2022.2.5,60.0228206763731,
39,52,27,58,0,50,50,50,,,,,,,,,,,None,333.8304387999997,333.8304387999997,333.8304387999997,333.8304387999997,333.8304387999997,333.8304387999997,f,0.7687028000000282,334.63690009999846,334.63690009999846,334.63690009999846,334.63690009999846,334.63690009999846,334.63690009999846,334.9307359000013,335.9472590000005,335.9635798999989,335.9635798999989,335.9635798999989,335.9635798999989,335.9635798999989,335.9635798999989,335.9635798999989,335.9635798999989,335.9635798999989,335.9635798999989,335.9635798999989,335.9635798999989,335.9635798999989,337.2781542999983,337.2781542999983,337.2781542999983,337.2781542999983,337.2781542999983,337.2781542999983,337.2781542999983,52,39,58,27,52,60,337.2781542999983,339.2791245999979,,,,,,,,,,,,,,,,,,,,３１３,f,１８,2023-05-18_17h39.49.102,RL,2022.2.5,60.0228206763731,
35,44,19,53,0,51,51,51,,,,,,,,,,,None,339.2791245999979,339.2791245999979,339.2791245999979,339.2791245999979,339.2791245999979,339.2791245999979,f,0.6069558999988658,339.91423080000095,339.91423080000095,339.91423080000095,339.91423080000095,339.91423080000095,339.91423080000095,340.21285250000074,341.86241379999774,341.86241379999774,341.86241379999774,341.86241379999774,341.86241379999774,341.86241379999774,341.86241379999774,341.86241379999774,341.86241379999774,341.86241379999774,341.86241379999774,341.86241379999774,341.86241379999774,341.86241379999774,343.81037840000135,343.81037840000135,343.81037840000135,343.81037840000135,343.81037840000135,343.81037840000135,343.81037840000135,44,35,53,19,44,60,343.81037840000135,345.4452885999999,,,,,,,,,,,,,,,,,,,,３１３,f,１８,2023-05-18_17h39.49.102,RL,2022.2.5,60.0228206763731,
34,53,34,65,0,52,52,52,,,,,,,,,,,None,345.4452885999999,345.4452885999999,345.4452885999999,345.4452885999999,345.4452885999999,345.4452885999999,f,0.5769933000010496,346.04557919999934,346.04557919999934,346.04557919999934,346.04557919999934,346.04557919999934,346.04557919999934,346.3285720999993,348.2451875000006,348.26153989999875,348.26153989999875,348.26153989999875,348.26153989999875,348.26153989999875,348.26153989999875,348.26153989999875,348.26153989999875,348.26153989999875,348.26153989999875,348.26153989999875,348.26153989999875,348.26153989999875,350.47624789999827,350.47624789999827,350.47624789999827,350.47624789999827,350.47624789999827,350.47624789999827,350.47624789999827,53,34,65,34,53,60,350.47624789999827,352.32734469999923,,,,,,,,,,,,,,,,,,,,３１３,f,１８,2023-05-18_17h39.49.102,RL,2022.2.5,60.0228206763731,
28,42,20,61,0,53,53,53,,,,,,,,,,,None,352.32734469999923,352.32734469999923,352.32734469999923,352.32734469999923,352.32734469999923,352.32734469999923,f,0.5727436000015587,352.9276859999991,352.9276859999991,352.9276859999991,352.9276859999991,352.9276859999991,352.9276859999991,353.2106883999986,354.91046319999805,354.9271173999987,354.9271173999987,354.9271173999987,354.9271173999987,354.9271173999987,354.9271173999987,354.9271173999987,354.9271173999987,354.9271173999987,354.9271173999987,354.9271173999987,354.9271173999987,354.9271173999987,356.9251230000009,356.9251230000009,356.9251230000009,356.9251230000009,356.9251230000009,356.9251230000009,356.9251230000009,42,28,61,20,42,60,356.9251230000009,358.5264715000012,,,,,,,,,,,,,,,,,,,,３１３,f,１８,2023-05-18_17h39.49.102,RL,2022.2.5,60.0228206763731,
38,48,28,61,0,54,54,54,,,,,,,,,,,None,358.5264715000012,358.5264715000012,358.5264715000012,358.5264715000012,358.5264715000012,358.5264715000012,i,0.7549053000002459,359.30995059999987,359.30995059999987,359.30995059999987,359.30995059999987,359.30995059999987,359.30995059999987,359.60922909999863,360.7595880999979,360.7595880999979,360.7595880999979,360.7595880999979,360.7595880999979,360.7595880999979,360.7595880999979,360.7595880999979,360.7595880999979,360.7595880999979,360.7595880999979,360.7595880999979,360.7595880999979,360.7595880999979,362.2076011999998,362.2076011999998,362.2076011999998,362.2076011999998,362.2076011999998,362.2076011999998,362.2076011999998,48,38,61,28,61,60,362.2076011999998,364.0252259000008,,,,,,,,,,,,,,,,,,,,３１３,f,１８,2023-05-18_17h39.49.102,RL,2022.2.5,60.0228206763731,
35,48,22,60,0,55,55,55,,,,,,,,,,,None,364.0252259000008,364.0252259000008,364.0252259000008,364.0252259000008,364.0252259000008,364.0252259000008,i,1.0959060999994108,365.1434578999979,365.1434578999979,365.1434578999979,365.1434578999979,365.1434578999979,365.1434578999979,365.44243840000127,366.54147159999775,366.54147159999775,366.54147159999775,366.54147159999775,366.54147159999775,366.54147159999775,366.54147159999775,366.54147159999775,366.54147159999775,366.54147159999775,366.54147159999775,366.54147159999775,366.54147159999775,366.54147159999775,367.9399162000009,367.9399162000009,367.9399162000009,367.9399162000009,367.9399162000009,367.9399162000009,367.9399162000009,48,35,60,22,60,60,367.9399162000009,369.7744591999981,,,,,,,,,,,,,,,,,,,,３１３,f,１８,2023-05-18_17h39.49.102,RL,2022.2.5,60.0228206763731,
37,55,17,54,0,56,56,56,,,,,,,,,,,None,369.7744591999981,369.7744591999981,369.7744591999981,369.7744591999981,369.7744591999981,369.7744591999981,i,0.8698212999988755,370.6751648999998,370.6751648999998,370.6751648999998,370.6751648999998,370.6751648999998,370.6751648999998,370.9746008000002,372.52373969999826,372.52373969999826,372.52373969999826,372.52373969999826,372.52373969999826,372.52373969999826,372.52373969999826,372.52373969999826,372.52373969999826,372.52373969999826,372.52373969999826,372.52373969999826,372.52373969999826,372.52373969999826,374.3722454999988,374.3722454999988,374.3722454999988,374.3722454999988,374.3722454999988,374.3722454999988,374.3722454999988,55,37,54,17,54,60,374.3722454999988,375.9232192999989,,,,,,,,,,,,,,,,,,,,３１３,f,１８,2023-05-18_17h39.49.102,RL,2022.2.5,60.0228206763731,
34,56,18,56,0,57,57,57,,,,,,,,,,,None,375.9232192999989,375.9232192999989,375.9232192999989,375.9232192999989,375.9232192999989,375.9232192999989,i,0.8074529999976221,376.75870099999884,376.75870099999884,376.75870099999884,376.75870099999884,376.75870099999884,376.75870099999884,377.05650940000123,378.8400460999983,378.89313129999937,378.89313129999937,378.89313129999937,378.89313129999937,378.89313129999937,378.89313129999937,378.89313129999937,378.89313129999937,378.89313129999937,378.89313129999937,378.89313129999937,378.89313129999937,378.89313129999937,380.98750590000054,380.98750590000054,380.98750590000054,380.98750590000054,380.98750590000054,380.98750590000054,380.98750590000054,56,34,56,18,56,60,380.98750590000054,382.68873370000074,,,,,,,,,,,,,,,,,,,,３１３,f,１８,2023-05-18_17h39.49.102,RL,2022.2.5,60.0228206763731,
32,54,16,65,0,58,58,58,,,,,,,,,,,None,382.68873370000074,382.68873370000074,382.68873370000074,382.68873370000074,382.68873370000074,382.68873370000074,i,0.829578799999581,383.5389093999984,383.5389093999984,383.5389093999984,383.5389093999984,383.5389093999984,383.5389093999984,383.82208139999784,385.07164249999914,385.0882249999995,385.0882249999995,385.0882249999995,385.0882249999995,385.0882249999995,385.0882249999995,385.0882249999995,385.0882249999995,385.0882249999995,385.0882249999995,385.0882249999995,385.0882249999995,385.0882249999995,386.61981899999955,386.61981899999955,386.61981899999955,386.61981899999955,386.61981899999955,386.61981899999955,386.61981899999955,54,32,65,16,65,60,386.61981899999955,388.3709529999978,,,,,,,,,,,,,,,,,,,,３１３,f,１８,2023-05-18_17h39.49.102,RL,2022.2.5,60.0228206763731,
32,58,7,72,0,59,59,59,,,,,,,,,,,None,388.3709529999978,388.3709529999978,388.3709529999978,388.3709529999978,388.3709529999978,388.3709529999978,None,,,,,,,,,,,,,,,,,,,,,,,,,,,,,,58,32,72,7,0,60,395.88495359999797,397.5030422999989,389.87178589999894,395.88495359999797,,,,,,,,,,,,,,,,,,３１３,f,１８,2023-05-18_17h39.49.102,RL,2022.2.5,60.0228206763731,
39,46,13,66,0,60,60,60,,,,,,,,,,,None,397.5030422999989,397.5030422999989,397.5030422999989,397.5030422999989,397.5030422999989,397.5030422999989,i,1.0801438999988022,398.6038265999996,398.6038265999996,398.6038265999996,398.6038265999996,398.6038265999996,398.6038265999996,398.8863296999989,400.55277529999876,400.5694141999993,400.5694141999993,400.5694141999993,400.5694141999993,400.5694141999993,400.5694141999993,400.5694141999993,400.5694141999993,400.5694141999993,400.5694141999993,400.5694141999993,400.5694141999993,400.5694141999993,402.533664999999,402.533664999999,402.533664999999,402.533664999999,402.533664999999,402.533664999999,402.533664999999,46,39,66,13,66,60,402.533664999999,404.18511170000056,,,,,,,,,,,,,,,,,,,,３１３,f,１８,2023-05-18_17h39.49.102,RL,2022.2.5,60.0228206763731,
42,50,17,61,0,61,61,61,,,,,,,,,,,None,404.18511170000056,404.18511170000056,404.18511170000056,404.18511170000056,404.18511170000056,404.18511170000056,i,1.2071212000009837,405.4183133000006,405.4183133000006,405.4183133000006,405.4183133000006,405.4183133000006,405.4183133000006,405.7185759999993,407.667711099999,407.667711099999,407.667711099999,407.667711099999,407.667711099999,407.667711099999,407.667711099999,407.667711099999,407.667711099999,407.667711099999,407.667711099999,407.667711099999,407.667711099999,407.667711099999,409.9156989000003,409.9156989000003,409.9156989000003,409.9156989000003,409.9156989000003,409.9156989000003,409.9156989000003,50,42,61,17,61,60,409.9156989000003,411.8332718999991,,,,,,,,,,,,,,,,,,,,３１３,f,１８,2023-05-18_17h39.49.102,RL,2022.2.5,60.0228206763731,
26,43,21,66,0,62,62,62,,,,,,,,,,,None,411.8332718999991,411.8332718999991,411.8332718999991,411.8332718999991,411.8332718999991,411.8332718999991,j,0.8384400000031746,412.70081539999956,412.70081539999956,412.70081539999956,412.70081539999956,412.70081539999956,412.70081539999956,412.9836991999982,413.85010469999906,413.8670420999988,413.8670420999988,413.8670420999988,413.8670420999988,413.8670420999988,413.8670420999988,413.8670420999988,413.8670420999988,413.8670420999988,413.8670420999988,413.8670420999988,413.8670420999988,413.8670420999988,415.0315760000012,415.0315760000012,415.0315760000012,415.0315760000012,415.0315760000012,415.0315760000012,415.0315760000012,43,26,66,21,21,60,415.0315760000012,417.01554209999813,,,,,,,,,,,,,,,,,,,,３１３,f,１８,2023-05-18_17h39.49.102,RL,2022.2.5,60.0228206763731,
31,46,22,65,0,63,63,63,,,,,,,,,,,None,417.01554209999813,417.01554209999813,417.01554209999813,417.01554209999813,417.01554209999813,417.01554209999813,i,0.6589874000019336,417.7000439000003,417.7000439000003,417.7000439000003,417.7000439000003,417.7000439000003,417.7000439000003,417.9829224999994,419.89924020000035,419.91580199999953,419.91580199999953,419.91580199999953,419.91580199999953,419.91580199999953,419.91580199999953,419.91580199999953,419.91580199999953,419.91580199999953,419.91580199999953,419.91580199999953,419.91580199999953,419.91580199999953,422.1304240999998,422.1304240999998,422.1304240999998,422.1304240999998,422.1304240999998,422.1304240999998,422.1304240999998,46,31,65,22,65,60,422.1304240999998,423.81453300000067,,,,,,,,,,,,,,,,,,,,３１３,f,１８,2023-05-18_17h39.49.102,RL,2022.2.5,60.0228206763731,
29,49,20,57,0,64,64,64,,,,,,,,,,,None,423.81453300000067,423.81453300000067,423.81453300000067,423.81453300000067,423.81453300000067,423.81453300000067,i,0.6437777999999525,424.48376279999866,424.48376279999866,424.48376279999866,424.48376279999866,424.48376279999866,424.48376279999866,424.76514809999935,426.4647318999996,426.4812835999983,426.4812835999983,426.4812835999983,426.4812835999983,426.4812835999983,426.4812835999983,426.4812835999983,426.4812835999983,426.4812835999983,426.4812835999983,426.4812835999983,426.4812835999983,426.4812835999983,428.4791647999991,428.4791647999991,428.4791647999991,428.4791647999991,428.4791647999991,428.4791647999991,428.4791647999991,49,29,57,20,57,60,428.4791647999991,430.047335700001,,,,,,,,,,,,,,,,,,,,３１３,f,１８,2023-05-18_17h39.49.102,RL,2022.2.5,60.0228206763731,
29,45,23,66,0,65,65,65,,,,,,,,,,,None,430.047335700001,430.047335700001,430.047335700001,430.047335700001,430.047335700001,430.047335700001,f,1.204196900001989,431.2839294000005,431.2839294000005,431.2839294000005,431.2839294000005,431.2839294000005,431.2839294000005,431.58083279999846,433.5635254000008,433.5801386999992,433.5801386999992,433.5801386999992,433.5801386999992,433.5801386999992,433.5801386999992,433.5801386999992,433.5801386999992,433.5801386999992,433.5801386999992,433.5801386999992,433.5801386999992,433.5801386999992,435.8610775999987,435.8610775999987,435.8610775999987,435.8610775999987,435.8610775999987,435.8610775999987,435.8610775999987,45,29,66,23,45,60,435.8610775999987,437.81261729999824,,,,,,,,,,,,,,,,,,,,３１３,f,１８,2023-05-18_17h39.49.102,RL,2022.2.5,60.0228206763731,
20,48,18,61,0,66,66,66,,,,,,,,,,,None,437.81261729999824,437.81261729999824,437.81261729999824,437.81261729999824,437.81261729999824,437.81261729999824,r,0.4321982000001299,438.2662359999995,438.2662359999995,438.2662359999995,438.2662359999995,438.2662359999995,438.2662359999995,438.5461933000006,439.5457616999993,439.57892789999823,439.57892789999823,439.57892789999823,439.57892789999823,439.57892789999823,439.57892789999823,439.57892789999823,439.57892789999823,439.57892789999823,439.57892789999823,439.57892789999823,439.57892789999823,439.57892789999823,440.8770654,440.8770654,440.8770654,440.8770654,440.8770654,440.8770654,440.8770654,48,20,61,18,20,60,440.8770654,442.42792389999886,,,,,,,,,,,,,,,,,,,,３１３,f,１８,2023-05-18_17h39.49.102,RL,2022.2.5,60.0228206763731,
31,48,16,67,0,67,67,67,,,,,,,,,,,None,442.42792389999886,442.42792389999886,442.42792389999886,442.42792389999886,442.42792389999886,442.42792389999886,i,0.5047931000008248,442.9622066000011,442.9622066000011,442.9622066000011,442.9622066000011,442.9622066000011,442.9622066000011,443.2451672999996,444.5119878000005,444.5283258999989,444.5283258999989,444.5283258999989,444.5283258999989,444.5283258999989,444.5283258999989,444.5283258999989,444.5283258999989,444.5283258999989,444.5283258999989,444.5283258999989,444.5283258999989,444.5283258999989,446.093131900001,446.093131900001,446.093131900001,446.093131900001,446.093131900001,446.093131900001,446.093131900001,48,31,67,16,67,60,446.093131900001,447.84409360000063,,,,,,,,,,,,,,,,,,,,３１３,f,１８,2023-05-18_17h39.49.102,RL,2022.2.5,60.0228206763731,
18,47,22,65,0,68,68,68,,,,,,,,,,,None,447.84409360000063,447.84409360000063,447.84409360000063,447.84409360000063,447.84409360000063,447.84409360000063,i,0.8404915999999503,448.71135810000123,448.71135810000123,448.71135810000123,448.71135810000123,448.71135810000123,448.71135810000123,449.01070600000094,450.9935297000011,450.9935297000011,450.9935297000011,450.9935297000011,450.9935297000011,450.9935297000011,450.9935297000011,450.9935297000011,450.9935297000011,450.9935297000011,450.9935297000011,450.9935297000011,450.9935297000011,450.9935297000011,453.2749533999995,453.2749533999995,453.2749533999995,453.2749533999995,453.2749533999995,453.2749533999995,453.2749533999995,47,18,65,22,65,60,453.2749533999995,455.10943229999975,,,,,,,,,,,,,,,,,,,,３１３,f,１８,2023-05-18_17h39.49.102,RL,2022.2.5,60.0228206763731,
24,57,14,67,0,69,69,69,,,,,,,,,,,None,455.10943229999975,455.10943229999975,455.10943229999975,455.10943229999975,455.10943229999975,455.10943229999975,i,1.0469069999999192,456.1767397000003,456.1767397000003,456.1767397000003,456.1767397000003,456.1767397000003,456.1767397000003,456.4765504999996,458.2424960999997,458.2424960999997,458.2424960999997,458.2424960999997,458.2424960999997,458.2424960999997,458.2424960999997,458.2424960999997,458.2424960999997,458.2424960999997,458.2424960999997,458.2424960999997,458.2424960999997,458.2424960999997,460.3069723000008,460.3069723000008,460.3069723000008,460.3069723000008,460.3069723000008,460.3069723000008,460.3069723000008,57,24,67,14,67,60,460.3069723000008,462.2749427999988,,,,,,,,,,,,,,,,,,,,３１３,f,１８,2023-05-18_17h39.49.102,RL,2022.2.5,60.0228206763731,
23,58,21,66,0,70,70,70,,,,,,,,,,,None,462.2749427999988,462.2749427999988,462.2749427999988,462.2749427999988,462.2749427999988,462.2749427999988,i,0.8557927000001655,463.16156910000063,463.16156910000063,463.16156910000063,463.16156910000063,463.16156910000063,463.16156910000063,463.4585404999998,464.7746479999987,464.7746479999987,464.7746479999987,464.7746479999987,464.7746479999987,464.7746479999987,464.7746479999987,464.7746479999987,464.7746479999987,464.7746479999987,464.7746479999987,464.7746479999987,464.7746479999987,464.7746479999987,466.3892784999989,466.3892784999989,466.3892784999989,466.3892784999989,466.3892784999989,466.3892784999989,466.3892784999989,58,23,66,21,66,60,466.3892784999989,468.0404343000009,,,,,,,,,,,,,,,,,,,,３１３,f,１８,2023-05-18_17h39.49.102,RL,2022.2.5,60.0228206763731,
27,52,29,66,0,71,71,71,,,,,,,,,,,None,468.0404343000009,468.0404343000009,468.0404343000009,468.0404343000009,468.0404343000009,468.0404343000009,i,0.5531673000004957,468.62922360000084,468.62922360000084,468.62922360000084,468.62922360000084,468.62922360000084,468.62922360000084,468.9075754000005,470.3070606000001,470.3406639999994,470.3406639999994,470.3406639999994,470.3406639999994,470.3406639999994,470.3406639999994,470.3406639999994,470.3406639999994,470.3406639999994,470.3406639999994,470.3406639999994,470.3406639999994,470.3406639999994,472.0382847000001,472.0382847000001,472.0382847000001,472.0382847000001,472.0382847000001,472.0382847000001,472.0382847000001,52,27,66,29,66,60,472.0382847000001,473.7725443999989,,,,,,,,,,,,,,,,,,,,３１３,f,１８,2023-05-18_17h39.49.102,RL,2022.2.5,60.0228206763731,
35,61,10,71,0,72,72,72,,,,,,,,,,,None,473.7725443999989,473.7725443999989,473.7725443999989,473.7725443999989,473.7725443999989,473.7725443999989,i,0.8458561999977974,474.64151330000095,474.64151330000095,474.64151330000095,474.64151330000095,474.64151330000095,474.64151330000095,474.93972009999925,476.505933299999,476.505933299999,476.505933299999,476.505933299999,476.505933299999,476.505933299999,476.505933299999,476.505933299999,476.505933299999,476.505933299999,476.505933299999,476.505933299999,476.505933299999,476.505933299999,478.3708409999999,478.3708409999999,478.3708409999999,478.3708409999999,478.3708409999999,478.3708409999999,478.3708409999999,61,35,71,10,71,60,478.3708409999999,479.921639199998,,,,,,,,,,,,,,,,,,,,３１３,f,１８,2023-05-18_17h39.49.102,RL,2022.2.5,60.0228206763731,
22,58,26,60,0,73,73,73,,,,,,,,,,,None,479.921639199998,479.921639199998,479.921639199998,479.921639199998,479.921639199998,479.921639199998,i,0.8979060000019672,480.83887049999976,480.83887049999976,480.83887049999976,480.83887049999976,480.83887049999976,480.83887049999976,481.12147990000085,482.72131979999904,482.73795210000026,482.73795210000026,482.73795210000026,482.73795210000026,482.73795210000026,482.73795210000026,482.73795210000026,482.73795210000026,482.73795210000026,482.73795210000026,482.73795210000026,482.73795210000026,482.73795210000026,484.63605969999844,484.63605969999844,484.63605969999844,484.63605969999844,484.63605969999844,484.63605969999844,484.63605969999844,58,22,60,26,60,60,484.63605969999844,486.30378779999955,,,,,,,,,,,,,,,,,,,,３１３,f,１８,2023-05-18_17h39.49.102,RL,2022.2.5,60.0228206763731,
30,48,19,63,0,74,74,74,,,,,,,,,,,None,486.30378779999955,486.30378779999955,486.30378779999955,486.30378779999955,486.30378779999955,486.30378779999955,None,,,,,,,,,,,,,,,,,,,,,,,,,,,,,,48,30,63,19,0,60,493.81816759999856,495.584453200001,487.8068858999977,493.81816759999856,487.8068858999977,487.8068858999977,487.8068858999977,487.8068858999977,487.8068858999977,487.8068858999977,,,,,,,,,,,,３１３,f,１８,2023-05-18_17h39.49.102,RL,2022.2.5,60.0228206763731,
29,52,26,60,0,75,75,75,,,,,,,,,,,q,510.0165334000012,510.0165334000012,510.0165334000012,510.0165334000012,510.0165334000012,510.0165334000012,r,0.945899800000916,510.9869011999981,510.9869011999981,510.9869011999981,510.9869011999981,510.9869011999981,510.9869011999981,511.26682009999786,512.9494847999995,512.9829538000013,512.9829538000013,512.9829538000013,512.9829538000013,512.9829538000013,512.9829538000013,512.9829538000013,512.9829538000013,512.9829538000013,512.9829538000013,512.9829538000013,512.9829538000013,512.9829538000013,514.9650011999984,514.9650011999984,514.9650011999984,514.9650011999984,514.9650011999984,514.9650011999984,514.9650011999984,52,29,60,26,29,60,514.9650011999984,516.9487850000005,,,,,,,,,495.584453200001,495.584453200001,9.387656899998547,505.00143079999907,505.00143079999907,510.0165334000012,510.0165334000012,,,,,３１３,f,１８,2023-05-18_17h39.49.102,RL,2022.2.5,60.0228206763731,
29,54,29,64,0,76,76,76,,,,,,,,,,,None,516.9487850000005,516.9487850000005,516.9487850000005,516.9487850000005,516.9487850000005,516.9487850000005,f,0.571066399999836,517.5542380999977,517.5542380999977,517.5542380999977,517.5542380999977,517.5542380999977,517.5542380999977,517.8490648999978,519.5650017000007,519.5650017000007,519.5650017000007,519.5650017000007,519.5650017000007,519.5650017000007,519.5650017000007,519.5650017000007,519.5650017000007,519.5650017000007,519.5650017000007,519.5650017000007,519.5650017000007,519.5650017000007,521.5795260000014,521.5795260000014,521.5795260000014,521.5795260000014,521.5795260000014,521.5795260000014,521.5795260000014,54,29,64,29,54,60,521.5795260000014,523.2143195999997,,,,,,,,,,,,,,,,,,,,３１３,f,１８,2023-05-18_17h39.49.102,RL,2022.2.5,60.0228206763731,
38,57,32,59,0,77,77,77,,,,,,,,,,,None,523.2143195999997,523.2143195999997,523.2143195999997,523.2143195999997,523.2143195999997,523.2143195999997,i,0.38048300000082236,523.6197008999989,523.6197008999989,523.6197008999989,523.6197008999989,523.6197008999989,523.6197008999989,523.8979758999994,525.4808446999996,525.4975438000001,525.4975438000001,525.4975438000001,525.4975438000001,525.4975438000001,525.4975438000001,525.4975438000001,525.4975438000001,525.4975438000001,525.4975438000001,525.4975438000001,525.4975438000001,525.4975438000001,527.3785994999998,527.3785994999998,527.3785994999998,527.3785994999998,527.3785994999998,527.3785994999998,527.3785994999998,57,38,59,32,59,60,527.3785994999998,529.230327199999,,,,,,,,,,,,,,,,,,,,３１３,f,１８,2023-05-18_17h39.49.102,RL,2022.2.5,60.0228206763731,
29,54,23,73,0,78,78,78,,,,,,,,,,,None,529.230327199999,529.230327199999,529.230327199999,529.230327199999,529.230327199999,529.230327199999,j,0.6064622000012605,529.865243799999,529.865243799999,529.865243799999,529.865243799999,529.865243799999,529.865243799999,530.1634672,531.6464777000001,531.6464777000001,531.6464777000001,531.6464777000001,531.6464777000001,531.6464777000001,531.6464777000001,531.6464777000001,531.6464777000001,531.6464777000001,531.6464777000001,531.6464777000001,531.6464777000001,531.6464777000001,533.4280092999979,533.4280092999979,533.4280092999979,533.4280092999979,533.4280092999979,533.4280092999979,533.4280092999979,54,29,73,23,23,60,533.4280092999979,534.9956787999981,,,,,,,,,,,,,,,,,,,,３１３,f,１８,2023-05-18_17h39.49.102,RL,2022.2.5,60.0228206763731,
36,42,24,61,0,79,79,79,,,,,,,,,,,None,534.9956787999981,534.9956787999981,534.9956787999981,534.9956787999981,534.9956787999981,534.9956787999981,r,0.5352339999990363,535.5682467000006,535.5682467000006,535.5682467000006,535.5682467000006,535.5682467000006,535.5682467000006,535.8621647,537.0788393000003,537.0952476999992,537.0952476999992,537.0952476999992,537.0952476999992,537.0952476999992,537.0952476999992,537.0952476999992,537.0952476999992,537.0952476999992,537.0952476999992,537.0952476999992,537.0952476999992,537.0952476999992,538.6103655999977,538.6103655999977,538.6103655999977,538.6103655999977,538.6103655999977,538.6103655999977,538.6103655999977,42,36,61,24,36,60,538.6103655999977,540.2279036,,,,,,,,,,,,,,,,,,,,３１３,f,１８,2023-05-18_17h39.49.102,RL,2022.2.5,60.0228206763731,
35,43,32,61,0,80,80,80,,,,,,,,,,,None,540.2279036,540.2279036,540.2279036,540.2279036,540.2279036,540.2279036,f,0.47498220000125,540.7288712000009,540.7288712000009,540.7288712000009,540.7288712000009,540.7288712000009,540.7288712000009,541.0282264999987,542.6609834999981,542.6609834999981,542.6609834999981,542.6609834999981,542.6609834999981,542.6609834999981,542.6609834999981,542.6609834999981,542.6609834999981,542.6609834999981,542.6609834999981,542.6609834999981,542.6609834999981,542.6609834999981,544.5928295000012,544.5928295000012,544.5928295000012,544.5928295000012,544.5928295000012,544.5928295000012,544.5928295000012,43,35,61,32,43,60,544.5928295000012,546.5101542999982,,,,,,,,,,,,,,,,,,,,３１３,f,１８,2023-05-18_17h39.49.102,RL,2022.2.5,60.0228206763731,
37,46,27,64,0,81,81,81,,,,,,,,,,,None,546.5101542999982,546.5101542999982,546.5101542999982,546.5101542999982,546.5101542999982,546.5101542999982,None,,,,,,,,,,,,,,,,,,,,,,,,,,,,,,46,37,64,27,0,60,554.0236860000005,555.8422538999985,548.0119892000002,554.0236860000005,548.0119892000002,548.0119892000002,548.0119892000002,548.0119892000002,548.0119892000002,548.0119892000002,,,,,,,,,,,,３１３,f,１８,2023-05-18_17h39.49.102,RL,2022.2.5,60.0228206763731,
43,48,21,67,0,82,82,82,,,,,,,,,,,None,555.8422538999985,555.8422538999985,555.8422538999985,555.8422538999985,555.8422538999985,555.8422538999985,i,1.1540879999993194,557.0297737000001,557.0297737000001,557.0297737000001,557.0297737000001,557.0297737000001,557.0297737000001,557.325066999998,558.4918647999984,558.4918647999984,558.4918647999984,558.4918647999984,558.4918647999984,558.4918647999984,558.4918647999984,558.4918647999984,558.4918647999984,558.4918647999984,558.4918647999984,558.4918647999984,558.4918647999984,558.4918647999984,559.9562456999993,559.9562456999993,559.9562456999993,559.9562456999993,559.9562456999993,559.9562456999993,559.9562456999993,48,43,67,21,67,60,559.9562456999993,561.8411822999988,,,,,,,,,,,,,,,,,,,,３１３,f,１８,2023-05-18_17h39.49.102,RL,2022.2.5,60.0228206763731,
44,54,28,81,0,83,83,83,,,,,,,,,,,None,561.8411822999988,561.8411822999988,561.8411822999988,561.8411822999988,561.8411822999988,561.8411822999988,i,1.069046900000103,562.9497941000009,562.9497941000009,562.9497941000009,562.9497941000009,562.9497941000009,562.9497941000009,563.2412132999998,564.4737447999978,564.4737447999978,564.4737447999978,564.4737447999978,564.4737447999978,564.4737447999978,564.4737447999978,564.4737447999978,564.4737447999978,564.4737447999978,564.4737447999978,564.4737447999978,564.4737447999978,564.4737447999978,565.9888887999987,565.9888887999987,565.9888887999987,565.9888887999987,565.9888887999987,565.9888887999987,565.9888887999987,54,44,81,28,81,60,565.9888887999987,567.5064641999998,,,,,,,,,,,,,,,,,,,,３１３,f,１８,2023-05-18_17h39.49.102,RL,2022.2.5,60.0228206763731,
38,45,22,82,0,84,84,84,,,,,,,,,,,None,567.5064641999998,567.5064641999998,567.5064641999998,567.5064641999998,567.5064641999998,567.5064641999998,i,1.170071900000039,568.7108532999991,568.7108532999991,568.7108532999991,568.7108532999991,568.7108532999991,568.7108532999991,569.006919200001,570.2065438999998,570.2065438999998,570.2065438999998,570.2065438999998,570.2065438999998,570.2065438999998,570.2065438999998,570.2065438999998,570.2065438999998,570.2065438999998,570.2065438999998,570.2065438999998,570.2065438999998,570.2065438999998,571.7043163999988,571.7043163999988,571.7043163999988,571.7043163999988,571.7043163999988,571.7043163999988,571.7043163999988,45,38,82,22,82,60,571.7043163999988,573.3386573999996,,,,,,,,,,,,,,,,,,,,３１３,f,１８,2023-05-18_17h39.49.102,RL,2022.2.5,60.0228206763731,
43,53,17,77,0,85,85,85,,,,,,,,,,,None,573.3386573999996,573.3386573999996,573.3386573999996,573.3386573999996,573.3386573999996,573.3386573999996,i,1.3140263999994204,574.6744547999988,574.6744547999988,574.6744547999988,574.6744547999988,574.6744547999988,574.6744547999988,574.9719474999984,576.3552053999992,576.3552053999992,576.3552053999992,576.3552053999992,576.3552053999992,576.3552053999992,576.3552053999992,576.3552053999992,576.3552053999992,576.3552053999992,576.3552053999992,576.3552053999992,576.3552053999992,576.3552053999992,578.0365506999988,578.0365506999988,578.0365506999988,578.0365506999988,578.0365506999988,578.0365506999988,578.0365506999988,53,43,77,17,77,60,578.0365506999988,579.8382497999992,,,,,,,,,,,,,,,,,,,,３１３,f,１８,2023-05-18_17h39.49.102,RL,2022.2.5,60.0228206763731,
41,53,20,77,0,86,86,86,,,,,,,,,,,None,579.8382497999992,579.8382497999992,579.8382497999992,579.8382497999992,579.8382497999992,579.8382497999992,i,1.2435199999999895,581.1073393999977,581.1073393999977,581.1073393999977,581.1073393999977,581.1073393999977,581.1073393999977,581.3875257,582.9878417,583.004120499998,583.004120499998,583.004120499998,583.004120499998,583.004120499998,583.004120499998,583.004120499998,583.004120499998,583.004120499998,583.004120499998,583.004120499998,583.004120499998,583.004120499998,584.9024487999995,584.9024487999995,584.9024487999995,584.9024487999995,584.9024487999995,584.9024487999995,584.9024487999995,53,41,77,20,77,60,584.9024487999995,586.4199287999982,,,,,,,,,,,,,,,,,,,,３１３,f,１８,2023-05-18_17h39.49.102,RL,2022.2.5,60.0228206763731,
38,57,19,74,0,87,87,87,,,,,,,,,,,None,586.4199287999982,586.4199287999982,586.4199287999982,586.4199287999982,586.4199287999982,586.4199287999982,f,0.5123131000000285,586.9583605999978,586.9583605999978,586.9583605999978,586.9583605999978,586.9583605999978,586.9583605999978,587.2367675999994,588.3033207999979,588.3367478,588.3367478,588.3367478,588.3367478,588.3367478,588.3367478,588.3367478,588.3367478,588.3367478,588.3367478,588.3367478,588.3367478,588.3367478,589.7013098999996,589.7013098999996,589.7013098999996,589.7013098999996,589.7013098999996,589.7013098999996,589.7013098999996,57,38,74,19,57,60,589.7013098999996,591.3190663999994,,,,,,,,,,,,,,,,,,,,３１３,f,１８,2023-05-18_17h39.49.102,RL,2022.2.5,60.0228206763731,
31,61,25,69,0,88,88,88,,,,,,,,,,,None,591.3190663999994,591.3190663999994,591.3190663999994,591.3190663999994,591.3190663999994,591.3190663999994,i,0.6361661000009917,591.9874701999979,591.9874701999979,591.9874701999979,591.9874701999979,591.9874701999979,591.9874701999979,592.2861946999983,593.3191437999994,593.3191437999994,593.3191437999994,593.3191437999994,593.3191437999994,593.3191437999994,593.3191437999994,593.3191437999994,593.3191437999994,593.3191437999994,593.3191437999994,593.3191437999994,593.3191437999994,593.3191437999994,594.650520799998,594.650520799998,594.650520799998,594.650520799998,594.650520799998,594.650520799998,594.650520799998,61,31,69,25,69,60,594.650520799998,596.4685585999978,,,,,,,,,,,,,,,,,,,,３１３,f,１８,2023-05-18_17h39.49.102,RL,2022.2.5,60.0228206763731,
42,65,21,70,0,89,89,89,,,,,,,,,,,None,596.4685585999978,596.4685585999978,596.4685585999978,596.4685585999978,596.4685585999978,596.4685585999978,i,1.1206162000016775,597.6196186999987,597.6196186999987,597.6196186999987,597.6196186999987,597.6196186999987,597.6196186999987,597.9019212999992,599.3185029999986,599.3349139999991,599.3349139999991,599.3349139999991,599.3349139999991,599.3349139999991,599.3349139999991,599.3349139999991,599.3349139999991,599.3349139999991,599.3349139999991,599.3349139999991,599.3349139999991,599.3349139999991,601.0487514999986,601.0487514999986,601.0487514999986,601.0487514999986,601.0487514999986,601.0487514999986,601.0487514999986,65,42,70,21,70,60,601.0487514999986,602.8501595999987,,,,,,,,,,,,,,,,,,,,３１３,f,１８,2023-05-18_17h39.49.102,RL,2022.2.5,60.0228206763731,
42,56,11,62,0,90,90,90,,,,,,,,,,,None,602.8501595999987,602.8501595999987,602.8501595999987,602.8501595999987,602.8501595999987,602.8501595999987,i,1.0640840999985812,603.9343067000009,603.9343067000009,603.9343067000009,603.9343067000009,603.9343067000009,603.9343067000009,604.2170316999982,605.4667812000007,605.4833364000006,605.4833364000006,605.4833364000006,605.4833364000006,605.4833364000006,605.4833364000006,605.4833364000006,605.4833364000006,605.4833364000006,605.4833364000006,605.4833364000006,605.4833364000006,605.4833364000006,607.0317314999993,607.0317314999993,607.0317314999993,607.0317314999993,607.0317314999993,607.0317314999993,607.0317314999993,56,42,62,11,62,60,607.0317314999993,608.7326289999983,,,,,,,,,,,,,,,,,,,,３１３,f,１８,2023-05-18_17h39.49.102,RL,2022.2.5,60.0228206763731,
48,55,25,61,0,91,91,91,,,,,,,,,,,None,608.7326289999983,608.7326289999983,608.7326289999983,608.7326289999983,608.7326289999983,608.7326289999983,i,0.9605241000026581,609.7173753999996,609.7173753999996,609.7173753999996,609.7173753999996,609.7173753999996,609.7173753999996,610.0162347000005,611.1493922000009,611.1493922000009,611.1493922000009,611.1493922000009,611.1493922000009,611.1493922000009,611.1493922000009,611.1493922000009,611.1493922000009,611.1493922000009,611.1493922000009,611.1493922000009,611.1493922000009,611.1493922000009,612.5804257999989,612.5804257999989,612.5804257999989,612.5804257999989,612.5804257999989,612.5804257999989,612.5804257999989,55,48,61,25,61,60,612.5804257999989,614.5813901000001,,,,,,,,,,,,,,,,,,,,３１３,f,１８,2023-05-18_17h39.49.102,RL,2022.2.5,60.0228206763731,
56,56,17,68,0,92,92,92,,,,,,,,,,,None,614.5813901000001,614.5813901000001,614.5813901000001,614.5813901000001,614.5813901000001,614.5813901000001,i,1.0807103000006464,615.6838080999987,615.6838080999987,615.6838080999987,615.6838080999987,615.6838080999987,615.6838080999987,615.965124899998,616.9817390999997,616.9983160000011,616.9983160000011,616.9983160000011,616.9983160000011,616.9983160000011,616.9983160000011,616.9983160000011,616.9983160000011,616.9983160000011,616.9983160000011,616.9983160000011,616.9983160000011,616.9983160000011,618.3130349999992,618.3130349999992,618.3130349999992,618.3130349999992,618.3130349999992,618.3130349999992,618.3130349999992,56,56,68,17,68,60,618.3130349999992,620.2309409000009,,,,,,,,,,,,,,,,,,,,３１３,f,１８,2023-05-18_17h39.49.102,RL,2022.2.5,60.0228206763731,
52,63,16,58,0,93,93,93,,,,,,,,,,,None,620.2309409000009,620.2309409000009,620.2309409000009,620.2309409000009,620.2309409000009,620.2309409000009,i,1.1883372999982384,621.4477411000007,621.4477411000007,621.4477411000007,621.4477411000007,621.4477411000007,621.4477411000007,621.7311924999995,623.0140776000007,623.0306066999983,623.0306066999983,623.0306066999983,623.0306066999983,623.0306066999983,623.0306066999983,623.0306066999983,623.0306066999983,623.0306066999983,623.0306066999983,623.0306066999983,623.0306066999983,623.0306066999983,624.611662700001,624.611662700001,624.611662700001,624.611662700001,624.611662700001,624.611662700001,624.611662700001,63,52,58,16,58,60,624.611662700001,626.1297513999998,,,,,,,,,,,,,,,,,,,,３１３,f,１８,2023-05-18_17h39.49.102,RL,2022.2.5,60.0228206763731,
46,65,14,65,0,94,94,94,,,,,,,,,,,None,626.1297513999998,626.1297513999998,626.1297513999998,626.1297513999998,626.1297513999998,626.1297513999998,i,0.9726918000014848,627.1300053999985,627.1300053999985,627.1300053999985,627.1300053999985,627.1300053999985,627.1300053999985,627.4130397999979,629.079751199999,629.0962848999989,629.0962848999989,629.0962848999989,629.0962848999989,629.0962848999989,629.0962848999989,629.0962848999989,629.0962848999989,629.0962848999989,629.0962848999989,629.0962848999989,629.0962848999989,629.0962848999989,631.0605173000004,631.0605173000004,631.0605173000004,631.0605173000004,631.0605173000004,631.0605173000004,631.0605173000004,65,46,65,14,65,60,631.0605173000004,632.5953238000002,,,,,,,,,,,,,,,,,,,,３１３,f,１８,2023-05-18_17h39.49.102,RL,2022.2.5,60.0228206763731,
50,65,13,64,0,95,95,95,,,,,,,,,,,None,632.5953238000002,632.5953238000002,632.5953238000002,632.5953238000002,632.5953238000002,632.5953238000002,i,1.0432457999995677,633.6623892999996,633.6623892999996,633.6623892999996,633.6623892999996,633.6623892999996,633.6623892999996,633.9450737000006,634.861885899998,634.8784248999982,634.8784248999982,634.8784248999982,634.8784248999982,634.8784248999982,634.8784248999982,634.8784248999982,634.8784248999982,634.8784248999982,634.8784248999982,634.8784248999982,634.8784248999982,634.8784248999982,636.093058800001,636.093058800001,636.093058800001,636.093058800001,636.093058800001,636.093058800001,636.093058800001,65,50,64,13,64,60,636.093058800001,637.7942011999985,,,,,,,,,,,,,,,,,,,,３１３,f,１８,2023-05-18_17h39.49.102,RL,2022.2.5,60.0228206763731,
42,70,24,66,0,96,96,96,,,,,,,,,,,None,637.7942011999985,637.7942011999985,637.7942011999985,637.7942011999985,637.7942011999985,637.7942011999985,i,1.243563500000164,639.0611228999987,639.0611228999987,639.0611228999987,639.0611228999987,639.0611228999987,639.0611228999987,639.3443321999985,640.8441869999988,640.8607582000004,640.8607582000004,640.8607582000004,640.8607582000004,640.8607582000004,640.8607582000004,640.8607582000004,640.8607582000004,640.8607582000004,640.8607582000004,640.8607582000004,640.8607582000004,640.8607582000004,642.6589421999997,642.6589421999997,642.6589421999997,642.6589421999997,642.6589421999997,642.6589421999997,642.6589421999997,70,42,66,24,66,60,642.6589421999997,644.559801899999,,,,,,,,,,,,,,,,,,,,３１３,f,１８,2023-05-18_17h39.49.102,RL,2022.2.5,60.0228206763731,
56,69,21,62,0,97,97,97,,,,,,,,,,,None,644.559801899999,644.559801899999,644.559801899999,644.559801899999,644.559801899999,644.559801899999,None,,,,,,,,,,,,,,,,,,,,,,,,,,,,,,69,56,62,21,0,60,652.073927999998,654.0414242000006,646.060538400001,652.073927999998,646.060538400001,646.060538400001,646.060538400001,646.060538400001,646.060538400001,646.060538400001,,,,,,,,,,,,３１３,f,１８,2023-05-18_17h39.49.102,RL,2022.2.5,60.0228206763731,
45,61,11,61,0,98,98,98,,,,,,,,,,,None,654.0414242000006,654.0414242000006,654.0414242000006,654.0414242000006,654.0414242000006,654.0414242000006,i,1.0264793000023928,655.0929413999984,655.0929413999984,655.0929413999984,655.0929413999984,655.0929413999984,655.0929413999984,655.3753223999993,657.0912879999996,657.1078577000007,657.1078577000007,657.1078577000007,657.1078577000007,657.1078577000007,657.1078577000007,657.1078577000007,657.1078577000007,657.1078577000007,657.1078577000007,657.1078577000007,657.1078577000007,657.1078577000007,659.1228202999991,659.1228202999991,659.1228202999991,659.1228202999991,659.1228202999991,659.1228202999991,659.1228202999991,61,45,61,11,61,60,659.1228202999991,660.7737151000001,,,,,,,,,,,,,,,,,,,,３１３,f,１８,2023-05-18_17h39.49.102,RL,2022.2.5,60.0228206763731,
53,65,19,54,0,99,99,99,,,,,,,,,,,None,660.7737151000001,660.7737151000001,660.7737151000001,660.7737151000001,660.7737151000001,660.7737151000001,i,1.242431700000452,662.0450481999978,662.0450481999978,662.0450481999978,662.0450481999978,662.0450481999978,662.0450481999978,662.3240416999979,663.9573782999978,663.9733697000011,663.9733697000011,663.9733697000011,663.9733697000011,663.9733697000011,663.9733697000011,663.9733697000011,663.9733697000011,663.9733697000011,663.9733697000011,663.9733697000011,663.9733697000011,663.9733697000011,665.904842699998,665.904842699998,665.904842699998,665.904842699998,665.904842699998,665.904842699998,665.904842699998,65,53,54,19,54,60,665.904842699998,667.7725367999992,,,,,,,,,,,,,,,,,,,,３１３,f,１８,2023-05-18_17h39.49.102,RL,2022.2.5,60.0228206763731,
50,62,14,53,0,100,100,100,,,,,,,,,,,None,667.7725367999992,667.7725367999992,667.7725367999992,667.7725367999992,667.7725367999992,667.7725367999992,f,0.8098575999974855,668.6077372,668.6077372,668.6077372,668.6077372,668.6077372,668.6077372,668.8896440999997,669.7558919000003,669.772264700001,669.772264700001,669.772264700001,669.772264700001,669.772264700001,669.772264700001,669.772264700001,669.772264700001,669.772264700001,669.772264700001,669.772264700001,669.772264700001,669.772264700001,670.9372360999987,670.9372360999987,670.9372360999987,670.9372360999987,670.9372360999987,670.9372360999987,670.9372360999987,62,50,53,14,62,60,670.9372360999987,672.7881550999991,,,,,,,,,,,,,,,,,,,,３１３,f,１８,2023-05-18_17h39.49.102,RL,2022.2.5,60.0228206763731,
52,66,8,64,0,101,101,101,,,,,,,,,,,None,672.7881550999991,672.7881550999991,672.7881550999991,672.7881550999991,672.7881550999991,672.7881550999991,r,1.1011647000013909,673.9305037000013,673.9305037000013,673.9305037000013,673.9305037000013,673.9305037000013,673.9305037000013,674.2052930999998,675.3382797000013,675.3715795999997,675.3715795999997,675.3715795999997,675.3715795999997,675.3715795999997,675.3715795999997,675.3715795999997,675.3715795999997,675.3715795999997,675.3715795999997,675.3715795999997,675.3715795999997,675.3715795999997,676.8028268999988,676.8028268999988,676.8028268999988,676.8028268999988,676.8028268999988,676.8028268999988,676.8028268999988,66,52,64,8,52,60,676.8028268999988,678.4208524999995,,,,,,,,,,,,,,,,,,,,３１３,f,１８,2023-05-18_17h39.49.102,RL,2022.2.5,60.0228206763731,
50,60,11,63,0,102,102,102,,,,,,,,,,,None,678.4208524999995,678.4208524999995,678.4208524999995,678.4208524999995,678.4208524999995,678.4208524999995,j,1.3460519000000204,679.7873895999983,679.7873895999983,679.7873895999983,679.7873895999983,679.7873895999983,679.7873895999983,680.0877278000007,681.9702378000002,681.9702378000002,681.9702378000002,681.9702378000002,681.9702378000002,681.9702378000002,681.9702378000002,681.9702378000002,681.9702378000002,681.9702378000002,681.9702378000002,681.9702378000002,681.9702378000002,681.9702378000002,684.1520224999986,684.1520224999986,684.1520224999986,684.1520224999986,684.1520224999986,684.1520224999986,684.1520224999986,60,50,63,11,11,60,684.1520224999986,685.819468499998,,,,,,,,,,,,,,,,,,,,３１３,f,１８,2023-05-18_17h39.49.102,RL,2022.2.5,60.0228206763731,
43,62,11,64,0,103,103,103,,,,,,,,,,,None,685.819468499998,685.819468499998,685.819468499998,685.819468499998,685.819468499998,685.819468499998,r,0.5036854999998468,686.3536640999992,686.3536640999992,686.3536640999992,686.3536640999992,686.3536640999992,686.3536640999992,686.6531084999988,687.5195540999994,687.5195540999994,687.5195540999994,687.5195540999994,687.5195540999994,687.5195540999994,687.5195540999994,687.5195540999994,687.5195540999994,687.5195540999994,687.5195540999994,687.5195540999994,687.5195540999994,687.5195540999994,688.6841791000006,688.6841791000006,688.6841791000006,688.6841791000006,688.6841791000006,688.6841791000006,688.6841791000006,62,43,64,11,43,60,688.6841791000006,690.5020421000008,,,,,,,,,,,,,,,,,,,,３１３,f,１８,2023-05-18_17h39.49.102,RL,2022.2.5,60.0228206763731,
43,56,13,64,0,104,104,104,,,,,,,,,,,None,690.5020421000008,690.5020421000008,690.5020421000008,690.5020421000008,690.5020421000008,690.5020421000008,f,0.6625643000006676,691.1891413000012,691.1891413000012,691.1891413000012,691.1891413000012,691.1891413000012,691.1891413000012,691.4858234999992,693.1851820000011,693.1851820000011,693.1851820000011,693.1851820000011,693.1851820000011,693.1851820000011,693.1851820000011,693.1851820000011,693.1851820000011,693.1851820000011,693.1851820000011,693.1851820000011,693.1851820000011,693.1851820000011,695.1833203999995,695.1833203999995,695.1833203999995,695.1833203999995,695.1833203999995,695.1833203999995,695.1833203999995,56,43,64,13,56,60,695.1833203999995,697.1509177999978,,,,,,,,,,,,,,,,,,,,３１３,f,１８,2023-05-18_17h39.49.102,RL,2022.2.5,60.0228206763731,
47,55,8,64,0,105,105,105,,,,,,,,,,,None,697.1509177999978,697.1509177999978,697.1509177999978,697.1509177999978,697.1509177999978,697.1509177999978,i,0.9175682999994024,698.1042822999989,698.1042822999989,698.1042822999989,698.1042822999989,698.1042822999989,698.1042822999989,698.3843295000006,700.1173500000004,700.1339254000013,700.1339254000013,700.1339254000013,700.1339254000013,700.1339254000013,700.1339254000013,700.1339254000013,700.1339254000013,700.1339254000013,700.1339254000013,700.1339254000013,700.1339254000013,700.1339254000013,702.1651426999997,702.1651426999997,702.1651426999997,702.1651426999997,702.1651426999997,702.1651426999997,702.1651426999997,55,47,64,8,64,60,702.1651426999997,704.0328732999988,,,,,,,,,,,,,,,,,,,,３１３,f,１８,2023-05-18_17h39.49.102,RL,2022.2.5,60.0228206763731,
39,55,15,62,0,106,106,106,,,,,,,,,,,None,704.0328732999988,704.0328732999988,704.0328732999988,704.0328732999988,704.0328732999988,704.0328732999988,i,1.019208300000173,705.083658399999,705.083658399999,705.083658399999,705.083658399999,705.083658399999,705.083658399999,705.3664238999991,706.4664224999979,706.4829877000011,706.4829877000011,706.4829877000011,706.4829877000011,706.4829877000011,706.4829877000011,706.4829877000011,706.4829877000011,706.4829877000011,706.4829877000011,706.4829877000011,706.4829877000011,706.4829877000011,707.8806521000006,707.8806521000006,707.8806521000006,707.8806521000006,707.8806521000006,707.8806521000006,707.8806521000006,55,39,62,15,62,60,707.8806521000006,709.5984973999985,,,,,,,,,,,,,,,,,,,,３１３,f,１８,2023-05-18_17h39.49.102,RL,2022.2.5,60.0228206763731,
39,52,10,60,0,107,107,107,,,,,,,,,,,None,709.5984973999985,709.5984973999985,709.5984973999985,709.5984973999985,709.5984973999985,709.5984973999985,f,0.7029382999971858,710.3337958000011,710.3337958000011,710.3337958000011,710.3337958000011,710.3337958000011,710.3337958000011,710.6321922999996,711.6489890999983,711.6652867000012,711.6652867000012,711.6652867000012,711.6652867000012,711.6652867000012,711.6652867000012,711.6652867000012,711.6652867000012,711.6652867000012,711.6652867000012,711.6652867000012,711.6652867000012,711.6652867000012,712.9797327999986,712.9797327999986,712.9797327999986,712.9797327999986,712.9797327999986,712.9797327999986,712.9797327999986,52,39,60,10,52,60,712.9797327999986,714.7644433999994,,,,,,,,,,,,,,,,,,,,３１３,f,１８,2023-05-18_17h39.49.102,RL,2022.2.5,60.0228206763731,
36,58,17,58,0,108,108,108,,,,,,,,,,,None,714.7644433999994,714.7644433999994,714.7644433999994,714.7644433999994,714.7644433999994,714.7644433999994,i,0.8849960000006831,715.6854606999987,715.6854606999987,715.6854606999987,715.6854606999987,715.6854606999987,715.6854606999987,715.9647045999991,717.9476472999995,717.9640325,717.9640325,717.9640325,717.9640325,717.9640325,717.9640325,717.9640325,717.9640325,717.9640325,717.9640325,717.9640325,717.9640325,717.9640325,720.2451952999982,720.2451952999982,720.2451952999982,720.2451952999982,720.2451952999982,720.2451952999982,720.2451952999982,58,36,58,17,58,60,720.2451952999982,722.1130284999999,,,,,,,,,,,,,,,,,,,,３１３,f,１８,2023-05-18_17h39.49.102,RL,2022.2.5,60.0228206763731,
38,57,22,56,0,109,109,109,,,,,,,,,,,None,722.1130284999999,722.1130284999999,722.1130284999999,722.1130284999999,722.1130284999999,722.1130284999999,i,0.9652827999998408,723.0997246999978,723.0997246999978,723.0997246999978,723.0997246999978,723.0997246999978,723.0997246999978,723.3801170999977,724.8965339999995,724.9131835000007,724.9131835000007,724.9131835000007,724.9131835000007,724.9131835000007,724.9131835000007,724.9131835000007,724.9131835000007,724.9131835000007,724.9131835000007,724.9131835000007,724.9131835000007,724.9131835000007,726.727474700001,726.727474700001,726.727474700001,726.727474700001,726.727474700001,726.727474700001,726.727474700001,57,38,56,22,56,60,726.727474700001,728.4123483000003,,,,,,,,,,,,,,,,,,,,３１３,f,１８,2023-05-18_17h39.49.102,RL,2022.2.5,60.0228206763731,
39,59,26,64,0,110,110,110,,,,,,,,,,,None,728.4123483000003,728.4123483000003,728.4123483000003,728.4123483000003,728.4123483000003,728.4123483000003,f,1.3508166999999958,729.7996706000013,729.7996706000013,729.7996706000013,729.7996706000013,729.7996706000013,729.7996706000013,730.0952660000003,731.4614416000004,731.4614416000004,731.4614416000004,731.4614416000004,731.4614416000004,731.4614416000004,731.4614416000004,731.4614416000004,731.4614416000004,731.4614416000004,731.4614416000004,731.4614416000004,731.4614416000004,731.4614416000004,733.1264730000003,733.1264730000003,733.1264730000003,733.1264730000003,733.1264730000003,733.1264730000003,733.1264730000003,59,39,64,26,59,60,733.1264730000003,734.8774812000011,,,,,,,,,,,,,,,,,,,,３１３,f,１８,2023-05-18_17h39.49.102,RL,2022.2.5,60.0228206763731,
44,57,21,57,0,111,111,111,,,,,,,,,,,None,734.8774812000011,734.8774812000011,734.8774812000011,734.8774812000011,734.8774812000011,734.8774812000011,i,0.9151304000006348,735.8110514,735.8110514,735.8110514,735.8110514,735.8110514,735.8110514,736.0944001999997,737.2942127999995,737.3106936000004,737.3106936000004,737.3106936000004,737.3106936000004,737.3106936000004,737.3106936000004,737.3106936000004,737.3106936000004,737.3106936000004,737.3106936000004,737.3106936000004,737.3106936000004,737.3106936000004,738.8086600999995,738.8086600999995,738.8086600999995,738.8086600999995,738.8086600999995,738.8086600999995,738.8086600999995,57,44,57,21,57,60,738.8086600999995,740.6264776999997,,,,,,,,,,,,,,,,,,,,３１３,f,１８,2023-05-18_17h39.49.102,RL,2022.2.5,60.0228206763731,
39,58,22,67,0,112,112,112,,,,,,,,,,,None,740.6264776999997,740.6264776999997,740.6264776999997,740.6264776999997,740.6264776999997,740.6264776999997,i,0.4530854999975418,741.1137013999978,741.1137013999978,741.1137013999978,741.1137013999978,741.1137013999978,741.1137013999978,741.4101933999991,743.3098286999993,743.326485499998,743.326485499998,743.326485499998,743.326485499998,743.326485499998,743.326485499998,743.326485499998,743.326485499998,743.326485499998,743.326485499998,743.326485499998,743.326485499998,743.326485499998,745.5242973999993,745.5242973999993,745.5242973999993,745.5242973999993,745.5242973999993,745.5242973999993,745.5242973999993,58,39,67,22,67,60,745.5242973999993,747.1255887000007,,,,,,,,,,,,,,,,,,,,３１３,f,１８,2023-05-18_17h39.49.102,RL,2022.2.5,60.0228206763731,
50,52,27,62,0,113,113,113,,,,,,,,,,,None,747.1255887000007,747.1255887000007,747.1255887000007,747.1255887000007,747.1255887000007,747.1255887000007,i,0.7036576000027708,747.8622814999981,747.8622814999981,747.8622814999981,747.8622814999981,747.8622814999981,747.8622814999981,748.1586046000011,750.0421809,750.0588418000007,750.0588418000007,750.0588418000007,750.0588418000007,750.0588418000007,750.0588418000007,750.0588418000007,750.0588418000007,750.0588418000007,750.0588418000007,750.0588418000007,750.0588418000007,750.0588418000007,752.2399650000007,752.2399650000007,752.2399650000007,752.2399650000007,752.2399650000007,752.2399650000007,752.2399650000007,52,50,62,27,62,60,752.2399650000007,753.8241705,,,,,,,,,,,,,,,,,,,,３１３,f,１８,2023-05-18_17h39.49.102,RL,2022.2.5,60.0228206763731,
47,51,30,51,0,114,114,114,,,,,,,,,,,None,753.8241705,753.8241705,753.8241705,753.8241705,753.8241705,753.8241705,r,1.1731465999982902,755.0254521999996,755.0254521999996,755.0254521999996,755.0254521999996,755.0254521999996,755.0254521999996,755.3076548999998,756.8071673999984,756.823975700001,756.823975700001,756.823975700001,756.823975700001,756.823975700001,756.823975700001,756.823975700001,756.823975700001,756.823975700001,756.823975700001,756.823975700001,756.823975700001,756.823975700001,758.6217410999998,758.6217410999998,758.6217410999998,758.6217410999998,758.6217410999998,758.6217410999998,758.6217410999998,51,47,51,30,47,60,758.6217410999998,760.522753199999,,,,,,,,,,,,,,,,,,,,３１３,f,１８,2023-05-18_17h39.49.102,RL,2022.2.5,60.0228206763731,
51,54,35,53,0,115,115,115,,,,,,,,,,,None,760.522753199999,760.522753199999,760.522753199999,760.522753199999,760.522753199999,760.522753199999,f,0.7926378999982262,761.3400528999991,761.3400528999991,761.3400528999991,761.3400528999991,761.3400528999991,761.3400528999991,761.6232528,763.3898611000004,763.4064442999988,763.4064442999988,763.4064442999988,763.4064442999988,763.4064442999988,763.4064442999988,763.4064442999988,763.4064442999988,763.4064442999988,763.4064442999988,763.4064442999988,763.4064442999988,763.4064442999988,765.4705823000004,765.4705823000004,765.4705823000004,765.4705823000004,765.4705823000004,765.4705823000004,765.4705823000004,54,51,53,35,54,60,765.4705823000004,767.4386315999982,,,,,,,,,,,,,,,,,,,,３１３,f,１８,2023-05-18_17h39.49.102,RL,2022.2.5,60.0228206763731,
52,55,32,48,0,116,116,116,,,,,,,,,,,None,767.4386315999982,767.4386315999982,767.4386315999982,767.4386315999982,767.4386315999982,767.4386315999982,f,0.775480600001174,768.2408316000001,768.2408316000001,768.2408316000001,768.2408316000001,768.2408316000001,768.2408316000001,768.5219305999999,769.5050186999979,769.5216178999981,769.5216178999981,769.5216178999981,769.5216178999981,769.5216178999981,769.5216178999981,769.5216178999981,769.5216178999981,769.5216178999981,769.5216178999981,769.5216178999981,769.5216178999981,769.5216178999981,770.8028474999992,770.8028474999992,770.8028474999992,770.8028474999992,770.8028474999992,770.8028474999992,770.8028474999992,55,52,48,32,55,60,770.8028474999992,772.6878290999994,,,,,,,,,,,,,,,,,,,,３１３,f,１８,2023-05-18_17h39.49.102,RL,2022.2.5,60.0228206763731,
45,60,39,51,0,117,117,117,,,,,,,,,,,None,772.6878290999994,772.6878290999994,772.6878290999994,772.6878290999994,772.6878290999994,772.6878290999994,i,0.7896177000002353,773.506738,773.506738,773.506738,773.506738,773.506738,773.506738,773.8046479000004,775.2207546999998,775.2207546999998,775.2207546999998,775.2207546999998,775.2207546999998,775.2207546999998,775.2207546999998,775.2207546999998,775.2207546999998,775.2207546999998,775.2207546999998,775.2207546999998,775.2207546999998,775.2207546999998,776.9356318999999,776.9356318999999,776.9356318999999,776.9356318999999,776.9356318999999,776.9356318999999,776.9356318999999,60,45,51,39,51,60,776.9356318999999,778.9030414000008,,,,,,,,,,,,,,,,,,,,３１３,f,１８,2023-05-18_17h39.49.102,RL,2022.2.5,60.0228206763731,
49,65,32,54,0,118,118,118,,,,,,,,,,,None,778.9030414000008,778.9030414000008,778.9030414000008,778.9030414000008,778.9030414000008,778.9030414000008,i,0.5124880000003031,779.4402854,779.4402854,779.4402854,779.4402854,779.4402854,779.4402854,779.7366102999986,780.7865010999994,780.7865010999994,780.7865010999994,780.7865010999994,780.7865010999994,780.7865010999994,780.7865010999994,780.7865010999994,780.7865010999994,780.7865010999994,780.7865010999994,780.7865010999994,780.7865010999994,780.7865010999994,782.1346645000012,782.1346645000012,782.1346645000012,782.1346645000012,782.1346645000012,782.1346645000012,782.1346645000012,65,49,54,32,54,60,782.1346645000012,783.7521396000011,,,,,,,,,,,,,,,,,,,,３１３,f,１８,2023-05-18_17h39.49.102,RL,2022.2.5,60.0228206763731,
52,53,30,55,0,119,119,119,,,,,,,,,,,None,783.7521396000011,783.7521396000011,783.7521396000011,783.7521396000011,783.7521396000011,783.7521396000011,i,0.9640251999990141,784.7420590000002,784.7420590000002,784.7420590000002,784.7420590000002,784.7420590000002,784.7420590000002,785.0356620999992,786.7020663000003,786.7020663000003,786.7020663000003,786.7020663000003,786.7020663000003,786.7020663000003,786.7020663000003,786.7020663000003,786.7020663000003,786.7020663000003,786.7020663000003,786.7020663000003,786.7020663000003,786.7020663000003,788.6666196000006,788.6666196000006,788.6666196000006,788.6666196000006,788.6666196000006,788.6666196000006,788.6666196000006,53,52,55,30,55,60,788.6666196000006,790.3842299999997,,,,,,,,,,,,,,,,,,,,３１３,f,１８,2023-05-18_17h39.49.102,RL,2022.2.5,60.0228206763731,
58,60,42,49,0,120,120,120,,,,,,,,,,,None,790.3842299999997,790.3842299999997,790.3842299999997,790.3842299999997,790.3842299999997,790.3842299999997,None,,,,,,,,,,,,,,,,,,,,,,,,,,,,,,60,58,49,42,0,60,797.8987959000006,799.8163324999987,791.8850299000005,797.8987959000006,791.8850299000005,791.8850299000005,791.8850299000005,791.8850299000005,791.8850299000005,791.8850299000005,,,,,,,,,,,,３１３,f,１８,2023-05-18_17h39.49.102,RL,2022.2.5,60.0228206763731,
56,53,27,48,0,121,121,121,,,,,,,,,,,None,799.8163324999987,799.8163324999987,799.8163324999987,799.8163324999987,799.8163324999987,799.8163324999987,f,0.6051918000011938,800.4534926999986,800.4534926999986,800.4534926999986,800.4534926999986,800.4534926999986,800.4534926999986,800.7332303000003,802.4161046000008,802.4327497999984,802.4327497999984,802.4327497999984,802.4327497999984,802.4327497999984,802.4327497999984,802.4327497999984,802.4327497999984,802.4327497999984,802.4327497999984,802.4327497999984,802.4327497999984,802.4327497999984,804.414254299998,804.414254299998,804.414254299998,804.414254299998,804.414254299998,804.414254299998,804.414254299998,53,56,48,27,53,60,804.414254299998,806.3153490000004,,,,,,,,,,,,,,,,,,,,３１３,f,１８,2023-05-18_17h39.49.102,RL,2022.2.5,60.0228206763731,
52,58,35,53,0,122,122,122,,,,,,,,,,,None,806.3153490000004,806.3153490000004,806.3153490000004,806.3153490000004,806.3153490000004,806.3153490000004,f,0.6333406999983708,806.9702362999997,806.9702362999997,806.9702362999997,806.9702362999997,806.9702362999997,806.9702362999997,807.2652417999998,808.7983887999981,808.8152111999989,808.8152111999989,808.8152111999989,808.8152111999989,808.8152111999989,808.8152111999989,808.8152111999989,808.8152111999989,808.8152111999989,808.8152111999989,808.8152111999989,808.8152111999989,808.8152111999989,810.6465791999981,810.6465791999981,810.6465791999981,810.6465791999981,810.6465791999981,810.6465791999981,810.6465791999981,58,52,53,35,58,60,810.6465791999981,812.5806921000003,,,,,,,,,,,,,,,,,,,,３１３,f,１８,2023-05-18_17h39.49.102,RL,2022.2.5,60.0228206763731,
