arm1,arm2,arm3,arm4,trials.thisRepN,trials.thisTrialN,trials.thisN,trials.thisIndex,instru_img1.started,instru_resp.started,instru_resp.keys,instru_resp.rt,image_2.started,text_2.started,fixbefore_2.started,rest_response.keys,red.started,green.started,yellow.started,blue.started,choose_bandit.started,Fixation.started,choose_bandit.keys,choose_bandit.rt,black.started,red_2.started,green_2.started,yellow_2.started,blue_2.started,fixation_2.started,docs.started,docs.stopped,black.stopped,red_2.stopped,green_2.stopped,yellow_2.stopped,blue_2.stopped,fixation_2.stopped,black_com.started,reward_sub.started,reward__sub.started,red_compare.started,green_com.started,yellow_com.started,blue_com.started,black_com.stopped,reward_sub.stopped,reward__sub.stopped,red_compare.stopped,green_com.stopped,yellow_com.stopped,blue_com.stopped,rewardred,rewardyellow,rewardblue,rewardgreen,subchoose,expectation,intertrialfix.started,intertrialfix.stopped,bigx.started,bigx.stopped,rest_image.started,rest_response.started,rest_response.rt,image_expect_after.started,text_exp_after.started,image_expect_after.stopped,text_exp_after.stopped,image.started,key_resp.started,key_resp.keys,participant,Gender,Age,date,expName,psychopyVersion,frameRate,
,,,,,,,,13.583337399999436,13.583337399999436,space,3.8255418999979156,,,,,,,,,,,,,,,,,,,,,,,,,,,,,,,,,,,,,,,,,,,,,,,,,,,,,,,,,,,,,３１４,f,２４,2023-05-18_18h20.24.284,RL,2022.2.5,60.034315614453774,
28,28,47,74,0,0,0,0,,,,,17.44075089999751,17.44075089999751,22.452979399997275,None,23.454492899996694,23.454492899996694,23.454492899996694,23.454492899996694,23.454492899996694,23.454492899996694,f,0.7221286000021792,24.2148159999997,24.2148159999997,24.2148159999997,24.2148159999997,24.2148159999997,24.2148159999997,24.48957899999732,25.75793149999663,25.79556429999866,25.79556429999866,25.79556429999866,25.79556429999866,25.79556429999866,25.79556429999866,25.79556429999866,25.79556429999866,25.79556429999866,25.79556429999866,25.79556429999866,25.79556429999866,25.79556429999866,27.420997299999726,27.420997299999726,27.420997299999726,27.420997299999726,27.420997299999726,27.420997299999726,27.420997299999726,74,28,28,47,74,70,27.420997299999726,29.38641319999806,,,,,,,,,,,,,３１４,f,２４,2023-05-18_18h20.24.284,RL,2022.2.5,60.034315614453774,
27,40,49,68,0,1,1,1,,,,,,,,None,29.38641319999806,29.38641319999806,29.38641319999806,29.38641319999806,29.38641319999806,29.38641319999806,None,,,,,,,,,,,,,,,,,,,,,,,,,,,,,,68,27,40,49,0,70,36.90090919999784,38.635152999999264,30.88836269999956,36.90090919999784,,,,,,,,,,,３１４,f,２４,2023-05-18_18h20.24.284,RL,2022.2.5,60.034315614453774,
34,31,51,74,0,2,2,2,,,,,,,,None,38.635152999999264,38.635152999999264,38.635152999999264,38.635152999999264,38.635152999999264,38.635152999999264,f,0.40158799999699113,39.07391629999984,39.07391629999984,39.07391629999984,39.07391629999984,39.07391629999984,39.07391629999984,39.352305599997635,40.31857189999937,40.3348124999975,40.3348124999975,40.3348124999975,40.3348124999975,40.3348124999975,40.3348124999975,40.3348124999975,40.3348124999975,40.3348124999975,40.3348124999975,40.3348124999975,40.3348124999975,40.3348124999975,41.58310739999797,41.58310739999797,41.58310739999797,41.58310739999797,41.58310739999797,41.58310739999797,41.58310739999797,74,34,31,51,74,70,41.58310739999797,43.43396690000009,,,,,,,,,,,,,３１４,f,２４,2023-05-18_18h20.24.284,RL,2022.2.5,60.034315614453774,
27,28,51,66,0,3,3,3,,,,,,,,None,43.43396690000009,43.43396690000009,43.43396690000009,43.43396690000009,43.43396690000009,43.43396690000009,f,0.8823210000009567,44.335494399998424,44.335494399998424,44.335494399998424,44.335494399998424,44.335494399998424,44.335494399998424,44.61802209999951,45.617755499999475,45.63402009999845,45.63402009999845,45.63402009999845,45.63402009999845,45.63402009999845,45.63402009999845,45.63402009999845,45.63402009999845,45.63402009999845,45.63402009999845,45.63402009999845,45.63402009999845,45.63402009999845,46.93229699999938,46.93229699999938,46.93229699999938,46.93229699999938,46.93229699999938,46.93229699999938,46.93229699999938,66,27,28,51,66,70,46.93229699999938,48.66641889999664,,,,,,,,,,,,,３１４,f,２４,2023-05-18_18h20.24.284,RL,2022.2.5,60.034315614453774,
26,34,50,71,0,4,4,4,,,,,,,,None,48.66641889999664,48.66641889999664,48.66641889999664,48.66641889999664,48.66641889999664,48.66641889999664,r,0.775038299998414,49.46702579999692,49.46702579999692,49.46702579999692,49.46702579999692,49.46702579999692,49.46702579999692,49.750408699997934,50.916539799996826,50.933658699999796,50.933658699999796,50.933658699999796,50.933658699999796,50.933658699999796,50.933658699999796,50.933658699999796,50.933658699999796,50.933658699999796,50.933658699999796,50.933658699999796,50.933658699999796,50.933658699999796,52.398099099998944,52.398099099998944,52.398099099998944,52.398099099998944,52.398099099998944,52.398099099998944,52.398099099998944,71,26,34,50,26,70,52.398099099998944,54.232343599996966,,,,,,,,,,,,,３１４,f,２４,2023-05-18_18h20.24.284,RL,2022.2.5,60.034315614453774,
27,33,52,77,0,5,5,5,,,,,,,,None,54.232343599996966,54.232343599996966,54.232343599996966,54.232343599996966,54.232343599996966,54.232343599996966,j,0.7867469000011624,55.04949940000006,55.04949940000006,55.04949940000006,55.04949940000006,55.04949940000006,55.04949940000006,55.33249169999908,57.19894939999722,57.21537439999884,57.21537439999884,57.21537439999884,57.21537439999884,57.21537439999884,57.21537439999884,57.21537439999884,57.21537439999884,57.21537439999884,57.21537439999884,57.21537439999884,57.21537439999884,57.21537439999884,59.380117699998664,59.380117699998664,59.380117699998664,59.380117699998664,59.380117699998664,59.380117699998664,59.380117699998664,77,27,33,52,52,70,59.380117699998664,60.99777279999762,,,,,,,,,,,,,３１４,f,２４,2023-05-18_18h20.24.284,RL,2022.2.5,60.034315614453774,
32,38,55,68,0,6,6,6,,,,,,,,None,60.99777279999762,60.99777279999762,60.99777279999762,60.99777279999762,60.99777279999762,60.99777279999762,i,0.5276849000001675,61.549600099999225,61.549600099999225,61.549600099999225,61.549600099999225,61.549600099999225,61.549600099999225,61.83107569999993,63.78120679999847,63.798125999997865,63.798125999997865,63.798125999997865,63.798125999997865,63.798125999997865,63.798125999997865,63.798125999997865,63.798125999997865,63.798125999997865,63.798125999997865,63.798125999997865,63.798125999997865,63.798125999997865,66.04595119999794,66.04595119999794,66.04595119999794,66.04595119999794,66.04595119999794,66.04595119999794,66.04595119999794,68,32,38,55,38,70,66.04595119999794,67.9303218999994,,,,,,,,,,,,,３１４,f,２４,2023-05-18_18h20.24.284,RL,2022.2.5,60.034315614453774,
35,43,53,77,0,7,7,7,,,,,,,,None,67.9303218999994,67.9303218999994,67.9303218999994,67.9303218999994,67.9303218999994,67.9303218999994,f,0.5377623999993375,68.49724409999908,68.49724409999908,68.49724409999908,68.49724409999908,68.49724409999908,68.49724409999908,68.7804163999972,70.0468970999973,70.06356349999987,70.06356349999987,70.06356349999987,70.06356349999987,70.06356349999987,70.06356349999987,70.06356349999987,70.06356349999987,70.06356349999987,70.06356349999987,70.06356349999987,70.06356349999987,70.06356349999987,71.62823889999709,71.62823889999709,71.62823889999709,71.62823889999709,71.62823889999709,71.62823889999709,71.62823889999709,77,35,43,53,77,70,71.62823889999709,73.31225730000006,,,,,,,,,,,,,３１４,f,２４,2023-05-18_18h20.24.284,RL,2022.2.5,60.034315614453774,
39,39,57,81,0,8,8,8,,,,,,,,None,73.31225730000006,73.31225730000006,73.31225730000006,73.31225730000006,73.31225730000006,73.31225730000006,f,0.7406160000027739,74.07961839999916,74.07961839999916,74.07961839999916,74.07961839999916,74.07961839999916,74.07961839999916,74.36262379999971,75.69567459999962,75.71228289999999,75.71228289999999,75.71228289999999,75.71228289999999,75.71228289999999,75.71228289999999,75.71228289999999,75.71228289999999,75.71228289999999,75.71228289999999,75.71228289999999,75.71228289999999,75.71228289999999,77.34334139999919,77.34334139999919,77.34334139999919,77.34334139999919,77.34334139999919,77.34334139999919,77.34334139999919,81,39,39,57,81,70,77.34334139999919,79.34494099999938,,,,,,,,,,,,,３１４,f,２４,2023-05-18_18h20.24.284,RL,2022.2.5,60.034315614453774,
42,42,51,74,0,9,9,9,,,,,,,,None,79.34494099999938,79.34494099999938,79.34494099999938,79.34494099999938,79.34494099999938,79.34494099999938,f,0.4948084999996354,79.86162199999671,79.86162199999671,79.86162199999671,79.86162199999671,79.86162199999671,79.86162199999671,80.14505730000019,81.04499629999918,81.06128429999808,81.06128429999808,81.06128429999808,81.06128429999808,81.06128429999808,81.06128429999808,81.06128429999808,81.06128429999808,81.06128429999808,81.06128429999808,81.06128429999808,81.06128429999808,81.06128429999808,82.2597539999988,82.2597539999988,82.2597539999988,82.2597539999988,82.2597539999988,82.2597539999988,82.2597539999988,74,42,42,51,74,70,82.2597539999988,83.77734309999869,,,,,,,,,,,,,３１４,f,２４,2023-05-18_18h20.24.284,RL,2022.2.5,60.034315614453774,
41,48,47,68,0,10,10,10,,,,,,,,None,83.77734309999869,83.77734309999869,83.77734309999869,83.77734309999869,83.77734309999869,83.77734309999869,f,0.6040236000008008,84.417185899998,84.417185899998,84.417185899998,84.417185899998,84.417185899998,84.417185899998,84.71072789999744,86.11032519999935,86.11032519999935,86.11032519999935,86.11032519999935,86.11032519999935,86.11032519999935,86.11032519999935,86.11032519999935,86.11032519999935,86.11032519999935,86.11032519999935,86.11032519999935,86.11032519999935,86.11032519999935,87.80885729999864,87.80885729999864,87.80885729999864,87.80885729999864,87.80885729999864,87.80885729999864,87.80885729999864,68,41,48,47,68,70,87.80885729999864,89.45932549999998,,,,,,,,,,,,,３１４,f,２４,2023-05-18_18h20.24.284,RL,2022.2.5,60.034315614453774,
40,45,47,65,0,11,11,11,,,,,,,,None,89.45932549999998,89.45932549999998,89.45932549999998,89.45932549999998,89.45932549999998,89.45932549999998,f,0.4867639000003692,89.97967569999673,89.97967569999673,89.97967569999673,89.97967569999673,89.97967569999673,89.97967569999673,90.26009039999917,91.42677249999906,91.4427598000002,91.4427598000002,91.4427598000002,91.4427598000002,91.4427598000002,91.4427598000002,91.4427598000002,91.4427598000002,91.4427598000002,91.4427598000002,91.4427598000002,91.4427598000002,91.4427598000002,92.9080361999986,92.9080361999986,92.9080361999986,92.9080361999986,92.9080361999986,92.9080361999986,92.9080361999986,65,40,45,47,65,70,92.9080361999986,94.57523989999754,,,,,,,,,,,,,３１４,f,２４,2023-05-18_18h20.24.284,RL,2022.2.5,60.034315614453774,
50,48,40,73,0,12,12,12,,,,,,,,None,94.57523989999754,94.57523989999754,94.57523989999754,94.57523989999754,94.57523989999754,94.57523989999754,f,0.6137014999985695,95.20908839999902,95.20908839999902,95.20908839999902,95.20908839999902,95.20908839999902,95.20908839999902,95.50900799999727,96.94200309999724,96.94200309999724,96.94200309999724,96.94200309999724,96.94200309999724,96.94200309999724,96.94200309999724,96.94200309999724,96.94200309999724,96.94200309999724,96.94200309999724,96.94200309999724,96.94200309999724,96.94200309999724,98.67352759999994,98.67352759999994,98.67352759999994,98.67352759999994,98.67352759999994,98.67352759999994,98.67352759999994,73,50,48,40,73,70,98.67352759999994,100.32419459999801,,,,,,,,,,,,,３１４,f,２４,2023-05-18_18h20.24.284,RL,2022.2.5,60.034315614453774,
41,40,44,69,0,13,13,13,,,,,,,,None,100.32419459999801,100.32419459999801,100.32419459999801,100.32419459999801,100.32419459999801,100.32419459999801,f,0.628942499999539,100.97472269999707,100.97472269999707,100.97472269999707,100.97472269999707,100.97472269999707,100.97472269999707,101.25802549999935,102.70789319999676,102.72434950000024,102.72434950000024,102.72434950000024,102.72434950000024,102.72434950000024,102.72434950000024,102.72434950000024,102.72434950000024,102.72434950000024,102.72434950000024,102.72434950000024,102.72434950000024,102.72434950000024,104.47275159999845,104.47275159999845,104.47275159999845,104.47275159999845,104.47275159999845,104.47275159999845,104.47275159999845,69,41,40,44,69,70,104.47275159999845,106.28976049999983,,,,,,,,,,,,,３１４,f,２４,2023-05-18_18h20.24.284,RL,2022.2.5,60.034315614453774,
38,38,48,65,0,14,14,14,,,,,,,,None,106.28976049999983,106.28976049999983,106.28976049999983,106.28976049999983,106.28976049999983,106.28976049999983,f,0.5880480000014359,106.90838529999746,106.90838529999746,106.90838529999746,106.90838529999746,106.90838529999746,106.90838529999746,107.20705709999675,108.12379209999926,108.12379209999926,108.12379209999926,108.12379209999926,108.12379209999926,108.12379209999926,108.12379209999926,108.12379209999926,108.12379209999926,108.12379209999926,108.12379209999926,108.12379209999926,108.12379209999926,108.12379209999926,109.3382488999996,109.3382488999996,109.3382488999996,109.3382488999996,109.3382488999996,109.3382488999996,109.3382488999996,65,38,38,48,65,70,109.3382488999996,111.3057618999992,,,,,,,,,,,,,３１４,f,２４,2023-05-18_18h20.24.284,RL,2022.2.5,60.034315614453774,
37,39,51,69,0,15,15,15,,,,,,,,None,111.3057618999992,111.3057618999992,111.3057618999992,111.3057618999992,111.3057618999992,111.3057618999992,f,0.5796882000031474,111.90614999999889,111.90614999999889,111.90614999999889,111.90614999999889,111.90614999999889,111.90614999999889,112.20601619999798,113.90574599999673,113.90574599999673,113.90574599999673,113.90574599999673,113.90574599999673,113.90574599999673,113.90574599999673,113.90574599999673,113.90574599999673,113.90574599999673,113.90574599999673,113.90574599999673,113.90574599999673,113.90574599999673,115.90388539999913,115.90388539999913,115.90388539999913,115.90388539999913,115.90388539999913,115.90388539999913,115.90388539999913,69,37,39,51,69,70,115.90388539999913,117.87167199999749,,,,,,,,,,,,,３１４,f,２４,2023-05-18_18h20.24.284,RL,2022.2.5,60.034315614453774,
42,26,37,67,0,16,16,16,,,,,,,,None,117.87167199999749,117.87167199999749,117.87167199999749,117.87167199999749,117.87167199999749,117.87167199999749,f,0.409225499999593,118.30512829999861,118.30512829999861,118.30512829999861,118.30512829999861,118.30512829999861,118.30512829999861,118.58782549999887,119.52170719999776,119.53822159999982,119.53822159999982,119.53822159999982,119.53822159999982,119.53822159999982,119.53822159999982,119.53822159999982,119.53822159999982,119.53822159999982,119.53822159999982,119.53822159999982,119.53822159999982,119.53822159999982,120.76975459999812,120.76975459999812,120.76975459999812,120.76975459999812,120.76975459999812,120.76975459999812,120.76975459999812,67,42,26,37,67,70,120.76975459999812,122.67022019999786,,,,,,,,,,,,,３１４,f,２４,2023-05-18_18h20.24.284,RL,2022.2.5,60.034315614453774,
47,30,40,67,0,17,17,17,,,,,,,,None,122.67022019999786,122.67022019999786,122.67022019999786,122.67022019999786,122.67022019999786,122.67022019999786,f,0.5612040000014531,123.2556971999984,123.2556971999984,123.2556971999984,123.2556971999984,123.2556971999984,123.2556971999984,123.53780569999799,125.05340259999866,125.07017199999973,125.07017199999973,125.07017199999973,125.07017199999973,125.07017199999973,125.07017199999973,125.07017199999973,125.07017199999973,125.07017199999973,125.07017199999973,125.07017199999973,125.07017199999973,125.07017199999973,126.88503659999697,126.88503659999697,126.88503659999697,126.88503659999697,126.88503659999697,126.88503659999697,126.88503659999697,67,47,30,40,67,70,126.88503659999697,128.76990419999856,,,,,,,,,,,,,３１４,f,２４,2023-05-18_18h20.24.284,RL,2022.2.5,60.034315614453774,
48,31,39,73,0,18,18,18,,,,,,,,None,128.76990419999856,128.76990419999856,128.76990419999856,128.76990419999856,128.76990419999856,128.76990419999856,f,0.4580037000014272,129.25310049999825,129.25310049999825,129.25310049999825,129.25310049999825,129.25310049999825,129.25310049999825,129.53642089999994,130.4694649999983,130.48605529999986,130.48605529999986,130.48605529999986,130.48605529999986,130.48605529999986,130.48605529999986,130.48605529999986,130.48605529999986,130.48605529999986,130.48605529999986,130.48605529999986,130.48605529999986,130.48605529999986,131.70124679999935,131.70124679999935,131.70124679999935,131.70124679999935,131.70124679999935,131.70124679999935,131.70124679999935,73,48,31,39,73,70,131.70124679999935,133.66890679999779,,,,,,,,,,,,,３１４,f,２４,2023-05-18_18h20.24.284,RL,2022.2.5,60.034315614453774,
40,36,33,71,0,19,19,19,,,,,,,,None,133.66890679999779,133.66890679999779,133.66890679999779,133.66890679999779,133.66890679999779,133.66890679999779,f,0.4544231999971089,134.15240229999836,134.15240229999836,134.15240229999836,134.15240229999836,134.15240229999836,134.15240229999836,134.4526463000002,136.3684233999993,136.3684233999993,136.3684233999993,136.3684233999993,136.3684233999993,136.3684233999993,136.3684233999993,136.3684233999993,136.3684233999993,136.3684233999993,136.3684233999993,136.3684233999993,136.3684233999993,136.3684233999993,138.5831021999984,138.5831021999984,138.5831021999984,138.5831021999984,138.5831021999984,138.5831021999984,138.5831021999984,71,40,36,33,71,70,138.5831021999984,140.48446019999756,,,,,,,,,,,,,３１４,f,２４,2023-05-18_18h20.24.284,RL,2022.2.5,60.034315614453774,
33,33,40,69,0,20,20,20,,,,,,,,None,140.48446019999756,140.48446019999756,140.48446019999756,140.48446019999756,140.48446019999756,140.48446019999756,f,0.5079814999990049,141.018158699997,141.018158699997,141.018158699997,141.018158699997,141.018158699997,141.018158699997,141.3177708999974,142.6839497999972,142.6839497999972,142.6839497999972,142.6839497999972,142.6839497999972,142.6839497999972,142.6839497999972,142.6839497999972,142.6839497999972,142.6839497999972,142.6839497999972,142.6839497999972,142.6839497999972,142.6839497999972,144.34876839999924,144.34876839999924,144.34876839999924,144.34876839999924,144.34876839999924,144.34876839999924,144.34876839999924,69,33,33,40,69,70,144.34876839999924,146.18363959999988,,,,,,,,,,,,,３１４,f,２４,2023-05-18_18h20.24.284,RL,2022.2.5,60.034315614453774,
41,40,45,61,0,21,21,21,,,,,,,,None,146.18363959999988,146.18363959999988,146.18363959999988,146.18363959999988,146.18363959999988,146.18363959999988,f,0.6676666999992449,146.88643049999882,146.88643049999882,146.88643049999882,146.88643049999882,146.88643049999882,146.88643049999882,147.16691649999848,149.1163760999989,149.13308809999944,149.13308809999944,149.13308809999944,149.13308809999944,149.13308809999944,149.13308809999944,149.13308809999944,149.13308809999944,149.13308809999944,149.13308809999944,149.13308809999944,149.13308809999944,149.13308809999944,151.38117499999862,151.38117499999862,151.38117499999862,151.38117499999862,151.38117499999862,151.38117499999862,151.38117499999862,61,41,40,45,61,70,151.38117499999862,152.91577159999724,,,,,,,,,,,,,３１４,f,２４,2023-05-18_18h20.24.284,RL,2022.2.5,60.034315614453774,
36,43,41,57,0,22,22,22,,,,,,,,None,152.91577159999724,152.91577159999724,152.91577159999724,152.91577159999724,152.91577159999724,152.91577159999724,f,0.29452450000098906,153.23249959999885,153.23249959999885,153.23249959999885,153.23249959999885,153.23249959999885,153.23249959999885,153.51542469999913,154.99859599999763,155.01532249999946,155.01532249999946,155.01532249999946,155.01532249999946,155.01532249999946,155.01532249999946,155.01532249999946,155.01532249999946,155.01532249999946,155.01532249999946,155.01532249999946,155.01532249999946,155.01532249999946,156.79677779999838,156.79677779999838,156.79677779999838,156.79677779999838,156.79677779999838,156.79677779999838,156.79677779999838,57,36,43,41,57,70,156.79677779999838,158.3813771999994,,,,,,,,,,,,,３１４,f,２４,2023-05-18_18h20.24.284,RL,2022.2.5,60.034315614453774,
34,41,38,53,0,23,23,23,,,,,,,,None,158.3813771999994,158.3813771999994,158.3813771999994,158.3813771999994,158.3813771999994,158.3813771999994,f,0.4034812000027159,158.81489879999936,158.81489879999936,158.81489879999936,158.81489879999936,158.81489879999936,158.81489879999936,159.1147517999998,160.38082209999993,160.38082209999993,160.38082209999993,160.38082209999993,160.38082209999993,160.38082209999993,160.38082209999993,160.38082209999993,160.38082209999993,160.38082209999993,160.38082209999993,160.38082209999993,160.38082209999993,160.38082209999993,161.94599559999915,161.94599559999915,161.94599559999915,161.94599559999915,161.94599559999915,161.94599559999915,161.94599559999915,53,34,41,38,53,70,161.94599559999915,163.84691380000004,,,,,,,,,,,,,３１４,f,２４,2023-05-18_18h20.24.284,RL,2022.2.5,60.034315614453774,
28,41,46,53,0,24,24,24,,,,,,,,None,163.84691380000004,163.84691380000004,163.84691380000004,163.84691380000004,163.84691380000004,163.84691380000004,f,0.3948428000003332,164.26389930000005,164.26389930000005,164.26389930000005,164.26389930000005,164.26389930000005,164.26389930000005,164.54713699999775,165.49707649999982,165.51383799999894,165.51383799999894,165.51383799999894,165.51383799999894,165.51383799999894,165.51383799999894,165.51383799999894,165.51383799999894,165.51383799999894,165.51383799999894,165.51383799999894,165.51383799999894,165.51383799999894,166.76213949999874,166.76213949999874,166.76213949999874,166.76213949999874,166.76213949999874,166.76213949999874,166.76213949999874,53,28,41,46,53,70,166.76213949999874,168.3626512999981,,,,,,,,,,,,,３１４,f,２４,2023-05-18_18h20.24.284,RL,2022.2.5,60.034315614453774,
32,42,50,63,0,25,25,25,,,,,,,,None,168.3626512999981,168.3626512999981,168.3626512999981,168.3626512999981,168.3626512999981,168.3626512999981,f,0.5013901000020269,168.90051849999873,168.90051849999873,168.90051849999873,168.90051849999873,168.90051849999873,168.90051849999873,169.19639639999878,170.8127370000002,170.8127370000002,170.8127370000002,170.8127370000002,170.8127370000002,170.8127370000002,170.8127370000002,170.8127370000002,170.8127370000002,170.8127370000002,170.8127370000002,170.8127370000002,170.8127370000002,170.8127370000002,172.72743689999697,172.72743689999697,172.72743689999697,172.72743689999697,172.72743689999697,172.72743689999697,172.72743689999697,63,32,42,50,63,70,172.72743689999697,174.69508759999735,,,,,,,,,,,,,３１４,f,２４,2023-05-18_18h20.24.284,RL,2022.2.5,60.034315614453774,
31,40,35,59,0,26,26,26,,,,,,,,None,174.69508759999735,174.69508759999735,174.69508759999735,174.69508759999735,174.69508759999735,174.69508759999735,f,0.481466500001261,175.19706719999886,175.19706719999886,175.19706719999886,175.19706719999886,175.19706719999886,175.19706719999886,175.49554059999718,177.0284107999978,177.0284107999978,177.0284107999978,177.0284107999978,177.0284107999978,177.0284107999978,177.0284107999978,177.0284107999978,177.0284107999978,177.0284107999978,177.0284107999978,177.0284107999978,177.0284107999978,177.0284107999978,178.85921589999998,178.85921589999998,178.85921589999998,178.85921589999998,178.85921589999998,178.85921589999998,178.85921589999998,59,31,40,35,59,70,178.85921589999998,180.6108432000001,,,,,,,,,,,,,３１４,f,２４,2023-05-18_18h20.24.284,RL,2022.2.5,60.034315614453774,
40,45,43,53,0,27,27,27,,,,,,,,None,180.6108432000001,180.6108432000001,180.6108432000001,180.6108432000001,180.6108432000001,180.6108432000001,f,0.39588710000316496,181.0277083999972,181.0277083999972,181.0277083999972,181.0277083999972,181.0277083999972,181.0277083999972,181.3110553999977,182.82749259999764,182.84424819999913,182.84424819999913,182.84424819999913,182.84424819999913,182.84424819999913,182.84424819999913,182.84424819999913,182.84424819999913,182.84424819999913,182.84424819999913,182.84424819999913,182.84424819999913,182.84424819999913,184.65812169999845,184.65812169999845,184.65812169999845,184.65812169999845,184.65812169999845,184.65812169999845,184.65812169999845,53,40,45,43,53,70,184.65812169999845,186.459632099999,,,,,,,,,,,,,３１４,f,２４,2023-05-18_18h20.24.284,RL,2022.2.5,60.034315614453774,
43,43,39,62,0,28,28,28,,,,,,,,None,186.459632099999,186.459632099999,186.459632099999,186.459632099999,186.459632099999,186.459632099999,f,0.3366917999992438,186.82824309999705,186.82824309999705,186.82824309999705,186.82824309999705,186.82824309999705,186.82824309999705,187.10996229999728,188.8427312999993,188.85976059999666,188.85976059999666,188.85976059999666,188.85976059999666,188.85976059999666,188.85976059999666,188.85976059999666,188.85976059999666,188.85976059999666,188.85976059999666,188.85976059999666,188.85976059999666,188.85976059999666,190.89096659999996,190.89096659999996,190.89096659999996,190.89096659999996,190.89096659999996,190.89096659999996,190.89096659999996,62,43,43,39,62,70,190.89096659999996,192.64177859999836,,,,,,,,,,,,,３１４,f,２４,2023-05-18_18h20.24.284,RL,2022.2.5,60.034315614453774,
46,33,46,55,0,29,29,29,,,,,,,,None,192.64177859999836,192.64177859999836,192.64177859999836,192.64177859999836,192.64177859999836,192.64177859999836,f,0.3863781000000017,193.06063129999893,193.06063129999893,193.06063129999893,193.06063129999893,193.06063129999893,193.06063129999893,193.34190249999665,194.34211989999676,194.3749175999983,194.3749175999983,194.3749175999983,194.3749175999983,194.3749175999983,194.3749175999983,194.3749175999983,194.3749175999983,194.3749175999983,194.3749175999983,194.3749175999983,194.3749175999983,194.3749175999983,195.67352959999698,195.67352959999698,195.67352959999698,195.67352959999698,195.67352959999698,195.67352959999698,195.67352959999698,55,46,33,46,55,70,195.67352959999698,197.6578363999979,,,,,,,,,,,,,３１４,f,２４,2023-05-18_18h20.24.284,RL,2022.2.5,60.034315614453774,
43,46,38,63,0,30,30,30,,,,,,,,None,197.6578363999979,197.6578363999979,197.6578363999979,197.6578363999979,197.6578363999979,197.6578363999979,f,0.3605282000025909,198.04149509999843,198.04149509999843,198.04149509999843,198.04149509999843,198.04149509999843,198.04149509999843,198.3246173999978,199.3413060999992,199.35780729999897,199.35780729999897,199.35780729999897,199.35780729999897,199.35780729999897,199.35780729999897,199.35780729999897,199.35780729999897,199.35780729999897,199.35780729999897,199.35780729999897,199.35780729999897,199.35780729999897,200.67239309999786,200.67239309999786,200.67239309999786,200.67239309999786,200.67239309999786,200.67239309999786,200.67239309999786,63,43,46,38,63,70,200.67239309999786,202.29028229999676,,,,,,,,,,,,,３１４,f,２４,2023-05-18_18h20.24.284,RL,2022.2.5,60.034315614453774,
37,54,43,66,0,31,31,31,,,,,,,,None,202.29028229999676,202.29028229999676,202.29028229999676,202.29028229999676,202.29028229999676,202.29028229999676,f,0.5553546000010101,202.87471009999717,202.87471009999717,202.87471009999717,202.87471009999717,202.87471009999717,202.87471009999717,203.15738249999777,204.49022639999748,204.5066646999985,204.5066646999985,204.5066646999985,204.5066646999985,204.5066646999985,204.5066646999985,204.5066646999985,204.5066646999985,204.5066646999985,204.5066646999985,204.5066646999985,204.5066646999985,204.5066646999985,206.13763659999677,206.13763659999677,206.13763659999677,206.13763659999677,206.13763659999677,206.13763659999677,206.13763659999677,66,37,54,43,66,70,206.13763659999677,207.72249109999757,,,,,,,,,,,,,３１４,f,２４,2023-05-18_18h20.24.284,RL,2022.2.5,60.034315614453774,
38,50,31,61,0,32,32,32,,,,,,,,None,207.72249109999757,207.72249109999757,207.72249109999757,207.72249109999757,207.72249109999757,207.72249109999757,f,0.37685330000022077,208.1264702999979,208.1264702999979,208.1264702999979,208.1264702999979,208.1264702999979,208.1264702999979,208.40634319999663,209.67248459999973,209.70610609999858,209.70610609999858,209.70610609999858,209.70610609999858,209.70610609999858,209.70610609999858,209.70610609999858,209.70610609999858,209.70610609999858,209.70610609999858,209.70610609999858,209.70610609999858,209.70610609999858,211.27069909999773,211.27069909999773,211.27069909999773,211.27069909999773,211.27069909999773,211.27069909999773,211.27069909999773,61,38,50,31,61,70,211.27069909999773,213.2713444000001,,,,,,,,,,,,,３１４,f,２４,2023-05-18_18h20.24.284,RL,2022.2.5,60.034315614453774,
35,54,37,52,0,33,33,33,,,,,,,,None,213.2713444000001,213.2713444000001,213.2713444000001,213.2713444000001,213.2713444000001,213.2713444000001,f,0.4146290999997291,213.70789689999947,213.70789689999947,213.70789689999947,213.70789689999947,213.70789689999947,213.70789689999947,214.00487919999796,215.0214117999967,215.0214117999967,215.0214117999967,215.0214117999967,215.0214117999967,215.0214117999967,215.0214117999967,215.0214117999967,215.0214117999967,215.0214117999967,215.0214117999967,215.0214117999967,215.0214117999967,215.0214117999967,216.3361745000002,216.3361745000002,216.3361745000002,216.3361745000002,216.3361745000002,216.3361745000002,216.3361745000002,52,35,54,37,52,70,216.3361745000002,218.30381940000007,,,,,,,,,,,,,３１４,f,２４,2023-05-18_18h20.24.284,RL,2022.2.5,60.034315614453774,
38,53,43,53,0,34,34,34,,,,,,,,None,218.30381940000007,218.30381940000007,218.30381940000007,218.30381940000007,218.30381940000007,218.30381940000007,f,0.41832419999991544,218.75634789999822,218.75634789999822,218.75634789999822,218.75634789999822,218.75634789999822,218.75634789999822,219.0378501999985,220.73750049999944,220.75409989999753,220.75409989999753,220.75409989999753,220.75409989999753,220.75409989999753,220.75409989999753,220.75409989999753,220.75409989999753,220.75409989999753,220.75409989999753,220.75409989999753,220.75409989999753,220.75409989999753,222.75167839999995,222.75167839999995,222.75167839999995,222.75167839999995,222.75167839999995,222.75167839999995,222.75167839999995,53,38,53,43,53,70,222.75167839999995,224.2531175999975,,,,,,,,,,,,,３１４,f,２４,2023-05-18_18h20.24.284,RL,2022.2.5,60.034315614453774,
34,47,42,65,0,35,35,35,,,,,,,,None,224.2531175999975,224.2531175999975,224.2531175999975,224.2531175999975,224.2531175999975,224.2531175999975,f,0.33047369999985676,224.60330539999995,224.60330539999995,224.60330539999995,224.60330539999995,224.60330539999995,224.60330539999995,224.90328989999762,226.0027936999977,226.0027936999977,226.0027936999977,226.0027936999977,226.0027936999977,226.0027936999977,226.0027936999977,226.0027936999977,226.0027936999977,226.0027936999977,226.0027936999977,226.0027936999977,226.0027936999977,226.0027936999977,227.40085199999885,227.40085199999885,227.40085199999885,227.40085199999885,227.40085199999885,227.40085199999885,227.40085199999885,65,34,47,42,65,70,227.40085199999885,228.91840859999866,,,,,,,,,,,,,３１４,f,２４,2023-05-18_18h20.24.284,RL,2022.2.5,60.034315614453774,
37,41,38,54,0,36,36,36,,,,,,,,None,228.91840859999866,228.91840859999866,228.91840859999866,228.91840859999866,228.91840859999866,228.91840859999866,f,0.5435889000000316,229.48612379999759,229.48612379999759,229.48612379999759,229.48612379999759,229.48612379999759,229.48612379999759,229.7689924999977,231.2854471999999,231.30184569999983,231.30184569999983,231.30184569999983,231.30184569999983,231.30184569999983,231.30184569999983,231.30184569999983,231.30184569999983,231.30184569999983,231.30184569999983,231.30184569999983,231.30184569999983,231.30184569999983,233.1170452999977,233.1170452999977,233.1170452999977,233.1170452999977,233.1170452999977,233.1170452999977,233.1170452999977,54,37,41,38,54,70,233.1170452999977,234.93449729999702,,,,,,,,,,,,,３１４,f,２４,2023-05-18_18h20.24.284,RL,2022.2.5,60.034315614453774,
39,47,42,68,0,37,37,37,,,,,,,,None,234.93449729999702,234.93449729999702,234.93449729999702,234.93449729999702,234.93449729999702,234.93449729999702,f,0.4040125000028638,235.36918799999694,235.36918799999694,235.36918799999694,235.36918799999694,235.36918799999694,235.36918799999694,235.65140339999925,236.9517135999995,236.9678720999982,236.9678720999982,236.9678720999982,236.9678720999982,236.9678720999982,236.9678720999982,236.9678720999982,236.9678720999982,236.9678720999982,236.9678720999982,236.9678720999982,236.9678720999982,236.9678720999982,238.5659913999989,238.5659913999989,238.5659913999989,238.5659913999989,238.5659913999989,238.5659913999989,238.5659913999989,68,39,47,42,68,70,238.5659913999989,240.30042879999746,,,,,,,,,,,,,３１４,f,２４,2023-05-18_18h20.24.284,RL,2022.2.5,60.034315614453774,
31,47,38,61,0,38,38,38,,,,,,,,None,240.30042879999746,240.30042879999746,240.30042879999746,240.30042879999746,240.30042879999746,240.30042879999746,f,0.46148689999972703,240.7837424999998,240.7837424999998,240.7837424999998,240.7837424999998,240.7837424999998,240.7837424999998,241.06725279999955,242.5337084999992,242.5500015999969,242.5500015999969,242.5500015999969,242.5500015999969,242.5500015999969,242.5500015999969,242.5500015999969,242.5500015999969,242.5500015999969,242.5500015999969,242.5500015999969,242.5500015999969,242.5500015999969,244.31512589999693,244.31512589999693,244.31512589999693,244.31512589999693,244.31512589999693,244.31512589999693,244.31512589999693,61,31,47,38,61,70,244.31512589999693,246.1326416999982,,,,,,,,,,,,,３１４,f,２４,2023-05-18_18h20.24.284,RL,2022.2.5,60.034315614453774,
30,41,33,57,0,39,39,39,,,,,,,,None,246.1326416999982,246.1326416999982,246.1326416999982,246.1326416999982,246.1326416999982,246.1326416999982,f,0.5284484000003431,246.68311219999669,246.68311219999669,246.68311219999669,246.68311219999669,246.68311219999669,246.68311219999669,246.96594399999958,248.5823722999994,248.59893269999884,248.59893269999884,248.59893269999884,248.59893269999884,248.59893269999884,248.59893269999884,248.59893269999884,248.59893269999884,248.59893269999884,248.59893269999884,248.59893269999884,248.59893269999884,248.59893269999884,250.5135424,250.5135424,250.5135424,250.5135424,250.5135424,250.5135424,250.5135424,57,30,41,33,57,70,250.5135424,252.4645509999973,,,,,,,,,,,,,３１４,f,２４,2023-05-18_18h20.24.284,RL,2022.2.5,60.034315614453774,
30,43,37,56,0,40,40,40,,,,,,,,None,252.4645509999973,252.4645509999973,252.4645509999973,252.4645509999973,252.4645509999973,252.4645509999973,f,0.34151120000024093,252.83306759999687,252.83306759999687,252.83306759999687,252.83306759999687,252.83306759999687,252.83306759999687,253.13155839999672,254.131624499998,254.14801799999987,254.14801799999987,254.14801799999987,254.14801799999987,254.14801799999987,254.14801799999987,254.14801799999987,254.14801799999987,254.14801799999987,254.14801799999987,254.14801799999987,254.14801799999987,254.14801799999987,255.44602119999763,255.44602119999763,255.44602119999763,255.44602119999763,255.44602119999763,255.44602119999763,255.44602119999763,56,30,43,37,56,70,255.44602119999763,257.4137067999982,,,,,,,,,,,,,３１４,f,２４,2023-05-18_18h20.24.284,RL,2022.2.5,60.034315614453774,
36,50,33,58,0,41,41,41,,,,,,,,None,257.4137067999982,257.4137067999982,257.4137067999982,257.4137067999982,257.4137067999982,257.4137067999982,f,0.4033215999988897,257.8497283999968,257.8497283999968,257.8497283999968,257.8497283999968,257.8497283999968,257.8497283999968,258.14779609999823,259.9971458,259.9971458,259.9971458,259.9971458,259.9971458,259.9971458,259.9971458,259.9971458,259.9971458,259.9971458,259.9971458,259.9971458,259.9971458,259.9971458,262.1448915999972,262.1448915999972,262.1448915999972,262.1448915999972,262.1448915999972,262.1448915999972,262.1448915999972,58,36,50,33,58,70,262.1448915999972,263.87917089999974,,,,,,,,,,,,,３１４,f,２４,2023-05-18_18h20.24.284,RL,2022.2.5,60.034315614453774,
42,51,44,51,0,42,42,42,,,,,,,,None,263.87917089999974,263.87917089999974,263.87917089999974,263.87917089999974,263.87917089999974,263.87917089999974,f,0.4692005999968387,264.3797556999998,264.3797556999998,264.3797556999998,264.3797556999998,264.3797556999998,264.3797556999998,264.66319029999795,266.37946699999884,266.3962928999972,266.3962928999972,266.3962928999972,266.3962928999972,266.3962928999972,266.3962928999972,266.3962928999972,266.3962928999972,266.3962928999972,266.3962928999972,266.3962928999972,266.3962928999972,266.3962928999972,268.41082409999945,268.41082409999945,268.41082409999945,268.41082409999945,268.41082409999945,268.41082409999945,268.41082409999945,51,42,51,44,51,70,268.41082409999945,269.94502159999683,,,,,,,,,,,,,３１４,f,２４,2023-05-18_18h20.24.284,RL,2022.2.5,60.034315614453774,
27,58,38,64,0,43,43,43,,,,,,,,None,269.94502159999683,269.94502159999683,269.94502159999683,269.94502159999683,269.94502159999683,269.94502159999683,f,0.3206739000015659,270.2954826999994,270.2954826999994,270.2954826999994,270.2954826999994,270.2954826999994,270.2954826999994,270.57893479999984,271.9116764999999,271.928823299997,271.928823299997,271.928823299997,271.928823299997,271.928823299997,271.928823299997,271.928823299997,271.928823299997,271.928823299997,271.928823299997,271.928823299997,271.928823299997,271.928823299997,273.5599960999971,273.5599960999971,273.5599960999971,273.5599960999971,273.5599960999971,273.5599960999971,273.5599960999971,64,27,58,38,64,70,273.5599960999971,275.24438999999984,,,,,,,,,,,,,３１４,f,２４,2023-05-18_18h20.24.284,RL,2022.2.5,60.034315614453774,
38,48,38,56,0,44,44,44,,,,,,,,None,275.24438999999984,275.24438999999984,275.24438999999984,275.24438999999984,275.24438999999984,275.24438999999984,f,0.496492300000682,275.7613218999977,275.7613218999977,275.7613218999977,275.7613218999977,275.7613218999977,275.7613218999977,276.0614768999985,277.96055389999674,277.96055389999674,277.96055389999674,277.96055389999674,277.96055389999674,277.96055389999674,277.96055389999674,277.96055389999674,277.96055389999674,277.96055389999674,277.96055389999674,277.96055389999674,277.96055389999674,277.96055389999674,280.1589435999995,280.1589435999995,280.1589435999995,280.1589435999995,280.1589435999995,280.1589435999995,280.1589435999995,56,38,48,38,56,70,280.1589435999995,281.89331019999736,,,,,,,,,,,,,３１４,f,２４,2023-05-18_18h20.24.284,RL,2022.2.5,60.034315614453774,
36,47,40,62,0,45,45,45,,,,,,,,None,281.89331019999736,281.89331019999736,281.89331019999736,281.89331019999736,281.89331019999736,281.89331019999736,f,0.45042910000120173,282.3806702999973,282.3806702999973,282.3806702999973,282.3806702999973,282.3806702999973,282.3806702999973,282.65989139999874,284.2760769999986,284.29261789999873,284.29261789999873,284.29261789999873,284.29261789999873,284.29261789999873,284.29261789999873,284.29261789999873,284.29261789999873,284.29261789999873,284.29261789999873,284.29261789999873,284.29261789999873,284.29261789999873,286.20744299999933,286.20744299999933,286.20744299999933,286.20744299999933,286.20744299999933,286.20744299999933,286.20744299999933,62,36,47,40,62,70,286.20744299999933,287.7420472999984,,,,,,,,,,,,,３１４,f,２４,2023-05-18_18h20.24.284,RL,2022.2.5,60.034315614453774,
36,47,29,64,0,46,46,46,,,,,,,,None,287.7420472999984,287.7420472999984,287.7420472999984,287.7420472999984,287.7420472999984,287.7420472999984,f,0.5448630999999295,288.3105215999967,288.3105215999967,288.3105215999967,288.3105215999967,288.3105215999967,288.3105215999967,288.5922714999979,289.85889529999986,289.87535359999674,289.87535359999674,289.87535359999674,289.87535359999674,289.87535359999674,289.87535359999674,289.87535359999674,289.87535359999674,289.87535359999674,289.87535359999674,289.87535359999674,289.87535359999674,289.87535359999674,291.44031749999704,291.44031749999704,291.44031749999704,291.44031749999704,291.44031749999704,291.44031749999704,291.44031749999704,64,36,47,29,64,70,291.44031749999704,293.00805709999986,,,,,,,,,,,,,３１４,f,２４,2023-05-18_18h20.24.284,RL,2022.2.5,60.034315614453774,
37,45,29,50,0,47,47,47,,,,,,,,None,293.00805709999986,293.00805709999986,293.00805709999986,293.00805709999986,293.00805709999986,293.00805709999986,f,0.4376324000004388,293.4784992999994,293.4784992999994,293.4784992999994,293.4784992999994,293.4784992999994,293.4784992999994,293.774913199999,294.7910360999995,294.8075353999993,294.8075353999993,294.8075353999993,294.8075353999993,294.8075353999993,294.8075353999993,294.8075353999993,294.8075353999993,294.8075353999993,294.8075353999993,294.8075353999993,294.8075353999993,294.8075353999993,296.1226895,296.1226895,296.1226895,296.1226895,296.1226895,296.1226895,296.1226895,50,37,45,29,50,70,296.1226895,297.6735517999987,,,,,,,,,,,,,３１４,f,２４,2023-05-18_18h20.24.284,RL,2022.2.5,60.034315614453774,
35,51,26,55,0,48,48,48,,,,,,,,None,297.6735517999987,297.6735517999987,297.6735517999987,297.6735517999987,297.6735517999987,297.6735517999987,f,0.5971863999984635,298.29072859999724,298.29072859999724,298.29072859999724,298.29072859999724,298.29072859999724,298.29072859999724,298.5902045999974,300.57365669999854,300.57365669999854,300.57365669999854,300.57365669999854,300.57365669999854,300.57365669999854,300.57365669999854,300.57365669999854,300.57365669999854,300.57365669999854,300.57365669999854,300.57365669999854,300.57365669999854,300.57365669999854,302.8547080999997,302.8547080999997,302.8547080999997,302.8547080999997,302.8547080999997,302.8547080999997,302.8547080999997,55,35,51,26,55,70,302.8547080999997,304.7890430999978,,,,,,,,,,,,,３１４,f,２４,2023-05-18_18h20.24.284,RL,2022.2.5,60.034315614453774,
41,51,23,47,0,49,49,49,,,,,,,,None,304.7890430999978,304.7890430999978,304.7890430999978,304.7890430999978,304.7890430999978,304.7890430999978,f,0.4511032999980671,305.2727376999974,305.2727376999974,305.2727376999974,305.2727376999974,305.2727376999974,305.2727376999974,305.55562199999986,307.53893999999855,307.5558706999982,307.5558706999982,307.5558706999982,307.5558706999982,307.5558706999982,307.5558706999982,307.5558706999982,307.5558706999982,307.5558706999982,307.5558706999982,307.5558706999982,307.5558706999982,307.5558706999982,309.83673199999976,309.83673199999976,309.83673199999976,309.83673199999976,309.83673199999976,309.83673199999976,309.83673199999976,47,41,51,23,47,70,309.83673199999976,311.8207358999971,,,,,,,,,,,,,３１４,f,２４,2023-05-18_18h20.24.284,RL,2022.2.5,60.034315614453774,
39,52,27,58,0,50,50,50,,,,,,,,None,311.8207358999971,311.8207358999971,311.8207358999971,311.8207358999971,311.8207358999971,311.8207358999971,r,0.6961917000007816,312.5386436999979,312.5386436999979,312.5386436999979,312.5386436999979,312.5386436999979,312.5386436999979,312.8214702999976,313.97112019999986,313.9876196999976,313.9876196999976,313.9876196999976,313.9876196999976,313.9876196999976,313.9876196999976,313.9876196999976,313.9876196999976,313.9876196999976,313.9876196999976,313.9876196999976,313.9876196999976,313.9876196999976,315.43571619999784,315.43571619999784,315.43571619999784,315.43571619999784,315.43571619999784,315.43571619999784,315.43571619999784,58,39,52,27,39,70,315.43571619999784,317.37008159999823,,,,,,,,,,,,,３１４,f,２４,2023-05-18_18h20.24.284,RL,2022.2.5,60.034315614453774,
35,44,19,53,0,51,51,51,,,,,,,,None,317.37008159999823,317.37008159999823,317.37008159999823,317.37008159999823,317.37008159999823,317.37008159999823,f,0.5668345999984012,317.97534469999664,317.97534469999664,317.97534469999664,317.97534469999664,317.97534469999664,317.97534469999664,318.2537099000001,320.25317879999784,320.2699955999997,320.2699955999997,320.2699955999997,320.2699955999997,320.2699955999997,320.2699955999997,320.2699955999997,320.2699955999997,320.2699955999997,320.2699955999997,320.2699955999997,320.2699955999997,320.2699955999997,322.5675467000001,322.5675467000001,322.5675467000001,322.5675467000001,322.5675467000001,322.5675467000001,322.5675467000001,53,35,44,19,53,70,322.5675467000001,324.3853474999996,,,,,,,,,,,,,３１４,f,２４,2023-05-18_18h20.24.284,RL,2022.2.5,60.034315614453774,
34,53,34,65,0,52,52,52,,,,,,,,None,324.3853474999996,324.3853474999996,324.3853474999996,324.3853474999996,324.3853474999996,324.3853474999996,f,0.46919399999751477,324.88998379999975,324.88998379999975,324.88998379999975,324.88998379999975,324.88998379999975,324.88998379999975,325.18571419999716,327.03578500000003,327.03578500000003,327.03578500000003,327.03578500000003,327.03578500000003,327.03578500000003,327.03578500000003,327.03578500000003,327.03578500000003,327.03578500000003,327.03578500000003,327.03578500000003,327.03578500000003,327.03578500000003,329.18363039999895,329.18363039999895,329.18363039999895,329.18363039999895,329.18363039999895,329.18363039999895,329.18363039999895,65,34,53,34,65,70,329.18363039999895,330.75104029999784,,,,,,,,,,,,,３１４,f,２４,2023-05-18_18h20.24.284,RL,2022.2.5,60.034315614453774,
28,42,20,61,0,53,53,53,,,,,,,,None,330.75104029999784,330.75104029999784,330.75104029999784,330.75104029999784,330.75104029999784,330.75104029999784,f,0.4694600000002538,331.25905129999956,331.25905129999956,331.25905129999956,331.25905129999956,331.25905129999956,331.25905129999956,331.55162949999794,332.80105449999974,332.80105449999974,332.80105449999974,332.80105449999974,332.80105449999974,332.80105449999974,332.80105449999974,332.80105449999974,332.80105449999974,332.80105449999974,332.80105449999974,332.80105449999974,332.80105449999974,332.80105449999974,334.34920619999684,334.34920619999684,334.34920619999684,334.34920619999684,334.34920619999684,334.34920619999684,334.34920619999684,61,28,42,20,61,70,334.34920619999684,336.01701709999907,,,,,,,,,,,,,３１４,f,２４,2023-05-18_18h20.24.284,RL,2022.2.5,60.034315614453774,
38,48,28,61,0,54,54,54,,,,,,,,None,336.01701709999907,336.01701709999907,336.01701709999907,336.01701709999907,336.01701709999907,336.01701709999907,f,0.37400110000089626,336.4191077999967,336.4191077999967,336.4191077999967,336.4191077999967,336.4191077999967,336.4191077999967,336.7170092999986,337.83349539999836,337.83349539999836,337.83349539999836,337.83349539999836,337.83349539999836,337.83349539999836,337.83349539999836,337.83349539999836,337.83349539999836,337.83349539999836,337.83349539999836,337.83349539999836,337.83349539999836,337.83349539999836,339.24809139999707,339.24809139999707,339.24809139999707,339.24809139999707,339.24809139999707,339.24809139999707,339.24809139999707,61,38,48,28,61,70,339.24809139999707,341.0162436999999,,,,,,,,,,,,,３１４,f,２４,2023-05-18_18h20.24.284,RL,2022.2.5,60.034315614453774,
35,48,22,60,0,55,55,55,,,,,,,,None,341.0162436999999,341.0162436999999,341.0162436999999,341.0162436999999,341.0162436999999,341.0162436999999,f,0.3913602999964496,341.43309099999897,341.43309099999897,341.43309099999897,341.43309099999897,341.43309099999897,341.43309099999897,341.7161398999997,342.7994183999981,342.8157541999972,342.8157541999972,342.8157541999972,342.8157541999972,342.8157541999972,342.8157541999972,342.8157541999972,342.8157541999972,342.8157541999972,342.8157541999972,342.8157541999972,342.8157541999972,342.8157541999972,344.1972720999984,344.1972720999984,344.1972720999984,344.1972720999984,344.1972720999984,344.1972720999984,344.1972720999984,60,35,48,22,60,70,344.1972720999984,346.1817878999973,,,,,,,,,,,,,３１４,f,２４,2023-05-18_18h20.24.284,RL,2022.2.5,60.034315614453774,
37,55,17,54,0,56,56,56,,,,,,,,None,346.1817878999973,346.1817878999973,346.1817878999973,346.1817878999973,346.1817878999973,346.1817878999973,f,0.3676187999990361,346.58581029999914,346.58581029999914,346.58581029999914,346.58581029999914,346.58581029999914,346.58581029999914,346.86499569999796,348.5987241999974,348.6319846999977,348.6319846999977,348.6319846999977,348.6319846999977,348.6319846999977,348.6319846999977,348.6319846999977,348.6319846999977,348.6319846999977,348.6319846999977,348.6319846999977,348.6319846999977,348.6319846999977,350.6635370999975,350.6635370999975,350.6635370999975,350.6635370999975,350.6635370999975,350.6635370999975,350.6635370999975,54,37,55,17,54,70,350.6635370999975,352.18090069999744,,,,,,,,,,,,,３１４,f,２４,2023-05-18_18h20.24.284,RL,2022.2.5,60.034315614453774,
34,56,18,56,0,57,57,57,,,,,,,,None,352.18090069999744,352.18090069999744,352.18090069999744,352.18090069999744,352.18090069999744,352.18090069999744,f,0.36008809999839286,352.56463169999915,352.56463169999915,352.56463169999915,352.56463169999915,352.56463169999915,352.56463169999915,352.8476174999996,354.19763239999884,354.25059639999745,354.25059639999745,354.25059639999745,354.25059639999745,354.25059639999745,354.25059639999745,354.25059639999745,354.25059639999745,354.25059639999745,354.25059639999745,354.25059639999745,354.25059639999745,354.25059639999745,355.8954221999993,355.8954221999993,355.8954221999993,355.8954221999993,355.8954221999993,355.8954221999993,355.8954221999993,56,34,56,18,56,70,355.8954221999993,357.479595599998,,,,,,,,,,,,,３１４,f,２４,2023-05-18_18h20.24.284,RL,2022.2.5,60.034315614453774,
32,54,16,65,0,58,58,58,,,,,,,,None,357.479595599998,357.479595599998,357.479595599998,357.479595599998,357.479595599998,357.479595599998,f,0.42085320000114734,357.93013749999955,357.93013749999955,357.93013749999955,357.93013749999955,357.93013749999955,357.93013749999955,358.2131909999989,359.66294429999834,359.6796648999989,359.6796648999989,359.6796648999989,359.6796648999989,359.6796648999989,359.6796648999989,359.6796648999989,359.6796648999989,359.6796648999989,359.6796648999989,359.6796648999989,359.6796648999989,359.6796648999989,361.4277719999991,361.4277719999991,361.4277719999991,361.4277719999991,361.4277719999991,361.4277719999991,361.4277719999991,65,32,54,16,65,70,361.4277719999991,363.4288901,,,,,,,,,,,,,３１４,f,２４,2023-05-18_18h20.24.284,RL,2022.2.5,60.034315614453774,
32,58,7,72,0,59,59,59,,,,,,,,None,363.4288901,363.4288901,363.4288901,363.4288901,363.4288901,363.4288901,f,0.4389271000000008,363.89671649999946,363.89671649999946,363.89671649999946,363.89671649999946,363.89671649999946,363.89671649999946,364.17888329999914,366.1790845999967,366.19563819999894,366.19563819999894,366.19563819999894,366.19563819999894,366.19563819999894,366.19563819999894,366.19563819999894,366.19563819999894,366.19563819999894,366.19563819999894,366.19563819999894,366.19563819999894,366.19563819999894,368.4933389999969,368.4933389999969,368.4933389999969,368.4933389999969,368.4933389999969,368.4933389999969,368.4933389999969,72,32,58,7,72,70,368.4933389999969,370.04467309999745,,,,,,,,,,,,,３１４,f,２４,2023-05-18_18h20.24.284,RL,2022.2.5,60.034315614453774,
39,46,13,66,0,60,60,60,,,,,,,,None,370.04467309999745,370.04467309999745,370.04467309999745,370.04467309999745,370.04467309999745,370.04467309999745,f,0.43130119999841554,370.49801819999993,370.49801819999993,370.49801819999993,370.49801819999993,370.49801819999993,370.49801819999993,370.77812659999836,372.2611356999987,372.27762509999957,372.27762509999957,372.27762509999957,372.27762509999957,372.27762509999957,372.27762509999957,372.27762509999957,372.27762509999957,372.27762509999957,372.27762509999957,372.27762509999957,372.27762509999957,372.27762509999957,374.05900739999925,374.05900739999925,374.05900739999925,374.05900739999925,374.05900739999925,374.05900739999925,374.05900739999925,66,39,46,13,66,70,374.05900739999925,375.9602634999974,,,,,,,,,,,,,３１４,f,２４,2023-05-18_18h20.24.284,RL,2022.2.5,60.034315614453774,
42,50,17,61,0,61,61,61,,,,,,,,None,375.9602634999974,375.9602634999974,375.9602634999974,375.9602634999974,375.9602634999974,375.9602634999974,f,0.4567438000012771,376.4480493999981,376.4480493999981,376.4480493999981,376.4480493999981,376.4480493999981,376.4480493999981,376.7269825999974,378.57634549999784,378.592868599997,378.592868599997,378.592868599997,378.592868599997,378.592868599997,378.592868599997,378.592868599997,378.592868599997,378.592868599997,378.592868599997,378.592868599997,378.592868599997,378.592868599997,380.7414205999994,380.7414205999994,380.7414205999994,380.7414205999994,380.7414205999994,380.7414205999994,380.7414205999994,61,42,50,17,61,70,380.7414205999994,382.29252089999864,,,,,,,,,,,,,３１４,f,２４,2023-05-18_18h20.24.284,RL,2022.2.5,60.034315614453774,
26,43,21,66,0,62,62,62,,,,,,,,None,382.29252089999864,382.29252089999864,382.29252089999864,382.29252089999864,382.29252089999864,382.29252089999864,f,0.3183570000001055,382.6448806999979,382.6448806999979,382.6448806999979,382.6448806999979,382.6448806999979,382.6448806999979,382.92602389999956,384.82537199999933,384.84197499999937,384.84197499999937,384.84197499999937,384.84197499999937,384.84197499999937,384.84197499999937,384.84197499999937,384.84197499999937,384.84197499999937,384.84197499999937,384.84197499999937,384.84197499999937,384.84197499999937,387.0405538999985,387.0405538999985,387.0405538999985,387.0405538999985,387.0405538999985,387.0405538999985,387.0405538999985,66,26,43,21,66,70,387.0405538999985,388.67457029999787,,,,,,,,,,,,,３１４,f,２４,2023-05-18_18h20.24.284,RL,2022.2.5,60.034315614453774,
31,46,22,65,0,63,63,63,,,,,,,,None,388.67457029999787,388.67457029999787,388.67457029999787,388.67457029999787,388.67457029999787,388.67457029999787,f,0.3999470000017027,389.0930499999995,389.0930499999995,389.0930499999995,389.0930499999995,389.0930499999995,389.0930499999995,389.3912268999993,390.8242301999999,390.8242301999999,390.8242301999999,390.8242301999999,390.8242301999999,390.8242301999999,390.8242301999999,390.8242301999999,390.8242301999999,390.8242301999999,390.8242301999999,390.8242301999999,390.8242301999999,390.8242301999999,392.5556972999984,392.5556972999984,392.5556972999984,392.5556972999984,392.5556972999984,392.5556972999984,392.5556972999984,65,31,46,22,65,70,392.5556972999984,394.3899399999973,,,,,,,,,,,,,３１４,f,２４,2023-05-18_18h20.24.284,RL,2022.2.5,60.034315614453774,
29,49,20,57,0,64,64,64,,,,,,,,None,394.3899399999973,394.3899399999973,394.3899399999973,394.3899399999973,394.3899399999973,394.3899399999973,f,0.4916869000007864,394.9082294999971,394.9082294999971,394.9082294999971,394.9082294999971,394.9082294999971,394.9082294999971,395.1902659999978,397.1564357999996,397.173459499998,397.173459499998,397.173459499998,397.173459499998,397.173459499998,397.173459499998,397.173459499998,397.173459499998,397.173459499998,397.173459499998,397.173459499998,397.173459499998,397.173459499998,399.4376623999997,399.4376623999997,399.4376623999997,399.4376623999997,399.4376623999997,399.4376623999997,399.4376623999997,57,29,49,20,57,70,399.4376623999997,400.9891585999976,,,,,,,,,,,,,３１４,f,２４,2023-05-18_18h20.24.284,RL,2022.2.5,60.034315614453774,
29,45,23,66,0,65,65,65,,,,,,,,None,400.9891585999976,400.9891585999976,400.9891585999976,400.9891585999976,400.9891585999976,400.9891585999976,f,0.40678789999947185,401.42312820000006,401.42312820000006,401.42312820000006,401.42312820000006,401.42312820000006,401.42312820000006,401.7057031999975,403.70526619999873,403.722072499997,403.722072499997,403.722072499997,403.722072499997,403.722072499997,403.722072499997,403.722072499997,403.722072499997,403.722072499997,403.722072499997,403.722072499997,403.722072499997,403.722072499997,406.02013309999893,406.02013309999893,406.02013309999893,406.02013309999893,406.02013309999893,406.02013309999893,406.02013309999893,66,29,45,23,66,70,406.02013309999893,407.7212155999987,,,,,,,,,,,,,３１４,f,２４,2023-05-18_18h20.24.284,RL,2022.2.5,60.034315614453774,
20,48,18,61,0,66,66,66,,,,,,,,None,407.7212155999987,407.7212155999987,407.7212155999987,407.7212155999987,407.7212155999987,407.7212155999987,f,0.3274855999989086,408.0714726999977,408.0714726999977,408.0714726999977,408.0714726999977,408.0714726999977,408.0714726999977,408.3549991,409.305104199997,409.32096239999737,409.32096239999737,409.32096239999737,409.32096239999737,409.32096239999737,409.32096239999737,409.32096239999737,409.32096239999737,409.32096239999737,409.32096239999737,409.32096239999737,409.32096239999737,409.32096239999737,410.56952269999965,410.56952269999965,410.56952269999965,410.56952269999965,410.56952269999965,410.56952269999965,410.56952269999965,61,20,48,18,61,70,410.56952269999965,412.3705254999986,,,,,,,,,,,,,３１４,f,２４,2023-05-18_18h20.24.284,RL,2022.2.5,60.034315614453774,
31,48,16,67,0,67,67,67,,,,,,,,None,412.3705254999986,412.3705254999986,412.3705254999986,412.3705254999986,412.3705254999986,412.3705254999986,f,0.3869280999970215,412.78881839999667,412.78881839999667,412.78881839999667,412.78881839999667,412.78881839999667,412.78881839999667,413.0708741999988,414.75393819999954,414.77034699999786,414.77034699999786,414.77034699999786,414.77034699999786,414.77034699999786,414.77034699999786,414.77034699999786,414.77034699999786,414.77034699999786,414.77034699999786,414.77034699999786,414.77034699999786,414.77034699999786,416.75163299999986,416.75163299999986,416.75163299999986,416.75163299999986,416.75163299999986,416.75163299999986,416.75163299999986,67,31,48,16,67,70,416.75163299999986,418.7357889999985,,,,,,,,,,,,,３１４,f,２４,2023-05-18_18h20.24.284,RL,2022.2.5,60.034315614453774,
18,47,22,65,0,68,68,68,,,,,,,,None,418.7357889999985,418.7357889999985,418.7357889999985,418.7357889999985,418.7357889999985,418.7357889999985,f,0.4189652999993996,419.1909446999998,419.1909446999998,419.1909446999998,419.1909446999998,419.1909446999998,419.1909446999998,419.4698032999986,420.61936479999713,420.63583729999664,420.63583729999664,420.63583729999664,420.63583729999664,420.63583729999664,420.63583729999664,420.63583729999664,420.63583729999664,420.63583729999664,420.63583729999664,420.63583729999664,420.63583729999664,420.63583729999664,422.0839500000002,422.0839500000002,422.0839500000002,422.0839500000002,422.0839500000002,422.0839500000002,422.0839500000002,65,18,47,22,65,70,422.0839500000002,423.6685034000002,,,,,,,,,,,,,３１４,f,２４,2023-05-18_18h20.24.284,RL,2022.2.5,60.034315614453774,
24,57,14,67,0,69,69,69,,,,,,,,None,423.6685034000002,423.6685034000002,423.6685034000002,423.6685034000002,423.6685034000002,423.6685034000002,f,0.3866588999990199,424.0854683999969,424.0854683999969,424.0854683999969,424.0854683999969,424.0854683999969,424.0854683999969,424.36905339999794,426.28513889999886,426.3014906999997,426.3014906999997,426.3014906999997,426.3014906999997,426.3014906999997,426.3014906999997,426.3014906999997,426.3014906999997,426.3014906999997,426.3014906999997,426.3014906999997,426.3014906999997,426.3014906999997,428.5162104999981,428.5162104999981,428.5162104999981,428.5162104999981,428.5162104999981,428.5162104999981,428.5162104999981,67,24,57,14,67,70,428.5162104999981,430.16727589999937,,,,,,,,,,,,,３１４,f,２４,2023-05-18_18h20.24.284,RL,2022.2.5,60.034315614453774,
23,58,21,66,0,70,70,70,,,,,,,,None,430.16727589999937,430.16727589999937,430.16727589999937,430.16727589999937,430.16727589999937,430.16727589999937,f,0.32606749999831663,430.51764419999745,430.51764419999745,430.51764419999745,430.51764419999745,430.51764419999745,430.51764419999745,430.8010037999993,432.4175972999983,432.43380949999846,432.43380949999846,432.43380949999846,432.43380949999846,432.43380949999846,432.43380949999846,432.43380949999846,432.43380949999846,432.43380949999846,432.43380949999846,432.43380949999846,432.43380949999846,432.43380949999846,434.34857999999804,434.34857999999804,434.34857999999804,434.34857999999804,434.34857999999804,434.34857999999804,434.34857999999804,66,23,58,21,66,70,434.34857999999804,436.3328010999976,,,,,,,,,,,,,３１４,f,２４,2023-05-18_18h20.24.284,RL,2022.2.5,60.034315614453774,
27,52,29,66,0,71,71,71,,,,,,,,None,436.3328010999976,436.3328010999976,436.3328010999976,436.3328010999976,436.3328010999976,436.3328010999976,f,0.44660649999786983,436.800019899998,436.800019899998,436.800019899998,436.800019899998,436.800019899998,436.800019899998,437.0830382999993,438.066023899999,438.0827732999969,438.0827732999969,438.0827732999969,438.0827732999969,438.0827732999969,438.0827732999969,438.0827732999969,438.0827732999969,438.0827732999969,438.0827732999969,438.0827732999969,438.0827732999969,438.0827732999969,439.3645355999979,439.3645355999979,439.3645355999979,439.3645355999979,439.3645355999979,439.3645355999979,439.3645355999979,66,27,52,29,66,70,439.3645355999979,441.0487628999981,,,,,,,,,,,,,３１４,f,２４,2023-05-18_18h20.24.284,RL,2022.2.5,60.034315614453774,
35,61,10,71,0,72,72,72,,,,,,,,None,441.0487628999981,441.0487628999981,441.0487628999981,441.0487628999981,441.0487628999981,441.0487628999981,f,0.3897466999987955,441.4667395999968,441.4667395999968,441.4667395999968,441.4667395999968,441.4667395999968,441.4667395999968,441.7488459999986,442.5817584999968,442.59885439999925,442.59885439999925,442.59885439999925,442.59885439999925,442.59885439999925,442.59885439999925,442.59885439999925,442.59885439999925,442.59885439999925,442.59885439999925,442.59885439999925,442.59885439999925,442.59885439999925,443.7302598999995,443.7302598999995,443.7302598999995,443.7302598999995,443.7302598999995,443.7302598999995,443.7302598999995,71,35,61,10,71,70,443.7302598999995,445.6809725999992,,,,,,,,,,,,,３１４,f,２４,2023-05-18_18h20.24.284,RL,2022.2.5,60.034315614453774,
22,58,26,60,0,73,73,73,,,,,,,,None,445.6809725999992,445.6809725999992,445.6809725999992,445.6809725999992,445.6809725999992,445.6809725999992,f,0.5731796000000031,446.28163559999666,446.28163559999666,446.28163559999666,446.28163559999666,446.28163559999666,446.28163559999666,446.56486289999884,447.3980690999997,447.41455139999744,447.41455139999744,447.41455139999744,447.41455139999744,447.41455139999744,447.41455139999744,447.41455139999744,447.41455139999744,447.41455139999744,447.41455139999744,447.41455139999744,447.41455139999744,447.41455139999744,448.54590729999836,448.54590729999836,448.54590729999836,448.54590729999836,448.54590729999836,448.54590729999836,448.54590729999836,60,22,58,26,60,70,448.54590729999836,450.31358739999996,,,,,,,,,,,,,３１４,f,２４,2023-05-18_18h20.24.284,RL,2022.2.5,60.034315614453774,
30,48,19,63,0,74,74,74,,,,,,,,None,450.31358739999996,450.31358739999996,450.31358739999996,450.31358739999996,450.31358739999996,450.31358739999996,f,0.4226201999990735,450.76532059999954,450.76532059999954,450.76532059999954,450.76532059999954,450.76532059999954,450.76532059999954,451.0472192999987,452.8137990999967,452.8302915999993,452.8302915999993,452.8302915999993,452.8302915999993,452.8302915999993,452.8302915999993,452.8302915999993,452.8302915999993,452.8302915999993,452.8302915999993,452.8302915999993,452.8302915999993,452.8302915999993,454.8949066999994,454.8949066999994,454.8949066999994,454.8949066999994,454.8949066999994,454.8949066999994,454.8949066999994,63,30,48,19,63,70,454.8949066999994,456.72828689999733,,,,,,,,,,,,,３１４,f,２４,2023-05-18_18h20.24.284,RL,2022.2.5,60.034315614453774,
29,52,26,60,0,75,75,75,,,,,,,,q,475.509017999997,475.509017999997,475.509017999997,475.509017999997,475.509017999997,475.509017999997,f,0.7013581999999587,476.2304159999985,476.2304159999985,476.2304159999985,476.2304159999985,476.2304159999985,476.2304159999985,476.52639199999976,478.34258559999944,478.34258559999944,478.34258559999944,478.34258559999944,478.34258559999944,478.34258559999944,478.34258559999944,478.34258559999944,478.34258559999944,478.34258559999944,478.34258559999944,478.34258559999944,478.34258559999944,478.34258559999944,480.4570155000001,480.4570155000001,480.4570155000001,480.4570155000001,480.4570155000001,480.4570155000001,480.4570155000001,60,29,52,26,60,70,480.4570155000001,482.15853589999824,,,456.72828689999733,456.72828689999733,13.731740800001717,470.49887549999767,470.49887549999767,475.509017999997,475.509017999997,,,,３１４,f,２４,2023-05-18_18h20.24.284,RL,2022.2.5,60.034315614453774,
29,54,29,64,0,76,76,76,,,,,,,,None,482.15853589999824,482.15853589999824,482.15853589999824,482.15853589999824,482.15853589999824,482.15853589999824,f,0.4579879000011715,482.64541370000006,482.64541370000006,482.64541370000006,482.64541370000006,482.64541370000006,482.64541370000006,482.941805399998,484.94133489999876,484.94133489999876,484.94133489999876,484.94133489999876,484.94133489999876,484.94133489999876,484.94133489999876,484.94133489999876,484.94133489999876,484.94133489999876,484.94133489999876,484.94133489999876,484.94133489999876,484.94133489999876,487.2391981999972,487.2391981999972,487.2391981999972,487.2391981999972,487.2391981999972,487.2391981999972,487.2391981999972,64,29,54,29,64,70,487.2391981999972,488.99030149999817,,,,,,,,,,,,,３１４,f,２４,2023-05-18_18h20.24.284,RL,2022.2.5,60.034315614453774,
38,57,32,59,0,77,77,77,,,,,,,,None,488.99030149999817,488.99030149999817,488.99030149999817,488.99030149999817,488.99030149999817,488.99030149999817,f,0.3665829000019585,489.37493079999695,489.37493079999695,489.37493079999695,489.37493079999695,489.37493079999695,489.37493079999695,489.65756249999686,491.60723639999924,491.6234029999978,491.6234029999978,491.6234029999978,491.6234029999978,491.6234029999978,491.6234029999978,491.6234029999978,491.6234029999978,491.6234029999978,491.6234029999978,491.6234029999978,491.6234029999978,491.6234029999978,493.87128689999736,493.87128689999736,493.87128689999736,493.87128689999736,493.87128689999736,493.87128689999736,493.87128689999736,59,38,57,32,59,70,493.87128689999736,495.47261739999885,,,,,,,,,,,,,３１４,f,２４,2023-05-18_18h20.24.284,RL,2022.2.5,60.034315614453774,
29,54,23,73,0,78,78,78,,,,,,,,None,495.47261739999885,495.47261739999885,495.47261739999885,495.47261739999885,495.47261739999885,495.47261739999885,f,0.4062000999983866,495.90626829999746,495.90626829999746,495.90626829999746,495.90626829999746,495.90626829999746,495.90626829999746,496.18964219999907,497.6223988999991,497.6392840999979,497.6392840999979,497.6392840999979,497.6392840999979,497.6392840999979,497.6392840999979,497.6392840999979,497.6392840999979,497.6392840999979,497.6392840999979,497.6392840999979,497.6392840999979,497.6392840999979,499.3702282999984,499.3702282999984,499.3702282999984,499.3702282999984,499.3702282999984,499.3702282999984,499.3702282999984,73,29,54,23,73,70,499.3702282999984,501.33827669999664,,,,,,,,,,,,,３１４,f,２４,2023-05-18_18h20.24.284,RL,2022.2.5,60.034315614453774,
36,42,24,61,0,79,79,79,,,,,,,,None,501.33827669999664,501.33827669999664,501.33827669999664,501.33827669999664,501.33827669999664,501.33827669999664,f,0.4058143000002019,501.77375369999936,501.77375369999936,501.77375369999936,501.77375369999936,501.77375369999936,501.77375369999936,502.07170459999907,503.05466319999687,503.05466319999687,503.05466319999687,503.05466319999687,503.05466319999687,503.05466319999687,503.05466319999687,503.05466319999687,503.05466319999687,503.05466319999687,503.05466319999687,503.05466319999687,503.05466319999687,503.05466319999687,504.3365378999988,504.3365378999988,504.3365378999988,504.3365378999988,504.3365378999988,504.3365378999988,504.3365378999988,61,36,42,24,61,70,504.3365378999988,506.00399649999963,,,,,,,,,,,,,３１４,f,２４,2023-05-18_18h20.24.284,RL,2022.2.5,60.034315614453774,
35,43,32,61,0,80,80,80,,,,,,,,None,506.00399649999963,506.00399649999963,506.00399649999963,506.00399649999963,506.00399649999963,506.00399649999963,f,0.5467938000001595,506.5711706999973,506.5711706999973,506.5711706999973,506.5711706999973,506.5711706999973,506.5711706999973,506.87136909999754,508.1207519999989,508.1207519999989,508.1207519999989,508.1207519999989,508.1207519999989,508.1207519999989,508.1207519999989,508.1207519999989,508.1207519999989,508.1207519999989,508.1207519999989,508.1207519999989,508.1207519999989,508.1207519999989,509.6685072,509.6685072,509.6685072,509.6685072,509.6685072,509.6685072,509.6685072,61,35,43,32,61,70,509.6685072,511.48630140000023,,,,,,,,,,,,,３１４,f,２４,2023-05-18_18h20.24.284,RL,2022.2.5,60.034315614453774,
37,46,27,64,0,81,81,81,,,,,,,,None,511.48630140000023,511.48630140000023,511.48630140000023,511.48630140000023,511.48630140000023,511.48630140000023,f,0.4067021000009845,511.9237835999993,511.9237835999993,511.9237835999993,511.9237835999993,511.9237835999993,511.9237835999993,512.2037949999976,513.2033061000002,513.2198338999988,513.2198338999988,513.2198338999988,513.2198338999988,513.2198338999988,513.2198338999988,513.2198338999988,513.2198338999988,513.2198338999988,513.2198338999988,513.2198338999988,513.2198338999988,513.2198338999988,514.5182255999971,514.5182255999971,514.5182255999971,514.5182255999971,514.5182255999971,514.5182255999971,514.5182255999971,64,37,46,27,64,70,514.5182255999971,516.1357874999994,,,,,,,,,,,,,３１４,f,２４,2023-05-18_18h20.24.284,RL,2022.2.5,60.034315614453774,
43,48,21,67,0,82,82,82,,,,,,,,None,516.1357874999994,516.1357874999994,516.1357874999994,516.1357874999994,516.1357874999994,516.1357874999994,f,0.49825609999970766,516.652838799997,516.652838799997,516.652838799997,516.652838799997,516.652838799997,516.652838799997,516.9359734999998,517.7527193999995,517.7689599999976,517.7689599999976,517.7689599999976,517.7689599999976,517.7689599999976,517.7689599999976,517.7689599999976,517.7689599999976,517.7689599999976,517.7689599999976,517.7689599999976,517.7689599999976,517.7689599999976,518.8842087999983,518.8842087999983,518.8842087999983,518.8842087999983,518.8842087999983,518.8842087999983,518.8842087999983,67,43,48,21,67,70,518.8842087999983,520.6847521999989,,,,,,,,,,,,,３１４,f,２４,2023-05-18_18h20.24.284,RL,2022.2.5,60.034315614453774,
44,54,28,81,0,83,83,83,,,,,,,,None,520.6847521999989,520.6847521999989,520.6847521999989,520.6847521999989,520.6847521999989,520.6847521999989,f,0.37643949999983306,521.0856017999977,521.0856017999977,521.0856017999977,521.0856017999977,521.0856017999977,521.0856017999977,521.3685401999974,522.3849195000003,522.4013941999983,522.4013941999983,522.4013941999983,522.4013941999983,522.4013941999983,522.4013941999983,522.4013941999983,522.4013941999983,522.4013941999983,522.4013941999983,522.4013941999983,522.4013941999983,522.4013941999983,523.7161227999968,523.7161227999968,523.7161227999968,523.7161227999968,523.7161227999968,523.7161227999968,523.7161227999968,81,44,54,28,81,70,523.7161227999968,525.517681399997,,,,,,,,,,,,,３１４,f,２４,2023-05-18_18h20.24.284,RL,2022.2.5,60.034315614453774,
38,45,22,82,0,84,84,84,,,,,,,,None,525.517681399997,525.517681399997,525.517681399997,525.517681399997,525.517681399997,525.517681399997,f,0.4472088000002259,525.9872665999974,525.9872665999974,525.9872665999974,525.9872665999974,525.9872665999974,525.9872665999974,526.2677141999993,527.9169604999988,527.933790199997,527.933790199997,527.933790199997,527.933790199997,527.933790199997,527.933790199997,527.933790199997,527.933790199997,527.933790199997,527.933790199997,527.933790199997,527.933790199997,527.933790199997,529.8819710999996,529.8819710999996,529.8819710999996,529.8819710999996,529.8819710999996,529.8819710999996,529.8819710999996,82,38,45,22,82,70,529.8819710999996,531.8828075999991,,,,,,,,,,,,,３１４,f,２４,2023-05-18_18h20.24.284,RL,2022.2.5,60.034315614453774,
43,53,17,77,0,85,85,85,,,,,,,,None,531.8828075999991,531.8828075999991,531.8828075999991,531.8828075999991,531.8828075999991,531.8828075999991,f,0.37217410000084783,532.2832428999973,532.2832428999973,532.2832428999973,532.2832428999973,532.2832428999973,532.2832428999973,532.5662076999979,534.1834073999999,534.1995896999979,534.1995896999979,534.1995896999979,534.1995896999979,534.1995896999979,534.1995896999979,534.1995896999979,534.1995896999979,534.1995896999979,534.1995896999979,534.1995896999979,534.1995896999979,534.1995896999979,536.114005899999,536.114005899999,536.114005899999,536.114005899999,536.114005899999,536.114005899999,536.114005899999,77,43,53,17,77,70,536.114005899999,537.765285999998,,,,,,,,,,,,,３１４,f,２４,2023-05-18_18h20.24.284,RL,2022.2.5,60.034315614453774,
41,53,20,77,0,86,86,86,,,,,,,,None,537.765285999998,537.765285999998,537.765285999998,537.765285999998,537.765285999998,537.765285999998,f,0.6462337000011757,538.4324802999981,538.4324802999981,538.4324802999981,538.4324802999981,538.4324802999981,538.4324802999981,538.7324511999977,539.9984760999978,539.9984760999978,539.9984760999978,539.9984760999978,539.9984760999978,539.9984760999978,539.9984760999978,539.9984760999978,539.9984760999978,539.9984760999978,539.9984760999978,539.9984760999978,539.9984760999978,539.9984760999978,541.5634802999994,541.5634802999994,541.5634802999994,541.5634802999994,541.5634802999994,541.5634802999994,541.5634802999994,77,41,53,20,77,70,541.5634802999994,543.4644327999995,,,,,,,,,,,,,３１４,f,２４,2023-05-18_18h20.24.284,RL,2022.2.5,60.034315614453774,
38,57,19,74,0,87,87,87,,,,,,,,None,543.4644327999995,543.4644327999995,543.4644327999995,543.4644327999995,543.4644327999995,543.4644327999995,f,0.34693029999834835,543.8319880999989,543.8319880999989,543.8319880999989,543.8319880999989,543.8319880999989,543.8319880999989,544.1145985999974,545.2143651999977,545.2312655999995,545.2312655999995,545.2312655999995,545.2312655999995,545.2312655999995,545.2312655999995,545.2312655999995,545.2312655999995,545.2312655999995,545.2312655999995,545.2312655999995,545.2312655999995,545.2312655999995,546.6288792999985,546.6288792999985,546.6288792999985,546.6288792999985,546.6288792999985,546.6288792999985,546.6288792999985,74,38,57,19,74,70,546.6288792999985,548.3303156999973,,,,,,,,,,,,,３１４,f,２４,2023-05-18_18h20.24.284,RL,2022.2.5,60.034315614453774,
31,61,25,69,0,88,88,88,,,,,,,,None,548.3303156999973,548.3303156999973,548.3303156999973,548.3303156999973,548.3303156999973,548.3303156999973,f,0.4847888999975112,548.8520381999988,548.8520381999988,548.8520381999988,548.8520381999988,548.8520381999988,548.8520381999988,549.1303067999979,550.8465203999986,550.8631201999997,550.8631201999997,550.8631201999997,550.8631201999997,550.8631201999997,550.8631201999997,550.8631201999997,550.8631201999997,550.8631201999997,550.8631201999997,550.8631201999997,550.8631201999997,550.8631201999997,552.8777562999967,552.8777562999967,552.8777562999967,552.8777562999967,552.8777562999967,552.8777562999967,552.8777562999967,69,31,61,25,69,70,552.8777562999967,554.3956900999983,,,,,,,,,,,,,３１４,f,２４,2023-05-18_18h20.24.284,RL,2022.2.5,60.034315614453774,
42,65,21,70,0,89,89,89,,,,,,,,None,554.3956900999983,554.3956900999983,554.3956900999983,554.3956900999983,554.3956900999983,554.3956900999983,f,0.5095838999986881,554.9296235000002,554.9296235000002,554.9296235000002,554.9296235000002,554.9296235000002,554.9296235000002,555.2124300999967,557.1454430999984,557.1621517999993,557.1621517999993,557.1621517999993,557.1621517999993,557.1621517999993,557.1621517999993,557.1621517999993,557.1621517999993,557.1621517999993,557.1621517999993,557.1621517999993,557.1621517999993,557.1621517999993,559.3932157999989,559.3932157999989,559.3932157999989,559.3932157999989,559.3932157999989,559.3932157999989,559.3932157999989,70,42,65,21,70,70,559.3932157999989,561.1447518999994,,,,,,,,,,,,,３１４,f,２４,2023-05-18_18h20.24.284,RL,2022.2.5,60.034315614453774,
42,56,11,62,0,90,90,90,,,,,,,,None,561.1447518999994,561.1447518999994,561.1447518999994,561.1447518999994,561.1447518999994,561.1447518999994,f,0.4244034000003012,561.5961057999993,561.5961057999993,561.5961057999993,561.5961057999993,561.5961057999993,561.5961057999993,561.8947176999973,563.5109086999983,563.5109086999983,563.5109086999983,563.5109086999983,563.5109086999983,563.5109086999983,563.5109086999983,563.5109086999983,563.5109086999983,563.5109086999983,563.5109086999983,563.5109086999983,563.5109086999983,563.5109086999983,565.4258358999978,565.4258358999978,565.4258358999978,565.4258358999978,565.4258358999978,565.4258358999978,565.4258358999978,62,42,56,11,62,70,565.4258358999978,567.2268936,,,,,,,,,,,,,３１４,f,２４,2023-05-18_18h20.24.284,RL,2022.2.5,60.034315614453774,
48,55,25,61,0,91,91,91,,,,,,,,None,567.2268936,567.2268936,567.2268936,567.2268936,567.2268936,567.2268936,f,0.348369500003173,567.5945474999971,567.5945474999971,567.5945474999971,567.5945474999971,567.5945474999971,567.5945474999971,567.876713499998,569.3433177999977,569.359938499998,569.359938499998,569.359938499998,569.359938499998,569.359938499998,569.359938499998,569.359938499998,569.359938499998,569.359938499998,569.359938499998,569.359938499998,569.359938499998,569.359938499998,571.1251617999988,571.1251617999988,571.1251617999988,571.1251617999988,571.1251617999988,571.1251617999988,571.1251617999988,61,48,55,25,61,70,571.1251617999988,572.8258655999998,,,,,,,,,,,,,３１４,f,２４,2023-05-18_18h20.24.284,RL,2022.2.5,60.034315614453774,
56,56,17,68,0,92,92,92,,,,,,,,None,572.8258655999998,572.8258655999998,572.8258655999998,572.8258655999998,572.8258655999998,572.8258655999998,f,0.4696003999997629,573.3328371999996,573.3328371999996,573.3328371999996,573.3328371999996,573.3328371999996,573.3328371999996,573.6092246999979,575.1593458999996,575.1757040999983,575.1757040999983,575.1757040999983,575.1757040999983,575.1757040999983,575.1757040999983,575.1757040999983,575.1757040999983,575.1757040999983,575.1757040999983,575.1757040999983,575.1757040999983,575.1757040999983,577.0238073,577.0238073,577.0238073,577.0238073,577.0238073,577.0238073,577.0238073,68,56,56,17,68,70,577.0238073,578.5419279999987,,,,,,,,,,,,,３１４,f,２４,2023-05-18_18h20.24.284,RL,2022.2.5,60.034315614453774,
52,63,16,58,0,93,93,93,,,,,,,,None,578.5419279999987,578.5419279999987,578.5419279999987,578.5419279999987,578.5419279999987,578.5419279999987,f,0.43692680000094697,579.0085254999976,579.0085254999976,579.0085254999976,579.0085254999976,579.0085254999976,579.0085254999976,579.3082756999975,580.4748392000001,580.4748392000001,580.4748392000001,580.4748392000001,580.4748392000001,580.4748392000001,580.4748392000001,580.4748392000001,580.4748392000001,580.4748392000001,580.4748392000001,580.4748392000001,580.4748392000001,580.4748392000001,581.9392492999978,581.9392492999978,581.9392492999978,581.9392492999978,581.9392492999978,581.9392492999978,581.9392492999978,58,52,63,16,58,70,581.9392492999978,583.9239758999975,,,,,,,,,,,,,３１４,f,２４,2023-05-18_18h20.24.284,RL,2022.2.5,60.034315614453774,
46,65,14,65,0,94,94,94,,,,,,,,None,583.9239758999975,583.9239758999975,583.9239758999975,583.9239758999975,583.9239758999975,583.9239758999975,f,0.46045629999935045,584.407499099998,584.407499099998,584.407499099998,584.407499099998,584.407499099998,584.407499099998,584.6910915999979,585.8404389999996,585.8570906999994,585.8570906999994,585.8570906999994,585.8570906999994,585.8570906999994,585.8570906999994,585.8570906999994,585.8570906999994,585.8570906999994,585.8570906999994,585.8570906999994,585.8570906999994,585.8570906999994,587.3051261,587.3051261,587.3051261,587.3051261,587.3051261,587.3051261,587.3051261,65,46,65,14,65,70,587.3051261,588.9563826999984,,,,,,,,,,,,,３１４,f,２４,2023-05-18_18h20.24.284,RL,2022.2.5,60.034315614453774,
50,65,13,64,0,95,95,95,,,,,,,,None,588.9563826999984,588.9563826999984,588.9563826999984,588.9563826999984,588.9563826999984,588.9563826999984,f,0.5173779000033392,589.5113631999993,589.5113631999993,589.5113631999993,589.5113631999993,589.5113631999993,589.5113631999993,589.7901344999991,591.1730639999987,591.1894427999978,591.1894427999978,591.1894427999978,591.1894427999978,591.1894427999978,591.1894427999978,591.1894427999978,591.1894427999978,591.1894427999978,591.1894427999978,591.1894427999978,591.1894427999978,591.1894427999978,592.8708368999978,592.8708368999978,592.8708368999978,592.8708368999978,592.8708368999978,592.8708368999978,592.8708368999978,64,50,65,13,64,70,592.8708368999978,594.4383621999987,,,,,,,,,,,,,３１４,f,２４,2023-05-18_18h20.24.284,RL,2022.2.5,60.034315614453774,
42,70,24,66,0,96,96,96,,,,,,,,None,594.4383621999987,594.4383621999987,594.4383621999987,594.4383621999987,594.4383621999987,594.4383621999987,f,0.4947814999977709,594.955898799999,594.955898799999,594.955898799999,594.955898799999,594.955898799999,594.955898799999,595.239143499999,596.8385261999974,596.8554674999978,596.8554674999978,596.8554674999978,596.8554674999978,596.8554674999978,596.8554674999978,596.8554674999978,596.8554674999978,596.8554674999978,596.8554674999978,596.8554674999978,596.8554674999978,596.8554674999978,598.7534306999987,598.7534306999987,598.7534306999987,598.7534306999987,598.7534306999987,598.7534306999987,598.7534306999987,66,42,70,24,66,70,598.7534306999987,600.304586299997,,,,,,,,,,,,,３１４,f,２４,2023-05-18_18h20.24.284,RL,2022.2.5,60.034315614453774,
56,69,21,62,0,97,97,97,,,,,,,,None,600.304586299997,600.304586299997,600.304586299997,600.304586299997,600.304586299997,600.304586299997,f,0.4868534000015643,600.8280490999969,600.8280490999969,600.8280490999969,600.8280490999969,600.8280490999969,600.8280490999969,601.104444499997,602.0042483999969,602.0210299999999,602.0210299999999,602.0210299999999,602.0210299999999,602.0210299999999,602.0210299999999,602.0210299999999,602.0210299999999,602.0210299999999,602.0210299999999,602.0210299999999,602.0210299999999,602.0210299999999,603.2193413999994,603.2193413999994,603.2193413999994,603.2193413999994,603.2193413999994,603.2193413999994,603.2193413999994,62,56,69,21,62,70,603.2193413999994,604.8870138999991,,,,,,,,,,,,,３１４,f,２４,2023-05-18_18h20.24.284,RL,2022.2.5,60.034315614453774,
45,61,11,61,0,98,98,98,,,,,,,,None,604.8870138999991,604.8870138999991,604.8870138999991,604.8870138999991,604.8870138999991,604.8870138999991,f,0.3377627999980177,605.2543174999992,605.2543174999992,605.2543174999992,605.2543174999992,605.2543174999992,605.2543174999992,605.5373125999977,607.4371826999995,607.4536936999975,607.4536936999975,607.4536936999975,607.4536936999975,607.4536936999975,607.4536936999975,607.4536936999975,607.4536936999975,607.4536936999975,607.4536936999975,607.4536936999975,607.4536936999975,607.4536936999975,609.6514366999982,609.6514366999982,609.6514366999982,609.6514366999982,609.6514366999982,609.6514366999982,609.6514366999982,61,45,61,11,61,70,609.6514366999982,611.4691796999978,,,,,,,,,,,,,３１４,f,２４,2023-05-18_18h20.24.284,RL,2022.2.5,60.034315614453774,
53,65,19,54,0,99,99,99,,,,,,,,None,611.4691796999978,611.4691796999978,611.4691796999978,611.4691796999978,611.4691796999978,611.4691796999978,f,0.597651299998688,612.0862329999982,612.0862329999982,612.0862329999982,612.0862329999982,612.0862329999982,612.0862329999982,612.3863329999986,613.268933899999,613.268933899999,613.268933899999,613.268933899999,613.268933899999,613.268933899999,613.268933899999,613.268933899999,613.268933899999,613.268933899999,613.268933899999,613.268933899999,613.268933899999,613.268933899999,614.4506436999982,614.4506436999982,614.4506436999982,614.4506436999982,614.4506436999982,614.4506436999982,614.4506436999982,54,53,65,19,54,70,614.4506436999982,616.434978199999,,,,,,,,,,,,,３１４,f,２４,2023-05-18_18h20.24.284,RL,2022.2.5,60.034315614453774,
50,62,14,53,0,100,100,100,,,,,,,,None,616.434978199999,616.434978199999,616.434978199999,616.434978199999,616.434978199999,616.434978199999,f,0.3250926000000618,616.7863954999993,616.7863954999993,616.7863954999993,616.7863954999993,616.7863954999993,616.7863954999993,617.0850896999982,618.3516005999991,618.3516005999991,618.3516005999991,618.3516005999991,618.3516005999991,618.3516005999991,618.3516005999991,618.3516005999991,618.3516005999991,618.3516005999991,618.3516005999991,618.3516005999991,618.3516005999991,618.3516005999991,619.9160711999975,619.9160711999975,619.9160711999975,619.9160711999975,619.9160711999975,619.9160711999975,619.9160711999975,53,50,62,14,53,70,619.9160711999975,621.5843359999999,,,,,,,,,,,,,３１４,f,２４,2023-05-18_18h20.24.284,RL,2022.2.5,60.034315614453774,
52,66,8,64,0,101,101,101,,,,,,,,None,621.5843359999999,621.5843359999999,621.5843359999999,621.5843359999999,621.5843359999999,621.5843359999999,f,0.47202540000216686,622.0865170999969,622.0865170999969,622.0865170999969,622.0865170999969,622.0865170999969,622.0865170999969,622.3844388999969,623.9010737999997,623.9010737999997,623.9010737999997,623.9010737999997,623.9010737999997,623.9010737999997,623.9010737999997,623.9010737999997,623.9010737999997,623.9010737999997,623.9010737999997,623.9010737999997,623.9010737999997,623.9010737999997,625.7151128999976,625.7151128999976,625.7151128999976,625.7151128999976,625.7151128999976,625.7151128999976,625.7151128999976,64,52,66,8,64,70,625.7151128999976,627.6498429999992,,,,,,,,,,,,,３１４,f,２４,2023-05-18_18h20.24.284,RL,2022.2.5,60.034315614453774,
50,60,11,63,0,102,102,102,,,,,,,,None,627.6498429999992,627.6498429999992,627.6498429999992,627.6498429999992,627.6498429999992,627.6498429999992,f,0.4514640999987023,628.1410157999999,628.1410157999999,628.1410157999999,628.1410157999999,628.1410157999999,628.1410157999999,628.4330644999973,630.0162541999998,630.0162541999998,630.0162541999998,630.0162541999998,630.0162541999998,630.0162541999998,630.0162541999998,630.0162541999998,630.0162541999998,630.0162541999998,630.0162541999998,630.0162541999998,630.0162541999998,630.0162541999998,631.8979482999966,631.8979482999966,631.8979482999966,631.8979482999966,631.8979482999966,631.8979482999966,631.8979482999966,63,50,60,11,63,70,631.8979482999966,633.7322840999987,,,,,,,,,,,,,３１４,f,２４,2023-05-18_18h20.24.284,RL,2022.2.5,60.034315614453774,
43,62,11,64,0,103,103,103,,,,,,,,None,633.7322840999987,633.7322840999987,633.7322840999987,633.7322840999987,633.7322840999987,633.7322840999987,f,0.5621199999986857,634.3155705999998,634.3155705999998,634.3155705999998,634.3155705999998,634.3155705999998,634.3155705999998,634.5987091999996,635.8489290999969,635.8651728999976,635.8651728999976,635.8651728999976,635.8651728999976,635.8651728999976,635.8651728999976,635.8651728999976,635.8651728999976,635.8651728999976,635.8651728999976,635.8651728999976,635.8651728999976,635.8651728999976,637.413451299999,637.413451299999,637.413451299999,637.413451299999,637.413451299999,637.413451299999,637.413451299999,64,43,62,11,64,70,637.413451299999,639.0145771999996,,,,,,,,,,,,,３１４,f,２４,2023-05-18_18h20.24.284,RL,2022.2.5,60.034315614453774,
43,56,13,64,0,104,104,104,,,,,,,,None,639.0145771999996,639.0145771999996,639.0145771999996,639.0145771999996,639.0145771999996,639.0145771999996,f,0.825170000000071,639.8650202999997,639.8650202999997,639.8650202999997,639.8650202999997,639.8650202999997,639.8650202999997,640.1483486999969,642.0143124999995,642.0307437999982,642.0307437999982,642.0307437999982,642.0307437999982,642.0307437999982,642.0307437999982,642.0307437999982,642.0307437999982,642.0307437999982,642.0307437999982,642.0307437999982,642.0307437999982,642.0307437999982,644.1952807999987,644.1952807999987,644.1952807999987,644.1952807999987,644.1952807999987,644.1952807999987,644.1952807999987,64,43,56,13,64,70,644.1952807999987,645.8465390999991,,,,,,,,,,,,,３１４,f,２４,2023-05-18_18h20.24.284,RL,2022.2.5,60.034315614453774,
47,55,8,64,0,105,105,105,,,,,,,,None,645.8465390999991,645.8465390999991,645.8465390999991,645.8465390999991,645.8465390999991,645.8465390999991,f,0.39853969999967376,646.2671956999984,646.2671956999984,646.2671956999984,646.2671956999984,646.2671956999984,646.2671956999984,646.5634929999978,648.1464044999993,648.1464044999993,648.1464044999993,648.1464044999993,648.1464044999993,648.1464044999993,648.1464044999993,648.1464044999993,648.1464044999993,648.1464044999993,648.1464044999993,648.1464044999993,648.1464044999993,648.1464044999993,650.0275817999973,650.0275817999973,650.0275817999973,650.0275817999973,650.0275817999973,650.0275817999973,650.0275817999973,64,47,55,8,64,70,650.0275817999973,651.5455784999976,,,,,,,,,,,,,３１４,f,２４,2023-05-18_18h20.24.284,RL,2022.2.5,60.034315614453774,
39,55,15,62,0,106,106,106,,,,,,,,None,651.5455784999976,651.5455784999976,651.5455784999976,651.5455784999976,651.5455784999976,651.5455784999976,f,0.3462048000001232,651.912720999997,651.912720999997,651.912720999997,651.912720999997,651.912720999997,651.912720999997,652.1957427999987,653.1456191999969,653.162000999997,653.162000999997,653.162000999997,653.162000999997,653.162000999997,653.162000999997,653.162000999997,653.162000999997,653.162000999997,653.162000999997,653.162000999997,653.162000999997,653.162000999997,654.4102260999971,654.4102260999971,654.4102260999971,654.4102260999971,654.4102260999971,654.4102260999971,654.4102260999971,62,39,55,15,62,70,654.4102260999971,656.1783945999996,,,,,,,,,,,,,３１４,f,２４,2023-05-18_18h20.24.284,RL,2022.2.5,60.034315614453774,
39,52,10,60,0,107,107,107,,,,,,,,None,656.1783945999996,656.1783945999996,656.1783945999996,656.1783945999996,656.1783945999996,656.1783945999996,f,0.3947468000005756,656.5963248999979,656.5963248999979,656.5963248999979,656.5963248999979,656.5963248999979,656.5963248999979,656.878303999998,658.128033099998,658.1446856000002,658.1446856000002,658.1446856000002,658.1446856000002,658.1446856000002,658.1446856000002,658.1446856000002,658.1446856000002,658.1446856000002,658.1446856000002,658.1446856000002,658.1446856000002,658.1446856000002,659.6929676,659.6929676,659.6929676,659.6929676,659.6929676,659.6929676,659.6929676,60,39,52,10,60,70,659.6929676,661.2105389999997,,,,,,,,,,,,,３１４,f,２４,2023-05-18_18h20.24.284,RL,2022.2.5,60.034315614453774,
36,58,17,58,0,108,108,108,,,,,,,,None,661.2105389999997,661.2105389999997,661.2105389999997,661.2105389999997,661.2105389999997,661.2105389999997,f,0.37587279999934253,661.6109722000001,661.6109722000001,661.6109722000001,661.6109722000001,661.6109722000001,661.6109722000001,661.8941305999979,663.327197999999,663.3436700999991,663.3436700999991,663.3436700999991,663.3436700999991,663.3436700999991,663.3436700999991,663.3436700999991,663.3436700999991,663.3436700999991,663.3436700999991,663.3436700999991,663.3436700999991,663.3436700999991,665.0750948999994,665.0750948999994,665.0750948999994,665.0750948999994,665.0750948999994,665.0750948999994,665.0750948999994,58,36,58,17,58,70,665.0750948999994,667.0593801999967,,,,,,,,,,,,,３１４,f,２４,2023-05-18_18h20.24.284,RL,2022.2.5,60.034315614453774,
38,57,22,56,0,109,109,109,,,,,,,,None,667.0593801999967,667.0593801999967,667.0593801999967,667.0593801999967,667.0593801999967,667.0593801999967,f,0.3431237999975565,667.4296095999998,667.4296095999998,667.4296095999998,667.4296095999998,667.4296095999998,667.4296095999998,667.7102727999991,669.2434713999974,669.2594919999974,669.2594919999974,669.2594919999974,669.2594919999974,669.2594919999974,669.2594919999974,669.2594919999974,669.2594919999974,669.2594919999974,669.2594919999974,669.2594919999974,669.2594919999974,669.2594919999974,671.0908290999978,671.0908290999978,671.0908290999978,671.0908290999978,671.0908290999978,671.0908290999978,671.0908290999978,56,38,57,22,56,70,671.0908290999978,673.058366199999,,,,,,,,,,,,,３１４,f,２４,2023-05-18_18h20.24.284,RL,2022.2.5,60.034315614453774,
39,59,26,64,0,110,110,110,,,,,,,,None,673.058366199999,673.058366199999,673.058366199999,673.058366199999,673.058366199999,673.058366199999,f,0.4180927999987034,673.5118802999968,673.5118802999968,673.5118802999968,673.5118802999968,673.5118802999968,673.5118802999968,673.8087615999975,675.0415493999972,675.0415493999972,675.0415493999972,675.0415493999972,675.0415493999972,675.0415493999972,675.0415493999972,675.0415493999972,675.0415493999972,675.0415493999972,675.0415493999972,675.0415493999972,675.0415493999972,675.0415493999972,676.5730848999992,676.5730848999992,676.5730848999992,676.5730848999992,676.5730848999992,676.5730848999992,676.5730848999992,64,39,59,26,64,70,676.5730848999992,678.5074511999992,,,,,,,,,,,,,３１４,f,２４,2023-05-18_18h20.24.284,RL,2022.2.5,60.034315614453774,
44,57,21,57,0,111,111,111,,,,,,,,None,678.5074511999992,678.5074511999992,678.5074511999992,678.5074511999992,678.5074511999992,678.5074511999992,f,0.45138909999877797,678.9911988999993,678.9911988999993,678.9911988999993,678.9911988999993,678.9911988999993,678.9911988999993,679.2744873999982,680.3078845999989,680.324296499999,680.324296499999,680.324296499999,680.324296499999,680.324296499999,680.324296499999,680.324296499999,680.324296499999,680.324296499999,680.324296499999,680.324296499999,680.324296499999,680.324296499999,681.6558630999971,681.6558630999971,681.6558630999971,681.6558630999971,681.6558630999971,681.6558630999971,681.6558630999971,57,44,57,21,57,70,681.6558630999971,683.1899959000002,,,,,,,,,,,,,３１４,f,２４,2023-05-18_18h20.24.284,RL,2022.2.5,60.034315614453774,
39,58,22,67,0,112,112,112,,,,,,,,None,683.1899959000002,683.1899959000002,683.1899959000002,683.1899959000002,683.1899959000002,683.1899959000002,f,0.3874610000020766,683.6097261999967,683.6097261999967,683.6097261999967,683.6097261999967,683.6097261999967,683.6097261999967,683.9071090999969,684.8900598,684.8900598,684.8900598,684.8900598,684.8900598,684.8900598,684.8900598,684.8900598,684.8900598,684.8900598,684.8900598,684.8900598,684.8900598,684.8900598,686.1712305000001,686.1712305000001,686.1712305000001,686.1712305000001,686.1712305000001,686.1712305000001,686.1712305000001,67,39,58,22,67,70,686.1712305000001,688.0894423999998,,,,,,,,,,,,,３１４,f,２４,2023-05-18_18h20.24.284,RL,2022.2.5,60.034315614453774,
50,52,27,62,0,113,113,113,,,,,,,,None,688.0894423999998,688.0894423999998,688.0894423999998,688.0894423999998,688.0894423999998,688.0894423999998,f,0.4096669999998994,688.5229666999985,688.5229666999985,688.5229666999985,688.5229666999985,688.5229666999985,688.5229666999985,688.8063844999997,690.3556778999991,690.3724776999989,690.3724776999989,690.3724776999989,690.3724776999989,690.3724776999989,690.3724776999989,690.3724776999989,690.3724776999989,690.3724776999989,690.3724776999989,690.3724776999989,690.3724776999989,690.3724776999989,692.2207570999999,692.2207570999999,692.2207570999999,692.2207570999999,692.2207570999999,692.2207570999999,692.2207570999999,62,50,52,27,62,70,692.2207570999999,694.0382410999991,,,,,,,,,,,,,３１４,f,２４,2023-05-18_18h20.24.284,RL,2022.2.5,60.034315614453774,
47,51,30,51,0,114,114,114,,,,,,,,None,694.0382410999991,694.0382410999991,694.0382410999991,694.0382410999991,694.0382410999991,694.0382410999991,f,0.4260833999978786,694.4884212999968,694.4884212999968,694.4884212999968,694.4884212999968,694.4884212999968,694.4884212999968,694.7719900999982,695.9718177999966,695.9883492999979,695.9883492999979,695.9883492999979,695.9883492999979,695.9883492999979,695.9883492999979,695.9883492999979,695.9883492999979,695.9883492999979,695.9883492999979,695.9883492999979,695.9883492999979,695.9883492999979,697.4860813999985,697.4860813999985,697.4860813999985,697.4860813999985,697.4860813999985,697.4860813999985,697.4860813999985,51,47,51,30,51,70,697.4860813999985,699.3872104000002,,,,,,,,,,,,,３１４,f,２４,2023-05-18_18h20.24.284,RL,2022.2.5,60.034315614453774,
51,54,35,53,0,115,115,115,,,,,,,,None,699.3872104000002,699.3872104000002,699.3872104000002,699.3872104000002,699.3872104000002,699.3872104000002,f,0.5283753000003344,699.9388947999978,699.9388947999978,699.9388947999978,699.9388947999978,699.9388947999978,699.9388947999978,700.2374099999979,701.4037935999986,701.4037935999986,701.4037935999986,701.4037935999986,701.4037935999986,701.4037935999986,701.4037935999986,701.4037935999986,701.4037935999986,701.4037935999986,701.4037935999986,701.4037935999986,701.4037935999986,701.4037935999986,702.868420499999,702.868420499999,702.868420499999,702.868420499999,702.868420499999,702.868420499999,702.868420499999,53,51,54,35,53,70,702.868420499999,704.5695476000001,,,,,,,,,,,,,３１４,f,２４,2023-05-18_18h20.24.284,RL,2022.2.5,60.034315614453774,
52,55,32,48,0,116,116,116,,,,,,,,None,704.5695476000001,704.5695476000001,704.5695476000001,704.5695476000001,704.5695476000001,704.5695476000001,f,0.4013474999992468,705.0069103999995,705.0069103999995,705.0069103999995,705.0069103999995,705.0069103999995,705.0069103999995,705.2869488999968,706.2033190999973,706.2198179999978,706.2198179999978,706.2198179999978,706.2198179999978,706.2198179999978,706.2198179999978,706.2198179999978,706.2198179999978,706.2198179999978,706.2198179999978,706.2198179999978,706.2198179999978,706.2198179999978,707.4344962999967,707.4344962999967,707.4344962999967,707.4344962999967,707.4344962999967,707.4344962999967,707.4344962999967,48,52,55,32,48,70,707.4344962999967,709.2191009999988,,,,,,,,,,,,,３１４,f,２４,2023-05-18_18h20.24.284,RL,2022.2.5,60.034315614453774,
45,60,39,51,0,117,117,117,,,,,,,,None,709.2191009999988,709.2191009999988,709.2191009999988,709.2191009999988,709.2191009999988,709.2191009999988,f,0.5534293999990041,709.8027557999994,709.8027557999994,709.8027557999994,709.8027557999994,709.8027557999994,709.8027557999994,710.1022389999998,711.5352786999974,711.5352786999974,711.5352786999974,711.5352786999974,711.5352786999974,711.5352786999974,711.5352786999974,711.5352786999974,711.5352786999974,711.5352786999974,711.5352786999974,711.5352786999974,711.5352786999974,711.5352786999974,713.2669128999987,713.2669128999987,713.2669128999987,713.2669128999987,713.2669128999987,713.2669128999987,713.2669128999987,51,45,60,39,51,70,713.2669128999987,715.1174160999981,,,,,,,,,,,,,３１４,f,２４,2023-05-18_18h20.24.284,RL,2022.2.5,60.034315614453774,
49,65,32,54,0,118,118,118,,,,,,,,None,715.1174160999981,715.1174160999981,715.1174160999981,715.1174160999981,715.1174160999981,715.1174160999981,f,0.43312220000007073,715.5705561999966,715.5705561999966,715.5705561999966,715.5705561999966,715.5705561999966,715.5705561999966,715.8680718999967,717.3679642999996,717.3679642999996,717.3679642999996,717.3679642999996,717.3679642999996,717.3679642999996,717.3679642999996,717.3679642999996,717.3679642999996,717.3679642999996,717.3679642999996,717.3679642999996,717.3679642999996,717.3679642999996,719.1658243999991,719.1658243999991,719.1658243999991,719.1658243999991,719.1658243999991,719.1658243999991,719.1658243999991,54,49,65,32,54,70,719.1658243999991,721.050271199998,,,,,,,,,,,,,３１４,f,２４,2023-05-18_18h20.24.284,RL,2022.2.5,60.034315614453774,
52,53,30,55,0,119,119,119,,,,,,,,None,721.050271199998,721.050271199998,721.050271199998,721.050271199998,721.050271199998,721.050271199998,f,0.4342670000005455,721.5188635999984,721.5188635999984,721.5188635999984,721.5188635999984,721.5188635999984,721.5188635999984,721.8002515999979,722.9835452999978,722.9999377999993,722.9999377999993,722.9999377999993,722.9999377999993,722.9999377999993,722.9999377999993,722.9999377999993,722.9999377999993,722.9999377999993,722.9999377999993,722.9999377999993,722.9999377999993,722.9999377999993,724.4820164999983,724.4820164999983,724.4820164999983,724.4820164999983,724.4820164999983,724.4820164999983,724.4820164999983,55,52,53,30,55,70,724.4820164999983,726.4160505999971,,,,,,,,,,,,,３１４,f,２４,2023-05-18_18h20.24.284,RL,2022.2.5,60.034315614453774,
58,60,42,49,0,120,120,120,,,,,,,,None,726.4160505999971,726.4160505999971,726.4160505999971,726.4160505999971,726.4160505999971,726.4160505999971,f,0.5651109000027645,726.9996047999994,726.9996047999994,726.9996047999994,726.9996047999994,726.9996047999994,726.9996047999994,727.2826674999997,728.6160740999985,728.6327667999976,728.6327667999976,728.6327667999976,728.6327667999976,728.6327667999976,728.6327667999976,728.6327667999976,728.6327667999976,728.6327667999976,728.6327667999976,728.6327667999976,728.6327667999976,728.6327667999976,730.263931999998,730.263931999998,730.263931999998,730.263931999998,730.263931999998,730.263931999998,730.263931999998,49,58,60,42,49,70,730.263931999998,731.8149793999983,,,,,,,,,,,,,３１４,f,２４,2023-05-18_18h20.24.284,RL,2022.2.5,60.034315614453774,
56,53,27,48,0,121,121,121,,,,,,,,None,731.8149793999983,731.8149793999983,731.8149793999983,731.8149793999983,731.8149793999983,731.8149793999983,f,0.3543017999982112,732.2007337999967,732.2007337999967,732.2007337999967,732.2007337999967,732.2007337999967,732.2007337999967,732.4983703999969,733.3650438999975,733.3650438999975,733.3650438999975,733.3650438999975,733.3650438999975,733.3650438999975,733.3650438999975,733.3650438999975,733.3650438999975,733.3650438999975,733.3650438999975,733.3650438999975,733.3650438999975,733.3650438999975,734.5295779999979,734.5295779999979,734.5295779999979,734.5295779999979,734.5295779999979,734.5295779999979,734.5295779999979,48,56,53,27,48,70,734.5295779999979,736.2305134999988,,,,,,,,,,,,,３１４,f,２４,2023-05-18_18h20.24.284,RL,2022.2.5,60.034315614453774,
