arm1,arm2,arm3,arm4,trials.thisRepN,trials.thisTrialN,trials.thisN,trials.thisIndex,instru_img1.started,instru_resp.started,instru_resp.keys,instru_resp.rt,image_2.started,text_2.started,fixbefore_2.started,rest_response.keys,red.started,green.started,yellow.started,blue.started,choose_bandit.started,Fixation.started,choose_bandit.keys,choose_bandit.rt,black.started,red_2.started,green_2.started,yellow_2.started,blue_2.started,fixation_2.started,docs.started,docs.stopped,black.stopped,red_2.stopped,green_2.stopped,yellow_2.stopped,blue_2.stopped,fixation_2.stopped,black_com.started,reward_sub.started,reward__sub.started,red_compare.started,green_com.started,yellow_com.started,blue_com.started,black_com.stopped,reward_sub.stopped,reward__sub.stopped,red_compare.stopped,green_com.stopped,yellow_com.stopped,blue_com.stopped,rewardred,rewardyellow,rewardblue,rewardgreen,subchoose,expectation,intertrialfix.started,intertrialfix.stopped,rest_image.started,rest_response.started,rest_response.rt,image_expect_after.started,text_exp_after.started,image_expect_after.stopped,text_exp_after.stopped,image.started,key_resp.started,key_resp.keys,key_resp.rt,participant,Gender,Age,date,expName,psychopyVersion,frameRate,
,,,,,,,,57.85633659999996,57.85633659999996,space,22.815489200000002,,,,,,,,,,,,,,,,,,,,,,,,,,,,,,,,,,,,,,,,,,,,,,,,,,,,,,,,,,,,３１５,f,１９,2023-05-18_18h51.21.121,RL,2022.2.5,59.96120510030942,
32,51,56,53,0,0,0,0,,,,,80.7008414,80.7008414,85.7071209,None,86.71800329999996,86.71800329999996,86.71800329999996,86.71800329999996,86.71800329999996,86.71800329999996,j,0.7877096000000279,87.53907129999999,87.53907129999999,87.53907129999999,87.53907129999999,87.53907129999999,87.53907129999999,87.8167578,88.79456049999999,88.83306010000001,88.83306010000001,88.83306010000001,88.83306010000001,88.83306010000001,88.83306010000001,88.83306010000001,88.83306010000001,88.83306010000001,88.83306010000001,88.83306010000001,88.83306010000001,88.83306010000001,90.22943839999999,90.22943839999999,90.22943839999999,90.22943839999999,90.22943839999999,90.22943839999999,90.22943839999999,32,56,51,53,53,60,90.22943839999999,92.04104369999999,,,,,,,,,,,,３１５,f,１９,2023-05-18_18h51.21.121,RL,2022.2.5,59.96120510030942,
29,47,50,51,0,1,1,1,,,,,,,,None,92.04104369999999,92.04104369999999,92.04104369999999,92.04104369999999,92.04104369999999,92.04104369999999,r,0.596337799999958,92.66098669999997,92.66098669999997,92.66098669999997,92.66098669999997,92.66098669999997,92.66098669999997,92.95765139999997,94.25733819999999,94.25733819999999,94.25733819999999,94.25733819999999,94.25733819999999,94.25733819999999,94.25733819999999,94.25733819999999,94.25733819999999,94.25733819999999,94.25733819999999,94.25733819999999,94.25733819999999,94.25733819999999,95.85541139999998,95.85541139999998,95.85541139999998,95.85541139999998,95.85541139999998,95.85541139999998,95.85541139999998,29,50,47,51,50,60,95.85541139999998,97.40688460000001,,,,,,,,,,,,３１５,f,１９,2023-05-18_18h51.21.121,RL,2022.2.5,59.96120510030942,
38,53,59,57,0,2,2,2,,,,,,,,None,97.40688460000001,97.40688460000001,97.40688460000001,97.40688460000001,97.40688460000001,97.40688460000001,j,0.8204860999999823,98.25699980000002,98.25699980000002,98.25699980000002,98.25699980000002,98.25699980000002,98.25699980000002,98.55690099999998,100.02280539999998,100.02280539999998,100.02280539999998,100.02280539999998,100.02280539999998,100.02280539999998,100.02280539999998,100.02280539999998,100.02280539999998,100.02280539999998,100.02280539999998,100.02280539999998,100.02280539999998,100.02280539999998,101.78746100000001,101.78746100000001,101.78746100000001,101.78746100000001,101.78746100000001,101.78746100000001,101.78746100000001,38,59,53,57,57,60,101.78746100000001,103.3889476,,,,,,,,,,,,３１５,f,１９,2023-05-18_18h51.21.121,RL,2022.2.5,59.96120510030942,
32,54,62,57,0,3,3,3,,,,,,,,None,103.3889476,103.3889476,103.3889476,103.3889476,103.3889476,103.3889476,i,0.486865000000023,103.90894199999997,103.90894199999997,103.90894199999997,103.90894199999997,103.90894199999997,103.90894199999997,104.1891296,105.1888634,105.2049887,105.2049887,105.2049887,105.2049887,105.2049887,105.2049887,105.2049887,105.2049887,105.2049887,105.2049887,105.2049887,105.2049887,105.2049887,106.50338260000001,106.50338260000001,106.50338260000001,106.50338260000001,106.50338260000001,106.50338260000001,106.50338260000001,32,62,54,57,54,60,106.50338260000001,108.3546035,,,,,,,,,,,,３１５,f,１９,2023-05-18_18h51.21.121,RL,2022.2.5,59.96120510030942,
35,54,64,51,0,4,4,4,,,,,,,,None,108.3546035,108.3546035,108.3546035,108.3546035,108.3546035,108.3546035,r,0.7819643999999926,109.15614759999994,109.15614759999994,109.15614759999994,109.15614759999994,109.15614759999994,109.15614759999994,109.43845820000001,111.27159089999998,111.28759030000003,111.28759030000003,111.28759030000003,111.28759030000003,111.28759030000003,111.28759030000003,111.28759030000003,111.28759030000003,111.28759030000003,111.28759030000003,111.28759030000003,111.28759030000003,111.28759030000003,113.41914439999994,113.41914439999994,113.41914439999994,113.41914439999994,113.41914439999994,113.41914439999994,113.41914439999994,35,64,54,51,64,60,113.41914439999994,115.32025490000001,,,,,,,,,,,,３１５,f,１９,2023-05-18_18h51.21.121,RL,2022.2.5,59.96120510030942,
22,62,73,55,0,5,5,5,,,,,,,,None,115.32025490000001,115.32025490000001,115.32025490000001,115.32025490000001,115.32025490000001,115.32025490000001,j,0.2968884000000571,115.64126539999995,115.64126539999995,115.64126539999995,115.64126539999995,115.64126539999995,115.64126539999995,115.92059089999998,117.36990489999994,117.3864585,117.3864585,117.3864585,117.3864585,117.3864585,117.3864585,117.3864585,117.3864585,117.3864585,117.3864585,117.3864585,117.3864585,117.3864585,119.13477790000002,119.13477790000002,119.13477790000002,119.13477790000002,119.13477790000002,119.13477790000002,119.13477790000002,22,73,62,55,55,60,119.13477790000002,120.76909269999999,,,,,,,,,,,,３１５,f,１９,2023-05-18_18h51.21.121,RL,2022.2.5,59.96120510030942,
24,67,60,62,0,6,6,6,,,,,,,,None,120.76909269999999,120.76909269999999,120.76909269999999,120.76909269999999,120.76909269999999,120.76909269999999,r,0.712052999999969,121.50399659999994,121.50399659999994,121.50399659999994,121.50399659999994,121.50399659999994,121.50399659999994,121.78631689999997,123.50264479999998,123.51905239999996,123.51905239999996,123.51905239999996,123.51905239999996,123.51905239999996,123.51905239999996,123.51905239999996,123.51905239999996,123.51905239999996,123.51905239999996,123.51905239999996,123.51905239999996,123.51905239999996,125.53346769999996,125.53346769999996,125.53346769999996,125.53346769999996,125.53346769999996,125.53346769999996,125.53346769999996,24,60,67,62,60,60,125.53346769999996,127.16810199999998,,,,,,,,,,,,３１５,f,１９,2023-05-18_18h51.21.121,RL,2022.2.5,59.96120510030942,
32,61,58,54,0,7,7,7,,,,,,,,None,127.16810199999998,127.16810199999998,127.16810199999998,127.16810199999998,127.16810199999998,127.16810199999998,i,0.2951968999999508,127.4855579,127.4855579,127.4855579,127.4855579,127.4855579,127.4855579,127.76803610000002,129.1346446,129.15496429999996,129.15496429999996,129.15496429999996,129.15496429999996,129.15496429999996,129.15496429999996,129.15496429999996,129.15496429999996,129.15496429999996,129.15496429999996,129.15496429999996,129.15496429999996,129.15496429999996,130.8161649,130.8161649,130.8161649,130.8161649,130.8161649,130.8161649,130.8161649,32,58,61,54,61,60,130.8161649,132.4504194,,,,,,,,,,,,３１５,f,１９,2023-05-18_18h51.21.121,RL,2022.2.5,59.96120510030942,
39,59,59,54,0,8,8,8,,,,,,,,None,132.4504194,132.4504194,132.4504194,132.4504194,132.4504194,132.4504194,f,0.34141140000008363,132.81847500000003,132.81847500000003,132.81847500000003,132.81847500000003,132.81847500000003,132.81847500000003,133.1004709,135.0002803,135.01679090000005,135.01679090000005,135.01679090000005,135.01679090000005,135.01679090000005,135.01679090000005,135.01679090000005,135.01679090000005,135.01679090000005,135.01679090000005,135.01679090000005,135.01679090000005,135.01679090000005,137.2149495,137.2149495,137.2149495,137.2149495,137.2149495,137.2149495,137.2149495,39,59,59,54,39,60,137.2149495,138.7322597,,,,,,,,,,,,３１５,f,１９,2023-05-18_18h51.21.121,RL,2022.2.5,59.96120510030942,
28,65,58,60,0,9,9,9,,,,,,,,None,138.7322597,138.7322597,138.7322597,138.7322597,138.7322597,138.7322597,j,0.4455844999999954,139.19964530000004,139.19964530000004,139.19964530000004,139.19964530000004,139.19964530000004,139.19964530000004,139.48301370000001,140.76591859999996,140.78242790000002,140.78242790000002,140.78242790000002,140.78242790000002,140.78242790000002,140.78242790000002,140.78242790000002,140.78242790000002,140.78242790000002,140.78242790000002,140.78242790000002,140.78242790000002,140.78242790000002,142.36398410000004,142.36398410000004,142.36398410000004,142.36398410000004,142.36398410000004,142.36398410000004,142.36398410000004,28,58,65,60,60,60,142.36398410000004,144.19822939999995,,,,,,,,,,,,３１５,f,１９,2023-05-18_18h51.21.121,RL,2022.2.5,59.96120510030942,
43,56,53,53,0,10,10,10,,,,,,,,None,144.19822939999995,144.19822939999995,144.19822939999995,144.19822939999995,144.19822939999995,144.19822939999995,r,0.528783800000042,144.74929150000003,144.74929150000003,144.74929150000003,144.74929150000003,144.74929150000003,144.74929150000003,145.03175150000004,146.04852949999997,146.065024,146.065024,146.065024,146.065024,146.065024,146.065024,146.065024,146.065024,146.065024,146.065024,146.065024,146.065024,146.065024,147.37942710000004,147.37942710000004,147.37942710000004,147.37942710000004,147.37942710000004,147.37942710000004,147.37942710000004,43,53,56,53,53,60,147.37942710000004,148.98107140000002,,,,,,,,,,,,３１５,f,１９,2023-05-18_18h51.21.121,RL,2022.2.5,59.96120510030942,
45,59,52,61,0,11,11,11,,,,,,,,None,148.98107140000002,148.98107140000002,148.98107140000002,148.98107140000002,148.98107140000002,148.98107140000002,f,0.7689847999999984,149.78306209999994,149.78306209999994,149.78306209999994,149.78306209999994,149.78306209999994,149.78306209999994,150.06452490000004,151.94717609999998,151.96378730000004,151.96378730000004,151.96378730000004,151.96378730000004,151.96378730000004,151.96378730000004,151.96378730000004,151.96378730000004,151.96378730000004,151.96378730000004,151.96378730000004,151.96378730000004,151.96378730000004,154.14515289999997,154.14515289999997,154.14515289999997,154.14515289999997,154.14515289999997,154.14515289999997,154.14515289999997,45,52,59,61,45,60,154.14515289999997,155.89602460000003,,,,,,,,,,,,３１５,f,１９,2023-05-18_18h51.21.121,RL,2022.2.5,59.96120510030942,
41,62,53,53,0,12,12,12,,,,,,,,None,155.89602460000003,155.89602460000003,155.89602460000003,155.89602460000003,155.89602460000003,155.89602460000003,i,0.2821824000000106,156.1969686,156.1969686,156.1969686,156.1969686,156.1969686,156.1969686,156.47992220000003,157.89610129999994,157.91263479999998,157.91263479999998,157.91263479999998,157.91263479999998,157.91263479999998,157.91263479999998,157.91263479999998,157.91263479999998,157.91263479999998,157.91263479999998,157.91263479999998,157.91263479999998,157.91263479999998,159.62759219999998,159.62759219999998,159.62759219999998,159.62759219999998,159.62759219999998,159.62759219999998,159.62759219999998,41,53,62,53,62,60,159.62759219999998,161.6122044,,,,,,,,,,,,３１５,f,１９,2023-05-18_18h51.21.121,RL,2022.2.5,59.96120510030942,
40,52,49,51,0,13,13,13,,,,,,,,None,161.6122044,161.6122044,161.6122044,161.6122044,161.6122044,161.6122044,i,0.5351820000000771,162.18504429999996,162.18504429999996,162.18504429999996,162.18504429999996,162.18504429999996,162.18504429999996,162.46237829999995,163.46250510000004,163.47855059999995,163.47855059999995,163.47855059999995,163.47855059999995,163.47855059999995,163.47855059999995,163.47855059999995,163.47855059999995,163.47855059999995,163.47855059999995,163.47855059999995,163.47855059999995,163.47855059999995,164.776751,164.776751,164.776751,164.776751,164.776751,164.776751,164.776751,40,49,52,51,52,60,164.776751,166.72747070000003,,,,,,,,,,,,３１５,f,１９,2023-05-18_18h51.21.121,RL,2022.2.5,59.96120510030942,
43,72,54,58,0,14,14,14,,,,,,,,None,166.72747070000003,166.72747070000003,166.72747070000003,166.72747070000003,166.72747070000003,166.72747070000003,j,0.3279544000000669,167.07895259999998,167.07895259999998,167.07895259999998,167.07895259999998,167.07895259999998,167.07895259999998,167.36121830000002,169.07778050000002,169.09397760000002,169.09397760000002,169.09397760000002,169.09397760000002,169.09397760000002,169.09397760000002,169.09397760000002,169.09397760000002,169.09397760000002,169.09397760000002,169.09397760000002,169.09397760000002,169.09397760000002,171.1092175,171.1092175,171.1092175,171.1092175,171.1092175,171.1092175,171.1092175,43,54,72,58,58,60,171.1092175,172.92654530000004,,,,,,,,,,,,３１５,f,１９,2023-05-18_18h51.21.121,RL,2022.2.5,59.96120510030942,
43,64,57,52,0,15,15,15,,,,,,,,None,172.92654530000004,172.92654530000004,172.92654530000004,172.92654530000004,172.92654530000004,172.92654530000004,r,0.46116810000000896,173.410622,173.410622,173.410622,173.410622,173.410622,173.410622,173.6936071,175.07702319999999,175.09344550000003,175.09344550000003,175.09344550000003,175.09344550000003,175.09344550000003,175.09344550000003,175.09344550000003,175.09344550000003,175.09344550000003,175.09344550000003,175.09344550000003,175.09344550000003,175.09344550000003,176.77445160000002,176.77445160000002,176.77445160000002,176.77445160000002,176.77445160000002,176.77445160000002,176.77445160000002,43,57,64,52,57,60,176.77445160000002,178.47623169999997,,,,,,,,,,,,３１５,f,１９,2023-05-18_18h51.21.121,RL,2022.2.5,59.96120510030942,
40,76,54,52,0,16,16,16,,,,,,,,None,178.47623169999997,178.47623169999997,178.47623169999997,178.47623169999997,178.47623169999997,178.47623169999997,j,0.6563004000000774,179.15936020000004,179.15936020000004,179.15936020000004,179.15936020000004,179.15936020000004,179.15936020000004,179.4428087,180.94263620000004,180.95894599999997,180.95894599999997,180.95894599999997,180.95894599999997,180.95894599999997,180.95894599999997,180.95894599999997,180.95894599999997,180.95894599999997,180.95894599999997,180.95894599999997,180.95894599999997,180.95894599999997,182.75683649999996,182.75683649999996,182.75683649999996,182.75683649999996,182.75683649999996,182.75683649999996,182.75683649999996,40,54,76,52,52,60,182.75683649999996,184.52471000000003,,,,,,,,,,,,３１５,f,１９,2023-05-18_18h51.21.121,RL,2022.2.5,59.96120510030942,
39,64,57,56,0,17,17,17,,,,,,,,None,184.52471000000003,184.52471000000003,184.52471000000003,184.52471000000003,184.52471000000003,184.52471000000003,i,0.23501039999996465,184.79653010000004,184.79653010000004,184.79653010000004,184.79653010000004,184.79653010000004,184.79653010000004,185.09177350000004,186.2247837,186.2414781,186.2414781,186.2414781,186.2414781,186.2414781,186.2414781,186.2414781,186.2414781,186.2414781,186.2414781,186.2414781,186.2414781,186.2414781,187.67259390000004,187.67259390000004,187.67259390000004,187.67259390000004,187.67259390000004,187.67259390000004,187.67259390000004,39,57,64,56,64,60,187.67259390000004,189.60747259999994,,,,,,,,,,,,３１５,f,１９,2023-05-18_18h51.21.121,RL,2022.2.5,59.96120510030942,
36,69,67,56,0,18,18,18,,,,,,,,None,189.60747259999994,189.60747259999994,189.60747259999994,189.60747259999994,189.60747259999994,189.60747259999994,j,0.4386296999999786,190.0741306,190.0741306,190.0741306,190.0741306,190.0741306,190.0741306,190.35776439999995,191.30704690000005,191.3236134,191.3236134,191.3236134,191.3236134,191.3236134,191.3236134,191.3236134,191.3236134,191.3236134,191.3236134,191.3236134,191.3236134,191.3236134,192.5719884,192.5719884,192.5719884,192.5719884,192.5719884,192.5719884,192.5719884,36,67,69,56,56,60,192.5719884,194.423042,,,,,,,,,,,,３１５,f,１９,2023-05-18_18h51.21.121,RL,2022.2.5,59.96120510030942,
26,69,63,58,0,19,19,19,,,,,,,,None,194.423042,194.423042,194.423042,194.423042,194.423042,194.423042,i,0.39425710000000436,194.8406364,194.8406364,194.8406364,194.8406364,194.8406364,194.8406364,195.12340819999997,197.00618120000001,197.02267229999995,197.02267229999995,197.02267229999995,197.02267229999995,197.02267229999995,197.02267229999995,197.02267229999995,197.02267229999995,197.02267229999995,197.02267229999995,197.02267229999995,197.02267229999995,197.02267229999995,199.20381139999995,199.20381139999995,199.20381139999995,199.20381139999995,199.20381139999995,199.20381139999995,199.20381139999995,26,63,69,58,69,60,199.20381139999995,200.85516889999997,,,,,,,,,,,,３１５,f,１９,2023-05-18_18h51.21.121,RL,2022.2.5,59.96120510030942,
35,59,74,64,0,20,20,20,,,,,,,,None,200.85516889999997,200.85516889999997,200.85516889999997,200.85516889999997,200.85516889999997,200.85516889999997,r,0.44821030000002793,201.3221443,201.3221443,201.3221443,201.3221443,201.3221443,201.3221443,201.622069,202.73841679999998,202.73841679999998,202.73841679999998,202.73841679999998,202.73841679999998,202.73841679999998,202.73841679999998,202.73841679999998,202.73841679999998,202.73841679999998,202.73841679999998,202.73841679999998,202.73841679999998,202.73841679999998,204.15343410000003,204.15343410000003,204.15343410000003,204.15343410000003,204.15343410000003,204.15343410000003,204.15343410000003,35,74,59,64,74,60,204.15343410000003,206.10469179999996,,,,,,,,,,,,３１５,f,１９,2023-05-18_18h51.21.121,RL,2022.2.5,59.96120510030942,
42,60,71,64,0,21,21,21,,,,,,,,None,206.10469179999996,206.10469179999996,206.10469179999996,206.10469179999996,206.10469179999996,206.10469179999996,j,0.525378499999988,206.6558589,206.6558589,206.6558589,206.6558589,206.6558589,206.6558589,206.9542884,208.8039615,208.8039615,208.8039615,208.8039615,208.8039615,208.8039615,208.8039615,208.8039615,208.8039615,208.8039615,208.8039615,208.8039615,208.8039615,208.8039615,210.95171700000003,210.95171700000003,210.95171700000003,210.95171700000003,210.95171700000003,210.95171700000003,210.95171700000003,42,71,60,64,64,60,210.95171700000003,212.56956219999995,,,,,,,,,,,,３１５,f,１９,2023-05-18_18h51.21.121,RL,2022.2.5,59.96120510030942,
29,69,73,64,0,22,22,22,,,,,,,,None,212.56956219999995,212.56956219999995,212.56956219999995,212.56956219999995,212.56956219999995,212.56956219999995,i,0.43404229999998734,213.0369273,213.0369273,213.0369273,213.0369273,213.0369273,213.0369273,213.3200594,215.2527811,215.26937980000002,215.26937980000002,215.26937980000002,215.26937980000002,215.26937980000002,215.26937980000002,215.26937980000002,215.26937980000002,215.26937980000002,215.26937980000002,215.26937980000002,215.26937980000002,215.26937980000002,217.50078340000005,217.50078340000005,217.50078340000005,217.50078340000005,217.50078340000005,217.50078340000005,217.50078340000005,29,73,69,64,69,60,217.50078340000005,219.285213,,,,,,,,,,,,３１５,f,１９,2023-05-18_18h51.21.121,RL,2022.2.5,59.96120510030942,
41,64,72,67,0,23,23,23,,,,,,,,None,219.285213,219.285213,219.285213,219.285213,219.285213,219.285213,j,0.7283684000000221,220.03561019999995,220.03561019999995,220.03561019999995,220.03561019999995,220.03561019999995,220.03561019999995,220.31882959999996,221.3514897,221.36838379999995,221.36838379999995,221.36838379999995,221.36838379999995,221.36838379999995,221.36838379999995,221.36838379999995,221.36838379999995,221.36838379999995,221.36838379999995,221.36838379999995,221.36838379999995,221.36838379999995,222.69995159999996,222.69995159999996,222.69995159999996,222.69995159999996,222.69995159999996,222.69995159999996,222.69995159999996,41,72,64,67,67,60,222.69995159999996,224.3840907,,,,,,,,,,,,３１５,f,１９,2023-05-18_18h51.21.121,RL,2022.2.5,59.96120510030942,
52,68,72,71,0,24,24,24,,,,,,,,None,224.3840907,224.3840907,224.3840907,224.3840907,224.3840907,224.3840907,r,0.7422312999999576,225.15157409999995,225.15157409999995,225.15157409999995,225.15157409999995,225.15157409999995,225.15157409999995,225.4346713,226.38418560000002,226.40085209999995,226.40085209999995,226.40085209999995,226.40085209999995,226.40085209999995,226.40085209999995,226.40085209999995,226.40085209999995,226.40085209999995,226.40085209999995,226.40085209999995,226.40085209999995,226.40085209999995,227.6491095,227.6491095,227.6491095,227.6491095,227.6491095,227.6491095,227.6491095,52,72,68,71,72,60,227.6491095,229.43334019999998,,,,,,,,,,,,３１５,f,１９,2023-05-18_18h51.21.121,RL,2022.2.5,59.96120510030942,
36,61,73,58,0,25,25,25,,,,,,,,None,229.43334019999998,229.43334019999998,229.43334019999998,229.43334019999998,229.43334019999998,229.43334019999998,i,0.48904110000000856,229.95074320000003,229.95074320000003,229.95074320000003,229.95074320000003,229.95074320000003,229.95074320000003,230.2336957,231.5167427,231.53363809999996,231.53363809999996,231.53363809999996,231.53363809999996,231.53363809999996,231.53363809999996,231.53363809999996,231.53363809999996,231.53363809999996,231.53363809999996,231.53363809999996,231.53363809999996,231.53363809999996,233.11476779999998,233.11476779999998,233.11476779999998,233.11476779999998,233.11476779999998,233.11476779999998,233.11476779999998,36,73,61,58,61,60,233.11476779999998,234.71595820000005,,,,,,,,,,,,３１５,f,１９,2023-05-18_18h51.21.121,RL,2022.2.5,59.96120510030942,
44,67,80,65,0,26,26,26,,,,,,,,None,234.71595820000005,234.71595820000005,234.71595820000005,234.71595820000005,234.71595820000005,234.71595820000005,i,0.5161567999999761,235.25004230000002,235.25004230000002,235.25004230000002,235.25004230000002,235.25004230000002,235.25004230000002,235.53274899999997,236.93270329999996,236.94923389999997,236.94923389999997,236.94923389999997,236.94923389999997,236.94923389999997,236.94923389999997,236.94923389999997,236.94923389999997,236.94923389999997,236.94923389999997,236.94923389999997,236.94923389999997,236.94923389999997,238.64722919999997,238.64722919999997,238.64722919999997,238.64722919999997,238.64722919999997,238.64722919999997,238.64722919999997,44,80,67,65,67,60,238.64722919999997,240.28148109999995,,,,,,,,,,,,３１５,f,１９,2023-05-18_18h51.21.121,RL,2022.2.5,59.96120510030942,
43,67,73,66,0,27,27,27,,,,,,,,None,240.28148109999995,240.28148109999995,240.28148109999995,240.28148109999995,240.28148109999995,240.28148109999995,j,0.5653777999999647,240.86606829999994,240.86606829999994,240.86606829999994,240.86606829999994,240.86606829999994,240.86606829999994,241.14857959999995,242.63153690000001,242.6483482,242.6483482,242.6483482,242.6483482,242.6483482,242.6483482,242.6483482,242.6483482,242.6483482,242.6483482,242.6483482,242.6483482,242.6483482,244.42966130000002,244.42966130000002,244.42966130000002,244.42966130000002,244.42966130000002,244.42966130000002,244.42966130000002,43,73,67,66,66,60,244.42966130000002,246.14775329999998,,,,,,,,,,,,３１５,f,１９,2023-05-18_18h51.21.121,RL,2022.2.5,59.96120510030942,
44,70,73,57,0,28,28,28,,,,,,,,None,246.14775329999998,246.14775329999998,246.14775329999998,246.14775329999998,246.14775329999998,246.14775329999998,r,0.47887490000005073,246.6498762,246.6498762,246.6498762,246.6498762,246.6498762,246.6498762,246.93106620000003,248.8141465,248.83080759999996,248.83080759999996,248.83080759999996,248.83080759999996,248.83080759999996,248.83080759999996,248.83080759999996,248.83080759999996,248.83080759999996,248.83080759999996,248.83080759999996,248.83080759999996,248.83080759999996,251.0115968,251.0115968,251.0115968,251.0115968,251.0115968,251.0115968,251.0115968,44,73,70,57,73,60,251.0115968,252.54631570000004,,,,,,,,,,,,３１５,f,１９,2023-05-18_18h51.21.121,RL,2022.2.5,59.96120510030942,
47,62,67,56,0,29,29,29,,,,,,,,None,252.54631570000004,252.54631570000004,252.54631570000004,252.54631570000004,252.54631570000004,252.54631570000004,r,0.9640056000000641,253.53174190000004,253.53174190000004,253.53174190000004,253.53174190000004,253.53174190000004,253.53174190000004,253.830101,255.71261000000004,255.71261000000004,255.71261000000004,255.71261000000004,255.71261000000004,255.71261000000004,255.71261000000004,255.71261000000004,255.71261000000004,255.71261000000004,255.71261000000004,255.71261000000004,255.71261000000004,255.71261000000004,257.89344789999996,257.89344789999996,257.89344789999996,257.89344789999996,257.89344789999996,257.89344789999996,257.89344789999996,47,67,62,56,67,60,257.89344789999996,259.6778229,,,,,,,,,,,,３１５,f,１９,2023-05-18_18h51.21.121,RL,2022.2.5,59.96120510030942,
42,61,60,58,0,30,30,30,,,,,,,,None,259.6778229,259.6778229,259.6778229,259.6778229,259.6778229,259.6778229,i,0.6089397000000645,260.31193629999996,260.31193629999996,260.31193629999996,260.31193629999996,260.31193629999996,260.31193629999996,260.59500579999997,262.36130349999996,262.3779982,262.3779982,262.3779982,262.3779982,262.3779982,262.3779982,262.3779982,262.3779982,262.3779982,262.3779982,262.3779982,262.3779982,262.3779982,264.44267879999995,264.44267879999995,264.44267879999995,264.44267879999995,264.44267879999995,264.44267879999995,264.44267879999995,42,60,61,58,61,60,264.44267879999995,266.34380079999994,,,,,,,,,,,,３１５,f,１９,2023-05-18_18h51.21.121,RL,2022.2.5,59.96120510030942,
46,64,71,61,0,31,31,31,,,,,,,,None,266.34380079999994,266.34380079999994,266.34380079999994,266.34380079999994,266.34380079999994,266.34380079999994,j,0.43523960000004536,266.81094770000004,266.81094770000004,266.81094770000004,266.81094770000004,266.81094770000004,266.81094770000004,267.09396849999996,268.5103388,268.5271923,268.5271923,268.5271923,268.5271923,268.5271923,268.5271923,268.5271923,268.5271923,268.5271923,268.5271923,268.5271923,268.5271923,268.5271923,270.24164169999995,270.24164169999995,270.24164169999995,270.24164169999995,270.24164169999995,270.24164169999995,270.24164169999995,46,71,64,61,61,60,270.24164169999995,271.775979,,,,,,,,,,,,３１５,f,１９,2023-05-18_18h51.21.121,RL,2022.2.5,59.96120510030942,
54,63,61,54,0,32,32,32,,,,,,,,None,271.775979,271.775979,271.775979,271.775979,271.775979,271.775979,r,0.3233332000000928,272.1268752,272.1268752,272.1268752,272.1268752,272.1268752,272.1268752,272.4096435,273.2430144,273.2596307,273.2596307,273.2596307,273.2596307,273.2596307,273.2596307,273.2596307,273.2596307,273.2596307,273.2596307,273.2596307,273.2596307,273.2596307,274.3908679,274.3908679,274.3908679,274.3908679,274.3908679,274.3908679,274.3908679,54,61,63,54,61,60,274.3908679,276.19193470000005,,,,,,,,,,,,３１５,f,１９,2023-05-18_18h51.21.121,RL,2022.2.5,59.96120510030942,
52,70,62,58,0,33,33,33,,,,,,,,None,276.19193470000005,276.19193470000005,276.19193470000005,276.19193470000005,276.19193470000005,276.19193470000005,r,0.4785763999999517,276.692532,276.692532,276.692532,276.692532,276.692532,276.692532,276.97574310000005,277.8586811,277.87546510000004,277.87546510000004,277.87546510000004,277.87546510000004,277.87546510000004,277.87546510000004,277.87546510000004,277.87546510000004,277.87546510000004,277.87546510000004,277.87546510000004,277.87546510000004,277.87546510000004,279.0568386,279.0568386,279.0568386,279.0568386,279.0568386,279.0568386,279.0568386,52,62,70,58,62,60,279.0568386,281.0578689,,,,,,,,,,,,３１５,f,１９,2023-05-18_18h51.21.121,RL,2022.2.5,59.96120510030942,
48,65,60,51,0,34,34,34,,,,,,,,None,281.0578689,281.0578689,281.0578689,281.0578689,281.0578689,281.0578689,i,0.3720212000000629,281.45844680000005,281.45844680000005,281.45844680000005,281.45844680000005,281.45844680000005,281.45844680000005,281.7414519,283.0578183,283.0744852,283.0744852,283.0744852,283.0744852,283.0744852,283.0744852,283.0744852,283.0744852,283.0744852,283.0744852,283.0744852,283.0744852,283.0744852,284.6892362,284.6892362,284.6892362,284.6892362,284.6892362,284.6892362,284.6892362,48,60,65,51,65,60,284.6892362,286.3234781,,,,,,,,,,,,３１５,f,１９,2023-05-18_18h51.21.121,RL,2022.2.5,59.96120510030942,
36,72,59,56,0,35,35,35,,,,,,,,None,286.3234781,286.3234781,286.3234781,286.3234781,286.3234781,286.3234781,r,0.37191489999997884,286.7243519,286.7243519,286.7243519,286.7243519,286.7243519,286.7243519,287.00711479999995,288.1236014,288.14051129999996,288.14051129999996,288.14051129999996,288.14051129999996,288.14051129999996,288.14051129999996,288.14051129999996,288.14051129999996,288.14051129999996,288.14051129999996,288.14051129999996,288.14051129999996,288.14051129999996,289.5548976,289.5548976,289.5548976,289.5548976,289.5548976,289.5548976,289.5548976,36,59,72,56,59,60,289.5548976,291.18925119999994,,,,,,,,,,,,３１５,f,１９,2023-05-18_18h51.21.121,RL,2022.2.5,59.96120510030942,
37,69,66,51,0,36,36,36,,,,,,,,None,291.18925119999994,291.18925119999994,291.18925119999994,291.18925119999994,291.18925119999994,291.18925119999994,i,0.7724062000000913,291.9901575,291.9901575,291.9901575,291.9901575,291.9901575,291.9901575,292.27303670000003,293.30595159999996,293.3228071,293.3228071,293.3228071,293.3228071,293.3228071,293.3228071,293.3228071,293.3228071,293.3228071,293.3228071,293.3228071,293.3228071,293.3228071,294.6543007,294.6543007,294.6543007,294.6543007,294.6543007,294.6543007,294.6543007,37,66,69,51,69,60,294.6543007,296.40584049999995,,,,,,,,,,,,３１５,f,１９,2023-05-18_18h51.21.121,RL,2022.2.5,59.96120510030942,
39,57,62,56,0,37,37,37,,,,,,,,None,296.40584049999995,296.40584049999995,296.40584049999995,296.40584049999995,296.40584049999995,296.40584049999995,j,0.48116779999998016,296.90764060000004,296.90764060000004,296.90764060000004,296.90764060000004,296.90764060000004,296.90764060000004,297.1890336,298.221819,298.2552419,298.2552419,298.2552419,298.2552419,298.2552419,298.2552419,298.2552419,298.2552419,298.2552419,298.2552419,298.2552419,298.2552419,298.2552419,299.5869668,299.5869668,299.5869668,299.5869668,299.5869668,299.5869668,299.5869668,39,62,57,56,56,60,299.5869668,301.50452499999994,,,,,,,,,,,,３１５,f,１９,2023-05-18_18h51.21.121,RL,2022.2.5,59.96120510030942,
38,58,62,59,0,38,38,38,,,,,,,,None,301.50452499999994,301.50452499999994,301.50452499999994,301.50452499999994,301.50452499999994,301.50452499999994,i,0.2696833999999626,301.80704130000004,301.80704130000004,301.80704130000004,301.80704130000004,301.80704130000004,301.80704130000004,302.1050848,303.8709069,303.8709069,303.8709069,303.8709069,303.8709069,303.8709069,303.8709069,303.8709069,303.8709069,303.8709069,303.8709069,303.8709069,303.8709069,303.8709069,305.935747,305.935747,305.935747,305.935747,305.935747,305.935747,305.935747,38,62,58,59,58,60,305.935747,307.91984130000003,,,,,,,,,,,,３１５,f,１９,2023-05-18_18h51.21.121,RL,2022.2.5,59.96120510030942,
38,67,71,57,0,39,39,39,,,,,,,,None,307.91984130000003,307.91984130000003,307.91984130000003,307.91984130000003,307.91984130000003,307.91984130000003,r,0.33115270000007513,308.27181069999995,308.27181069999995,308.27181069999995,308.27181069999995,308.27181069999995,308.27181069999995,308.55409180000004,309.7702333,309.78676989999997,309.78676989999997,309.78676989999997,309.78676989999997,309.78676989999997,309.78676989999997,309.78676989999997,309.78676989999997,309.78676989999997,309.78676989999997,309.78676989999997,309.78676989999997,309.78676989999997,311.3013274,311.3013274,311.3013274,311.3013274,311.3013274,311.3013274,311.3013274,38,71,67,57,71,60,311.3013274,313.10248709999996,,,,,,,,,,,,３１５,f,１９,2023-05-18_18h51.21.121,RL,2022.2.5,59.96120510030942,
40,67,55,58,0,40,40,40,,,,,,,,None,313.10248709999996,313.10248709999996,313.10248709999996,313.10248709999996,313.10248709999996,313.10248709999996,r,0.44631189999995513,313.56938119999995,313.56938119999995,313.56938119999995,313.56938119999995,313.56938119999995,313.56938119999995,313.8692562,315.1691144,315.1691144,315.1691144,315.1691144,315.1691144,315.1691144,315.1691144,315.1691144,315.1691144,315.1691144,315.1691144,315.1691144,315.1691144,315.1691144,316.76708399999995,316.76708399999995,316.76708399999995,316.76708399999995,316.76708399999995,316.76708399999995,316.76708399999995,40,55,67,58,55,60,316.76708399999995,318.30133950000004,,,,,,,,,,,,３１５,f,１９,2023-05-18_18h51.21.121,RL,2022.2.5,59.96120510030942,
42,67,56,56,0,41,41,41,,,,,,,,None,318.30133950000004,318.30133950000004,318.30133950000004,318.30133950000004,318.30133950000004,318.30133950000004,j,1.1397283000000016,319.46833879999997,319.46833879999997,319.46833879999997,319.46833879999997,319.46833879999997,319.46833879999997,319.751749,320.7514278,320.76797580000004,320.76797580000004,320.76797580000004,320.76797580000004,320.76797580000004,320.76797580000004,320.76797580000004,320.76797580000004,320.76797580000004,320.76797580000004,320.76797580000004,320.76797580000004,320.76797580000004,322.06637650000005,322.06637650000005,322.06637650000005,322.06637650000005,322.06637650000005,322.06637650000005,322.06637650000005,42,56,67,56,56,60,322.06637650000005,324.0505388,,,,,,,,,,,,３１５,f,１９,2023-05-18_18h51.21.121,RL,2022.2.5,59.96120510030942,
44,69,55,64,0,42,42,42,,,,,,,,None,324.0505388,324.0505388,324.0505388,324.0505388,324.0505388,324.0505388,i,0.5357606999999689,324.6194176,324.6194176,324.6194176,324.6194176,324.6194176,324.6194176,324.90095239999994,326.5332443,326.550262,326.550262,326.550262,326.550262,326.550262,326.550262,326.550262,326.550262,326.550262,326.550262,326.550262,326.550262,326.550262,328.48208650000004,328.48208650000004,328.48208650000004,328.48208650000004,328.48208650000004,328.48208650000004,328.48208650000004,44,55,69,64,69,60,328.48208650000004,330.33276879999994,,,,,,,,,,,,３１５,f,１９,2023-05-18_18h51.21.121,RL,2022.2.5,59.96120510030942,
45,69,55,66,0,43,43,43,,,,,,,,None,330.33276879999994,330.33276879999994,330.33276879999994,330.33276879999994,330.33276879999994,330.33276879999994,j,0.2360246000000643,330.60259659999997,330.60259659999997,330.60259659999997,330.60259659999997,330.60259659999997,330.60259659999997,330.88313630000005,332.81612770000004,332.83247729999994,332.83247729999994,332.83247729999994,332.83247729999994,332.83247729999994,332.83247729999994,332.83247729999994,332.83247729999994,332.83247729999994,332.83247729999994,332.83247729999994,332.83247729999994,332.83247729999994,335.0641412,335.0641412,335.0641412,335.0641412,335.0641412,335.0641412,335.0641412,45,55,69,66,66,60,335.0641412,336.79842329999997,,,,,,,,,,,,３１５,f,１９,2023-05-18_18h51.21.121,RL,2022.2.5,59.96120510030942,
37,66,56,61,0,44,44,44,,,,,,,,None,336.79842329999997,336.79842329999997,336.79842329999997,336.79842329999997,336.79842329999997,336.79842329999997,r,0.2443126000000575,337.06627000000003,337.06627000000003,337.06627000000003,337.06627000000003,337.06627000000003,337.06627000000003,337.34855600000003,338.46501119999994,338.48145999999997,338.48145999999997,338.48145999999997,338.48145999999997,338.48145999999997,338.48145999999997,338.48145999999997,338.48145999999997,338.48145999999997,338.48145999999997,338.48145999999997,338.48145999999997,338.48145999999997,339.8961323,339.8961323,339.8961323,339.8961323,339.8961323,339.8961323,339.8961323,37,56,66,61,56,60,339.8961323,341.54707729999996,,,,,,,,,,,,３１５,f,１９,2023-05-18_18h51.21.121,RL,2022.2.5,59.96120510030942,
29,67,67,67,0,45,45,45,,,,,,,,None,341.54707729999996,341.54707729999996,341.54707729999996,341.54707729999996,341.54707729999996,341.54707729999996,i,0.481463700000063,342.04783199999997,342.04783199999997,342.04783199999997,342.04783199999997,342.04783199999997,342.04783199999997,342.33104919999994,343.314069,343.3307304,343.3307304,343.3307304,343.3307304,343.3307304,343.3307304,343.3307304,343.3307304,343.3307304,343.3307304,343.3307304,343.3307304,343.3307304,344.61220549999996,344.61220549999996,344.61220549999996,344.61220549999996,344.61220549999996,344.61220549999996,344.61220549999996,29,67,67,67,67,60,344.61220549999996,346.4629214,,,,,,,,,,,,３１５,f,１９,2023-05-18_18h51.21.121,RL,2022.2.5,59.96120510030942,
34,67,68,61,0,46,46,46,,,,,,,,None,346.4629214,346.4629214,346.4629214,346.4629214,346.4629214,346.4629214,i,0.7774298000000499,347.2636632,347.2636632,347.2636632,347.2636632,347.2636632,347.2636632,347.5465401,349.52968280000005,349.54625539999995,349.54625539999995,349.54625539999995,349.54625539999995,349.54625539999995,349.54625539999995,349.54625539999995,349.54625539999995,349.54625539999995,349.54625539999995,349.54625539999995,349.54625539999995,349.54625539999995,351.82754520000003,351.82754520000003,351.82754520000003,351.82754520000003,351.82754520000003,351.82754520000003,351.82754520000003,34,68,67,61,67,60,351.82754520000003,353.46190079999997,,,,,,,,,,,,３１５,f,１９,2023-05-18_18h51.21.121,RL,2022.2.5,59.96120510030942,
35,68,58,64,0,47,47,47,,,,,,,,None,353.46190079999997,353.46190079999997,353.46190079999997,353.46190079999997,353.46190079999997,353.46190079999997,j,0.5562342000000626,354.04859650000003,354.04859650000003,354.04859650000003,354.04859650000003,354.04859650000003,354.04859650000003,354.34548770000004,355.3956624,355.3956624,355.3956624,355.3956624,355.3956624,355.3956624,355.3956624,355.3956624,355.3956624,355.3956624,355.3956624,355.3956624,355.3956624,355.3956624,356.7433525,356.7433525,356.7433525,356.7433525,356.7433525,356.7433525,356.7433525,35,58,68,64,64,60,356.7433525,358.6944224,,,,,,,,,,,,３１５,f,１９,2023-05-18_18h51.21.121,RL,2022.2.5,59.96120510030942,
29,66,56,59,0,48,48,48,,,,,,,,None,358.6944224,358.6944224,358.6944224,358.6944224,358.6944224,358.6944224,i,0.7584719000000177,359.47901279999996,359.47901279999996,359.47901279999996,359.47901279999996,359.47901279999996,359.47901279999996,359.777822,361.12784899999997,361.12784899999997,361.12784899999997,361.12784899999997,361.12784899999997,361.12784899999997,361.12784899999997,361.12784899999997,361.12784899999997,361.12784899999997,361.12784899999997,361.12784899999997,361.12784899999997,361.12784899999997,362.7756439,362.7756439,362.7756439,362.7756439,362.7756439,362.7756439,362.7756439,29,56,66,59,66,60,362.7756439,364.3268488,,,,,,,,,,,,３１５,f,１９,2023-05-18_18h51.21.121,RL,2022.2.5,59.96120510030942,
34,68,60,54,0,49,49,49,,,,,,,,None,364.3268488,364.3268488,364.3268488,364.3268488,364.3268488,364.3268488,r,0.722146299999963,365.0793562,365.0793562,365.0793562,365.0793562,365.0793562,365.0793562,365.3773353,367.3765703,367.39329899999996,367.39329899999996,367.39329899999996,367.39329899999996,367.39329899999996,367.39329899999996,367.39329899999996,367.39329899999996,367.39329899999996,367.39329899999996,367.39329899999996,367.39329899999996,367.39329899999996,369.69087060000004,369.69087060000004,369.69087060000004,369.69087060000004,369.69087060000004,369.69087060000004,369.69087060000004,34,60,68,54,60,60,369.69087060000004,371.64229079999996,,,,,,,,,,,,３１５,f,１９,2023-05-18_18h51.21.121,RL,2022.2.5,59.96120510030942,
35,58,58,60,0,50,50,50,,,,,,,,None,371.64229079999996,371.64229079999996,371.64229079999996,371.64229079999996,371.64229079999996,371.64229079999996,i,0.5097667000000001,372.180074,372.180074,372.180074,372.180074,372.180074,372.180074,372.47573179999995,373.52551170000004,373.52551170000004,373.52551170000004,373.52551170000004,373.52551170000004,373.52551170000004,373.52551170000004,373.52551170000004,373.52551170000004,373.52551170000004,373.52551170000004,373.52551170000004,373.52551170000004,373.52551170000004,374.87392009999996,374.87392009999996,374.87392009999996,374.87392009999996,374.87392009999996,374.87392009999996,374.87392009999996,35,58,58,60,58,60,374.87392009999996,376.7251801,,,,,,,,,,,,３１５,f,１９,2023-05-18_18h51.21.121,RL,2022.2.5,59.96120510030942,
33,63,72,58,0,51,51,51,,,,,,,,None,376.7251801,376.7251801,376.7251801,376.7251801,376.7251801,376.7251801,r,0.6317888999999468,377.37628270000005,377.37628270000005,377.37628270000005,377.37628270000005,377.37628270000005,377.37628270000005,377.6585397,379.50774679999995,379.5246201,379.5246201,379.5246201,379.5246201,379.5246201,379.5246201,379.5246201,379.5246201,379.5246201,379.5246201,379.5246201,379.5246201,379.5246201,381.67293169999994,381.67293169999994,381.67293169999994,381.67293169999994,381.67293169999994,381.67293169999994,381.67293169999994,33,72,63,58,72,60,381.67293169999994,383.573566,,,,,,,,,,,,３１５,f,１９,2023-05-18_18h51.21.121,RL,2022.2.5,59.96120510030942,
32,76,69,60,0,52,52,52,,,,,,,,None,383.573566,383.573566,383.573566,383.573566,383.573566,383.573566,j,0.3099386000000095,383.90741030000004,383.90741030000004,383.90741030000004,383.90741030000004,383.90741030000004,383.90741030000004,384.1905283,385.0572531,385.0733999,385.0733999,385.0733999,385.0733999,385.0733999,385.0733999,385.0733999,385.0733999,385.0733999,385.0733999,385.0733999,385.0733999,385.0733999,386.23850619999996,386.23850619999996,386.23850619999996,386.23850619999996,386.23850619999996,386.23850619999996,386.23850619999996,32,69,76,60,60,60,386.23850619999996,387.8894305,,,,,,,,,,,,３１５,f,１９,2023-05-18_18h51.21.121,RL,2022.2.5,59.96120510030942,
35,68,68,73,0,53,53,53,,,,,,,,None,387.8894305,387.8894305,387.8894305,387.8894305,387.8894305,387.8894305,i,0.5109460999999555,388.42496600000004,388.42496600000004,388.42496600000004,388.42496600000004,388.42496600000004,388.42496600000004,388.70670210000003,389.57240019999995,389.58953959999997,389.58953959999997,389.58953959999997,389.58953959999997,389.58953959999997,389.58953959999997,389.58953959999997,389.58953959999997,389.58953959999997,389.58953959999997,389.58953959999997,389.58953959999997,389.58953959999997,390.75445690000004,390.75445690000004,390.75445690000004,390.75445690000004,390.75445690000004,390.75445690000004,390.75445690000004,35,68,68,73,68,60,390.75445690000004,392.62170159999994,,,,,,,,,,,,３１５,f,１９,2023-05-18_18h51.21.121,RL,2022.2.5,59.96120510030942,
31,75,74,68,0,54,54,54,,,,,,,,None,392.62170159999994,392.62170159999994,392.62170159999994,392.62170159999994,392.62170159999994,392.62170159999994,r,0.5760586000000103,393.22236999999996,393.22236999999996,393.22236999999996,393.22236999999996,393.22236999999996,393.22236999999996,393.5225755,394.9115987,394.9115987,394.9115987,394.9115987,394.9115987,394.9115987,394.9115987,394.9115987,394.9115987,394.9115987,394.9115987,394.9115987,394.9115987,394.9115987,396.5527882,396.5527882,396.5527882,396.5527882,396.5527882,396.5527882,396.5527882,31,74,75,68,74,60,396.5527882,398.3872391,,,,,,,,,,,,３１５,f,１９,2023-05-18_18h51.21.121,RL,2022.2.5,59.96120510030942,
37,71,65,60,0,55,55,55,,,,,,,,None,398.3872391,398.3872391,398.3872391,398.3872391,398.3872391,398.3872391,j,0.2913117999999031,398.70699360000003,398.70699360000003,398.70699360000003,398.70699360000003,398.70699360000003,398.70699360000003,398.9881541,400.8541672,400.8707233,400.8707233,400.8707233,400.8707233,400.8707233,400.8707233,400.8707233,400.8707233,400.8707233,400.8707233,400.8707233,400.8707233,400.8707233,403.03531469999996,403.03531469999996,403.03531469999996,403.03531469999996,403.03531469999996,403.03531469999996,403.03531469999996,37,65,71,60,60,60,403.03531469999996,404.95301340000003,,,,,,,,,,,,３１５,f,１９,2023-05-18_18h51.21.121,RL,2022.2.5,59.96120510030942,
35,75,67,73,0,56,56,56,,,,,,,,None,404.95301340000003,404.95301340000003,404.95301340000003,404.95301340000003,404.95301340000003,404.95301340000003,i,0.6574716999999737,405.6380619,405.6380619,405.6380619,405.6380619,405.6380619,405.6380619,405.9364981,407.3032746,407.3032746,407.3032746,407.3032746,407.3032746,407.3032746,407.3032746,407.3032746,407.3032746,407.3032746,407.3032746,407.3032746,407.3032746,407.3032746,408.96800129999997,408.96800129999997,408.96800129999997,408.96800129999997,408.96800129999997,408.96800129999997,408.96800129999997,35,67,75,73,75,60,408.96800129999997,410.9023558,,,,,,,,,,,,３１５,f,１９,2023-05-18_18h51.21.121,RL,2022.2.5,59.96120510030942,
48,61,64,65,0,57,57,57,,,,,,,,None,410.9023558,410.9023558,410.9023558,410.9023558,410.9023558,410.9023558,i,0.5100188999999773,411.435824,411.435824,411.435824,411.435824,411.435824,411.435824,411.7189747,413.6187714,413.63528339999993,413.63528339999993,413.63528339999993,413.63528339999993,413.63528339999993,413.63528339999993,413.63528339999993,413.63528339999993,413.63528339999993,413.63528339999993,413.63528339999993,413.63528339999993,413.63528339999993,415.8334801,415.8334801,415.8334801,415.8334801,415.8334801,415.8334801,415.8334801,48,64,61,65,61,60,415.8334801,417.6675364,,,,,,,,,,,,３１５,f,１９,2023-05-18_18h51.21.121,RL,2022.2.5,59.96120510030942,
38,61,65,71,0,58,58,58,,,,,,,,None,417.6675364,417.6675364,417.6675364,417.6675364,417.6675364,417.6675364,j,0.2757958999999346,417.96924219999994,417.96924219999994,417.96924219999994,417.96924219999994,417.96924219999994,417.96924219999994,418.2516666,419.53419199999996,419.5507949,419.5507949,419.5507949,419.5507949,419.5507949,419.5507949,419.5507949,419.5507949,419.5507949,419.5507949,419.5507949,419.5507949,419.5507949,421.13257250000004,421.13257250000004,421.13257250000004,421.13257250000004,421.13257250000004,421.13257250000004,421.13257250000004,38,65,61,71,71,60,421.13257250000004,422.7665704,,,,,,,,,,,,３１５,f,１９,2023-05-18_18h51.21.121,RL,2022.2.5,59.96120510030942,
44,72,72,63,0,59,59,59,,,,,,,,None,422.7665704,422.7665704,422.7665704,422.7665704,422.7665704,422.7665704,r,0.5578629000000319,423.3520343,423.3520343,423.3520343,423.3520343,423.3520343,423.3520343,423.63351839999996,424.45008269999994,424.46695909999994,424.46695909999994,424.46695909999994,424.46695909999994,424.46695909999994,424.46695909999994,424.46695909999994,424.46695909999994,424.46695909999994,424.46695909999994,424.46695909999994,424.46695909999994,424.46695909999994,425.5814027,425.5814027,425.5814027,425.5814027,425.5814027,425.5814027,425.5814027,44,72,72,63,72,60,425.5814027,427.4159727,,,,,,,,,,,,３１５,f,１９,2023-05-18_18h51.21.121,RL,2022.2.5,59.96120510030942,
51,55,53,61,0,60,60,60,,,,,,,,None,427.4159727,427.4159727,427.4159727,427.4159727,427.4159727,427.4159727,i,0.36677130000009583,427.8218548,427.8218548,427.8218548,427.8218548,427.8218548,427.8218548,428.09982160000004,429.16578200000004,429.182584,429.182584,429.182584,429.182584,429.182584,429.182584,429.182584,429.182584,429.182584,429.182584,429.182584,429.182584,429.182584,430.54730900000004,430.54730900000004,430.54730900000004,430.54730900000004,430.54730900000004,430.54730900000004,430.54730900000004,51,53,55,61,55,60,430.54730900000004,432.13174849999996,,,,,,,,,,,,３１５,f,１９,2023-05-18_18h51.21.121,RL,2022.2.5,59.96120510030942,
44,51,62,65,0,61,61,61,,,,,,,,None,432.13174849999996,432.13174849999996,432.13174849999996,432.13174849999996,432.13174849999996,432.13174849999996,j,0.5525414999999612,432.72522689999994,432.72522689999994,432.72522689999994,432.72522689999994,432.72522689999994,432.72522689999994,432.9988125,434.4320302,434.46542250000005,434.46542250000005,434.46542250000005,434.46542250000005,434.46542250000005,434.46542250000005,434.46542250000005,434.46542250000005,434.46542250000005,434.46542250000005,434.46542250000005,434.46542250000005,434.46542250000005,436.1964199,436.1964199,436.1964199,436.1964199,436.1964199,436.1964199,436.1964199,44,62,51,65,65,60,436.1964199,438.16397670000003,,,,,,,,,,,,３１５,f,１９,2023-05-18_18h51.21.121,RL,2022.2.5,59.96120510030942,
43,57,66,60,0,62,62,62,,,,,,,,None,438.16397670000003,438.16397670000003,438.16397670000003,438.16397670000003,438.16397670000003,438.16397670000003,i,0.3568205999999918,438.54767589999994,438.54767589999994,438.54767589999994,438.54767589999994,438.54767589999994,438.54767589999994,438.83122130000004,440.0308467,440.04746750000004,440.04746750000004,440.04746750000004,440.04746750000004,440.04746750000004,440.04746750000004,440.04746750000004,440.04746750000004,440.04746750000004,440.04746750000004,440.04746750000004,440.04746750000004,440.04746750000004,441.54522910000003,441.54522910000003,441.54522910000003,441.54522910000003,441.54522910000003,441.54522910000003,441.54522910000003,43,66,57,60,57,60,441.54522910000003,443.19630040000004,,,,,,,,,,,,３１５,f,１９,2023-05-18_18h51.21.121,RL,2022.2.5,59.96120510030942,
47,60,64,62,0,63,63,63,,,,,,,,None,443.19630040000004,443.19630040000004,443.19630040000004,443.19630040000004,443.19630040000004,443.19630040000004,r,0.3655192999999599,443.5806196,443.5806196,443.5806196,443.5806196,443.5806196,443.5806196,443.8636266,445.746533,445.76330640000003,445.76330640000003,445.76330640000003,445.76330640000003,445.76330640000003,445.76330640000003,445.76330640000003,445.76330640000003,445.76330640000003,445.76330640000003,445.76330640000003,445.76330640000003,445.76330640000003,447.94411460000003,447.94411460000003,447.94411460000003,447.94411460000003,447.94411460000003,447.94411460000003,447.94411460000003,47,64,60,62,64,60,447.94411460000003,449.5457216,,,,,,,,,,,,３１５,f,１９,2023-05-18_18h51.21.121,RL,2022.2.5,59.96120510030942,
44,61,73,67,0,64,64,64,,,,,,,,None,449.5457216,449.5457216,449.5457216,449.5457216,449.5457216,449.5457216,j,0.5124668999999358,450.0791849,450.0791849,450.0791849,450.0791849,450.0791849,450.0791849,450.37924899999996,451.4285975,451.4285975,451.4285975,451.4285975,451.4285975,451.4285975,451.4285975,451.4285975,451.4285975,451.4285975,451.4285975,451.4285975,451.4285975,451.4285975,452.7769082,452.7769082,452.7769082,452.7769082,452.7769082,452.7769082,452.7769082,44,73,61,67,67,60,452.7769082,454.3449355,,,,,,,,,,,,３１５,f,１９,2023-05-18_18h51.21.121,RL,2022.2.5,59.96120510030942,
46,55,77,77,0,65,65,65,,,,,,,,None,454.3449355,454.3449355,454.3449355,454.3449355,454.3449355,454.3449355,i,0.6658472999999958,455.0301866,455.0301866,455.0301866,455.0301866,455.0301866,455.0301866,455.31167730000004,456.87816969999994,456.89471189999995,456.89471189999995,456.89471189999995,456.89471189999995,456.89471189999995,456.89471189999995,456.89471189999995,456.89471189999995,456.89471189999995,456.89471189999995,456.89471189999995,456.89471189999995,456.89471189999995,458.7590087,458.7590087,458.7590087,458.7590087,458.7590087,458.7590087,458.7590087,46,77,55,77,55,60,458.7590087,460.3768755,,,,,,,,,,,,３１５,f,１９,2023-05-18_18h51.21.121,RL,2022.2.5,59.96120510030942,
44,46,66,58,0,66,66,66,,,,,,,,None,460.3768755,460.3768755,460.3768755,460.3768755,460.3768755,460.3768755,r,0.2731883999999809,460.67956760000004,460.67956760000004,460.67956760000004,460.67956760000004,460.67956760000004,460.67956760000004,460.96055820000004,462.74361580000004,462.76016119999997,462.76016119999997,462.76016119999997,462.76016119999997,462.76016119999997,462.76016119999997,462.76016119999997,462.76016119999997,462.76016119999997,462.76016119999997,462.76016119999997,462.76016119999997,462.76016119999997,464.84142439999994,464.84142439999994,464.84142439999994,464.84142439999994,464.84142439999994,464.84142439999994,464.84142439999994,44,66,46,58,66,60,464.84142439999994,466.44263579999995,,,,,,,,,,,,３１５,f,１９,2023-05-18_18h51.21.121,RL,2022.2.5,59.96120510030942,
57,45,66,65,0,67,67,67,,,,,,,,None,466.44263579999995,466.44263579999995,466.44263579999995,466.44263579999995,466.44263579999995,466.44263579999995,i,0.29758140000001276,466.7632307,466.7632307,466.7632307,466.7632307,466.7632307,466.7632307,467.04281119999996,468.9256351,468.9422413,468.9422413,468.9422413,468.9422413,468.9422413,468.9422413,468.9422413,468.9422413,468.9422413,468.9422413,468.9422413,468.9422413,468.9422413,471.10711560000004,471.10711560000004,471.10711560000004,471.10711560000004,471.10711560000004,471.10711560000004,471.10711560000004,57,66,45,65,45,60,471.10711560000004,472.7246742,,,,,,,,,,,,３１５,f,１９,2023-05-18_18h51.21.121,RL,2022.2.5,59.96120510030942,
43,49,78,61,0,68,68,68,,,,,,,,None,472.7246742,472.7246742,472.7246742,472.7246742,472.7246742,472.7246742,r,0.33229930000004515,473.0794896,473.0794896,473.0794896,473.0794896,473.0794896,473.0794896,473.3585965,474.69147769999995,474.7092225,474.7092225,474.7092225,474.7092225,474.7092225,474.7092225,474.7092225,474.7092225,474.7092225,474.7092225,474.7092225,474.7092225,474.7092225,476.33904029999997,476.33904029999997,476.33904029999997,476.33904029999997,476.33904029999997,476.33904029999997,476.33904029999997,43,78,49,61,78,60,476.33904029999997,478.05737839999995,,,,,,,,,,,,３１５,f,１９,2023-05-18_18h51.21.121,RL,2022.2.5,59.96120510030942,
41,53,73,57,0,69,69,69,,,,,,,,None,478.05737839999995,478.05737839999995,478.05737839999995,478.05737839999995,478.05737839999995,478.05737839999995,j,0.4217558000000281,478.51300230000004,478.51300230000004,478.51300230000004,478.51300230000004,478.51300230000004,478.51300230000004,478.80739959999994,480.10729319999996,480.10729319999996,480.10729319999996,480.10729319999996,480.10729319999996,480.10729319999996,480.10729319999996,480.10729319999996,480.10729319999996,480.10729319999996,480.10729319999996,480.10729319999996,480.10729319999996,480.10729319999996,481.70501160000003,481.70501160000003,481.70501160000003,481.70501160000003,481.70501160000003,481.70501160000003,481.70501160000003,41,73,53,57,57,60,481.70501160000003,483.47288979999996,,,,,,,,,,,,３１５,f,１９,2023-05-18_18h51.21.121,RL,2022.2.5,59.96120510030942,
51,47,72,53,0,70,70,70,,,,,,,,None,483.47288979999996,483.47288979999996,483.47288979999996,483.47288979999996,483.47288979999996,483.47288979999996,r,0.4140406999999868,483.91280770000003,483.91280770000003,483.91280770000003,483.91280770000003,483.91280770000003,483.91280770000003,484.19033260000003,485.2565101,485.2895824,485.2895824,485.2895824,485.2895824,485.2895824,485.2895824,485.2895824,485.2895824,485.2895824,485.2895824,485.2895824,485.2895824,485.2895824,486.65407259999995,486.65407259999995,486.65407259999995,486.65407259999995,486.65407259999995,486.65407259999995,486.65407259999995,51,72,47,53,72,60,486.65407259999995,488.35556009999993,,,,,,,,,,,,３１５,f,１９,2023-05-18_18h51.21.121,RL,2022.2.5,59.96120510030942,
55,46,70,60,0,71,71,71,,,,,,,,None,488.35556009999993,488.35556009999993,488.35556009999993,488.35556009999993,488.35556009999993,488.35556009999993,r,0.41813619999993534,488.8168276,488.8168276,488.8168276,488.8168276,488.8168276,488.8168276,489.0892583,490.8221539,490.85549230000004,490.85549230000004,490.85549230000004,490.85549230000004,490.85549230000004,490.85549230000004,490.85549230000004,490.85549230000004,490.85549230000004,490.85549230000004,490.85549230000004,490.85549230000004,490.85549230000004,492.88683779999997,492.88683779999997,492.88683779999997,492.88683779999997,492.88683779999997,492.88683779999997,492.88683779999997,55,70,46,60,70,60,492.88683779999997,494.770618,,,,,,,,,,,,３１５,f,１９,2023-05-18_18h51.21.121,RL,2022.2.5,59.96120510030942,
52,48,69,58,0,72,72,72,,,,,,,,None,494.770618,494.770618,494.770618,494.770618,494.770618,494.770618,r,0.5974951000000601,495.3905397,495.3905397,495.3905397,495.3905397,495.3905397,495.3905397,495.67119130000003,496.8877351,496.9039289,496.9039289,496.9039289,496.9039289,496.9039289,496.9039289,496.9039289,496.9039289,496.9039289,496.9039289,496.9039289,496.9039289,496.9039289,498.41879689999996,498.41879689999996,498.41879689999996,498.41879689999996,498.41879689999996,498.41879689999996,498.41879689999996,52,69,48,58,69,60,498.41879689999996,500.0200532,,,,,,,,,,,,３１５,f,１９,2023-05-18_18h51.21.121,RL,2022.2.5,59.96120510030942,
45,48,75,53,0,73,73,73,,,,,,,,None,500.0200532,500.0200532,500.0200532,500.0200532,500.0200532,500.0200532,i,0.37715300000002117,500.4246471,500.4246471,500.4246471,500.4246471,500.4246471,500.4246471,500.71996190000004,502.31976539999994,502.31976539999994,502.31976539999994,502.31976539999994,502.31976539999994,502.31976539999994,502.31976539999994,502.31976539999994,502.31976539999994,502.31976539999994,502.31976539999994,502.31976539999994,502.31976539999994,502.31976539999994,504.218605,504.218605,504.218605,504.218605,504.218605,504.218605,504.218605,45,75,48,53,48,60,504.218605,505.8691274,,,,,,,,,,,,３１５,f,１９,2023-05-18_18h51.21.121,RL,2022.2.5,59.96120510030942,
44,53,68,55,0,74,74,74,,,,,,,,None,505.8691274,505.8691274,505.8691274,505.8691274,505.8691274,505.8691274,r,0.46838629999990644,506.3694978,506.3694978,506.3694978,506.3694978,506.3694978,506.3694978,506.65308989999994,507.98526749999996,508.00218559999996,508.00218559999996,508.00218559999996,508.00218559999996,508.00218559999996,508.00218559999996,508.00218559999996,508.00218559999996,508.00218559999996,508.00218559999996,508.00218559999996,508.00218559999996,508.00218559999996,509.63349459999995,509.63349459999995,509.63349459999995,509.63349459999995,509.63349459999995,509.63349459999995,509.63349459999995,44,68,53,55,68,60,509.63349459999995,511.35013159999994,,,,,,,,,,,,３１５,f,１９,2023-05-18_18h51.21.121,RL,2022.2.5,59.96120510030942,
48,45,69,59,0,75,75,75,,,,,,,,q,534.3140898,534.3140898,534.3140898,534.3140898,534.3140898,534.3140898,j,0.7229118999999855,535.0648325,535.0648325,535.0648325,535.0648325,535.0648325,535.0648325,535.3477713,536.8808413,536.8973859,536.8973859,536.8973859,536.8973859,536.8973859,536.8973859,536.8973859,536.8973859,536.8973859,536.8973859,536.8973859,536.8973859,536.8973859,538.7286071,538.7286071,538.7286071,538.7286071,538.7286071,538.7286071,538.7286071,48,69,45,59,59,60,538.7286071,540.6798094,511.35013159999994,511.35013159999994,17.922445100000004,529.2986932,529.2986932,534.3140898,534.3140898,,,,,３１５,f,１９,2023-05-18_18h51.21.121,RL,2022.2.5,59.96120510030942,
56,59,58,62,0,76,76,76,,,,,,,,None,540.6798094,540.6798094,540.6798094,540.6798094,540.6798094,540.6798094,r,0.3239880000000994,541.0302409,541.0302409,541.0302409,541.0302409,541.0302409,541.0302409,541.3131852,542.4630801,542.4795742,542.4795742,542.4795742,542.4795742,542.4795742,542.4795742,542.4795742,542.4795742,542.4795742,542.4795742,542.4795742,542.4795742,542.4795742,543.9278262,543.9278262,543.9278262,543.9278262,543.9278262,543.9278262,543.9278262,56,58,59,62,58,60,543.9278262,545.8287417,,,,,,,,,,,,３１５,f,１９,2023-05-18_18h51.21.121,RL,2022.2.5,59.96120510030942,
52,55,64,65,0,77,77,77,,,,,,,,None,545.8287417,545.8287417,545.8287417,545.8287417,545.8287417,545.8287417,f,0.6392935999999736,546.4958286,546.4958286,546.4958286,546.4958286,546.4958286,546.4958286,546.7787843,547.9123207,547.9286352,547.9286352,547.9286352,547.9286352,547.9286352,547.9286352,547.9286352,547.9286352,547.9286352,547.9286352,547.9286352,547.9286352,547.9286352,549.3603823999999,549.3603823999999,549.3603823999999,549.3603823999999,549.3603823999999,549.3603823999999,549.3603823999999,52,64,55,65,52,60,549.3603823999999,550.9112193,,,,,,,,,,,,３１５,f,１９,2023-05-18_18h51.21.121,RL,2022.2.5,59.96120510030942,
41,47,65,63,0,78,78,78,,,,,,,,None,550.9112193,550.9112193,550.9112193,550.9112193,550.9112193,550.9112193,r,0.41349529999990864,551.3452052,551.3452052,551.3452052,551.3452052,551.3452052,551.3452052,551.6280379,552.9950067999999,553.0116313,553.0116313,553.0116313,553.0116313,553.0116313,553.0116313,553.0116313,553.0116313,553.0116313,553.0116313,553.0116313,553.0116313,553.0116313,554.6761913,554.6761913,554.6761913,554.6761913,554.6761913,554.6761913,554.6761913,41,65,47,63,65,60,554.6761913,556.460419,,,,,,,,,,,,３１５,f,１９,2023-05-18_18h51.21.121,RL,2022.2.5,59.96120510030942,
40,55,65,51,0,79,79,79,,,,,,,,None,556.460419,556.460419,556.460419,556.460419,556.460419,556.460419,j,0.3225075000000288,556.811199,556.811199,556.811199,556.811199,556.811199,556.811199,557.0940581,558.4103114,558.4268421,558.4268421,558.4268421,558.4268421,558.4268421,558.4268421,558.4268421,558.4268421,558.4268421,558.4268421,558.4268421,558.4268421,558.4268421,560.0416453,560.0416453,560.0416453,560.0416453,560.0416453,560.0416453,560.0416453,40,65,55,51,51,60,560.0416453,561.8428981,,,,,,,,,,,,３１５,f,１９,2023-05-18_18h51.21.121,RL,2022.2.5,59.96120510030942,
47,53,59,47,0,80,80,80,,,,,,,,None,561.8428981,561.8428981,561.8428981,561.8428981,561.8428981,561.8428981,i,0.2789380000000392,562.1446526,562.1446526,562.1446526,562.1446526,562.1446526,562.1446526,562.4262583999999,564.1929805,564.2095679,564.2095679,564.2095679,564.2095679,564.2095679,564.2095679,564.2095679,564.2095679,564.2095679,564.2095679,564.2095679,564.2095679,564.2095679,566.2738496,566.2738496,566.2738496,566.2738496,566.2738496,566.2738496,566.2738496,47,59,53,47,53,60,566.2738496,568.2250599,,,,,,,,,,,,３１５,f,１９,2023-05-18_18h51.21.121,RL,2022.2.5,59.96120510030942,
42,40,58,55,0,81,81,81,,,,,,,,None,568.2250599,568.2250599,568.2250599,568.2250599,568.2250599,568.2250599,r,0.28389800000002197,568.5470606,568.5470606,568.5470606,568.5470606,568.5470606,568.5470606,568.8251529,570.458214,570.4750521,570.4750521,570.4750521,570.4750521,570.4750521,570.4750521,570.4750521,570.4750521,570.4750521,570.4750521,570.4750521,570.4750521,570.4750521,572.4062651,572.4062651,572.4062651,572.4062651,572.4062651,572.4062651,572.4062651,42,58,40,55,58,60,572.4062651,574.0236442,,,,,,,,,,,,３１５,f,１９,2023-05-18_18h51.21.121,RL,2022.2.5,59.96120510030942,
38,40,50,49,0,82,82,82,,,,,,,,None,574.0236442,574.0236442,574.0236442,574.0236442,574.0236442,574.0236442,r,0.23234530000001996,574.274231,574.274231,574.274231,574.274231,574.274231,574.274231,574.5573361,575.5575863,575.5738648,575.5738648,575.5738648,575.5738648,575.5738648,575.5738648,575.5738648,575.5738648,575.5738648,575.5738648,575.5738648,575.5738648,575.5738648,576.8723657,576.8723657,576.8723657,576.8723657,576.8723657,576.8723657,576.8723657,38,50,40,49,50,60,576.8723657,578.5898786,,,,,,,,,,,,３１５,f,１９,2023-05-18_18h51.21.121,RL,2022.2.5,59.96120510030942,
42,38,46,48,0,83,83,83,,,,,,,,None,578.5898786,578.5898786,578.5898786,578.5898786,578.5898786,578.5898786,j,0.3510339000000613,578.9775506,578.9775506,578.9775506,578.9775506,578.9775506,578.9775506,579.2565174,581.1400788,581.1565236,581.1565236,581.1565236,581.1565236,581.1565236,581.1565236,581.1565236,581.1565236,581.1565236,581.1565236,581.1565236,581.1565236,581.1565236,583.3380023999999,583.3380023999999,583.3380023999999,583.3380023999999,583.3380023999999,583.3380023999999,583.3380023999999,42,46,38,48,48,60,583.3380023999999,585.2554451999999,,,,,,,,,,,,３１５,f,１９,2023-05-18_18h51.21.121,RL,2022.2.5,59.96120510030942,
39,35,55,45,0,84,84,84,,,,,,,,None,585.2554451999999,585.2554451999999,585.2554451999999,585.2554451999999,585.2554451999999,585.2554451999999,i,0.2603963000000249,585.5397353,585.5397353,585.5397353,585.5397353,585.5397353,585.5397353,585.8389426,587.4219801,587.4219801,587.4219801,587.4219801,587.4219801,587.4219801,587.4219801,587.4219801,587.4219801,587.4219801,587.4219801,587.4219801,587.4219801,587.4219801,589.303397,589.303397,589.303397,589.303397,589.303397,589.303397,589.303397,39,55,35,45,35,60,589.303397,591.2876268,,,,,,,,,,,,３１５,f,１９,2023-05-18_18h51.21.121,RL,2022.2.5,59.96120510030942,
40,26,49,36,0,85,85,85,,,,,,,,None,591.2876268,591.2876268,591.2876268,591.2876268,591.2876268,591.2876268,r,0.26433769999994183,591.5715845,591.5715845,591.5715845,591.5715845,591.5715845,591.5715845,591.8544572,593.2212407,593.2376112,593.2376112,593.2376112,593.2376112,593.2376112,593.2376112,593.2376112,593.2376112,593.2376112,593.2376112,593.2376112,593.2376112,593.2376112,594.9021851,594.9021851,594.9021851,594.9021851,594.9021851,594.9021851,594.9021851,40,49,26,36,49,60,594.9021851,596.7033095,,,,,,,,,,,,３１５,f,１９,2023-05-18_18h51.21.121,RL,2022.2.5,59.96120510030942,
43,31,56,56,0,86,86,86,,,,,,,,None,596.7033095,596.7033095,596.7033095,596.7033095,596.7033095,596.7033095,r,0.28308800000002066,597.0050764,597.0050764,597.0050764,597.0050764,597.0050764,597.0050764,597.303626,598.2532677,598.2532677,598.2532677,598.2532677,598.2532677,598.2532677,598.2532677,598.2532677,598.2532677,598.2532677,598.2532677,598.2532677,598.2532677,598.2532677,599.5013499,599.5013499,599.5013499,599.5013499,599.5013499,599.5013499,599.5013499,43,56,31,56,56,60,599.5013499,601.3526484,,,,,,,,,,,,３１５,f,１９,2023-05-18_18h51.21.121,RL,2022.2.5,59.96120510030942,
44,34,52,51,0,87,87,87,,,,,,,,None,601.3526484,601.3526484,601.3526484,601.3526484,601.3526484,601.3526484,f,0.6812563999999384,602.0539963,602.0539963,602.0539963,602.0539963,602.0539963,602.0539963,602.3525494,603.8357389,603.8357389,603.8357389,603.8357389,603.8357389,603.8357389,603.8357389,603.8357389,603.8357389,603.8357389,603.8357389,603.8357389,603.8357389,603.8357389,605.6173727,605.6173727,605.6173727,605.6173727,605.6173727,605.6173727,605.6173727,44,52,34,51,44,60,605.6173727,607.4516288,,,,,,,,,,,,３１５,f,１９,2023-05-18_18h51.21.121,RL,2022.2.5,59.96120510030942,
39,30,57,46,0,88,88,88,,,,,,,,None,607.4516288,607.4516288,607.4516288,607.4516288,607.4516288,607.4516288,r,0.29887459999997645,607.7700702,607.7700702,607.7700702,607.7700702,607.7700702,607.7700702,608.0517014,609.3013219,609.3178204,609.3178204,609.3178204,609.3178204,609.3178204,609.3178204,609.3178204,609.3178204,609.3178204,609.3178204,609.3178204,609.3178204,609.3178204,610.8661809,610.8661809,610.8661809,610.8661809,610.8661809,610.8661809,610.8661809,39,57,30,46,57,60,610.8661809,612.783675,,,,,,,,,,,,３１５,f,１９,2023-05-18_18h51.21.121,RL,2022.2.5,59.96120510030942,
41,30,59,57,0,89,89,89,,,,,,,,None,612.783675,612.783675,612.783675,612.783675,612.783675,612.783675,r,0.4789769999999862,613.2853001999999,613.2853001999999,613.2853001999999,613.2853001999999,613.2853001999999,613.2853001999999,613.5674145,615.4168638,615.4502683,615.4502683,615.4502683,615.4502683,615.4502683,615.4502683,615.4502683,615.4502683,615.4502683,615.4502683,615.4502683,615.4502683,615.4502683,617.5982596,617.5982596,617.5982596,617.5982596,617.5982596,617.5982596,617.5982596,41,59,30,57,59,60,617.5982596,619.182386,,,,,,,,,,,,３１５,f,１９,2023-05-18_18h51.21.121,RL,2022.2.5,59.96120510030942,
40,35,62,53,0,90,90,90,,,,,,,,None,619.182386,619.182386,619.182386,619.182386,619.182386,619.182386,r,0.37584670000001097,619.5857937,619.5857937,619.5857937,619.5857937,619.5857937,619.5857937,619.8662367,621.8659558,621.8822372000001,621.8822372000001,621.8822372000001,621.8822372000001,621.8822372000001,621.8822372000001,621.8822372000001,621.8822372000001,621.8822372000001,621.8822372000001,621.8822372000001,621.8822372000001,621.8822372000001,624.1802423999999,624.1802423999999,624.1802423999999,624.1802423999999,624.1802423999999,624.1802423999999,624.1802423999999,40,62,35,53,62,60,624.1802423999999,625.9146167,,,,,,,,,,,,３１５,f,１９,2023-05-18_18h51.21.121,RL,2022.2.5,59.96120510030942,
47,49,54,53,0,91,91,91,,,,,,,,None,625.9146167,625.9146167,625.9146167,625.9146167,625.9146167,625.9146167,r,0.32199820000005275,626.2666779,626.2666779,626.2666779,626.2666779,626.2666779,626.2666779,626.5480311,628.4812419000001,628.4977596,628.4977596,628.4977596,628.4977596,628.4977596,628.4977596,628.4977596,628.4977596,628.4977596,628.4977596,628.4977596,628.4977596,628.4977596,630.7293550999999,630.7293550999999,630.7293550999999,630.7293550999999,630.7293550999999,630.7293550999999,630.7293550999999,47,54,49,53,54,60,630.7293550999999,632.3635731999999,,,,,,,,,,,,３１５,f,１９,2023-05-18_18h51.21.121,RL,2022.2.5,59.96120510030942,
48,40,58,54,0,92,92,92,,,,,,,,None,632.3635731999999,632.3635731999999,632.3635731999999,632.3635731999999,632.3635731999999,632.3635731999999,j,0.39696630000003097,632.7808627000001,632.7808627000001,632.7808627000001,632.7808627000001,632.7808627000001,632.7808627000001,633.0639892999999,634.2135691,634.2300830999999,634.2300830999999,634.2300830999999,634.2300830999999,634.2300830999999,634.2300830999999,634.2300830999999,634.2300830999999,634.2300830999999,634.2300830999999,634.2300830999999,634.2300830999999,634.2300830999999,635.6617110000001,635.6617110000001,635.6617110000001,635.6617110000001,635.6617110000001,635.6617110000001,635.6617110000001,48,58,40,54,54,60,635.6617110000001,637.3459311999999,,,,,,,,,,,,３１５,f,１９,2023-05-18_18h51.21.121,RL,2022.2.5,59.96120510030942,
46,39,67,47,0,93,93,93,,,,,,,,None,637.3459311999999,637.3459311999999,637.3459311999999,637.3459311999999,637.3459311999999,637.3459311999999,r,0.5145247000000381,637.8830457,637.8830457,637.8830457,637.8830457,637.8830457,637.8830457,638.1630729,639.6623593,639.6791379,639.6791379,639.6791379,639.6791379,639.6791379,639.6791379,639.6791379,639.6791379,639.6791379,639.6791379,639.6791379,639.6791379,639.6791379,641.4771769,641.4771769,641.4771769,641.4771769,641.4771769,641.4771769,641.4771769,46,67,39,47,67,60,641.4771769,643.1448045999999,,,,,,,,,,,,３１５,f,１９,2023-05-18_18h51.21.121,RL,2022.2.5,59.96120510030942,
40,38,60,48,0,94,94,94,,,,,,,,None,643.1448045999999,643.1448045999999,643.1448045999999,643.1448045999999,643.1448045999999,643.1448045999999,j,0.4151822999999695,643.5788260999999,643.5788260999999,643.5788260999999,643.5788260999999,643.5788260999999,643.5788260999999,643.878521,645.178229,645.178229,645.178229,645.178229,645.178229,645.178229,645.178229,645.178229,645.178229,645.178229,645.178229,645.178229,645.178229,645.178229,646.7763424999999,646.7763424999999,646.7763424999999,646.7763424999999,646.7763424999999,646.7763424999999,646.7763424999999,40,60,38,48,48,60,646.7763424999999,648.5938886,,,,,,,,,,,,３１５,f,１９,2023-05-18_18h51.21.121,RL,2022.2.5,59.96120510030942,
38,42,60,48,0,95,95,95,,,,,,,,None,648.5938886,648.5938886,648.5938886,648.5938886,648.5938886,648.5938886,i,0.29414109999993343,648.9112604000001,648.9112604000001,648.9112604000001,648.9112604000001,648.9112604000001,648.9112604000001,649.1941974,650.7941838,650.8107331,650.8107331,650.8107331,650.8107331,650.8107331,650.8107331,650.8107331,650.8107331,650.8107331,650.8107331,650.8107331,650.8107331,650.8107331,652.7090463000001,652.7090463000001,652.7090463000001,652.7090463000001,652.7090463000001,652.7090463000001,652.7090463000001,38,60,42,48,42,60,652.7090463000001,654.6767183999999,,,,,,,,,,,,３１５,f,１９,2023-05-18_18h51.21.121,RL,2022.2.5,59.96120510030942,
35,42,61,40,0,96,96,96,,,,,,,,None,654.6767183999999,654.6767183999999,654.6767183999999,654.6767183999999,654.6767183999999,654.6767183999999,r,0.3161413000000266,655.0102421,655.0102421,655.0102421,655.0102421,655.0102421,655.0102421,655.2933538999999,656.9267245,656.9430298999999,656.9430298999999,656.9430298999999,656.9430298999999,656.9430298999999,656.9430298999999,656.9430298999999,656.9430298999999,656.9430298999999,656.9430298999999,656.9430298999999,656.9430298999999,656.9430298999999,658.8743957999999,658.8743957999999,658.8743957999999,658.8743957999999,658.8743957999999,658.8743957999999,658.8743957999999,35,61,42,40,61,60,658.8743957999999,660.741805,,,,,,,,,,,,３１５,f,１９,2023-05-18_18h51.21.121,RL,2022.2.5,59.96120510030942,
36,46,52,47,0,97,97,97,,,,,,,,None,660.741805,660.741805,660.741805,660.741805,660.741805,660.741805,r,0.3034377999999833,661.0787942000001,661.0787942000001,661.0787942000001,661.0787942000001,661.0787942000001,661.0787942000001,661.3590039,663.2752906,663.2920508000001,663.2920508000001,663.2920508000001,663.2920508000001,663.2920508000001,663.2920508000001,663.2920508000001,663.2920508000001,663.2920508000001,663.2920508000001,663.2920508000001,663.2920508000001,663.2920508000001,665.5068287,665.5068287,665.5068287,665.5068287,665.5068287,665.5068287,665.5068287,36,52,46,47,52,60,665.5068287,667.2078952999999,,,,,,,,,,,,３１５,f,１９,2023-05-18_18h51.21.121,RL,2022.2.5,59.96120510030942,
44,45,69,46,0,98,98,98,,,,,,,,None,667.2078952999999,667.2078952999999,667.2078952999999,667.2078952999999,667.2078952999999,667.2078952999999,r,0.2463941999999406,667.4745965999999,667.4745965999999,667.4745965999999,667.4745965999999,667.4745965999999,667.4745965999999,667.7745294,669.2411433999999,669.2411433999999,669.2411433999999,669.2411433999999,669.2411433999999,669.2411433999999,669.2411433999999,669.2411433999999,669.2411433999999,669.2411433999999,669.2411433999999,669.2411433999999,669.2411433999999,669.2411433999999,671.0055799999999,671.0055799999999,671.0055799999999,671.0055799999999,671.0055799999999,671.0055799999999,671.0055799999999,44,69,45,46,69,60,671.0055799999999,672.5902347,,,,,,,,,,,,３１５,f,１９,2023-05-18_18h51.21.121,RL,2022.2.5,59.96120510030942,
37,48,71,45,0,99,99,99,,,,,,,,None,672.5902347,672.5902347,672.5902347,672.5902347,672.5902347,672.5902347,r,0.30611369999996896,672.927112,672.927112,672.927112,672.927112,672.927112,672.927112,673.2071652999999,674.1733289,674.1901468,674.1901468,674.1901468,674.1901468,674.1901468,674.1901468,674.1901468,674.1901468,674.1901468,674.1901468,674.1901468,674.1901468,674.1901468,675.4547971000001,675.4547971000001,675.4547971000001,675.4547971000001,675.4547971000001,675.4547971000001,675.4547971000001,37,71,48,45,71,60,675.4547971000001,677.2389979999999,,,,,,,,,,,,３１５,f,１９,2023-05-18_18h51.21.121,RL,2022.2.5,59.96120510030942,
45,51,63,47,0,100,100,100,,,,,,,,None,677.2389979999999,677.2389979999999,677.2389979999999,677.2389979999999,677.2389979999999,677.2389979999999,r,0.9392123999998603,678.2118882000001,678.2118882000001,678.2118882000001,678.2118882000001,678.2118882000001,678.2118882000001,678.4897037,679.6723897,679.7061053000001,679.7061053000001,679.7061053000001,679.7061053000001,679.7061053000001,679.7061053000001,679.7061053000001,679.7061053000001,679.7061053000001,679.7061053000001,679.7061053000001,679.7061053000001,679.7061053000001,681.1869917,681.1869917,681.1869917,681.1869917,681.1869917,681.1869917,681.1869917,45,63,51,47,63,60,681.1869917,682.8381997,,,,,,,,,,,,３１５,f,１９,2023-05-18_18h51.21.121,RL,2022.2.5,59.96120510030942,
42,56,58,40,0,101,101,101,,,,,,,,None,682.8381997,682.8381997,682.8381997,682.8381997,682.8381997,682.8381997,f,0.7702500000000327,683.6420202,683.6420202,683.6420202,683.6420202,683.6420202,683.6420202,683.9221335999999,685.5549788,685.5717324000001,685.5717324000001,685.5717324000001,685.5717324000001,685.5717324000001,685.5717324000001,685.5717324000001,685.5717324000001,685.5717324000001,685.5717324000001,685.5717324000001,685.5717324000001,685.5717324000001,687.5031263,687.5031263,687.5031263,687.5031263,687.5031263,687.5031263,687.5031263,42,58,56,40,42,60,687.5031263,689.2374633999999,,,,,,,,,,,,３１５,f,１９,2023-05-18_18h51.21.121,RL,2022.2.5,59.96120510030942,
39,43,63,45,0,102,102,102,,,,,,,,None,689.2374633999999,689.2374633999999,689.2374633999999,689.2374633999999,689.2374633999999,689.2374633999999,r,0.273474300000089,689.5419807,689.5419807,689.5419807,689.5419807,689.5419807,689.5419807,689.8211626000001,690.8707668000001,690.8872952,690.8872952,690.8872952,690.8872952,690.8872952,690.8872952,690.8872952,690.8872952,690.8872952,690.8872952,690.8872952,690.8872952,690.8872952,692.2351546000001,692.2351546000001,692.2351546000001,692.2351546000001,692.2351546000001,692.2351546000001,692.2351546000001,39,63,43,45,63,60,692.2351546000001,693.8533011000001,,,,,,,,,,,,３１５,f,１９,2023-05-18_18h51.21.121,RL,2022.2.5,59.96120510030942,
39,42,58,46,0,103,103,103,,,,,,,,None,693.8533011000001,693.8533011000001,693.8533011000001,693.8533011000001,693.8533011000001,693.8533011000001,r,0.30559139999991203,694.1877939,694.1877939,694.1877939,694.1877939,694.1877939,694.1877939,694.4699629,695.7529590999999,695.7863607999999,695.7863607999999,695.7863607999999,695.7863607999999,695.7863607999999,695.7863607999999,695.7863607999999,695.7863607999999,695.7863607999999,695.7863607999999,695.7863607999999,695.7863607999999,695.7863607999999,697.3680642999999,697.3680642999999,697.3680642999999,697.3680642999999,697.3680642999999,697.3680642999999,697.3680642999999,39,58,42,46,58,60,697.3680642999999,698.9523966999999,,,,,,,,,,,,３１５,f,１９,2023-05-18_18h51.21.121,RL,2022.2.5,59.96120510030942,
33,46,52,35,0,104,104,104,,,,,,,,None,698.9523966999999,698.9523966999999,698.9523966999999,698.9523966999999,698.9523966999999,698.9523966999999,r,0.2630778000000191,699.2399936999999,699.2399936999999,699.2399936999999,699.2399936999999,699.2399936999999,699.2399936999999,699.5354271,700.8691725,700.8691725,700.8691725,700.8691725,700.8691725,700.8691725,700.8691725,700.8691725,700.8691725,700.8691725,700.8691725,700.8691725,700.8691725,700.8691725,702.5004657999999,702.5004657999999,702.5004657999999,702.5004657999999,702.5004657999999,702.5004657999999,702.5004657999999,33,52,46,35,52,60,702.5004657999999,704.2009695999999,,,,,,,,,,,,３１５,f,１９,2023-05-18_18h51.21.121,RL,2022.2.5,59.96120510030942,
38,32,47,47,0,105,105,105,,,,,,,,None,704.2009695999999,704.2009695999999,704.2009695999999,704.2009695999999,704.2009695999999,704.2009695999999,i,0.506937900000139,704.7357713,704.7357713,704.7357713,704.7357713,704.7357713,704.7357713,705.0346631000001,706.1848486,706.1848486,706.1848486,706.1848486,706.1848486,706.1848486,706.1848486,706.1848486,706.1848486,706.1848486,706.1848486,706.1848486,706.1848486,706.1848486,707.6326802,707.6326802,707.6326802,707.6326802,707.6326802,707.6326802,707.6326802,38,47,32,47,32,60,707.6326802,709.4340825999999,,,,,,,,,,,,３１５,f,１９,2023-05-18_18h51.21.121,RL,2022.2.5,59.96120510030942,
39,41,56,45,0,106,106,106,,,,,,,,None,709.4340825999999,709.4340825999999,709.4340825999999,709.4340825999999,709.4340825999999,709.4340825999999,r,0.562386399999923,710.0220877,710.0220877,710.0220877,710.0220877,710.0220877,710.0220877,710.3009526,711.2168971,711.2334164,711.2334164,711.2334164,711.2334164,711.2334164,711.2334164,711.2334164,711.2334164,711.2334164,711.2334164,711.2334164,711.2334164,711.2334164,712.4482500999999,712.4482500999999,712.4482500999999,712.4482500999999,712.4482500999999,712.4482500999999,712.4482500999999,39,56,41,45,56,60,712.4482500999999,714.2498993,,,,,,,,,,,,３１５,f,１９,2023-05-18_18h51.21.121,RL,2022.2.5,59.96120510030942,
48,36,48,42,0,107,107,107,,,,,,,,None,714.2498993,714.2498993,714.2498993,714.2498993,714.2498993,714.2498993,r,0.6254311999998663,714.8999090000001,714.8999090000001,714.8999090000001,714.8999090000001,714.8999090000001,714.8999090000001,715.1831113,716.2498445,716.2662337999999,716.2662337999999,716.2662337999999,716.2662337999999,716.2662337999999,716.2662337999999,716.2662337999999,716.2662337999999,716.2662337999999,716.2662337999999,716.2662337999999,716.2662337999999,716.2662337999999,717.6311695999999,717.6311695999999,717.6311695999999,717.6311695999999,717.6311695999999,717.6311695999999,717.6311695999999,48,48,36,42,48,60,717.6311695999999,719.5816596999999,,,,,,,,,,,,３１５,f,１９,2023-05-18_18h51.21.121,RL,2022.2.5,59.96120510030942,
38,40,51,42,0,108,108,108,,,,,,,,None,719.5816596999999,719.5816596999999,719.5816596999999,719.5816596999999,719.5816596999999,719.5816596999999,r,0.3845200000000659,720.0027690000001,720.0027690000001,720.0027690000001,720.0027690000001,720.0027690000001,720.0027690000001,720.2824916000001,721.6486345,721.6655162000001,721.6655162000001,721.6655162000001,721.6655162000001,721.6655162000001,721.6655162000001,721.6655162000001,721.6655162000001,721.6655162000001,721.6655162000001,721.6655162000001,721.6655162000001,721.6655162000001,723.32991,723.32991,723.32991,723.32991,723.32991,723.32991,723.32991,38,51,40,42,51,60,723.32991,725.2812098999999,,,,,,,,,,,,３１５,f,１９,2023-05-18_18h51.21.121,RL,2022.2.5,59.96120510030942,
33,39,68,40,0,109,109,109,,,,,,,,None,725.2812098999999,725.2812098999999,725.2812098999999,725.2812098999999,725.2812098999999,725.2812098999999,r,0.3775545000000875,725.6820703,725.6820703,725.6820703,725.6820703,725.6820703,725.6820703,725.9647555,727.3477385,727.3643449,727.3643449,727.3643449,727.3643449,727.3643449,727.3643449,727.3643449,727.3643449,727.3643449,727.3643449,727.3643449,727.3643449,727.3643449,729.0458015,729.0458015,729.0458015,729.0458015,729.0458015,729.0458015,729.0458015,33,68,39,40,68,60,729.0458015,730.7132234,,,,,,,,,,,,３１５,f,１９,2023-05-18_18h51.21.121,RL,2022.2.5,59.96120510030942,
36,32,49,46,0,110,110,110,,,,,,,,None,730.7132234,730.7132234,730.7132234,730.7132234,730.7132234,730.7132234,r,0.24763500000017302,730.9810068,730.9810068,730.9810068,730.9810068,730.9810068,730.9810068,731.2801214,733.1463749999999,733.1463749999999,733.1463749999999,733.1463749999999,733.1463749999999,733.1463749999999,733.1463749999999,733.1463749999999,733.1463749999999,733.1463749999999,733.1463749999999,733.1463749999999,733.1463749999999,733.1463749999999,735.3114431,735.3114431,735.3114431,735.3114431,735.3114431,735.3114431,735.3114431,36,49,32,46,49,60,735.3114431,737.0623804,,,,,,,,,,,,３１５,f,１９,2023-05-18_18h51.21.121,RL,2022.2.5,59.96120510030942,
37,44,58,36,0,111,111,111,,,,,,,,None,737.0623804,737.0623804,737.0623804,737.0623804,737.0623804,737.0623804,r,0.26667730000008305,737.366015,737.366015,737.366015,737.366015,737.366015,737.366015,737.6458097999999,739.1289184999999,739.1455574999999,739.1455574999999,739.1455574999999,739.1455574999999,739.1455574999999,739.1455574999999,739.1455574999999,739.1455574999999,739.1455574999999,739.1455574999999,739.1455574999999,739.1455574999999,739.1455574999999,740.9267217,740.9267217,740.9267217,740.9267217,740.9267217,740.9267217,740.9267217,37,58,44,36,58,60,740.9267217,742.8447247,,,,,,,,,,,,３１５,f,１９,2023-05-18_18h51.21.121,RL,2022.2.5,59.96120510030942,
47,42,55,35,0,112,112,112,,,,,,,,None,742.8447247,742.8447247,742.8447247,742.8447247,742.8447247,742.8447247,r,0.24573980000013762,743.1115474,743.1115474,743.1115474,743.1115474,743.1115474,743.1115474,743.4115754999999,744.8945517000001,744.8945517000001,744.8945517000001,744.8945517000001,744.8945517000001,744.8945517000001,744.8945517000001,744.8945517000001,744.8945517000001,744.8945517000001,744.8945517000001,744.8945517000001,744.8945517000001,744.8945517000001,746.6760727,746.6760727,746.6760727,746.6760727,746.6760727,746.6760727,746.6760727,47,55,42,35,55,60,746.6760727,748.6433229,,,,,,,,,,,,３１５,f,１９,2023-05-18_18h51.21.121,RL,2022.2.5,59.96120510030942,
47,49,52,37,0,113,113,113,,,,,,,,None,748.6433229,748.6433229,748.6433229,748.6433229,748.6433229,748.6433229,j,0.42828739999981735,749.0978988,749.0978988,749.0978988,749.0978988,749.0978988,749.0978988,749.3772459999999,750.6268776999999,750.6433532,750.6433532,750.6433532,750.6433532,750.6433532,750.6433532,750.6433532,750.6433532,750.6433532,750.6433532,750.6433532,750.6433532,750.6433532,752.1914739,752.1914739,752.1914739,752.1914739,752.1914739,752.1914739,752.1914739,47,52,49,37,37,60,752.1914739,754.0930198,,,,,,,,,,,,３１５,f,１９,2023-05-18_18h51.21.121,RL,2022.2.5,59.96120510030942,
42,37,56,40,0,114,114,114,,,,,,,,None,754.0930198,754.0930198,754.0930198,754.0930198,754.0930198,754.0930198,f,0.2975557000002027,754.4100193,754.4100193,754.4100193,754.4100193,754.4100193,754.4100193,754.6931751000001,755.7426451,755.7596307,755.7596307,755.7596307,755.7596307,755.7596307,755.7596307,755.7596307,755.7596307,755.7596307,755.7596307,755.7596307,755.7596307,755.7596307,757.1074613,757.1074613,757.1074613,757.1074613,757.1074613,757.1074613,757.1074613,42,56,37,40,42,60,757.1074613,758.8084545,,,,,,,,,,,,３１５,f,１９,2023-05-18_18h51.21.121,RL,2022.2.5,59.96120510030942,
36,56,62,34,0,115,115,115,,,,,,,,None,758.8084545,758.8084545,758.8084545,758.8084545,758.8084545,758.8084545,r,0.5080191999998078,759.3423045000001,759.3423045000001,759.3423045000001,759.3423045000001,759.3423045000001,759.3423045000001,759.625551,761.3247418,761.3416775,761.3416775,761.3416775,761.3416775,761.3416775,761.3416775,761.3416775,761.3416775,761.3416775,761.3416775,761.3416775,761.3416775,761.3416775,763.3396575999999,763.3396575999999,763.3396575999999,763.3396575999999,763.3396575999999,763.3396575999999,763.3396575999999,36,62,56,34,62,60,763.3396575999999,765.2074144,,,,,,,,,,,,３１５,f,１９,2023-05-18_18h51.21.121,RL,2022.2.5,59.96120510030942,
58,48,62,34,0,116,116,116,,,,,,,,None,765.2074144,765.2074144,765.2074144,765.2074144,765.2074144,765.2074144,r,0.27481089999992037,765.5079139999999,765.5079139999999,765.5079139999999,765.5079139999999,765.5079139999999,765.5079139999999,765.7908593000001,767.5410797999999,767.5572946999999,767.5572946999999,767.5572946999999,767.5572946999999,767.5572946999999,767.5572946999999,767.5572946999999,767.5572946999999,767.5572946999999,767.5572946999999,767.5572946999999,767.5572946999999,767.5572946999999,769.6054749000001,769.6054749000001,769.6054749000001,769.6054749000001,769.6054749000001,769.6054749000001,769.6054749000001,58,62,48,34,62,60,769.6054749000001,771.4731814,,,,,,,,,,,,３１５,f,１９,2023-05-18_18h51.21.121,RL,2022.2.5,59.96120510030942,
49,46,60,35,0,117,117,117,,,,,,,,None,771.4731814,771.4731814,771.4731814,771.4731814,771.4731814,771.4731814,r,0.24561349999999038,771.7444273,771.7444273,771.7444273,771.7444273,771.7444273,771.7444273,772.0395738000001,774.0062311,774.0228805999999,774.0228805999999,774.0228805999999,774.0228805999999,774.0228805999999,774.0228805999999,774.0228805999999,774.0228805999999,774.0228805999999,774.0228805999999,774.0228805999999,774.0228805999999,774.0228805999999,776.2876021000001,776.2876021000001,776.2876021000001,776.2876021000001,776.2876021000001,776.2876021000001,776.2876021000001,49,60,46,35,60,60,776.2876021000001,778.2219148999999,,,,,,,,,,,,３１５,f,１９,2023-05-18_18h51.21.121,RL,2022.2.5,59.96120510030942,
56,47,61,36,0,118,118,118,,,,,,,,None,778.2219148999999,778.2219148999999,778.2219148999999,778.2219148999999,778.2219148999999,778.2219148999999,r,0.4056193000001258,778.6590686999999,778.6590686999999,778.6590686999999,778.6590686999999,778.6590686999999,778.6590686999999,778.9389210999999,780.1218897,780.1382041999999,780.1382041999999,780.1382041999999,780.1382041999999,780.1382041999999,780.1382041999999,780.1382041999999,780.1382041999999,780.1382041999999,780.1382041999999,780.1382041999999,780.1382041999999,780.1382041999999,781.6198714000001,781.6198714000001,781.6198714000001,781.6198714000001,781.6198714000001,781.6198714000001,781.6198714000001,56,61,47,36,61,60,781.6198714000001,783.5376606000001,,,,,,,,,,,,３１５,f,１９,2023-05-18_18h51.21.121,RL,2022.2.5,59.96120510030942,
54,62,56,38,0,119,119,119,,,,,,,,None,783.5376606000001,783.5376606000001,783.5376606000001,783.5376606000001,783.5376606000001,783.5376606000001,r,0.3383905999999115,783.9093770999999,783.9093770999999,783.9093770999999,783.9093770999999,783.9093770999999,783.9093770999999,784.2042968,785.4544338,785.4711690999999,785.4711690999999,785.4711690999999,785.4711690999999,785.4711690999999,785.4711690999999,785.4711690999999,785.4711690999999,785.4711690999999,785.4711690999999,785.4711690999999,785.4711690999999,785.4711690999999,787.018905,787.018905,787.018905,787.018905,787.018905,787.018905,787.018905,54,56,62,38,56,60,787.018905,788.8534166000001,,,,,,,,,,,,３１５,f,１９,2023-05-18_18h51.21.121,RL,2022.2.5,59.96120510030942,
55,49,62,40,0,120,120,120,,,,,,,,None,788.8534166000001,788.8534166000001,788.8534166000001,788.8534166000001,788.8534166000001,788.8534166000001,r,0.31391849999999977,789.1885538,789.1885538,789.1885538,789.1885538,789.1885538,789.1885538,789.4699755,791.0697259,791.0867791,791.0867791,791.0867791,791.0867791,791.0867791,791.0867791,791.0867791,791.0867791,791.0867791,791.0867791,791.0867791,791.0867791,791.0867791,792.9843741000001,792.9843741000001,792.9843741000001,792.9843741000001,792.9843741000001,792.9843741000001,792.9843741000001,55,62,49,40,62,60,792.9843741000001,794.8853823000001,,,,,,,,,,,,３１５,f,１９,2023-05-18_18h51.21.121,RL,2022.2.5,59.96120510030942,
46,42,64,41,0,121,121,121,,,,,,,,None,794.8853823000001,794.8853823000001,794.8853823000001,794.8853823000001,794.8853823000001,794.8853823000001,r,0.29257619999998496,795.2026431999999,795.2026431999999,795.2026431999999,795.2026431999999,795.2026431999999,795.2026431999999,795.4860285999999,797.2021116,797.2186636,797.2186636,797.2186636,797.2186636,797.2186636,797.2186636,797.2186636,797.2186636,797.2186636,797.2186636,797.2186636,797.2186636,797.2186636,799.2333123,799.2333123,799.2333123,799.2333123,799.2333123,799.2333123,799.2333123,46,64,42,41,64,60,799.2333123,800.7509156,,,,,,,,,,,,３１５,f,１９,2023-05-18_18h51.21.121,RL,2022.2.5,59.96120510030942,
58,54,66,44,0,122,122,122,,,,,,,,None,800.7509156,800.7509156,800.7509156,800.7509156,800.7509156,800.7509156,r,0.47949659999994765,801.2526075,801.2526075,801.2526075,801.2526075,801.2526075,801.2526075,801.5513638000001,802.7346275000001,802.7346275000001,802.7346275000001,802.7346275000001,802.7346275000001,802.7346275000001,802.7346275000001,802.7346275000001,802.7346275000001,802.7346275000001,802.7346275000001,802.7346275000001,802.7346275000001,802.7346275000001,804.2159316999999,804.2159316999999,804.2159316999999,804.2159316999999,804.2159316999999,804.2159316999999,804.2159316999999,58,66,54,44,66,60,804.2159316999999,806.1667417,,,,,,,,,,,,３１５,f,１９,2023-05-18_18h51.21.121,RL,2022.2.5,59.96120510030942,
59,56,60,45,0,123,123,123,,,,,,,,None,806.1667417,806.1667417,806.1667417,806.1667417,806.1667417,806.1667417,r,0.445207900000014,806.635335,806.635335,806.635335,806.635335,806.635335,806.635335,806.9173559,808.1006017999999,808.1166632999999,808.1166632999999,808.1166632999999,808.1166632999999,808.1166632999999,808.1166632999999,808.1166632999999,808.1166632999999,808.1166632999999,808.1166632999999,808.1166632999999,808.1166632999999,808.1166632999999,809.5981330999999,809.5981330999999,809.5981330999999,809.5981330999999,809.5981330999999,809.5981330999999,809.5981330999999,59,60,56,45,60,60,809.5981330999999,811.1822701,,,,,,,,,,,,３１５,f,１９,2023-05-18_18h51.21.121,RL,2022.2.5,59.96120510030942,
44,54,68,37,0,124,124,124,,,,,,,,None,811.1822701,811.1822701,811.1822701,811.1822701,811.1822701,811.1822701,r,0.30222759999992377,811.5219991,811.5219991,811.5219991,811.5219991,811.5219991,811.5219991,811.7998065,813.0496830999999,813.0659918,813.0659918,813.0659918,813.0659918,813.0659918,813.0659918,813.0659918,813.0659918,813.0659918,813.0659918,813.0659918,813.0659918,813.0659918,814.6143063999999,814.6143063999999,814.6143063999999,814.6143063999999,814.6143063999999,814.6143063999999,814.6143063999999,44,68,54,37,68,60,814.6143063999999,816.1485865000001,,,,,,,,,,,,３１５,f,１９,2023-05-18_18h51.21.121,RL,2022.2.5,59.96120510030942,
48,57,50,35,0,125,125,125,,,,,,,,None,816.1485865000001,816.1485865000001,816.1485865000001,816.1485865000001,816.1485865000001,816.1485865000001,r,0.4610522000000401,816.6323343,816.6323343,816.6323343,816.6323343,816.6323343,816.6323343,816.9154915999999,818.4652487,818.4820464999999,818.4820464999999,818.4820464999999,818.4820464999999,818.4820464999999,818.4820464999999,818.4820464999999,818.4820464999999,818.4820464999999,818.4820464999999,818.4820464999999,818.4820464999999,818.4820464999999,820.3293540000001,820.3293540000001,820.3293540000001,820.3293540000001,820.3293540000001,820.3293540000001,820.3293540000001,48,50,57,35,50,60,820.3293540000001,821.9472841999999,,,,,,,,,,,,３１５,f,１９,2023-05-18_18h51.21.121,RL,2022.2.5,59.96120510030942,
57,59,66,44,0,126,126,126,,,,,,,,None,821.9472841999999,821.9472841999999,821.9472841999999,821.9472841999999,821.9472841999999,821.9472841999999,r,0.256580299999996,822.2325434,822.2325434,822.2325434,822.2325434,822.2325434,822.2325434,822.5145401000001,824.1139589999999,824.1307501,824.1307501,824.1307501,824.1307501,824.1307501,824.1307501,824.1307501,824.1307501,824.1307501,824.1307501,824.1307501,824.1307501,824.1307501,826.0287311000001,826.0287311000001,826.0287311000001,826.0287311000001,826.0287311000001,826.0287311000001,826.0287311000001,57,66,59,44,66,60,826.0287311000001,827.8297306999999,,,,,,,,,,,,３１５,f,１９,2023-05-18_18h51.21.121,RL,2022.2.5,59.96120510030942,
56,64,62,50,0,127,127,127,,,,,,,,None,827.8297306999999,827.8297306999999,827.8297306999999,827.8297306999999,827.8297306999999,827.8297306999999,r,0.3532400999999936,828.2143829,828.2143829,828.2143829,828.2143829,828.2143829,828.2143829,828.5135151999999,829.9297620000001,829.9297620000001,829.9297620000001,829.9297620000001,829.9297620000001,829.9297620000001,829.9297620000001,829.9297620000001,829.9297620000001,829.9297620000001,829.9297620000001,829.9297620000001,829.9297620000001,829.9297620000001,831.6446548,831.6446548,831.6446548,831.6446548,831.6446548,831.6446548,831.6446548,56,62,64,50,62,60,831.6446548,833.3290344000001,,,,,,,,,,,,３１５,f,１９,2023-05-18_18h51.21.121,RL,2022.2.5,59.96120510030942,
47,63,60,54,0,128,128,128,,,,,,,,None,833.3290344000001,833.3290344000001,833.3290344000001,833.3290344000001,833.3290344000001,833.3290344000001,r,0.29302849999999125,833.6460034,833.6460034,833.6460034,833.6460034,833.6460034,833.6460034,833.9289878000001,835.8455968,835.8622345,835.8622345,835.8622345,835.8622345,835.8622345,835.8622345,835.8622345,835.8622345,835.8622345,835.8622345,835.8622345,835.8622345,835.8622345,838.0765424,838.0765424,838.0765424,838.0765424,838.0765424,838.0765424,838.0765424,47,60,63,54,60,60,838.0765424,840.0612826,,,,,,,,,,,,３１５,f,１９,2023-05-18_18h51.21.121,RL,2022.2.5,59.96120510030942,
58,71,64,50,0,129,129,129,,,,,,,,None,840.0612826,840.0612826,840.0612826,840.0612826,840.0612826,840.0612826,r,0.2993284000001495,840.3781035000001,840.3781035000001,840.3781035000001,840.3781035000001,840.3781035000001,840.3781035000001,840.6777794000001,842.2944418999999,842.2944418999999,842.2944418999999,842.2944418999999,842.2944418999999,842.2944418999999,842.2944418999999,842.2944418999999,842.2944418999999,842.2944418999999,842.2944418999999,842.2944418999999,842.2944418999999,842.2944418999999,844.2091801,844.2091801,844.2091801,844.2091801,844.2091801,844.2091801,844.2091801,58,64,71,50,64,60,844.2091801,846.2098803,,,,,,,,,,,,３１５,f,１９,2023-05-18_18h51.21.121,RL,2022.2.5,59.96120510030942,
50,68,62,44,0,130,130,130,,,,,,,,None,846.2098803,846.2098803,846.2098803,846.2098803,846.2098803,846.2098803,r,0.2536901000000853,846.4943983,846.4943983,846.4943983,846.4943983,846.4943983,846.4943983,846.7935558999999,847.9100877,847.9100877,847.9100877,847.9100877,847.9100877,847.9100877,847.9100877,847.9100877,847.9100877,847.9100877,847.9100877,847.9100877,847.9100877,847.9100877,849.3244742,849.3244742,849.3244742,849.3244742,849.3244742,849.3244742,849.3244742,50,62,68,44,62,60,849.3244742,850.8919883,,,,,,,,,,,,３１５,f,１９,2023-05-18_18h51.21.121,RL,2022.2.5,59.96120510030942,
53,76,67,56,0,131,131,131,,,,,,,,None,850.8919883,850.8919883,850.8919883,850.8919883,850.8919883,850.8919883,r,0.45090589999995245,851.3596627999999,851.3596627999999,851.3596627999999,851.3596627999999,851.3596627999999,851.3596627999999,851.6431924,852.5257932000001,852.5426765000001,852.5426765000001,852.5426765000001,852.5426765000001,852.5426765000001,852.5426765000001,852.5426765000001,852.5426765000001,852.5426765000001,852.5426765000001,852.5426765000001,852.5426765000001,852.5426765000001,853.7238553000001,853.7238553000001,853.7238553000001,853.7238553000001,853.7238553000001,853.7238553000001,853.7238553000001,53,67,76,56,67,60,853.7238553000001,855.658362,,,,,,,,,,,,３１５,f,１９,2023-05-18_18h51.21.121,RL,2022.2.5,59.96120510030942,
40,76,52,48,0,132,132,132,,,,,,,,None,855.658362,855.658362,855.658362,855.658362,855.658362,855.658362,r,0.6517306000000644,856.3424802000001,856.3424802000001,856.3424802000001,856.3424802000001,856.3424802000001,856.3424802000001,856.6252036,857.8914868999999,857.9080843999999,857.9080843999999,857.9080843999999,857.9080843999999,857.9080843999999,857.9080843999999,857.9080843999999,857.9080843999999,857.9080843999999,857.9080843999999,857.9080843999999,857.9080843999999,857.9080843999999,859.4732895999999,859.4732895999999,859.4732895999999,859.4732895999999,859.4732895999999,859.4732895999999,859.4732895999999,40,52,76,48,52,60,859.4732895999999,861.4737164,,,,,,,,,,,,３１５,f,１９,2023-05-18_18h51.21.121,RL,2022.2.5,59.96120510030942,
48,69,59,53,0,133,133,133,,,,,,,,None,861.4737164,861.4737164,861.4737164,861.4737164,861.4737164,861.4737164,r,0.35222490000001017,861.8688645999999,861.8688645999999,861.8688645999999,861.8688645999999,861.8688645999999,861.8688645999999,862.1573897,863.0073165,863.0073165,863.0073165,863.0073165,863.0073165,863.0073165,863.0073165,863.0073165,863.0073165,863.0073165,863.0073165,863.0073165,863.0073165,863.0073165,864.1552316000001,864.1552316000001,864.1552316000001,864.1552316000001,864.1552316000001,864.1552316000001,864.1552316000001,48,59,69,53,59,60,864.1552316000001,865.8399031,,,,,,,,,,,,３１５,f,１９,2023-05-18_18h51.21.121,RL,2022.2.5,59.96120510030942,
37,67,57,59,0,134,134,134,,,,,,,,None,865.8399031,865.8399031,865.8399031,865.8399031,865.8399031,865.8399031,r,0.9009103999999297,866.7785994,866.7785994,866.7785994,866.7785994,866.7785994,866.7785994,867.0568838,867.9896755000001,868.0063448,868.0063448,868.0063448,868.0063448,868.0063448,868.0063448,868.0063448,868.0063448,868.0063448,868.0063448,868.0063448,868.0063448,868.0063448,869.2380328999999,869.2380328999999,869.2380328999999,869.2380328999999,869.2380328999999,869.2380328999999,869.2380328999999,37,57,67,59,57,60,869.2380328999999,871.0058008,,,,,,,,,,,,３１５,f,１９,2023-05-18_18h51.21.121,RL,2022.2.5,59.96120510030942,
47,69,70,51,0,135,135,135,,,,,,,,None,871.0058008,871.0058008,871.0058008,871.0058008,871.0058008,871.0058008,r,0.3478395999998156,871.3732919999999,871.3732919999999,871.3732919999999,871.3732919999999,871.3732919999999,871.3732919999999,871.6557644999999,873.3722736999999,873.3888123,873.3888123,873.3888123,873.3888123,873.3888123,873.3888123,873.3888123,873.3888123,873.3888123,873.3888123,873.3888123,873.3888123,873.3888123,875.403715,875.403715,875.403715,875.403715,875.403715,875.403715,875.403715,47,70,69,51,70,60,875.403715,877.2049447999999,,,,,,,,,,,,３１５,f,１９,2023-05-18_18h51.21.121,RL,2022.2.5,59.96120510030942,
42,66,62,49,0,136,136,136,,,,,,,,None,877.2049447999999,877.2049447999999,877.2049447999999,877.2049447999999,877.2049447999999,877.2049447999999,r,0.31210089999990487,877.5382837000001,877.5382837000001,877.5382837000001,877.5382837000001,877.5382837000001,877.5382837000001,877.8213744000001,879.3046257,879.3211411999999,879.3211411999999,879.3211411999999,879.3211411999999,879.3211411999999,879.3211411999999,879.3211411999999,879.3211411999999,879.3211411999999,879.3211411999999,879.3211411999999,879.3211411999999,879.3211411999999,881.1024421999999,881.1024421999999,881.1024421999999,881.1024421999999,881.1024421999999,881.1024421999999,881.1024421999999,42,62,66,49,62,60,881.1024421999999,883.0036512,,,,,,,,,,,,３１５,f,１９,2023-05-18_18h51.21.121,RL,2022.2.5,59.96120510030942,
39,59,57,50,0,137,137,137,,,,,,,,None,883.0036512,883.0036512,883.0036512,883.0036512,883.0036512,883.0036512,r,0.43806580000000395,883.4718641999999,883.4718641999999,883.4718641999999,883.4718641999999,883.4718641999999,883.4718641999999,883.7540479,884.9206082,884.9370656,884.9370656,884.9370656,884.9370656,884.9370656,884.9370656,884.9370656,884.9370656,884.9370656,884.9370656,884.9370656,884.9370656,884.9370656,886.4016617999999,886.4016617999999,886.4016617999999,886.4016617999999,886.4016617999999,886.4016617999999,886.4016617999999,39,57,59,50,57,60,886.4016617999999,888.1527162000001,,,,,,,,,,,,３１５,f,１９,2023-05-18_18h51.21.121,RL,2022.2.5,59.96120510030942,
50,63,47,49,0,138,138,138,,,,,,,,None,888.1527162000001,888.1527162000001,888.1527162000001,888.1527162000001,888.1527162000001,888.1527162000001,r,0.4519116999999824,888.6396684,888.6396684,888.6396684,888.6396684,888.6396684,888.6396684,888.9200044,890.3524127,890.3859659000001,890.3859659000001,890.3859659000001,890.3859659000001,890.3859659000001,890.3859659000001,890.3859659000001,890.3859659000001,890.3859659000001,890.3859659000001,890.3859659000001,890.3859659000001,890.3859659000001,892.1170923999999,892.1170923999999,892.1170923999999,892.1170923999999,892.1170923999999,892.1170923999999,892.1170923999999,50,47,63,49,47,60,892.1170923999999,893.9681025000001,,,,,,,,,,,,３１５,f,１９,2023-05-18_18h51.21.121,RL,2022.2.5,59.96120510030942,
42,52,46,53,0,139,139,139,,,,,,,,None,893.9681025000001,893.9681025000001,893.9681025000001,893.9681025000001,893.9681025000001,893.9681025000001,r,0.28190440000003036,894.2733942000001,894.2733942000001,894.2733942000001,894.2733942000001,894.2733942000001,894.2733942000001,894.5684815000001,895.5018646,895.5018646,895.5018646,895.5018646,895.5018646,895.5018646,895.5018646,895.5018646,895.5018646,895.5018646,895.5018646,895.5018646,895.5018646,895.5018646,896.7329043999999,896.7329043999999,896.7329043999999,896.7329043999999,896.7329043999999,896.7329043999999,896.7329043999999,42,46,52,53,46,60,896.7329043999999,898.5844251,,,,,,,,,,,,３１５,f,１９,2023-05-18_18h51.21.121,RL,2022.2.5,59.96120510030942,
