arm1,arm2,arm3,arm4,trials.thisRepN,trials.thisTrialN,trials.thisN,trials.thisIndex,instru_img1.started,instru_resp.started,instru_resp.keys,instru_resp.rt,image_2.started,text_2.started,fixbefore_2.started,rest_response.keys,red.started,green.started,yellow.started,blue.started,choose_bandit.started,Fixation.started,choose_bandit.keys,choose_bandit.rt,black.started,red_2.started,green_2.started,yellow_2.started,blue_2.started,fixation_2.started,docs.started,docs.stopped,black.stopped,red_2.stopped,green_2.stopped,yellow_2.stopped,blue_2.stopped,fixation_2.stopped,black_com.started,reward_sub.started,reward__sub.started,red_compare.started,green_com.started,yellow_com.started,blue_com.started,black_com.stopped,reward_sub.stopped,reward__sub.stopped,red_compare.stopped,green_com.stopped,yellow_com.stopped,blue_com.stopped,rewardred,rewardyellow,rewardblue,rewardgreen,subchoose,expectation,intertrialfix.started,intertrialfix.stopped,rest_image.started,rest_response.started,rest_response.rt,image_expect_after.started,text_exp_after.started,image_expect_after.stopped,text_exp_after.stopped,image.started,key_resp.started,key_resp.keys,key_resp.rt,participant,Gender,Age,date,expName,psychopyVersion,frameRate,
,,,,,,,,14.816102700000101,14.816102700000101,space,9.97315290000006,,,,,,,,,,,,,,,,,,,,,,,,,,,,,,,,,,,,,,,,,,,,,,,,,,,,,,,,,,,,３１６,f,１９,2023-05-19_09h06.43.900,RL,2022.2.5,60.07925655528259,
32,51,56,53,0,0,0,0,,,,,24.822638799999822,24.822638799999822,29.82875120000017,None,30.83016150000003,30.83016150000003,30.83016150000003,30.83016150000003,30.83016150000003,30.83016150000003,f,0.5116402999997263,31.36383889999979,31.36383889999979,31.36383889999979,31.36383889999979,31.36383889999979,31.36383889999979,31.646546899999976,32.63007149999976,32.647258800000145,32.647258800000145,32.647258800000145,32.647258800000145,32.647258800000145,32.647258800000145,32.647258800000145,32.647258800000145,32.647258800000145,32.647258800000145,32.647258800000145,32.647258800000145,32.647258800000145,33.99312599999985,33.99312599999985,33.99312599999985,33.99312599999985,33.99312599999985,33.99312599999985,33.99312599999985,56,51,32,53,56,70,33.99312599999985,35.6790704,,,,,,,,,,,,３１６,f,１９,2023-05-19_09h06.43.900,RL,2022.2.5,60.07925655528259,
29,47,50,51,0,1,1,1,,,,,,,,None,35.6790704,35.6790704,35.6790704,35.6790704,35.6790704,35.6790704,j,0.5276307999997698,36.22966600000018,36.22966600000018,36.22966600000018,36.22966600000018,36.22966600000018,36.22966600000018,36.51372739999988,38.229392599999755,38.24627280000004,38.24627280000004,38.24627280000004,38.24627280000004,38.24627280000004,38.24627280000004,38.24627280000004,38.24627280000004,38.24627280000004,38.24627280000004,38.24627280000004,38.24627280000004,38.24627280000004,40.27725569999984,40.27725569999984,40.27725569999984,40.27725569999984,40.27725569999984,40.27725569999984,40.27725569999984,50,47,29,51,51,70,40.27725569999984,41.894870600000104,,,,,,,,,,,,３１６,f,１９,2023-05-19_09h06.43.900,RL,2022.2.5,60.07925655528259,
38,53,59,57,0,2,2,2,,,,,,,,None,41.894870600000104,41.894870600000104,41.894870600000104,41.894870600000104,41.894870600000104,41.894870600000104,f,0.7234551000001375,42.64510440000004,42.64510440000004,42.64510440000004,42.64510440000004,42.64510440000004,42.64510440000004,42.94495340000003,44.16108519999989,44.16108519999989,44.16108519999989,44.16108519999989,44.16108519999989,44.16108519999989,44.16108519999989,44.16108519999989,44.16108519999989,44.16108519999989,44.16108519999989,44.16108519999989,44.16108519999989,44.16108519999989,45.67631170000004,45.67631170000004,45.67631170000004,45.67631170000004,45.67631170000004,45.67631170000004,45.67631170000004,59,53,38,57,59,70,45.67631170000004,47.343640199999754,,,,,,,,,,,,３１６,f,１９,2023-05-19_09h06.43.900,RL,2022.2.5,60.07925655528259,
32,54,62,57,0,3,3,3,,,,,,,,None,47.343640199999754,47.343640199999754,47.343640199999754,47.343640199999754,47.343640199999754,47.343640199999754,r,0.5203991000003043,47.89425660000006,47.89425660000006,47.89425660000006,47.89425660000006,47.89425660000006,47.89425660000006,48.19426429999976,49.04355799999985,49.04355799999985,49.04355799999985,49.04355799999985,49.04355799999985,49.04355799999985,49.04355799999985,49.04355799999985,49.04355799999985,49.04355799999985,49.04355799999985,49.04355799999985,49.04355799999985,49.04355799999985,50.19195429999991,50.19195429999991,50.19195429999991,50.19195429999991,50.19195429999991,50.19195429999991,50.19195429999991,62,54,32,57,54,70,50.19195429999991,52.00935209999989,,,,,,,,,,,,３１６,f,１９,2023-05-19_09h06.43.900,RL,2022.2.5,60.07925655528259,
35,54,64,51,0,4,4,4,,,,,,,,None,52.00935209999989,52.00935209999989,52.00935209999989,52.00935209999989,52.00935209999989,52.00935209999989,j,0.40857580000010785,52.446264300000166,52.446264300000166,52.446264300000166,52.446264300000166,52.446264300000166,52.446264300000166,52.743133899999975,54.15953099999979,54.15953099999979,54.15953099999979,54.15953099999979,54.15953099999979,54.15953099999979,54.15953099999979,54.15953099999979,54.15953099999979,54.15953099999979,54.15953099999979,54.15953099999979,54.15953099999979,54.15953099999979,55.874466199999915,55.874466199999915,55.874466199999915,55.874466199999915,55.874466199999915,55.874466199999915,55.874466199999915,64,54,35,51,51,70,55.874466199999915,57.55892640000002,,,,,,,,,,,,３１６,f,１９,2023-05-19_09h06.43.900,RL,2022.2.5,60.07925655528259,
22,62,73,55,0,5,5,5,,,,,,,,None,57.55892640000002,57.55892640000002,57.55892640000002,57.55892640000002,57.55892640000002,57.55892640000002,j,0.7344266000000061,58.329075999999986,58.329075999999986,58.329075999999986,58.329075999999986,58.329075999999986,58.329075999999986,58.60936260000017,59.74237670000002,59.75871670000015,59.75871670000015,59.75871670000015,59.75871670000015,59.75871670000015,59.75871670000015,59.75871670000015,59.75871670000015,59.75871670000015,59.75871670000015,59.75871670000015,59.75871670000015,59.75871670000015,61.19053179999992,61.19053179999992,61.19053179999992,61.19053179999992,61.19053179999992,61.19053179999992,61.19053179999992,73,62,22,55,55,70,61.19053179999992,62.84134730000005,,,,,,,,,,,,３１６,f,１９,2023-05-19_09h06.43.900,RL,2022.2.5,60.07925655528259,
24,67,60,62,0,6,6,6,,,,,,,,None,62.84134730000005,62.84134730000005,62.84134730000005,62.84134730000005,62.84134730000005,62.84134730000005,i,0.49287439999989147,63.35819240000001,63.35819240000001,63.35819240000001,63.35819240000001,63.35819240000001,63.35819240000001,63.64128979999987,65.60770039999989,65.62402830000019,65.62402830000019,65.62402830000019,65.62402830000019,65.62402830000019,65.62402830000019,65.62402830000019,65.62402830000019,65.62402830000019,65.62402830000019,65.62402830000019,65.62402830000019,65.62402830000019,67.88872170000013,67.88872170000013,67.88872170000013,67.88872170000013,67.88872170000013,67.88872170000013,67.88872170000013,60,67,24,62,24,70,67.88872170000013,69.4568549999999,,,,,,,,,,,,３１６,f,１９,2023-05-19_09h06.43.900,RL,2022.2.5,60.07925655528259,
32,61,58,54,0,7,7,7,,,,,,,,None,69.4568549999999,69.4568549999999,69.4568549999999,69.4568549999999,69.4568549999999,69.4568549999999,i,0.6718136999998023,70.15711169999986,70.15711169999986,70.15711169999986,70.15711169999986,70.15711169999986,70.15711169999986,70.4405439000002,72.12320420000015,72.13969850000012,72.13969850000012,72.13969850000012,72.13969850000012,72.13969850000012,72.13969850000012,72.13969850000012,72.13969850000012,72.13969850000012,72.13969850000012,72.13969850000012,72.13969850000012,72.13969850000012,74.12094979999983,74.12094979999983,74.12094979999983,74.12094979999983,74.12094979999983,74.12094979999983,74.12094979999983,58,61,32,54,32,70,74.12094979999983,75.97247860000016,,,,,,,,,,,,３１６,f,１９,2023-05-19_09h06.43.900,RL,2022.2.5,60.07925655528259,
39,59,59,54,0,8,8,8,,,,,,,,None,75.97247860000016,75.97247860000016,75.97247860000016,75.97247860000016,75.97247860000016,75.97247860000016,i,0.481076099999882,76.47387339999977,76.47387339999977,76.47387339999977,76.47387339999977,76.47387339999977,76.47387339999977,76.75619730000017,78.52236700000003,78.53888589999997,78.53888589999997,78.53888589999997,78.53888589999997,78.53888589999997,78.53888589999997,78.53888589999997,78.53888589999997,78.53888589999997,78.53888589999997,78.53888589999997,78.53888589999997,78.53888589999997,80.60322200000019,80.60322200000019,80.60322200000019,80.60322200000019,80.60322200000019,80.60322200000019,80.60322200000019,59,59,39,54,39,70,80.60322200000019,82.1381722000001,,,,,,,,,,,,３１６,f,１９,2023-05-19_09h06.43.900,RL,2022.2.5,60.07925655528259,
28,65,58,60,0,9,9,9,,,,,,,,None,82.1381722000001,82.1381722000001,82.1381722000001,82.1381722000001,82.1381722000001,82.1381722000001,r,0.7006230000001779,82.8783954999999,82.8783954999999,82.8783954999999,82.8783954999999,82.8783954999999,82.8783954999999,83.15497589999995,84.67159279999987,84.70411869999998,84.70411869999998,84.70411869999998,84.70411869999998,84.70411869999998,84.70411869999998,84.70411869999998,84.70411869999998,84.70411869999998,84.70411869999998,84.70411869999998,84.70411869999998,84.70411869999998,86.51927269999987,86.51927269999987,86.51927269999987,86.51927269999987,86.51927269999987,86.51927269999987,86.51927269999987,58,65,28,60,65,70,86.51927269999987,88.0865276999998,,,,,,,,,,,,３１６,f,１９,2023-05-19_09h06.43.900,RL,2022.2.5,60.07925655528259,
43,56,53,53,0,10,10,10,,,,,,,,None,88.0865276999998,88.0865276999998,88.0865276999998,88.0865276999998,88.0865276999998,88.0865276999998,r,0.3754487999999583,88.48732789999985,88.48732789999985,88.48732789999985,88.48732789999985,88.48732789999985,88.48732789999985,88.77083009999978,89.92023860000018,89.93735179999976,89.93735179999976,89.93735179999976,89.93735179999976,89.93735179999976,89.93735179999976,89.93735179999976,89.93735179999976,89.93735179999976,89.93735179999976,89.93735179999976,89.93735179999976,89.93735179999976,91.38463929999989,91.38463929999989,91.38463929999989,91.38463929999989,91.38463929999989,91.38463929999989,91.38463929999989,53,56,43,53,56,70,91.38463929999989,93.11928050000006,,,,,,,,,,,,３１６,f,１９,2023-05-19_09h06.43.900,RL,2022.2.5,60.07925655528259,
45,59,52,61,0,11,11,11,,,,,,,,None,93.11928050000006,93.11928050000006,93.11928050000006,93.11928050000006,93.11928050000006,93.11928050000006,f,0.37777090000008684,93.51982129999988,93.51982129999988,93.51982129999988,93.51982129999988,93.51982129999988,93.51982129999988,93.80273899999975,95.13581810000005,95.15241609999975,95.15241609999975,95.15241609999975,95.15241609999975,95.15241609999975,95.15241609999975,95.15241609999975,95.15241609999975,95.15241609999975,95.15241609999975,95.15241609999975,95.15241609999975,95.15241609999975,96.76749800000016,96.76749800000016,96.76749800000016,96.76749800000016,96.76749800000016,96.76749800000016,96.76749800000016,52,59,45,61,52,70,96.76749800000016,98.65188189999981,,,,,,,,,,,,３１６,f,１９,2023-05-19_09h06.43.900,RL,2022.2.5,60.07925655528259,
41,62,53,53,0,12,12,12,,,,,,,,None,98.65188189999981,98.65188189999981,98.65188189999981,98.65188189999981,98.65188189999981,98.65188189999981,j,0.546810700000151,99.2188212000001,99.2188212000001,99.2188212000001,99.2188212000001,99.2188212000001,99.2188212000001,99.51844919999985,100.3352675000001,100.3352675000001,100.3352675000001,100.3352675000001,100.3352675000001,100.3352675000001,100.3352675000001,100.3352675000001,100.3352675000001,100.3352675000001,100.3352675000001,100.3352675000001,100.3352675000001,100.3352675000001,101.44996439999977,101.44996439999977,101.44996439999977,101.44996439999977,101.44996439999977,101.44996439999977,101.44996439999977,53,62,41,53,53,70,101.44996439999977,103.1507446999999,,,,,,,,,,,,３１６,f,１９,2023-05-19_09h06.43.900,RL,2022.2.5,60.07925655528259,
40,52,49,51,0,13,13,13,,,,,,,,None,103.1507446999999,103.1507446999999,103.1507446999999,103.1507446999999,103.1507446999999,103.1507446999999,r,0.33786589999999705,103.5200046,103.5200046,103.5200046,103.5200046,103.5200046,103.5200046,103.81772169999977,105.58412629999975,105.58412629999975,105.58412629999975,105.58412629999975,105.58412629999975,105.58412629999975,105.58412629999975,105.58412629999975,105.58412629999975,105.58412629999975,105.58412629999975,105.58412629999975,105.58412629999975,105.58412629999975,107.64885589999994,107.64885589999994,107.64885589999994,107.64885589999994,107.64885589999994,107.64885589999994,107.64885589999994,49,52,40,51,52,70,107.64885589999994,109.4994256,,,,,,,,,,,,３１６,f,１９,2023-05-19_09h06.43.900,RL,2022.2.5,60.07925655528259,
43,72,54,58,0,14,14,14,,,,,,,,None,109.4994256,109.4994256,109.4994256,109.4994256,109.4994256,109.4994256,i,0.5865927999998348,110.11720909999985,110.11720909999985,110.11720909999985,110.11720909999985,110.11720909999985,110.11720909999985,110.40041979999978,111.99961110000004,112.01647309999998,112.01647309999998,112.01647309999998,112.01647309999998,112.01647309999998,112.01647309999998,112.01647309999998,112.01647309999998,112.01647309999998,112.01647309999998,112.01647309999998,112.01647309999998,112.01647309999998,113.91432339999983,113.91432339999983,113.91432339999983,113.91432339999983,113.91432339999983,113.91432339999983,113.91432339999983,54,72,43,58,43,70,113.91432339999983,115.91512359999979,,,,,,,,,,,,３１６,f,１９,2023-05-19_09h06.43.900,RL,2022.2.5,60.07925655528259,
43,64,57,52,0,15,15,15,,,,,,,,None,115.91512359999979,115.91512359999979,115.91512359999979,115.91512359999979,115.91512359999979,115.91512359999979,r,0.40878390000034415,116.35125019999987,116.35125019999987,116.35125019999987,116.35125019999987,116.35125019999987,116.35125019999987,116.63220210000009,118.38220180000008,118.39901700000019,118.39901700000019,118.39901700000019,118.39901700000019,118.39901700000019,118.39901700000019,118.39901700000019,118.39901700000019,118.39901700000019,118.39901700000019,118.39901700000019,118.39901700000019,118.39901700000019,120.44634959999985,120.44634959999985,120.44634959999985,120.44634959999985,120.44634959999985,120.44634959999985,120.44634959999985,57,64,43,52,64,70,120.44634959999985,122.18103209999981,,,,,,,,,,,,３１６,f,１９,2023-05-19_09h06.43.900,RL,2022.2.5,60.07925655528259,
40,76,54,52,0,16,16,16,,,,,,,,None,122.18103209999981,122.18103209999981,122.18103209999981,122.18103209999981,122.18103209999981,122.18103209999981,r,0.34679989999995087,122.54948669999976,122.54948669999976,122.54948669999976,122.54948669999976,122.54948669999976,122.54948669999976,122.83150690000002,124.43080499999996,124.44723930000009,124.44723930000009,124.44723930000009,124.44723930000009,124.44723930000009,124.44723930000009,124.44723930000009,124.44723930000009,124.44723930000009,124.44723930000009,124.44723930000009,124.44723930000009,124.44723930000009,126.34530159999986,126.34530159999986,126.34530159999986,126.34530159999986,126.34530159999986,126.34530159999986,126.34530159999986,54,76,40,52,76,70,126.34530159999986,127.94652510000014,,,,,,,,,,,,３１６,f,１９,2023-05-19_09h06.43.900,RL,2022.2.5,60.07925655528259,
39,64,57,56,0,17,17,17,,,,,,,,None,127.94652510000014,127.94652510000014,127.94652510000014,127.94652510000014,127.94652510000014,127.94652510000014,r,0.3427480000000287,128.31697500000018,128.31697500000018,128.31697500000018,128.31697500000018,128.31697500000018,128.31697500000018,128.6137702000001,130.5298217999998,130.5298217999998,130.5298217999998,130.5298217999998,130.5298217999998,130.5298217999998,130.5298217999998,130.5298217999998,130.5298217999998,130.5298217999998,130.5298217999998,130.5298217999998,130.5298217999998,130.5298217999998,132.7444661999998,132.7444661999998,132.7444661999998,132.7444661999998,132.7444661999998,132.7444661999998,132.7444661999998,57,64,39,56,64,70,132.7444661999998,134.46219410000003,,,,,,,,,,,,３１６,f,１９,2023-05-19_09h06.43.900,RL,2022.2.5,60.07925655528259,
36,69,67,56,0,18,18,18,,,,,,,,None,134.46219410000003,134.46219410000003,134.46219410000003,134.46219410000003,134.46219410000003,134.46219410000003,r,0.3587738999999601,134.84730519999994,134.84730519999994,134.84730519999994,134.84730519999994,134.84730519999994,134.84730519999994,135.14586229999986,136.2286795,136.2286795,136.2286795,136.2286795,136.2286795,136.2286795,136.2286795,136.2286795,136.2286795,136.2286795,136.2286795,136.2286795,136.2286795,136.2286795,137.61034849999987,137.61034849999987,137.61034849999987,137.61034849999987,137.61034849999987,137.61034849999987,137.61034849999987,67,69,36,56,69,70,137.61034849999987,139.31121239999993,,,,,,,,,,,,３１６,f,１９,2023-05-19_09h06.43.900,RL,2022.2.5,60.07925655528259,
26,69,63,58,0,19,19,19,,,,,,,,None,139.31121239999993,139.31121239999993,139.31121239999993,139.31121239999993,139.31121239999993,139.31121239999993,r,0.3452399000002515,139.68250020000005,139.68250020000005,139.68250020000005,139.68250020000005,139.68250020000005,139.68250020000005,139.96148279999989,140.89501560000008,140.91153099999974,140.91153099999974,140.91153099999974,140.91153099999974,140.91153099999974,140.91153099999974,140.91153099999974,140.91153099999974,140.91153099999974,140.91153099999974,140.91153099999974,140.91153099999974,140.91153099999974,142.14290630000005,142.14290630000005,142.14290630000005,142.14290630000005,142.14290630000005,142.14290630000005,142.14290630000005,63,69,26,58,69,70,142.14290630000005,143.66033040000002,,,,,,,,,,,,３１６,f,１９,2023-05-19_09h06.43.900,RL,2022.2.5,60.07925655528259,
35,59,74,64,0,20,20,20,,,,,,,,None,143.66033040000002,143.66033040000002,143.66033040000002,143.66033040000002,143.66033040000002,143.66033040000002,r,0.36305929999980435,144.04452679999986,144.04452679999986,144.04452679999986,144.04452679999986,144.04452679999986,144.04452679999986,144.34398710000005,146.14361359999975,146.14361359999975,146.14361359999975,146.14361359999975,146.14361359999975,146.14361359999975,146.14361359999975,146.14361359999975,146.14361359999975,146.14361359999975,146.14361359999975,146.14361359999975,146.14361359999975,146.14361359999975,148.24197589999994,148.24197589999994,148.24197589999994,148.24197589999994,148.24197589999994,148.24197589999994,148.24197589999994,74,59,35,64,59,70,148.24197589999994,149.82626449999998,,,,,,,,,,,,３１６,f,１９,2023-05-19_09h06.43.900,RL,2022.2.5,60.07925655528259,
42,60,71,64,0,21,21,21,,,,,,,,None,149.82626449999998,149.82626449999998,149.82626449999998,149.82626449999998,149.82626449999998,149.82626449999998,r,0.8344612999999299,150.69591519999994,150.69591519999994,150.69591519999994,150.69591519999994,150.69591519999994,150.69591519999994,150.9760584999999,152.07635960000016,152.1090967,152.1090967,152.1090967,152.1090967,152.1090967,152.1090967,152.1090967,152.1090967,152.1090967,152.1090967,152.1090967,152.1090967,152.1090967,153.50748999999996,153.50748999999996,153.50748999999996,153.50748999999996,153.50748999999996,153.50748999999996,153.50748999999996,71,60,42,64,60,70,153.50748999999996,155.1921486000001,,,,,,,,,,,,３１６,f,１９,2023-05-19_09h06.43.900,RL,2022.2.5,60.07925655528259,
29,69,73,64,0,22,22,22,,,,,,,,None,155.1921486000001,155.1921486000001,155.1921486000001,155.1921486000001,155.1921486000001,155.1921486000001,j,0.4619020999998611,155.67640470000015,155.67640470000015,155.67640470000015,155.67640470000015,155.67640470000015,155.67640470000015,155.95901460000005,157.10840689999986,157.14174599999978,157.14174599999978,157.14174599999978,157.14174599999978,157.14174599999978,157.14174599999978,157.14174599999978,157.14174599999978,157.14174599999978,157.14174599999978,157.14174599999978,157.14174599999978,157.14174599999978,158.58987879999995,158.58987879999995,158.58987879999995,158.58987879999995,158.58987879999995,158.58987879999995,158.58987879999995,73,69,29,64,64,70,158.58987879999995,160.32405860000017,,,,,,,,,,,,３１６,f,１９,2023-05-19_09h06.43.900,RL,2022.2.5,60.07925655528259,
41,64,72,67,0,23,23,23,,,,,,,,None,160.32405860000017,160.32405860000017,160.32405860000017,160.32405860000017,160.32405860000017,160.32405860000017,j,0.4091475000000173,160.76054650000015,160.76054650000015,160.76054650000015,160.76054650000015,160.76054650000015,160.76054650000015,161.04137420000006,162.87393969999994,162.89067680000016,162.89067680000016,162.89067680000016,162.89067680000016,162.89067680000016,162.89067680000016,162.89067680000016,162.89067680000016,162.89067680000016,162.89067680000016,162.89067680000016,162.89067680000016,162.89067680000016,165.02177990000018,165.02177990000018,165.02177990000018,165.02177990000018,165.02177990000018,165.02177990000018,165.02177990000018,72,64,41,67,67,70,165.02177990000018,166.6401480999998,,,,,,,,,,,,３１６,f,１９,2023-05-19_09h06.43.900,RL,2022.2.5,60.07925655528259,
52,68,72,71,0,24,24,24,,,,,,,,None,166.6401480999998,166.6401480999998,166.6401480999998,166.6401480999998,166.6401480999998,166.6401480999998,f,0.3767806999999266,167.0448809999998,167.0448809999998,167.0448809999998,167.0448809999998,167.0448809999998,167.0448809999998,167.33992439999975,169.27302580000014,169.28969559999996,169.28969559999996,169.28969559999996,169.28969559999996,169.28969559999996,169.28969559999996,169.28969559999996,169.28969559999996,169.28969559999996,169.28969559999996,169.28969559999996,169.28969559999996,169.28969559999996,171.52067880000004,171.52067880000004,171.52067880000004,171.52067880000004,171.52067880000004,171.52067880000004,171.52067880000004,72,68,52,71,72,70,171.52067880000004,173.13917739999988,,,,,,,,,,,,３１６,f,１９,2023-05-19_09h06.43.900,RL,2022.2.5,60.07925655528259,
36,61,73,58,0,25,25,25,,,,,,,,None,173.13917739999988,173.13917739999988,173.13917739999988,173.13917739999988,173.13917739999988,173.13917739999988,f,0.38621169999987615,173.56012550000014,173.56012550000014,173.56012550000014,173.56012550000014,173.56012550000014,173.56012550000014,173.83942250000018,175.05509709999978,175.07150739999997,175.07150739999997,175.07150739999997,175.07150739999997,175.07150739999997,175.07150739999997,175.07150739999997,175.07150739999997,175.07150739999997,175.07150739999997,175.07150739999997,175.07150739999997,175.07150739999997,176.5864974000001,176.5864974000001,176.5864974000001,176.5864974000001,176.5864974000001,176.5864974000001,176.5864974000001,73,61,36,58,73,70,176.5864974000001,178.204436,,,,,,,,,,,,３１６,f,１９,2023-05-19_09h06.43.900,RL,2022.2.5,60.07925655528259,
44,67,80,65,0,26,26,26,,,,,,,,None,178.204436,178.204436,178.204436,178.204436,178.204436,178.204436,f,0.37157269999988785,178.60495459999993,178.60495459999993,178.60495459999993,178.60495459999993,178.60495459999993,178.60495459999993,178.88809469999978,180.20415920000005,180.22076430000016,180.22076430000016,180.22076430000016,180.22076430000016,180.22076430000016,180.22076430000016,180.22076430000016,180.22076430000016,180.22076430000016,180.22076430000016,180.22076430000016,180.22076430000016,180.22076430000016,181.83563550000008,181.83563550000008,181.83563550000008,181.83563550000008,181.83563550000008,181.83563550000008,181.83563550000008,80,67,44,65,80,70,181.83563550000008,183.4200353000001,,,,,,,,,,,,３１６,f,１９,2023-05-19_09h06.43.900,RL,2022.2.5,60.07925655528259,
43,67,73,66,0,27,27,27,,,,,,,,None,183.4200353000001,183.4200353000001,183.4200353000001,183.4200353000001,183.4200353000001,183.4200353000001,r,0.53129540000009,183.97144930000013,183.97144930000013,183.97144930000013,183.97144930000013,183.97144930000013,183.97144930000013,184.27038409999977,185.32032299999992,185.32032299999992,185.32032299999992,185.32032299999992,185.32032299999992,185.32032299999992,185.32032299999992,185.32032299999992,185.32032299999992,185.32032299999992,185.32032299999992,185.32032299999992,185.32032299999992,185.32032299999992,186.6680096,186.6680096,186.6680096,186.6680096,186.6680096,186.6680096,186.6680096,73,67,43,66,67,70,186.6680096,188.66904269999986,,,,,,,,,,,,３１６,f,１９,2023-05-19_09h06.43.900,RL,2022.2.5,60.07925655528259,
44,70,73,57,0,28,28,28,,,,,,,,None,188.66904269999986,188.66904269999986,188.66904269999986,188.66904269999986,188.66904269999986,188.66904269999986,f,0.40540020000025834,189.10648379999975,189.10648379999975,189.10648379999975,189.10648379999975,189.10648379999975,189.10648379999975,189.40249919999997,191.35233209999978,191.35233209999978,191.35233209999978,191.35233209999978,191.35233209999978,191.35233209999978,191.35233209999978,191.35233209999978,191.35233209999978,191.35233209999978,191.35233209999978,191.35233209999978,191.35233209999978,191.35233209999978,193.6003529999998,193.6003529999998,193.6003529999998,193.6003529999998,193.6003529999998,193.6003529999998,193.6003529999998,73,70,44,57,73,70,193.6003529999998,195.21812020000016,,,,,,,,,,,,３１６,f,１９,2023-05-19_09h06.43.900,RL,2022.2.5,60.07925655528259,
47,62,67,56,0,29,29,29,,,,,,,,None,195.21812020000016,195.21812020000016,195.21812020000016,195.21812020000016,195.21812020000016,195.21812020000016,f,0.4182991000002403,195.6777129000002,195.6777129000002,195.6777129000002,195.6777129000002,195.6777129000002,195.6777129000002,195.96823459999996,197.00146660000019,197.01799040000014,197.01799040000014,197.01799040000014,197.01799040000014,197.01799040000014,197.01799040000014,197.01799040000014,197.01799040000014,197.01799040000014,197.01799040000014,197.01799040000014,197.01799040000014,197.01799040000014,198.34985849999975,198.34985849999975,198.34985849999975,198.34985849999975,198.34985849999975,198.34985849999975,198.34985849999975,67,62,47,56,67,70,198.34985849999975,200.26726469999994,,,,,,,,,,,,３１６,f,１９,2023-05-19_09h06.43.900,RL,2022.2.5,60.07925655528259,
42,61,60,58,0,30,30,30,,,,,,,,None,200.26726469999994,200.26726469999994,200.26726469999994,200.26726469999994,200.26726469999994,200.26726469999994,f,0.41160000000036234,200.70098710000002,200.70098710000002,200.70098710000002,200.70098710000002,200.70098710000002,200.70098710000002,200.9843323,201.8839054,201.90046059999986,201.90046059999986,201.90046059999986,201.90046059999986,201.90046059999986,201.90046059999986,201.90046059999986,201.90046059999986,201.90046059999986,201.90046059999986,201.90046059999986,201.90046059999986,201.90046059999986,203.09861,203.09861,203.09861,203.09861,203.09861,203.09861,203.09861,60,61,42,58,60,70,203.09861,204.81696039999997,,,,,,,,,,,,３１６,f,１９,2023-05-19_09h06.43.900,RL,2022.2.5,60.07925655528259,
46,64,71,61,0,31,31,31,,,,,,,,None,204.81696039999997,204.81696039999997,204.81696039999997,204.81696039999997,204.81696039999997,204.81696039999997,j,0.9316928000002918,205.7669449,205.7669449,205.7669449,205.7669449,205.7669449,205.7669449,206.0503580999998,207.20027870000013,207.2166032,207.2166032,207.2166032,207.2166032,207.2166032,207.2166032,207.2166032,207.2166032,207.2166032,207.2166032,207.2166032,207.2166032,207.2166032,208.6648685,208.6648685,208.6648685,208.6648685,208.6648685,208.6648685,208.6648685,71,64,46,61,61,70,208.6648685,210.23253190000014,,,,,,,,,,,,３１６,f,１９,2023-05-19_09h06.43.900,RL,2022.2.5,60.07925655528259,
54,63,61,54,0,32,32,32,,,,,,,,None,210.23253190000014,210.23253190000014,210.23253190000014,210.23253190000014,210.23253190000014,210.23253190000014,r,0.46787399999993795,210.74088660000007,210.74088660000007,210.74088660000007,210.74088660000007,210.74088660000007,210.74088660000007,211.01620730000013,212.299446,212.33234230000016,212.33234230000016,212.33234230000016,212.33234230000016,212.33234230000016,212.33234230000016,212.33234230000016,212.33234230000016,212.33234230000016,212.33234230000016,212.33234230000016,212.33234230000016,212.33234230000016,213.9136536000001,213.9136536000001,213.9136536000001,213.9136536000001,213.9136536000001,213.9136536000001,213.9136536000001,61,63,54,54,63,70,213.9136536000001,215.86510559999988,,,,,,,,,,,,３１６,f,１９,2023-05-19_09h06.43.900,RL,2022.2.5,60.07925655528259,
52,70,62,58,0,33,33,33,,,,,,,,None,215.86510559999988,215.86510559999988,215.86510559999988,215.86510559999988,215.86510559999988,215.86510559999988,r,0.3509188999996695,216.25854130000016,216.25854130000016,216.25854130000016,216.25854130000016,216.25854130000016,216.25854130000016,216.54811059999975,218.38164580000011,218.39806009999984,218.39806009999984,218.39806009999984,218.39806009999984,218.39806009999984,218.39806009999984,218.39806009999984,218.39806009999984,218.39806009999984,218.39806009999984,218.39806009999984,218.39806009999984,218.39806009999984,220.52958510000008,220.52958510000008,220.52958510000008,220.52958510000008,220.52958510000008,220.52958510000008,220.52958510000008,62,70,52,58,70,70,220.52958510000008,222.2637383000001,,,,,,,,,,,,３１６,f,１９,2023-05-19_09h06.43.900,RL,2022.2.5,60.07925655528259,
48,65,60,51,0,34,34,34,,,,,,,,None,222.2637383000001,222.2637383000001,222.2637383000001,222.2637383000001,222.2637383000001,222.2637383000001,r,1.2121635999997125,223.4981054,223.4981054,223.4981054,223.4981054,223.4981054,223.4981054,223.79723379999996,225.04638560000012,225.04638560000012,225.04638560000012,225.04638560000012,225.04638560000012,225.04638560000012,225.04638560000012,225.04638560000012,225.04638560000012,225.04638560000012,225.04638560000012,225.04638560000012,225.04638560000012,225.04638560000012,226.5948755999998,226.5948755999998,226.5948755999998,226.5948755999998,226.5948755999998,226.5948755999998,226.5948755999998,60,65,48,51,65,70,226.5948755999998,228.51266290000012,,,,,,,,,,,,３１６,f,１９,2023-05-19_09h06.43.900,RL,2022.2.5,60.07925655528259,
36,72,59,56,0,35,35,35,,,,,,,,None,228.51266290000012,228.51266290000012,228.51266290000012,228.51266290000012,228.51266290000012,228.51266290000012,f,0.28717150000011316,228.8313549999998,228.8313549999998,228.8313549999998,228.8313549999998,228.8313549999998,228.8313549999998,229.11267899999984,230.8455681999999,230.86227680000002,230.86227680000002,230.86227680000002,230.86227680000002,230.86227680000002,230.86227680000002,230.86227680000002,230.86227680000002,230.86227680000002,230.86227680000002,230.86227680000002,230.86227680000002,230.86227680000002,232.89388559999998,232.89388559999998,232.89388559999998,232.89388559999998,232.89388559999998,232.89388559999998,232.89388559999998,59,72,36,56,59,70,232.89388559999998,234.82803049999984,,,,,,,,,,,,３１６,f,１９,2023-05-19_09h06.43.900,RL,2022.2.5,60.07925655528259,
37,69,66,51,0,36,36,36,,,,,,,,None,234.82803049999984,234.82803049999984,234.82803049999984,234.82803049999984,234.82803049999984,234.82803049999984,f,0.48618119999991904,235.34495960000004,235.34495960000004,235.34495960000004,235.34495960000004,235.34495960000004,235.34495960000004,235.62807840000005,236.97800229999984,236.99447259999988,236.99447259999988,236.99447259999988,236.99447259999988,236.99447259999988,236.99447259999988,236.99447259999988,236.99447259999988,236.99447259999988,236.99447259999988,236.99447259999988,236.99447259999988,236.99447259999988,238.64267819999986,238.64267819999986,238.64267819999986,238.64267819999986,238.64267819999986,238.64267819999986,238.64267819999986,66,69,37,51,66,70,238.64267819999986,240.22702290000007,,,,,,,,,,,,３１６,f,１９,2023-05-19_09h06.43.900,RL,2022.2.5,60.07925655528259,
39,57,62,56,0,37,37,37,,,,,,,,None,240.22702290000007,240.22702290000007,240.22702290000007,240.22702290000007,240.22702290000007,240.22702290000007,f,0.3564936999996462,240.61317359999975,240.61317359999975,240.61317359999975,240.61317359999975,240.61317359999975,240.61317359999975,240.89400710000018,241.77701660000002,241.8104226999999,241.8104226999999,241.8104226999999,241.8104226999999,241.8104226999999,241.8104226999999,241.8104226999999,241.8104226999999,241.8104226999999,241.8104226999999,241.8104226999999,241.8104226999999,241.8104226999999,242.9917492999998,242.9917492999998,242.9917492999998,242.9917492999998,242.9917492999998,242.9917492999998,242.9917492999998,62,57,39,56,62,70,242.9917492999998,244.7094173999999,,,,,,,,,,,,３１６,f,１９,2023-05-19_09h06.43.900,RL,2022.2.5,60.07925655528259,
38,58,62,59,0,38,38,38,,,,,,,,None,244.7094173999999,244.7094173999999,244.7094173999999,244.7094173999999,244.7094173999999,244.7094173999999,r,1.1627508999999918,245.89507890000004,245.89507890000004,245.89507890000004,245.89507890000004,245.89507890000004,245.89507890000004,246.19313669999974,248.04284879999977,248.04284879999977,248.04284879999977,248.04284879999977,248.04284879999977,248.04284879999977,248.04284879999977,248.04284879999977,248.04284879999977,248.04284879999977,248.04284879999977,248.04284879999977,248.04284879999977,248.04284879999977,250.19076899999982,250.19076899999982,250.19076899999982,250.19076899999982,250.19076899999982,250.19076899999982,250.19076899999982,62,58,38,59,58,70,250.19076899999982,251.7584099999999,,,,,,,,,,,,３１６,f,１９,2023-05-19_09h06.43.900,RL,2022.2.5,60.07925655528259,
38,67,71,57,0,39,39,39,,,,,,,,None,251.7584099999999,251.7584099999999,251.7584099999999,251.7584099999999,251.7584099999999,251.7584099999999,f,0.4342461999999614,252.22640790000014,252.22640790000014,252.22640790000014,252.22640790000014,252.22640790000014,252.22640790000014,252.50841020000007,253.8416701000001,253.85821870000018,253.85821870000018,253.85821870000018,253.85821870000018,253.85821870000018,253.85821870000018,253.85821870000018,253.85821870000018,253.85821870000018,253.85821870000018,253.85821870000018,253.85821870000018,253.85821870000018,255.48958869999979,255.48958869999979,255.48958869999979,255.48958869999979,255.48958869999979,255.48958869999979,255.48958869999979,71,67,38,57,71,70,255.48958869999979,257.34064769999986,,,,,,,,,,,,３１６,f,１９,2023-05-19_09h06.43.900,RL,2022.2.5,60.07925655528259,
40,67,55,58,0,40,40,40,,,,,,,,None,257.34064769999986,257.34064769999986,257.34064769999986,257.34064769999986,257.34064769999986,257.34064769999986,f,0.29140030000007755,257.65771670000004,257.65771670000004,257.65771670000004,257.65771670000004,257.65771670000004,257.65771670000004,257.9407397,259.0240211,259.04060040000013,259.04060040000013,259.04060040000013,259.04060040000013,259.04060040000013,259.04060040000013,259.04060040000013,259.04060040000013,259.04060040000013,259.04060040000013,259.04060040000013,259.04060040000013,259.04060040000013,260.4219573999999,260.4219573999999,260.4219573999999,260.4219573999999,260.4219573999999,260.4219573999999,260.4219573999999,55,67,40,58,55,70,260.4219573999999,262.27349090000007,,,,,,,,,,,,３１６,f,１９,2023-05-19_09h06.43.900,RL,2022.2.5,60.07925655528259,
42,67,56,56,0,41,41,41,,,,,,,,None,262.27349090000007,262.27349090000007,262.27349090000007,262.27349090000007,262.27349090000007,262.27349090000007,f,0.35429100000010294,262.6569869,262.6569869,262.6569869,262.6569869,262.6569869,262.6569869,262.9400734000001,263.9398771000001,263.95640779999985,263.95640779999985,263.95640779999985,263.95640779999985,263.95640779999985,263.95640779999985,263.95640779999985,263.95640779999985,263.95640779999985,263.95640779999985,263.95640779999985,263.95640779999985,263.95640779999985,265.2546053000001,265.2546053000001,265.2546053000001,265.2546053000001,265.2546053000001,265.2546053000001,265.2546053000001,56,67,42,56,56,70,265.2546053000001,267.1884245000001,,,,,,,,,,,,３１６,f,１９,2023-05-19_09h06.43.900,RL,2022.2.5,60.07925655528259,
44,69,55,64,0,42,42,42,,,,,,,,None,267.1884245000001,267.1884245000001,267.1884245000001,267.1884245000001,267.1884245000001,267.1884245000001,j,0.7738684000000831,267.9894101,267.9894101,267.9894101,267.9894101,267.9894101,267.9894101,268.2722957000001,269.5388127000001,269.55530510000017,269.55530510000017,269.55530510000017,269.55530510000017,269.55530510000017,269.55530510000017,269.55530510000017,269.55530510000017,269.55530510000017,269.55530510000017,269.55530510000017,269.55530510000017,269.55530510000017,271.1199078999998,271.1199078999998,271.1199078999998,271.1199078999998,271.1199078999998,271.1199078999998,271.1199078999998,55,69,44,64,64,70,271.1199078999998,272.8380345999999,,,,,,,,,,,,３１６,f,１９,2023-05-19_09h06.43.900,RL,2022.2.5,60.07925655528259,
45,69,55,66,0,43,43,43,,,,,,,,None,272.8380345999999,272.8380345999999,272.8380345999999,272.8380345999999,272.8380345999999,272.8380345999999,i,0.9134765000003426,273.77205779999986,273.77205779999986,273.77205779999986,273.77205779999986,273.77205779999986,273.77205779999986,274.07171070000004,275.0047986999998,275.0047986999998,275.0047986999998,275.0047986999998,275.0047986999998,275.0047986999998,275.0047986999998,275.0047986999998,275.0047986999998,275.0047986999998,275.0047986999998,275.0047986999998,275.0047986999998,275.0047986999998,276.23583599999984,276.23583599999984,276.23583599999984,276.23583599999984,276.23583599999984,276.23583599999984,276.23583599999984,55,69,45,66,45,70,276.23583599999984,277.9370153,,,,,,,,,,,,３１６,f,１９,2023-05-19_09h06.43.900,RL,2022.2.5,60.07925655528259,
37,66,56,61,0,44,44,44,,,,,,,,None,277.9370153,277.9370153,277.9370153,277.9370153,277.9370153,277.9370153,j,0.9771049000000858,278.9375795000001,278.9375795000001,278.9375795000001,278.9375795000001,278.9375795000001,278.9375795000001,279.22049479999987,280.4203130000001,280.4368420999999,280.4368420999999,280.4368420999999,280.4368420999999,280.4368420999999,280.4368420999999,280.4368420999999,280.4368420999999,280.4368420999999,280.4368420999999,280.4368420999999,280.4368420999999,280.4368420999999,281.93487330000016,281.93487330000016,281.93487330000016,281.93487330000016,281.93487330000016,281.93487330000016,281.93487330000016,56,66,37,61,61,70,281.93487330000016,283.80285460000005,,,,,,,,,,,,３１６,f,１９,2023-05-19_09h06.43.900,RL,2022.2.5,60.07925655528259,
29,67,67,67,0,45,45,45,,,,,,,,None,283.80285460000005,283.80285460000005,283.80285460000005,283.80285460000005,283.80285460000005,283.80285460000005,r,0.3466907000001811,284.1697826999998,284.1697826999998,284.1697826999998,284.1697826999998,284.1697826999998,284.1697826999998,284.45254190000014,286.16912379999985,286.20252519999985,286.20252519999985,286.20252519999985,286.20252519999985,286.20252519999985,286.20252519999985,286.20252519999985,286.20252519999985,286.20252519999985,286.20252519999985,286.20252519999985,286.20252519999985,286.20252519999985,288.21707319999996,288.21707319999996,288.21707319999996,288.21707319999996,288.21707319999996,288.21707319999996,288.21707319999996,67,67,29,67,67,70,288.21707319999996,289.86885630000006,,,,,,,,,,,,３１６,f,１９,2023-05-19_09h06.43.900,RL,2022.2.5,60.07925655528259,
34,67,68,61,0,46,46,46,,,,,,,,None,289.86885630000006,289.86885630000006,289.86885630000006,289.86885630000006,289.86885630000006,289.86885630000006,f,0.3820914000002631,290.2715540999998,290.2715540999998,290.2715540999998,290.2715540999998,290.2715540999998,290.2715540999998,290.5682750000001,291.9519685999999,291.96867569999995,291.96867569999995,291.96867569999995,291.96867569999995,291.96867569999995,291.96867569999995,291.96867569999995,291.96867569999995,291.96867569999995,291.96867569999995,291.96867569999995,291.96867569999995,291.96867569999995,293.6499313999998,293.6499313999998,293.6499313999998,293.6499313999998,293.6499313999998,293.6499313999998,293.6499313999998,68,67,34,61,68,70,293.6499313999998,295.16790489999994,,,,,,,,,,,,３１６,f,１９,2023-05-19_09h06.43.900,RL,2022.2.5,60.07925655528259,
35,68,58,64,0,47,47,47,,,,,,,,None,295.16790489999994,295.16790489999994,295.16790489999994,295.16790489999994,295.16790489999994,295.16790489999994,f,0.5387673999998697,295.73557010000013,295.73557010000013,295.73557010000013,295.73557010000013,295.73557010000013,295.73557010000013,296.03422739999996,297.40068029999975,297.40068029999975,297.40068029999975,297.40068029999975,297.40068029999975,297.40068029999975,297.40068029999975,297.40068029999975,297.40068029999975,297.40068029999975,297.40068029999975,297.40068029999975,297.40068029999975,297.40068029999975,299.06569249999984,299.06569249999984,299.06569249999984,299.06569249999984,299.06569249999984,299.06569249999984,299.06569249999984,58,68,35,64,58,70,299.06569249999984,300.7667384000001,,,,,,,,,,,,３１６,f,１９,2023-05-19_09h06.43.900,RL,2022.2.5,60.07925655528259,
29,66,56,59,0,48,48,48,,,,,,,,None,300.7667384000001,300.7667384000001,300.7667384000001,300.7667384000001,300.7667384000001,300.7667384000001,j,0.3988102999996954,301.18342919999986,301.18342919999986,301.18342919999986,301.18342919999986,301.18342919999986,301.18342919999986,301.4672783000001,302.5664557,302.58322670000007,302.58322670000007,302.58322670000007,302.58322670000007,302.58322670000007,302.58322670000007,302.58322670000007,302.58322670000007,302.58322670000007,302.58322670000007,302.58322670000007,302.58322670000007,302.58322670000007,303.98090939999975,303.98090939999975,303.98090939999975,303.98090939999975,303.98090939999975,303.98090939999975,303.98090939999975,56,66,29,59,59,70,303.98090939999975,305.8988399,,,,,,,,,,,,３１６,f,１９,2023-05-19_09h06.43.900,RL,2022.2.5,60.07925655528259,
34,68,60,54,0,49,49,49,,,,,,,,None,305.8988399,305.8988399,305.8988399,305.8988399,305.8988399,305.8988399,r,0.29812360000005356,306.21598399999993,306.21598399999993,306.21598399999993,306.21598399999993,306.21598399999993,306.21598399999993,306.49939270000004,307.48251230000005,307.4988404999999,307.4988404999999,307.4988404999999,307.4988404999999,307.4988404999999,307.4988404999999,307.4988404999999,307.4988404999999,307.4988404999999,307.4988404999999,307.4988404999999,307.4988404999999,307.4988404999999,308.7802124,308.7802124,308.7802124,308.7802124,308.7802124,308.7802124,308.7802124,60,68,34,54,68,70,308.7802124,310.38179820000005,,,,,,,,,,,,３１６,f,１９,2023-05-19_09h06.43.900,RL,2022.2.5,60.07925655528259,
35,58,58,60,0,50,50,50,,,,,,,,None,310.38179820000005,310.38179820000005,310.38179820000005,310.38179820000005,310.38179820000005,310.38179820000005,f,0.5912548000001152,310.9988272999999,310.9988272999999,310.9988272999999,310.9988272999999,310.9988272999999,310.9988272999999,311.2982711999998,313.18149649999987,313.18149649999987,313.18149649999987,313.18149649999987,313.18149649999987,313.18149649999987,313.18149649999987,313.18149649999987,313.18149649999987,313.18149649999987,313.18149649999987,313.18149649999987,313.18149649999987,313.18149649999987,315.3628958999998,315.3628958999998,315.3628958999998,315.3628958999998,315.3628958999998,315.3628958999998,315.3628958999998,58,58,35,60,58,70,315.3628958999998,316.99687399999993,,,,,,,,,,,,３１６,f,１９,2023-05-19_09h06.43.900,RL,2022.2.5,60.07925655528259,
33,63,72,58,0,51,51,51,,,,,,,,None,316.99687399999993,316.99687399999993,316.99687399999993,316.99687399999993,316.99687399999993,316.99687399999993,r,0.34811720000016066,317.3663240000001,317.3663240000001,317.3663240000001,317.3663240000001,317.3663240000001,317.3663240000001,317.66391669999985,318.48029640000004,318.48029640000004,318.48029640000004,318.48029640000004,318.48029640000004,318.48029640000004,318.48029640000004,318.48029640000004,318.48029640000004,318.48029640000004,318.48029640000004,318.48029640000004,318.48029640000004,318.48029640000004,319.5949334000002,319.5949334000002,319.5949334000002,319.5949334000002,319.5949334000002,319.5949334000002,319.5949334000002,72,63,33,58,63,70,319.5949334000002,321.34598270000015,,,,,,,,,,,,３１６,f,１９,2023-05-19_09h06.43.900,RL,2022.2.5,60.07925655528259,
32,76,69,60,0,52,52,52,,,,,,,,None,321.34598270000015,321.34598270000015,321.34598270000015,321.34598270000015,321.34598270000015,321.34598270000015,r,0.5502864000000045,321.91516569999976,321.91516569999976,321.91516569999976,321.91516569999976,321.91516569999976,321.91516569999976,322.2129473,323.29604259999996,323.29604259999996,323.29604259999996,323.29604259999996,323.29604259999996,323.29604259999996,323.29604259999996,323.29604259999996,323.29604259999996,323.29604259999996,323.29604259999996,323.29604259999996,323.29604259999996,323.29604259999996,324.6777625,324.6777625,324.6777625,324.6777625,324.6777625,324.6777625,324.6777625,69,76,32,60,76,70,324.6777625,326.26189380000005,,,,,,,,,,,,３１６,f,１９,2023-05-19_09h06.43.900,RL,2022.2.5,60.07925655528259,
35,68,68,73,0,53,53,53,,,,,,,,None,326.26189380000005,326.26189380000005,326.26189380000005,326.26189380000005,326.26189380000005,326.26189380000005,r,0.30535639999970954,326.59770290000006,326.59770290000006,326.59770290000006,326.59770290000006,326.59770290000006,326.59770290000006,326.8792932000001,328.27891249999993,328.2951787000002,328.2951787000002,328.2951787000002,328.2951787000002,328.2951787000002,328.2951787000002,328.2951787000002,328.2951787000002,328.2951787000002,328.2951787000002,328.2951787000002,328.2951787000002,328.2951787000002,329.9932451999998,329.9932451999998,329.9932451999998,329.9932451999998,329.9932451999998,329.9932451999998,329.9932451999998,68,68,35,73,68,70,329.9932451999998,331.9775992,,,,,,,,,,,,３１６,f,１９,2023-05-19_09h06.43.900,RL,2022.2.5,60.07925655528259,
31,75,74,68,0,54,54,54,,,,,,,,None,331.9775992,331.9775992,331.9775992,331.9775992,331.9775992,331.9775992,j,0.867033900000024,332.8808690999999,332.8808690999999,332.8808690999999,332.8808690999999,332.8808690999999,332.8808690999999,333.1611063999999,334.9110919,334.9442939999999,334.9442939999999,334.9442939999999,334.9442939999999,334.9442939999999,334.9442939999999,334.9442939999999,334.9442939999999,334.9442939999999,334.9442939999999,334.9442939999999,334.9442939999999,334.9442939999999,336.9921374999999,336.9921374999999,336.9921374999999,336.9921374999999,336.9921374999999,336.9921374999999,336.9921374999999,74,75,31,68,68,70,336.9921374999999,338.74290759999985,,,,,,,,,,,,３１６,f,１９,2023-05-19_09h06.43.900,RL,2022.2.5,60.07925655528259,
37,71,65,60,0,55,55,55,,,,,,,,None,338.74290759999985,338.74290759999985,338.74290759999985,338.74290759999985,338.74290759999985,338.74290759999985,f,0.3752322999998796,339.14377539999987,339.14377539999987,339.14377539999987,339.14377539999987,339.14377539999987,339.14377539999987,339.44316489999983,341.3430612000002,341.3430612000002,341.3430612000002,341.3430612000002,341.3430612000002,341.3430612000002,341.3430612000002,341.3430612000002,341.3430612000002,341.3430612000002,341.3430612000002,341.3430612000002,341.3430612000002,341.3430612000002,343.5411079999999,343.5411079999999,343.5411079999999,343.5411079999999,343.5411079999999,343.5411079999999,343.5411079999999,65,71,37,60,65,70,343.5411079999999,345.3922950000001,,,,,,,,,,,,３１６,f,１９,2023-05-19_09h06.43.900,RL,2022.2.5,60.07925655528259,
35,75,67,73,0,56,56,56,,,,,,,,None,345.3922950000001,345.3922950000001,345.3922950000001,345.3922950000001,345.3922950000001,345.3922950000001,r,0.3419099000002461,345.75924209999994,345.75924209999994,345.75924209999994,345.75924209999994,345.75924209999994,345.75924209999994,346.04254379999975,347.7258440999999,347.7422108999999,347.7422108999999,347.7422108999999,347.7422108999999,347.7422108999999,347.7422108999999,347.7422108999999,347.7422108999999,347.7422108999999,347.7422108999999,347.7422108999999,347.7422108999999,347.7422108999999,349.72323259999985,349.72323259999985,349.72323259999985,349.72323259999985,349.72323259999985,349.72323259999985,349.72323259999985,67,75,35,73,75,70,349.72323259999985,351.35749769999984,,,,,,,,,,,,３１６,f,１９,2023-05-19_09h06.43.900,RL,2022.2.5,60.07925655528259,
48,61,64,65,0,57,57,57,,,,,,,,None,351.35749769999984,351.35749769999984,351.35749769999984,351.35749769999984,351.35749769999984,351.35749769999984,j,0.3992467999996734,351.77638530000013,351.77638530000013,351.77638530000013,351.77638530000013,351.77638530000013,351.77638530000013,352.07462050000004,353.2436708,353.2436708,353.2436708,353.2436708,353.2436708,353.2436708,353.2436708,353.2436708,353.2436708,353.2436708,353.2436708,353.2436708,353.2436708,353.2436708,354.67246190000014,354.67246190000014,354.67246190000014,354.67246190000014,354.67246190000014,354.67246190000014,354.67246190000014,64,61,48,65,65,70,354.67246190000014,356.27308429999994,,,,,,,,,,,,３１６,f,１９,2023-05-19_09h06.43.900,RL,2022.2.5,60.07925655528259,
38,61,65,71,0,58,58,58,,,,,,,,None,356.27308429999994,356.27308429999994,356.27308429999994,356.27308429999994,356.27308429999994,356.27308429999994,f,0.3743524999999863,356.67380969999977,356.67380969999977,356.67380969999977,356.67380969999977,356.67380969999977,356.67380969999977,356.957367,357.82362550000016,357.84006279999994,357.84006279999994,357.84006279999994,357.84006279999994,357.84006279999994,357.84006279999994,357.84006279999994,357.84006279999994,357.84006279999994,357.84006279999994,357.84006279999994,357.84006279999994,357.84006279999994,359.00504360000014,359.00504360000014,359.00504360000014,359.00504360000014,359.00504360000014,359.00504360000014,359.00504360000014,65,61,38,71,65,70,359.00504360000014,360.8558607,,,,,,,,,,,,３１６,f,１９,2023-05-19_09h06.43.900,RL,2022.2.5,60.07925655528259,
44,72,72,63,0,59,59,59,,,,,,,,None,360.8558607,360.8558607,360.8558607,360.8558607,360.8558607,360.8558607,i,0.8109546000000591,361.6917497999998,361.6917497999998,361.6917497999998,361.6917497999998,361.6917497999998,361.6917497999998,361.9728319999999,363.48918760000015,363.5056537999999,363.5056537999999,363.5056537999999,363.5056537999999,363.5056537999999,363.5056537999999,363.5056537999999,363.5056537999999,363.5056537999999,363.5056537999999,363.5056537999999,363.5056537999999,363.5056537999999,365.32033060000003,365.32033060000003,365.32033060000003,365.32033060000003,365.32033060000003,365.32033060000003,365.32033060000003,72,72,44,63,44,70,365.32033060000003,367.238378,,,,,,,,,,,,３１６,f,１９,2023-05-19_09h06.43.900,RL,2022.2.5,60.07925655528259,
51,55,53,61,0,60,60,60,,,,,,,,None,367.238378,367.238378,367.238378,367.238378,367.238378,367.238378,r,1.4395591999996213,368.7091234999998,368.7091234999998,368.7091234999998,368.7091234999998,368.7091234999998,368.7091234999998,368.98879149999993,370.38826089999975,370.4047700000001,370.4047700000001,370.4047700000001,370.4047700000001,370.4047700000001,370.4047700000001,370.4047700000001,370.4047700000001,370.4047700000001,370.4047700000001,370.4047700000001,370.4047700000001,370.4047700000001,372.1026861,372.1026861,372.1026861,372.1026861,372.1026861,372.1026861,372.1026861,53,55,51,61,55,70,372.1026861,373.8207398999998,,,,,,,,,,,,３１６,f,１９,2023-05-19_09h06.43.900,RL,2022.2.5,60.07925655528259,
44,51,62,65,0,61,61,61,,,,,,,,None,373.8207398999998,373.8207398999998,373.8207398999998,373.8207398999998,373.8207398999998,373.8207398999998,f,0.495252199999868,374.33737310000015,374.33737310000015,374.33737310000015,374.33737310000015,374.33737310000015,374.33737310000015,374.6208394999999,376.1868263000001,376.2034625000001,376.2034625000001,376.2034625000001,376.2034625000001,376.2034625000001,376.2034625000001,376.2034625000001,376.2034625000001,376.2034625000001,376.2034625000001,376.2034625000001,376.2034625000001,376.2034625000001,378.06809209999983,378.06809209999983,378.06809209999983,378.06809209999983,378.06809209999983,378.06809209999983,378.06809209999983,62,51,44,65,62,70,378.06809209999983,380.0027033000001,,,,,,,,,,,,３１６,f,１９,2023-05-19_09h06.43.900,RL,2022.2.5,60.07925655528259,
43,57,66,60,0,62,62,62,,,,,,,,None,380.0027033000001,380.0027033000001,380.0027033000001,380.0027033000001,380.0027033000001,380.0027033000001,j,0.43685499999992317,380.47124399999984,380.47124399999984,380.47124399999984,380.47124399999984,380.47124399999984,380.47124399999984,380.76945829999977,382.7192359999999,382.7192359999999,382.7192359999999,382.7192359999999,382.7192359999999,382.7192359999999,382.7192359999999,382.7192359999999,382.7192359999999,382.7192359999999,382.7192359999999,382.7192359999999,382.7192359999999,382.7192359999999,384.96704180000006,384.96704180000006,384.96704180000006,384.96704180000006,384.96704180000006,384.96704180000006,384.96704180000006,66,57,43,60,60,70,384.96704180000006,386.65157980000004,,,,,,,,,,,,３１６,f,１９,2023-05-19_09h06.43.900,RL,2022.2.5,60.07925655528259,
47,60,64,62,0,63,63,63,,,,,,,,None,386.65157980000004,386.65157980000004,386.65157980000004,386.65157980000004,386.65157980000004,386.65157980000004,f,0.5608719000001656,387.23608920000015,387.23608920000015,387.23608920000015,387.23608920000015,387.23608920000015,387.23608920000015,387.51867679999987,389.06769110000005,389.0847733999999,389.0847733999999,389.0847733999999,389.0847733999999,389.0847733999999,389.0847733999999,389.0847733999999,389.0847733999999,389.0847733999999,389.0847733999999,389.0847733999999,389.0847733999999,389.0847733999999,390.9327051999999,390.9327051999999,390.9327051999999,390.9327051999999,390.9327051999999,390.9327051999999,390.9327051999999,64,60,47,62,64,70,390.9327051999999,392.5169381999999,,,,,,,,,,,,３１６,f,１９,2023-05-19_09h06.43.900,RL,2022.2.5,60.07925655528259,
44,61,73,67,0,64,64,64,,,,,,,,None,392.5169381999999,392.5169381999999,392.5169381999999,392.5169381999999,392.5169381999999,392.5169381999999,r,0.3627728000001298,392.9009114999999,392.9009114999999,392.9009114999999,392.9009114999999,392.9009114999999,392.9009114999999,393.18447209999977,394.2337907000001,394.2503891000001,394.2503891000001,394.2503891000001,394.2503891000001,394.2503891000001,394.2503891000001,394.2503891000001,394.2503891000001,394.2503891000001,394.2503891000001,394.2503891000001,394.2503891000001,394.2503891000001,395.59882389999984,395.59882389999984,395.59882389999984,395.59882389999984,395.59882389999984,395.59882389999984,395.59882389999984,73,61,44,67,61,70,395.59882389999984,397.2160181999998,,,,,,,,,,,,３１６,f,１９,2023-05-19_09h06.43.900,RL,2022.2.5,60.07925655528259,
46,55,77,77,0,65,65,65,,,,,,,,None,397.2160181999998,397.2160181999998,397.2160181999998,397.2160181999998,397.2160181999998,397.2160181999998,f,0.2986977000000479,397.5353928999998,397.5353928999998,397.5353928999998,397.5353928999998,397.5353928999998,397.5353928999998,397.83354150000014,399.4498530999999,399.4498530999999,399.4498530999999,399.4498530999999,399.4498530999999,399.4498530999999,399.4498530999999,399.4498530999999,399.4498530999999,399.4498530999999,399.4498530999999,399.4498530999999,399.4498530999999,399.4498530999999,401.36472539999977,401.36472539999977,401.36472539999977,401.36472539999977,401.36472539999977,401.36472539999977,401.36472539999977,77,55,46,77,77,70,401.36472539999977,403.1151573000002,,,,,,,,,,,,３１６,f,１９,2023-05-19_09h06.43.900,RL,2022.2.5,60.07925655528259,
44,46,66,58,0,66,66,66,,,,,,,,None,403.1151573000002,403.1151573000002,403.1151573000002,403.1151573000002,403.1151573000002,403.1151573000002,f,0.4936367000000246,403.63430430000017,403.63430430000017,403.63430430000017,403.63430430000017,403.63430430000017,403.63430430000017,403.9327180999999,405.7651783000001,405.7651783000001,405.7651783000001,405.7651783000001,405.7651783000001,405.7651783000001,405.7651783000001,405.7651783000001,405.7651783000001,405.7651783000001,405.7651783000001,405.7651783000001,405.7651783000001,405.7651783000001,407.8965450999999,407.8965450999999,407.8965450999999,407.8965450999999,407.8965450999999,407.8965450999999,407.8965450999999,66,46,44,58,66,70,407.8965450999999,409.88105210000003,,,,,,,,,,,,３１６,f,１９,2023-05-19_09h06.43.900,RL,2022.2.5,60.07925655528259,
57,45,66,65,0,67,67,67,,,,,,,,None,409.88105210000003,409.88105210000003,409.88105210000003,409.88105210000003,409.88105210000003,409.88105210000003,j,0.3551585000000159,410.2647670000001,410.2647670000001,410.2647670000001,410.2647670000001,410.2647670000001,410.2647670000001,410.5477691000001,411.5810571000002,411.5975905,411.5975905,411.5975905,411.5975905,411.5975905,411.5975905,411.5975905,411.5975905,411.5975905,411.5975905,411.5975905,411.5975905,411.5975905,412.92862239999977,412.92862239999977,412.92862239999977,412.92862239999977,412.92862239999977,412.92862239999977,412.92862239999977,66,45,57,65,65,70,412.92862239999977,414.6799363,,,,,,,,,,,,３１６,f,１９,2023-05-19_09h06.43.900,RL,2022.2.5,60.07925655528259,
43,49,78,61,0,68,68,68,,,,,,,,None,414.6799363,414.6799363,414.6799363,414.6799363,414.6799363,414.6799363,r,0.8399402000000009,415.5484262,415.5484262,415.5484262,415.5484262,415.5484262,415.5484262,415.84675019999986,417.1135393999998,417.1135393999998,417.1135393999998,417.1135393999998,417.1135393999998,417.1135393999998,417.1135393999998,417.1135393999998,417.1135393999998,417.1135393999998,417.1135393999998,417.1135393999998,417.1135393999998,417.1135393999998,418.67835860000014,418.67835860000014,418.67835860000014,418.67835860000014,418.67835860000014,418.67835860000014,418.67835860000014,78,49,43,61,49,70,418.67835860000014,420.3123697000001,,,,,,,,,,,,３１６,f,１９,2023-05-19_09h06.43.900,RL,2022.2.5,60.07925655528259,
41,53,73,57,0,69,69,69,,,,,,,,None,420.3123697000001,420.3123697000001,420.3123697000001,420.3123697000001,420.3123697000001,420.3123697000001,r,0.5867161000001033,420.9328587,420.9328587,420.9328587,420.9328587,420.9328587,420.9328587,421.2295144999998,422.0955746999998,422.1127498999999,422.1127498999999,422.1127498999999,422.1127498999999,422.1127498999999,422.1127498999999,422.1127498999999,422.1127498999999,422.1127498999999,422.1127498999999,422.1127498999999,422.1127498999999,422.1127498999999,423.2775249000001,423.2775249000001,423.2775249000001,423.2775249000001,423.2775249000001,423.2775249000001,423.2775249000001,73,53,41,57,53,70,423.2775249000001,425.21200580000004,,,,,,,,,,,,３１６,f,１９,2023-05-19_09h06.43.900,RL,2022.2.5,60.07925655528259,
51,47,72,53,0,70,70,70,,,,,,,,None,425.21200580000004,425.21200580000004,425.21200580000004,425.21200580000004,425.21200580000004,425.21200580000004,f,0.3204200000000128,425.5665005999999,425.5665005999999,425.5665005999999,425.5665005999999,425.5665005999999,425.5665005999999,425.84705369999983,427.59475729999986,427.6115731,427.6115731,427.6115731,427.6115731,427.6115731,427.6115731,427.6115731,427.6115731,427.6115731,427.6115731,427.6115731,427.6115731,427.6115731,429.6597542999998,429.6597542999998,429.6597542999998,429.6597542999998,429.6597542999998,429.6597542999998,429.6597542999998,72,47,51,53,72,70,429.6597542999998,431.5771322999999,,,,,,,,,,,,３１６,f,１９,2023-05-19_09h06.43.900,RL,2022.2.5,60.07925655528259,
55,46,70,60,0,71,71,71,,,,,,,,None,431.5771322999999,431.5771322999999,431.5771322999999,431.5771322999999,431.5771322999999,431.5771322999999,f,0.352047599999878,431.96958110000014,431.96958110000014,431.96958110000014,431.96958110000014,431.96958110000014,431.96958110000014,432.26098420000017,433.81048069999997,433.81048069999997,433.81048069999997,433.81048069999997,433.81048069999997,433.81048069999997,433.81048069999997,433.81048069999997,433.81048069999997,433.81048069999997,433.81048069999997,433.81048069999997,433.81048069999997,433.81048069999997,435.6583222999998,435.6583222999998,435.6583222999998,435.6583222999998,435.6583222999998,435.6583222999998,435.6583222999998,70,46,55,60,70,70,435.6583222999998,437.2591112,,,,,,,,,,,,３１６,f,１９,2023-05-19_09h06.43.900,RL,2022.2.5,60.07925655528259,
52,48,69,58,0,72,72,72,,,,,,,,None,437.2591112,437.2591112,437.2591112,437.2591112,437.2591112,437.2591112,f,0.4345544000002519,437.71510249999983,437.71510249999983,437.71510249999983,437.71510249999983,437.71510249999983,437.71510249999983,438.0097205000002,439.10944729999983,439.13533899999993,439.13533899999993,439.13533899999993,439.13533899999993,439.13533899999993,439.13533899999993,439.13533899999993,439.13533899999993,439.13533899999993,439.13533899999993,439.13533899999993,439.13533899999993,439.13533899999993,440.54096930000014,440.54096930000014,440.54096930000014,440.54096930000014,440.54096930000014,440.54096930000014,440.54096930000014,69,48,52,58,69,70,440.54096930000014,442.05892159999985,,,,,,,,,,,,３１６,f,１９,2023-05-19_09h06.43.900,RL,2022.2.5,60.07925655528259,
45,48,75,53,0,73,73,73,,,,,,,,None,442.05892159999985,442.05892159999985,442.05892159999985,442.05892159999985,442.05892159999985,442.05892159999985,f,0.27369080000016766,442.3623385000001,442.3623385000001,442.3623385000001,442.3623385000001,442.3623385000001,442.3623385000001,442.6418893,443.7089784,443.72533569999996,443.72533569999996,443.72533569999996,443.72533569999996,443.72533569999996,443.72533569999996,443.72533569999996,443.72533569999996,443.72533569999996,443.72533569999996,443.72533569999996,443.72533569999996,443.72533569999996,445.08996690000004,445.08996690000004,445.08996690000004,445.08996690000004,445.08996690000004,445.08996690000004,445.08996690000004,75,48,45,53,75,70,445.08996690000004,446.7410627999998,,,,,,,,,,,,３１６,f,１９,2023-05-19_09h06.43.900,RL,2022.2.5,60.07925655528259,
44,53,68,55,0,74,74,74,,,,,,,,None,446.7410627999998,446.7410627999998,446.7410627999998,446.7410627999998,446.7410627999998,446.7410627999998,f,0.2888450999998895,447.0590194000001,447.0590194000001,447.0590194000001,447.0590194000001,447.0590194000001,447.0590194000001,447.3415868000002,448.75799300000017,448.7742312999999,448.7742312999999,448.7742312999999,448.7742312999999,448.7742312999999,448.7742312999999,448.7742312999999,448.7742312999999,448.7742312999999,448.7742312999999,448.7742312999999,448.7742312999999,448.7742312999999,450.4889868,450.4889868,450.4889868,450.4889868,450.4889868,450.4889868,450.4889868,68,53,44,55,68,70,450.4889868,452.0724730000002,,,,,,,,,,,,３１６,f,１９,2023-05-19_09h06.43.900,RL,2022.2.5,60.07925655528259,
48,45,69,59,0,75,75,75,,,,,,,,q,472.20315040000014,472.20315040000014,472.20315040000014,472.20315040000014,472.20315040000014,472.20315040000014,f,0.57864520000021,472.80642350000016,472.80642350000016,472.80642350000016,472.80642350000016,472.80642350000016,472.80642350000016,473.0870009,474.7031127,474.71980989999975,474.71980989999975,474.71980989999975,474.71980989999975,474.71980989999975,474.71980989999975,474.71980989999975,474.71980989999975,474.71980989999975,474.71980989999975,474.71980989999975,474.71980989999975,474.71980989999975,476.6345959999999,476.6345959999999,476.6345959999999,476.6345959999999,476.6345959999999,476.6345959999999,476.6345959999999,69,45,48,59,69,70,476.6345959999999,478.552017,452.0724730000002,452.0724730000002,15.088599499999873,467.18825049999987,467.18825049999987,472.20315040000014,472.20315040000014,,,,,３１６,f,１９,2023-05-19_09h06.43.900,RL,2022.2.5,60.07925655528259,
56,59,58,62,0,76,76,76,,,,,,,,None,478.552017,478.552017,478.552017,478.552017,478.552017,478.552017,f,0.25470160000031683,478.8359421,478.8359421,478.8359421,478.8359421,478.8359421,478.8359421,479.1188742999998,481.10264289999986,481.1190019999999,481.1190019999999,481.1190019999999,481.1190019999999,481.1190019999999,481.1190019999999,481.1190019999999,481.1190019999999,481.1190019999999,481.1190019999999,481.1190019999999,481.1190019999999,481.1190019999999,483.39972309999985,483.39972309999985,483.39972309999985,483.39972309999985,483.39972309999985,483.39972309999985,483.39972309999985,58,59,56,62,58,70,483.39972309999985,485.2676118999998,,,,,,,,,,,,３１６,f,１９,2023-05-19_09h06.43.900,RL,2022.2.5,60.07925655528259,
52,55,64,65,0,77,77,77,,,,,,,,None,485.2676118999998,485.2676118999998,485.2676118999998,485.2676118999998,485.2676118999998,485.2676118999998,r,0.26500069999974585,485.5520077000001,485.5520077000001,485.5520077000001,485.5520077000001,485.5520077000001,485.5520077000001,485.8345862000001,487.11747639999976,487.1342920000002,487.1342920000002,487.1342920000002,487.1342920000002,487.1342920000002,487.1342920000002,487.1342920000002,487.1342920000002,487.1342920000002,487.1342920000002,487.1342920000002,487.1342920000002,487.1342920000002,488.71602040000016,488.71602040000016,488.71602040000016,488.71602040000016,488.71602040000016,488.71602040000016,488.71602040000016,64,55,52,65,55,70,488.71602040000016,490.5504133999998,,,,,,,,,,,,３１６,f,１９,2023-05-19_09h06.43.900,RL,2022.2.5,60.07925655528259,
41,47,65,63,0,78,78,78,,,,,,,,None,490.5504133999998,490.5504133999998,490.5504133999998,490.5504133999998,490.5504133999998,490.5504133999998,i,0.35154370000009294,490.93951579999975,490.93951579999975,490.93951579999975,490.93951579999975,490.93951579999975,490.93951579999975,491.2172166999999,492.2839653000001,492.2998303999998,492.2998303999998,492.2998303999998,492.2998303999998,492.2998303999998,492.2998303999998,492.2998303999998,492.2998303999998,492.2998303999998,492.2998303999998,492.2998303999998,492.2998303999998,492.2998303999998,493.6647908,493.6647908,493.6647908,493.6647908,493.6647908,493.6647908,493.6647908,65,47,41,63,41,70,493.6647908,495.6155539000001,,,,,,,,,,,,３１６,f,１９,2023-05-19_09h06.43.900,RL,2022.2.5,60.07925655528259,
40,55,65,51,0,79,79,79,,,,,,,,None,495.6155539000001,495.6155539000001,495.6155539000001,495.6155539000001,495.6155539000001,495.6155539000001,j,0.3659319999997024,496.00126980000005,496.00126980000005,496.00126980000005,496.00126980000005,496.00126980000005,496.00126980000005,496.29959009999993,497.2160868000001,497.2160868000001,497.2160868000001,497.2160868000001,497.2160868000001,497.2160868000001,497.2160868000001,497.2160868000001,497.2160868000001,497.2160868000001,497.2160868000001,497.2160868000001,497.2160868000001,497.2160868000001,498.43084799999997,498.43084799999997,498.43084799999997,498.43084799999997,498.43084799999997,498.43084799999997,498.43084799999997,65,55,40,51,51,70,498.43084799999997,500.36501899999985,,,,,,,,,,,,３１６,f,１９,2023-05-19_09h06.43.900,RL,2022.2.5,60.07925655528259,
47,53,59,47,0,80,80,80,,,,,,,,None,500.36501899999985,500.36501899999985,500.36501899999985,500.36501899999985,500.36501899999985,500.36501899999985,f,0.421563000000333,500.81736120000005,500.81736120000005,500.81736120000005,500.81736120000005,500.81736120000005,500.81736120000005,501.0987270999999,502.8148458999999,502.83155069999975,502.83155069999975,502.83155069999975,502.83155069999975,502.83155069999975,502.83155069999975,502.83155069999975,502.83155069999975,502.83155069999975,502.83155069999975,502.83155069999975,502.83155069999975,502.83155069999975,504.8464482999998,504.8464482999998,504.8464482999998,504.8464482999998,504.8464482999998,504.8464482999998,504.8464482999998,59,53,47,47,59,70,504.8464482999998,506.56427570000005,,,,,,,,,,,,３１６,f,１９,2023-05-19_09h06.43.900,RL,2022.2.5,60.07925655528259,
42,40,58,55,0,81,81,81,,,,,,,,None,506.56427570000005,506.56427570000005,506.56427570000005,506.56427570000005,506.56427570000005,506.56427570000005,r,0.3574447000000873,506.94841210000004,506.94841210000004,506.94841210000004,506.94841210000004,506.94841210000004,506.94841210000004,507.2309845,508.21458570000004,508.2309916999998,508.2309916999998,508.2309916999998,508.2309916999998,508.2309916999998,508.2309916999998,508.2309916999998,508.2309916999998,508.2309916999998,508.2309916999998,508.2309916999998,508.2309916999998,508.2309916999998,509.51222830000006,509.51222830000006,509.51222830000006,509.51222830000006,509.51222830000006,509.51222830000006,509.51222830000006,58,40,42,55,40,70,509.51222830000006,511.16296120000015,,,,,,,,,,,,３１６,f,１９,2023-05-19_09h06.43.900,RL,2022.2.5,60.07925655528259,
38,40,50,49,0,82,82,82,,,,,,,,None,511.16296120000015,511.16296120000015,511.16296120000015,511.16296120000015,511.16296120000015,511.16296120000015,j,0.3395948000002136,511.53052309999975,511.53052309999975,511.53052309999975,511.53052309999975,511.53052309999975,511.53052309999975,511.8136196999999,513.2632512,513.2796119999998,513.2796119999998,513.2796119999998,513.2796119999998,513.2796119999998,513.2796119999998,513.2796119999998,513.2796119999998,513.2796119999998,513.2796119999998,513.2796119999998,513.2796119999998,513.2796119999998,515.0278253000001,515.0278253000001,515.0278253000001,515.0278253000001,515.0278253000001,515.0278253000001,515.0278253000001,50,40,38,49,49,70,515.0278253000001,516.6623487000002,,,,,,,,,,,,３１６,f,１９,2023-05-19_09h06.43.900,RL,2022.2.5,60.07925655528259,
42,38,46,48,0,83,83,83,,,,,,,,None,516.6623487000002,516.6623487000002,516.6623487000002,516.6623487000002,516.6623487000002,516.6623487000002,f,0.343859799999791,517.0294614999998,517.0294614999998,517.0294614999998,517.0294614999998,517.0294614999998,517.0294614999998,517.3128284999998,518.7457467999998,518.7624296999998,518.7624296999998,518.7624296999998,518.7624296999998,518.7624296999998,518.7624296999998,518.7624296999998,518.7624296999998,518.7624296999998,518.7624296999998,518.7624296999998,518.7624296999998,518.7624296999998,520.4934343999998,520.4934343999998,520.4934343999998,520.4934343999998,520.4934343999998,520.4934343999998,520.4934343999998,46,38,42,48,46,70,520.4934343999998,522.2610530000002,,,,,,,,,,,,３１６,f,１９,2023-05-19_09h06.43.900,RL,2022.2.5,60.07925655528259,
39,35,55,45,0,84,84,84,,,,,,,,None,522.2610530000002,522.2610530000002,522.2610530000002,522.2610530000002,522.2610530000002,522.2610530000002,i,0.6807202999998481,522.9618399999999,522.9618399999999,522.9618399999999,522.9618399999999,522.9618399999999,522.9618399999999,523.2616634999999,525.1111704,525.1111704,525.1111704,525.1111704,525.1111704,525.1111704,525.1111704,525.1111704,525.1111704,525.1111704,525.1111704,525.1111704,525.1111704,525.1111704,527.2588802,527.2588802,527.2588802,527.2588802,527.2588802,527.2588802,527.2588802,55,35,39,45,39,70,527.2588802,528.9600120999999,,,,,,,,,,,,３１６,f,１９,2023-05-19_09h06.43.900,RL,2022.2.5,60.07925655528259,
40,26,49,36,0,85,85,85,,,,,,,,None,528.9600120999999,528.9600120999999,528.9600120999999,528.9600120999999,528.9600120999999,528.9600120999999,r,0.40632849999974496,529.3956877,529.3956877,529.3956877,529.3956877,529.3956877,529.3956877,529.6932477999999,531.2935590000002,531.2935590000002,531.2935590000002,531.2935590000002,531.2935590000002,531.2935590000002,531.2935590000002,531.2935590000002,531.2935590000002,531.2935590000002,531.2935590000002,531.2935590000002,531.2935590000002,531.2935590000002,533.1916504000001,533.1916504000001,533.1916504000001,533.1916504000001,533.1916504000001,533.1916504000001,533.1916504000001,49,26,40,36,26,70,533.1916504000001,534.7254849999999,,,,,,,,,,,,３１６,f,１９,2023-05-19_09h06.43.900,RL,2022.2.5,60.07925655528259,
43,31,56,56,0,86,86,86,,,,,,,,None,534.7254849999999,534.7254849999999,534.7254849999999,534.7254849999999,534.7254849999999,534.7254849999999,j,0.7976469999998699,535.5430064000002,535.5430064000002,535.5430064000002,535.5430064000002,535.5430064000002,535.5430064000002,535.8262516999998,537.2426283999998,537.2589837,537.2589837,537.2589837,537.2589837,537.2589837,537.2589837,537.2589837,537.2589837,537.2589837,537.2589837,537.2589837,537.2589837,537.2589837,538.9737479,538.9737479,538.9737479,538.9737479,538.9737479,538.9737479,538.9737479,56,31,43,56,56,70,538.9737479,540.9580116000002,,,,,,,,,,,,３１６,f,１９,2023-05-19_09h06.43.900,RL,2022.2.5,60.07925655528259,
44,34,52,51,0,87,87,87,,,,,,,,None,540.9580116000002,540.9580116000002,540.9580116000002,540.9580116000002,540.9580116000002,540.9580116000002,j,0.39858410000033473,541.3754594000002,541.3754594000002,541.3754594000002,541.3754594000002,541.3754594000002,541.3754594000002,541.6582143,543.0583594999998,543.0749332999999,543.0749332999999,543.0749332999999,543.0749332999999,543.0749332999999,543.0749332999999,543.0749332999999,543.0749332999999,543.0749332999999,543.0749332999999,543.0749332999999,543.0749332999999,543.0749332999999,544.7727097000002,544.7727097000002,544.7727097000002,544.7727097000002,544.7727097000002,544.7727097000002,544.7727097000002,52,34,44,51,51,70,544.7727097000002,546.7237819000002,,,,,,,,,,,,３１６,f,１９,2023-05-19_09h06.43.900,RL,2022.2.5,60.07925655528259,
39,30,57,46,0,88,88,88,,,,,,,,None,546.7237819000002,546.7237819000002,546.7237819000002,546.7237819000002,546.7237819000002,546.7237819000002,f,0.28075129999979254,547.0247042999999,547.0247042999999,547.0247042999999,547.0247042999999,547.0247042999999,547.0247042999999,547.3236747999999,548.773964,548.773964,548.773964,548.773964,548.773964,548.773964,548.773964,548.773964,548.773964,548.773964,548.773964,548.773964,548.773964,548.773964,550.5215693,550.5215693,550.5215693,550.5215693,550.5215693,550.5215693,550.5215693,57,30,39,46,57,70,550.5215693,552.2061905999999,,,,,,,,,,,,３１６,f,１９,2023-05-19_09h06.43.900,RL,2022.2.5,60.07925655528259,
41,30,59,57,0,89,89,89,,,,,,,,None,552.2061905999999,552.2061905999999,552.2061905999999,552.2061905999999,552.2061905999999,552.2061905999999,f,0.433576500000072,552.6564849000001,552.6564849000001,552.6564849000001,552.6564849000001,552.6564849000001,552.6564849000001,552.9566798000001,553.9730407000002,553.9730407000002,553.9730407000002,553.9730407000002,553.9730407000002,553.9730407000002,553.9730407000002,553.9730407000002,553.9730407000002,553.9730407000002,553.9730407000002,553.9730407000002,553.9730407000002,553.9730407000002,555.287417,555.287417,555.287417,555.287417,555.287417,555.287417,555.287417,59,30,41,57,59,70,555.287417,556.8890148,,,,,,,,,,,,３１６,f,１９,2023-05-19_09h06.43.900,RL,2022.2.5,60.07925655528259,
40,35,62,53,0,90,90,90,,,,,,,,None,556.8890148,556.8890148,556.8890148,556.8890148,556.8890148,556.8890148,f,0.27433780000001207,557.1923148000001,557.1923148000001,557.1923148000001,557.1923148000001,557.1923148000001,557.1923148000001,557.4723023000001,558.6718543000002,558.6883698000001,558.6883698000001,558.6883698000001,558.6883698000001,558.6883698000001,558.6883698000001,558.6883698000001,558.6883698000001,558.6883698000001,558.6883698000001,558.6883698000001,558.6883698000001,558.6883698000001,560.1866716,560.1866716,560.1866716,560.1866716,560.1866716,560.1866716,560.1866716,62,35,40,53,62,70,560.1866716,562.1047202999998,,,,,,,,,,,,３１６,f,１９,2023-05-19_09h06.43.900,RL,2022.2.5,60.07925655528259,
47,49,54,53,0,91,91,91,,,,,,,,None,562.1047202999998,562.1047202999998,562.1047202999998,562.1047202999998,562.1047202999998,562.1047202999998,f,0.2895835000003899,562.4239478999998,562.4239478999998,562.4239478999998,562.4239478999998,562.4239478999998,562.4239478999998,562.7213928000001,563.9873997999998,563.9873997999998,563.9873997999998,563.9873997999998,563.9873997999998,563.9873997999998,563.9873997999998,563.9873997999998,563.9873997999998,563.9873997999998,563.9873997999998,563.9873997999998,563.9873997999998,563.9873997999998,565.5527010999999,565.5527010999999,565.5527010999999,565.5527010999999,565.5527010999999,565.5527010999999,565.5527010999999,54,49,47,53,54,70,565.5527010999999,567.2198978000001,,,,,,,,,,,,３１６,f,１９,2023-05-19_09h06.43.900,RL,2022.2.5,60.07925655528259,
48,40,58,54,0,92,92,92,,,,,,,,None,567.2198978000001,567.2198978000001,567.2198978000001,567.2198978000001,567.2198978000001,567.2198978000001,r,0.3401668999999856,567.5873628999998,567.5873628999998,567.5873628999998,567.5873628999998,567.5873628999998,567.5873628999998,567.8701860000001,568.9036528000001,568.9201871999999,568.9201871999999,568.9201871999999,568.9201871999999,568.9201871999999,568.9201871999999,568.9201871999999,568.9201871999999,568.9201871999999,568.9201871999999,568.9201871999999,568.9201871999999,568.9201871999999,570.2515767,570.2515767,570.2515767,570.2515767,570.2515767,570.2515767,570.2515767,58,40,48,54,40,70,570.2515767,571.9862942999998,,,,,,,,,,,,３１６,f,１９,2023-05-19_09h06.43.900,RL,2022.2.5,60.07925655528259,
46,39,67,47,0,93,93,93,,,,,,,,None,571.9862942999998,571.9862942999998,571.9862942999998,571.9862942999998,571.9862942999998,571.9862942999998,j,0.35203520000004573,572.3699722000001,572.3699722000001,572.3699722000001,572.3699722000001,572.3699722000001,572.3699722000001,572.6528097999999,573.5697650000002,573.5860705999999,573.5860705999999,573.5860705999999,573.5860705999999,573.5860705999999,573.5860705999999,573.5860705999999,573.5860705999999,573.5860705999999,573.5860705999999,573.5860705999999,573.5860705999999,573.5860705999999,574.8005789999997,574.8005789999997,574.8005789999997,574.8005789999997,574.8005789999997,574.8005789999997,574.8005789999997,67,39,46,47,47,70,574.8005789999997,576.7517282999997,,,,,,,,,,,,３１６,f,１９,2023-05-19_09h06.43.900,RL,2022.2.5,60.07925655528259,
40,38,60,48,0,94,94,94,,,,,,,,None,576.7517282999997,576.7517282999997,576.7517282999997,576.7517282999997,576.7517282999997,576.7517282999997,f,0.27679269999998724,577.0523579000001,577.0523579000001,577.0523579000001,577.0523579000001,577.0523579000001,577.0523579000001,577.3357403,578.4522858,578.4684115,578.4684115,578.4684115,578.4684115,578.4684115,578.4684115,578.4684115,578.4684115,578.4684115,578.4684115,578.4684115,578.4684115,578.4684115,579.8835989999998,579.8835989999998,579.8835989999998,579.8835989999998,579.8835989999998,579.8835989999998,579.8835989999998,60,38,40,48,60,70,579.8835989999998,581.7011520000001,,,,,,,,,,,,３１６,f,１９,2023-05-19_09h06.43.900,RL,2022.2.5,60.07925655528259,
38,42,60,48,0,95,95,95,,,,,,,,None,581.7011520000001,581.7011520000001,581.7011520000001,581.7011520000001,581.7011520000001,581.7011520000001,i,0.4102505000000747,582.1347738,582.1347738,582.1347738,582.1347738,582.1347738,582.1347738,582.4180703000002,584.1010004999998,584.1175146999999,584.1175146999999,584.1175146999999,584.1175146999999,584.1175146999999,584.1175146999999,584.1175146999999,584.1175146999999,584.1175146999999,584.1175146999999,584.1175146999999,584.1175146999999,584.1175146999999,586.0991118000002,586.0991118000002,586.0991118000002,586.0991118000002,586.0991118000002,586.0991118000002,586.0991118000002,60,42,38,48,38,70,586.0991118000002,588.0497802999998,,,,,,,,,,,,３１６,f,１９,2023-05-19_09h06.43.900,RL,2022.2.5,60.07925655528259,
35,42,61,40,0,96,96,96,,,,,,,,None,588.0497802999998,588.0497802999998,588.0497802999998,588.0497802999998,588.0497802999998,588.0497802999998,f,0.3414239999997335,588.4186325999999,588.4186325999999,588.4186325999999,588.4186325999999,588.4186325999999,588.4186325999999,588.7002189999998,589.6663168999999,589.6831877999998,589.6831877999998,589.6831877999998,589.6831877999998,589.6831877999998,589.6831877999998,589.6831877999998,589.6831877999998,589.6831877999998,589.6831877999998,589.6831877999998,589.6831877999998,589.6831877999998,590.9479577000002,590.9479577000002,590.9479577000002,590.9479577000002,590.9479577000002,590.9479577000002,590.9479577000002,61,42,35,40,61,70,590.9479577000002,592.5489919000001,,,,,,,,,,,,３１６,f,１９,2023-05-19_09h06.43.900,RL,2022.2.5,60.07925655528259,
36,46,52,47,0,97,97,97,,,,,,,,None,592.5489919000001,592.5489919000001,592.5489919000001,592.5489919000001,592.5489919000001,592.5489919000001,f,0.2739548000004106,592.8494996,592.8494996,592.8494996,592.8494996,592.8494996,592.8494996,593.1327284999998,594.9988632,595.0157331,595.0157331,595.0157331,595.0157331,595.0157331,595.0157331,595.0157331,595.0157331,595.0157331,595.0157331,595.0157331,595.0157331,595.0157331,597.1804305,597.1804305,597.1804305,597.1804305,597.1804305,597.1804305,597.1804305,52,46,36,47,52,70,597.1804305,599.1814189000002,,,,,,,,,,,,３１６,f,１９,2023-05-19_09h06.43.900,RL,2022.2.5,60.07925655528259,
44,45,69,46,0,98,98,98,,,,,,,,None,599.1814189000002,599.1814189000002,599.1814189000002,599.1814189000002,599.1814189000002,599.1814189000002,f,0.2395664000000579,599.4501525999999,599.4501525999999,599.4501525999999,599.4501525999999,599.4501525999999,599.4501525999999,599.7319889,601.6982570999999,601.7144813999998,601.7144813999998,601.7144813999998,601.7144813999998,601.7144813999998,601.7144813999998,601.7144813999998,601.7144813999998,601.7144813999998,601.7144813999998,601.7144813999998,601.7144813999998,601.7144813999998,603.9791884000001,603.9791884000001,603.9791884000001,603.9791884000001,603.9791884000001,603.9791884000001,603.9791884000001,69,45,44,46,69,70,603.9791884000001,605.8298868000002,,,,,,,,,,,,３１６,f,１９,2023-05-19_09h06.43.900,RL,2022.2.5,60.07925655528259,
37,48,71,45,0,99,99,99,,,,,,,,None,605.8298868000002,605.8298868000002,605.8298868000002,605.8298868000002,605.8298868000002,605.8298868000002,f,0.32125230000019656,606.1828145999998,606.1828145999998,606.1828145999998,606.1828145999998,606.1828145999998,606.1828145999998,606.4802543000001,607.3468527999999,607.3468527999999,607.3468527999999,607.3468527999999,607.3468527999999,607.3468527999999,607.3468527999999,607.3468527999999,607.3468527999999,607.3468527999999,607.3468527999999,607.3468527999999,607.3468527999999,607.3468527999999,608.5115655,608.5115655,608.5115655,608.5115655,608.5115655,608.5115655,608.5115655,71,48,37,45,71,70,608.5115655,610.2462768,,,,,,,,,,,,３１６,f,１９,2023-05-19_09h06.43.900,RL,2022.2.5,60.07925655528259,
45,51,63,47,0,100,100,100,,,,,,,,None,610.2462768,610.2462768,610.2462768,610.2462768,610.2462768,610.2462768,f,0.256360400000176,610.5322947999998,610.5322947999998,610.5322947999998,610.5322947999998,610.5322947999998,610.5322947999998,610.8126778000001,611.7795394,611.7960051,611.7960051,611.7960051,611.7960051,611.7960051,611.7960051,611.7960051,611.7960051,611.7960051,611.7960051,611.7960051,611.7960051,611.7960051,613.0608320000001,613.0608320000001,613.0608320000001,613.0608320000001,613.0608320000001,613.0608320000001,613.0608320000001,63,51,45,47,63,70,613.0608320000001,614.7618969999999,,,,,,,,,,,,３１６,f,１９,2023-05-19_09h06.43.900,RL,2022.2.5,60.07925655528259,
42,56,58,40,0,101,101,101,,,,,,,,None,614.7618969999999,614.7618969999999,614.7618969999999,614.7618969999999,614.7618969999999,614.7618969999999,f,0.27991789999987304,615.0655858,615.0655858,615.0655858,615.0655858,615.0655858,615.0655858,615.3626562,616.2284104999999,616.2284104999999,616.2284104999999,616.2284104999999,616.2284104999999,616.2284104999999,616.2284104999999,616.2284104999999,616.2284104999999,616.2284104999999,616.2284104999999,616.2284104999999,616.2284104999999,616.2284104999999,617.393646,617.393646,617.393646,617.393646,617.393646,617.393646,617.393646,58,56,42,40,58,70,617.393646,619.3776524,,,,,,,,,,,,３１６,f,１９,2023-05-19_09h06.43.900,RL,2022.2.5,60.07925655528259,
39,43,63,45,0,102,102,102,,,,,,,,None,619.3776524,619.3776524,619.3776524,619.3776524,619.3776524,619.3776524,f,0.2984821000000011,619.6967064999999,619.6967064999999,619.6967064999999,619.6967064999999,619.6967064999999,619.6967064999999,619.9947910999999,621.7444617000001,621.7444617000001,621.7444617000001,621.7444617000001,621.7444617000001,621.7444617000001,621.7444617000001,621.7444617000001,621.7444617000001,621.7444617000001,621.7444617000001,621.7444617000001,621.7444617000001,621.7444617000001,623.7925117999998,623.7925117999998,623.7925117999998,623.7925117999998,623.7925117999998,623.7925117999998,623.7925117999998,63,43,39,45,63,70,623.7925117999998,625.7436585,,,,,,,,,,,,３１６,f,１９,2023-05-19_09h06.43.900,RL,2022.2.5,60.07925655528259,
39,42,58,46,0,103,103,103,,,,,,,,None,625.7436585,625.7436585,625.7436585,625.7436585,625.7436585,625.7436585,f,0.2644178999998985,626.0298137999998,626.0298137999998,626.0298137999998,626.0298137999998,626.0298137999998,626.0298137999998,626.3103351999998,627.5933521000002,627.6100041,627.6100041,627.6100041,627.6100041,627.6100041,627.6100041,627.6100041,627.6100041,627.6100041,627.6100041,627.6100041,627.6100041,627.6100041,629.1912748999998,629.1912748999998,629.1912748999998,629.1912748999998,629.1912748999998,629.1912748999998,629.1912748999998,58,42,39,46,58,70,629.1912748999998,631.0091394000001,,,,,,,,,,,,３１６,f,１９,2023-05-19_09h06.43.900,RL,2022.2.5,60.07925655528259,
33,46,52,35,0,104,104,104,,,,,,,,None,631.0091394000001,631.0091394000001,631.0091394000001,631.0091394000001,631.0091394000001,631.0091394000001,f,0.3174564000000828,631.3643499999998,631.3643499999998,631.3643499999998,631.3643499999998,631.3643499999998,631.3643499999998,631.659114,633.3587489000001,633.3587489000001,633.3587489000001,633.3587489000001,633.3587489000001,633.3587489000001,633.3587489000001,633.3587489000001,633.3587489000001,633.3587489000001,633.3587489000001,633.3587489000001,633.3587489000001,633.3587489000001,635.3571573999998,635.3571573999998,635.3571573999998,635.3571573999998,635.3571573999998,635.3571573999998,635.3571573999998,52,46,33,35,52,70,635.3571573999998,636.9412326000001,,,,,,,,,,,,３１６,f,１９,2023-05-19_09h06.43.900,RL,2022.2.5,60.07925655528259,
38,32,47,47,0,105,105,105,,,,,,,,None,636.9412326000001,636.9412326000001,636.9412326000001,636.9412326000001,636.9412326000001,636.9412326000001,f,0.43911300000036135,637.4105365999999,637.4105365999999,637.4105365999999,637.4105365999999,637.4105365999999,637.4105365999999,637.7085726999999,638.5412867,638.5578224999999,638.5578224999999,638.5578224999999,638.5578224999999,638.5578224999999,638.5578224999999,638.5578224999999,638.5578224999999,638.5578224999999,638.5578224999999,638.5578224999999,638.5578224999999,638.5578224999999,639.6895070999999,639.6895070999999,639.6895070999999,639.6895070999999,639.6895070999999,639.6895070999999,639.6895070999999,47,32,38,47,47,70,639.6895070999999,641.3403484,,,,,,,,,,,,３１６,f,１９,2023-05-19_09h06.43.900,RL,2022.2.5,60.07925655528259,
39,41,56,45,0,106,106,106,,,,,,,,None,641.3403484,641.3403484,641.3403484,641.3403484,641.3403484,641.3403484,j,0.3531465000000935,641.7246658999998,641.7246658999998,641.7246658999998,641.7246658999998,641.7246658999998,641.7246658999998,642.024038,643.3072520000001,643.3072520000001,643.3072520000001,643.3072520000001,643.3072520000001,643.3072520000001,643.3072520000001,643.3072520000001,643.3072520000001,643.3072520000001,643.3072520000001,643.3072520000001,643.3072520000001,643.3072520000001,644.8887194999998,644.8887194999998,644.8887194999998,644.8887194999998,644.8887194999998,644.8887194999998,644.8887194999998,56,41,39,45,45,70,644.8887194999998,646.7065262000001,,,,,,,,,,,,３１６,f,１９,2023-05-19_09h06.43.900,RL,2022.2.5,60.07925655528259,
48,36,48,42,0,107,107,107,,,,,,,,None,646.7065262000001,646.7065262000001,646.7065262000001,646.7065262000001,646.7065262000001,646.7065262000001,f,0.31175020000000586,647.0399806,647.0399806,647.0399806,647.0399806,647.0399806,647.0399806,647.3235786999999,649.2897942999998,649.3064979999999,649.3064979999999,649.3064979999999,649.3064979999999,649.3064979999999,649.3064979999999,649.3064979999999,649.3064979999999,649.3064979999999,649.3064979999999,649.3064979999999,649.3064979999999,649.3064979999999,651.5710383999999,651.5710383999999,651.5710383999999,651.5710383999999,651.5710383999999,651.5710383999999,651.5710383999999,48,36,48,42,48,70,651.5710383999999,653.1721382999999,,,,,,,,,,,,３１６,f,１９,2023-05-19_09h06.43.900,RL,2022.2.5,60.07925655528259,
38,40,51,42,0,108,108,108,,,,,,,,None,653.1721382999999,653.1721382999999,653.1721382999999,653.1721382999999,653.1721382999999,653.1721382999999,r,0.3202505000003839,653.5255808000002,653.5255808000002,653.5255808000002,653.5255808000002,653.5255808000002,653.5255808000002,653.8225259000001,655.1048713999999,655.1048713999999,655.1048713999999,655.1048713999999,655.1048713999999,655.1048713999999,655.1048713999999,655.1048713999999,655.1048713999999,655.1048713999999,655.1048713999999,655.1048713999999,655.1048713999999,655.1048713999999,656.6864516,656.6864516,656.6864516,656.6864516,656.6864516,656.6864516,656.6864516,51,40,38,42,40,70,656.6864516,658.4043790000001,,,,,,,,,,,,３１６,f,１９,2023-05-19_09h06.43.900,RL,2022.2.5,60.07925655528259,
33,39,68,40,0,109,109,109,,,,,,,,None,658.4043790000001,658.4043790000001,658.4043790000001,658.4043790000001,658.4043790000001,658.4043790000001,j,0.3102853000000323,658.7408759999998,658.7408759999998,658.7408759999998,658.7408759999998,658.7408759999998,658.7408759999998,659.0216009999999,660.8540321999999,660.8876515000002,660.8876515000002,660.8876515000002,660.8876515000002,660.8876515000002,660.8876515000002,660.8876515000002,660.8876515000002,660.8876515000002,660.8876515000002,660.8876515000002,660.8876515000002,660.8876515000002,663.0185415999999,663.0185415999999,663.0185415999999,663.0185415999999,663.0185415999999,663.0185415999999,663.0185415999999,68,39,33,40,40,70,663.0185415999999,664.9197874000001,,,,,,,,,,,,３１６,f,１９,2023-05-19_09h06.43.900,RL,2022.2.5,60.07925655528259,
36,32,49,46,0,110,110,110,,,,,,,,None,664.9197874000001,664.9197874000001,664.9197874000001,664.9197874000001,664.9197874000001,664.9197874000001,i,0.41206719999991037,665.3545727999999,665.3545727999999,665.3545727999999,665.3545727999999,665.3545727999999,665.3545727999999,665.6369089999998,666.8028924999999,666.8199165000001,666.8199165000001,666.8199165000001,666.8199165000001,666.8199165000001,666.8199165000001,666.8199165000001,666.8199165000001,666.8199165000001,666.8199165000001,666.8199165000001,666.8199165000001,666.8199165000001,668.2846909999998,668.2846909999998,668.2846909999998,668.2846909999998,668.2846909999998,668.2846909999998,668.2846909999998,49,32,36,46,36,70,668.2846909999998,670.1024216000001,,,,,,,,,,,,３１６,f,１９,2023-05-19_09h06.43.900,RL,2022.2.5,60.07925655528259,
37,44,58,36,0,111,111,111,,,,,,,,None,670.1024216000001,670.1024216000001,670.1024216000001,670.1024216000001,670.1024216000001,670.1024216000001,f,0.2966544000000795,670.4213111999998,670.4213111999998,670.4213111999998,670.4213111999998,670.4213111999998,670.4213111999998,670.7026805,671.9856012,672.0022288999999,672.0022288999999,672.0022288999999,672.0022288999999,672.0022288999999,672.0022288999999,672.0022288999999,672.0022288999999,672.0022288999999,672.0022288999999,672.0022288999999,672.0022288999999,672.0022288999999,673.5836602999998,673.5836602999998,673.5836602999998,673.5836602999998,673.5836602999998,673.5836602999998,673.5836602999998,58,44,37,36,58,70,673.5836602999998,675.4176465,,,,,,,,,,,,３１６,f,１９,2023-05-19_09h06.43.900,RL,2022.2.5,60.07925655528259,
47,42,55,35,0,112,112,112,,,,,,,,None,675.4176465,675.4176465,675.4176465,675.4176465,675.4176465,675.4176465,f,0.2878248000001804,675.7355284,675.7355284,675.7355284,675.7355284,675.7355284,675.7355284,676.0186118000001,677.0514752999998,677.0677500000002,677.0677500000002,677.0677500000002,677.0677500000002,677.0677500000002,677.0677500000002,677.0677500000002,677.0677500000002,677.0677500000002,677.0677500000002,677.0677500000002,677.0677500000002,677.0677500000002,678.3995648,678.3995648,678.3995648,678.3995648,678.3995648,678.3995648,678.3995648,55,42,47,35,55,70,678.3995648,680.2504585000001,,,,,,,,,,,,３１６,f,１９,2023-05-19_09h06.43.900,RL,2022.2.5,60.07925655528259,
47,49,52,37,0,113,113,113,,,,,,,,None,680.2504585000001,680.2504585000001,680.2504585000001,680.2504585000001,680.2504585000001,680.2504585000001,f,0.33897750000005544,680.6175475,680.6175475,680.6175475,680.6175475,680.6175475,680.6175475,680.9005880999998,682.2505790999999,682.2673485,682.2673485,682.2673485,682.2673485,682.2673485,682.2673485,682.2673485,682.2673485,682.2673485,682.2673485,682.2673485,682.2673485,682.2673485,683.9151511,683.9151511,683.9151511,683.9151511,683.9151511,683.9151511,683.9151511,52,49,47,37,52,70,683.9151511,685.6660277000001,,,,,,,,,,,,３１６,f,１９,2023-05-19_09h06.43.900,RL,2022.2.5,60.07925655528259,
42,37,56,40,0,114,114,114,,,,,,,,None,685.6660277000001,685.6660277000001,685.6660277000001,685.6660277000001,685.6660277000001,685.6660277000001,r,0.2878422999997383,685.984383,685.984383,685.984383,685.984383,685.984383,685.984383,686.2830018,688.2165617999999,688.2331239,688.2331239,688.2331239,688.2331239,688.2331239,688.2331239,688.2331239,688.2331239,688.2331239,688.2331239,688.2331239,688.2331239,688.2331239,690.4641123000001,690.4641123000001,690.4641123000001,690.4641123000001,690.4641123000001,690.4641123000001,690.4641123000001,56,37,42,40,37,70,690.4641123000001,692.0981265,,,,,,,,,,,,３１６,f,１９,2023-05-19_09h06.43.900,RL,2022.2.5,60.07925655528259,
36,56,62,34,0,115,115,115,,,,,,,,None,692.0981265,692.0981265,692.0981265,692.0981265,692.0981265,692.0981265,f,0.31286009999985254,692.4331665999998,692.4331665999998,692.4331665999998,692.4331665999998,692.4331665999998,692.4331665999998,692.7158537,694.6650411999999,694.6817486999998,694.6817486999998,694.6817486999998,694.6817486999998,694.6817486999998,694.6817486999998,694.6817486999998,694.6817486999998,694.6817486999998,694.6817486999998,694.6817486999998,694.6817486999998,694.6817486999998,696.9294301999998,696.9294301999998,696.9294301999998,696.9294301999998,696.9294301999998,696.9294301999998,696.9294301999998,62,56,36,34,62,70,696.9294301999998,698.7807465999999,,,,,,,,,,,,３１６,f,１９,2023-05-19_09h06.43.900,RL,2022.2.5,60.07925655528259,
58,48,62,34,0,116,116,116,,,,,,,,None,698.7807465999999,698.7807465999999,698.7807465999999,698.7807465999999,698.7807465999999,698.7807465999999,f,0.29809209999984887,699.0978875000001,699.0978875000001,699.0978875000001,699.0978875000001,699.0978875000001,699.0978875000001,699.3811492999998,700.7143655999998,700.7306770999999,700.7306770999999,700.7306770999999,700.7306770999999,700.7306770999999,700.7306770999999,700.7306770999999,700.7306770999999,700.7306770999999,700.7306770999999,700.7306770999999,700.7306770999999,700.7306770999999,702.3620172999999,702.3620172999999,702.3620172999999,702.3620172999999,702.3620172999999,702.3620172999999,702.3620172999999,62,48,58,34,62,70,702.3620172999999,704.3464211,,,,,,,,,,,,３１６,f,１９,2023-05-19_09h06.43.900,RL,2022.2.5,60.07925655528259,
49,46,60,35,0,117,117,117,,,,,,,,None,704.3464211,704.3464211,704.3464211,704.3464211,704.3464211,704.3464211,f,0.7709285000000818,705.1471793000001,705.1471793000001,705.1471793000001,705.1471793000001,705.1471793000001,705.1471793000001,705.4298755999998,707.0294626,707.0626695999999,707.0626695999999,707.0626695999999,707.0626695999999,707.0626695999999,707.0626695999999,707.0626695999999,707.0626695999999,707.0626695999999,707.0626695999999,707.0626695999999,707.0626695999999,707.0626695999999,708.9610374999997,708.9610374999997,708.9610374999997,708.9610374999997,708.9610374999997,708.9610374999997,708.9610374999997,60,46,49,35,60,70,708.9610374999997,710.9282687999998,,,,,,,,,,,,３１６,f,１９,2023-05-19_09h06.43.900,RL,2022.2.5,60.07925655528259,
56,47,61,36,0,118,118,118,,,,,,,,None,710.9282687999998,710.9282687999998,710.9282687999998,710.9282687999998,710.9282687999998,710.9282687999998,f,0.2994725999997172,711.2470558999999,711.2470558999999,711.2470558999999,711.2470558999999,711.2470558999999,711.2470558999999,711.5288592000002,712.6950705999998,712.7116682000001,712.7116682000001,712.7116682000001,712.7116682000001,712.7116682000001,712.7116682000001,712.7116682000001,712.7116682000001,712.7116682000001,712.7116682000001,712.7116682000001,712.7116682000001,712.7116682000001,714.1762654999998,714.1762654999998,714.1762654999998,714.1762654999998,714.1762654999998,714.1762654999998,714.1762654999998,61,47,56,36,61,70,714.1762654999998,715.8273623999999,,,,,,,,,,,,３１６,f,１９,2023-05-19_09h06.43.900,RL,2022.2.5,60.07925655528259,
54,62,56,38,0,119,119,119,,,,,,,,None,715.8273623999999,715.8273623999999,715.8273623999999,715.8273623999999,715.8273623999999,715.8273623999999,f,0.2765457000000424,716.1280535000001,716.1280535000001,716.1280535000001,716.1280535000001,716.1280535000001,716.1280535000001,716.4110117999999,717.8609004,717.8945107999998,717.8945107999998,717.8945107999998,717.8945107999998,717.8945107999998,717.8945107999998,717.8945107999998,717.8945107999998,717.8945107999998,717.8945107999998,717.8945107999998,717.8945107999998,717.8945107999998,719.6587866,719.6587866,719.6587866,719.6587866,719.6587866,719.6587866,719.6587866,56,62,54,38,56,70,719.6587866,721.3763493000001,,,,,,,,,,,,３１６,f,１９,2023-05-19_09h06.43.900,RL,2022.2.5,60.07925655528259,
55,49,62,40,0,120,120,120,,,,,,,,None,721.3763493000001,721.3763493000001,721.3763493000001,721.3763493000001,721.3763493000001,721.3763493000001,f,0.2920910999996522,721.6959044,721.6959044,721.6959044,721.6959044,721.6959044,721.6959044,721.9934158000001,723.9766110999999,723.9766110999999,723.9766110999999,723.9766110999999,723.9766110999999,723.9766110999999,723.9766110999999,723.9766110999999,723.9766110999999,723.9766110999999,723.9766110999999,723.9766110999999,723.9766110999999,723.9766110999999,726.257897,726.257897,726.257897,726.257897,726.257897,726.257897,726.257897,62,49,55,40,62,70,726.257897,727.9587333999998,,,,,,,,,,,,３１６,f,１９,2023-05-19_09h06.43.900,RL,2022.2.5,60.07925655528259,
46,42,64,41,0,121,121,121,,,,,,,,None,727.9587333999998,727.9587333999998,727.9587333999998,727.9587333999998,727.9587333999998,727.9587333999998,f,0.6843705000001137,728.6762813999999,728.6762813999999,728.6762813999999,728.6762813999999,728.6762813999999,728.6762813999999,728.9590947000002,729.9758425,729.9923024,729.9923024,729.9923024,729.9923024,729.9923024,729.9923024,729.9923024,729.9923024,729.9923024,729.9923024,729.9923024,729.9923024,729.9923024,731.3067474,731.3067474,731.3067474,731.3067474,731.3067474,731.3067474,731.3067474,64,42,46,41,64,70,731.3067474,733.1412692999997,,,,,,,,,,,,３１６,f,１９,2023-05-19_09h06.43.900,RL,2022.2.5,60.07925655528259,
58,54,66,44,0,122,122,122,,,,,,,,None,733.1412692999997,733.1412692999997,733.1412692999997,733.1412692999997,733.1412692999997,733.1412692999997,f,0.7218911999998454,733.8925932000002,733.8925932000002,733.8925932000002,733.8925932000002,733.8925932000002,733.8925932000002,734.1912173999999,735.8743248000001,735.8743248000001,735.8743248000001,735.8743248000001,735.8743248000001,735.8743248000001,735.8743248000001,735.8743248000001,735.8743248000001,735.8743248000001,735.8743248000001,735.8743248000001,735.8743248000001,735.8743248000001,737.8559584,737.8559584,737.8559584,737.8559584,737.8559584,737.8559584,737.8559584,66,54,58,44,66,70,737.8559584,739.5404912999998,,,,,,,,,,,,３１６,f,１９,2023-05-19_09h06.43.900,RL,2022.2.5,60.07925655528259,
59,56,60,45,0,123,123,123,,,,,,,,None,739.5404912999998,739.5404912999998,739.5404912999998,739.5404912999998,739.5404912999998,739.5404912999998,f,0.30406760000005306,739.8737382999998,739.8737382999998,739.8737382999998,739.8737382999998,739.8737382999998,739.8737382999998,740.1569746,741.4569646999998,741.4733956999999,741.4733956999999,741.4733956999999,741.4733956999999,741.4733956999999,741.4733956999999,741.4733956999999,741.4733956999999,741.4733956999999,741.4733956999999,741.4733956999999,741.4733956999999,741.4733956999999,743.0717593999998,743.0717593999998,743.0717593999998,743.0717593999998,743.0717593999998,743.0717593999998,743.0717593999998,60,56,59,45,60,70,743.0717593999998,745.0560811,,,,,,,,,,,,３１６,f,１９,2023-05-19_09h06.43.900,RL,2022.2.5,60.07925655528259,
44,54,68,37,0,124,124,124,,,,,,,,None,745.0560811,745.0560811,745.0560811,745.0560811,745.0560811,745.0560811,f,0.27543500000001586,745.3584685000001,745.3584685000001,745.3584685000001,745.3584685000001,745.3584685000001,745.3584685000001,745.6562607999999,747.605525,747.605525,747.605525,747.605525,747.605525,747.605525,747.605525,747.605525,747.605525,747.605525,747.605525,747.605525,747.605525,747.605525,749.8536442999998,749.8536442999998,749.8536442999998,749.8536442999998,749.8536442999998,749.8536442999998,749.8536442999998,68,54,44,37,68,70,749.8536442999998,751.7714083999999,,,,,,,,,,,,３１６,f,１９,2023-05-19_09h06.43.900,RL,2022.2.5,60.07925655528259,
48,57,50,35,0,125,125,125,,,,,,,,None,751.7714083999999,751.7714083999999,751.7714083999999,751.7714083999999,751.7714083999999,751.7714083999999,f,0.3285206999998991,752.1218423999999,752.1218423999999,752.1218423999999,752.1218423999999,752.1218423999999,752.1218423999999,752.4050791,754.3717366000001,754.3880288999999,754.3880288999999,754.3880288999999,754.3880288999999,754.3880288999999,754.3880288999999,754.3880288999999,754.3880288999999,754.3880288999999,754.3880288999999,754.3880288999999,754.3880288999999,754.3880288999999,756.6522853000001,756.6522853000001,756.6522853000001,756.6522853000001,756.6522853000001,756.6522853000001,756.6522853000001,50,57,48,35,50,70,756.6522853000001,758.3203920999999,,,,,,,,,,,,３１６,f,１９,2023-05-19_09h06.43.900,RL,2022.2.5,60.07925655528259,
