arm1,arm2,arm3,arm4,trials.thisRepN,trials.thisTrialN,trials.thisN,trials.thisIndex,instru_img1.started,instru_resp.started,instru_resp.keys,instru_resp.rt,image_2.started,text_2.started,image_2.stopped,text_2.stopped,fixbefore_2.started,fixbefore_2.stopped,rest_response.keys,red.started,green.started,yellow.started,blue.started,choose_bandit.started,Fixation.started,choose_bandit.keys,choose_bandit.rt,black.started,red_2.started,green_2.started,yellow_2.started,blue_2.started,fixation_2.started,docs.started,docs.stopped,black.stopped,red_2.stopped,green_2.stopped,yellow_2.stopped,blue_2.stopped,fixation_2.stopped,black_com.started,reward_sub.started,reward__sub.started,red_compare.started,green_com.started,yellow_com.started,blue_com.started,black_com.stopped,reward_sub.stopped,reward__sub.stopped,red_compare.stopped,green_com.stopped,yellow_com.stopped,blue_com.stopped,rewardred,rewardyellow,rewardblue,rewardgreen,subchoose,expectation,intertrialfix.started,intertrialfix.stopped,rest_image.started,rest_response.started,rest_response.rt,image_expect_after.started,text_exp_after.started,image_expect_after.stopped,text_exp_after.stopped,red.stopped,green.stopped,yellow.stopped,blue.stopped,choose_bandit.stopped,Fixation.stopped,bigx.started,bigx.stopped,image.started,key_resp.started,key_resp.keys,key_resp.rt,participant,Gender,Age,date,expName,psychopyVersion,frameRate,
,,,,,,,,14.824302400000306,14.824302400000306,space,6.4510699000002205,,,,,,,,,,,,,,,,,,,,,,,,,,,,,,,,,,,,,,,,,,,,,,,,,,,,,,,,,,,,,,,,,,,,,,,３１７,f,２２,2023-05-19_09h28.52.343,RL,2022.2.5,60.08412979858704,
43,29,62,55,0,0,0,0,,,,,21.29852740000024,21.29852740000024,26.2979777999999,26.2979777999999,26.2979777999999,27.303462500000023,None,27.303462500000023,27.303462500000023,27.303462500000023,27.303462500000023,27.303462500000023,27.303462500000023,i,0.5918455000000904,27.930761800000255,27.930761800000255,27.930761800000255,27.930761800000255,27.930761800000255,27.930761800000255,28.218039299999873,29.302969200000007,29.32651470000019,29.32651470000019,29.32651470000019,29.32651470000019,29.32651470000019,29.32651470000019,29.32651470000019,29.32651470000019,29.32651470000019,29.32651470000019,29.32651470000019,29.32651470000019,29.32651470000019,30.765237900000102,30.765237900000102,30.765237900000102,30.765237900000102,30.765237900000102,30.765237900000102,30.765237900000102,43,55,29,62,29,60,30.765237900000102,32.434999099999914,,,,,,,,,,,,,,,,,,,,３１７,f,２２,2023-05-19_09h28.52.343,RL,2022.2.5,60.08412979858704,
36,40,51,54,0,1,1,1,,,,,,,,,,,None,32.434999099999914,32.434999099999914,32.434999099999914,32.434999099999914,32.434999099999914,32.434999099999914,f,0.28457040000012057,32.75608050000028,32.75608050000028,32.75608050000028,32.75608050000028,32.75608050000028,32.75608050000028,33.05157810000037,34.63137760000063,34.63137760000063,34.63137760000063,34.63137760000063,34.63137760000063,34.63137760000063,34.63137760000063,34.63137760000063,34.63137760000063,34.63137760000063,34.63137760000063,34.63137760000063,34.63137760000063,34.63137760000063,36.50093449999986,36.50093449999986,36.50093449999986,36.50093449999986,36.50093449999986,36.50093449999986,36.50093449999986,36,54,40,51,36,60,36.50093449999986,38.317266400000335,,,,,,,,,,,,,,,,,,,,３１７,f,２２,2023-05-19_09h28.52.343,RL,2022.2.5,60.08412979858704,
43,44,51,57,0,2,2,2,,,,,,,,,,,None,38.317266400000335,38.317266400000335,38.317266400000335,38.317266400000335,38.317266400000335,38.317266400000335,r,0.3205471999999645,38.67281610000009,38.67281610000009,38.67281610000009,38.67281610000009,38.67281610000009,38.67281610000009,38.96737630000007,39.82107790000009,39.82107790000009,39.82107790000009,39.82107790000009,39.82107790000009,39.82107790000009,39.82107790000009,39.82107790000009,39.82107790000009,39.82107790000009,39.82107790000009,39.82107790000009,39.82107790000009,39.82107790000009,40.96645609999996,40.96645609999996,40.96645609999996,40.96645609999996,40.96645609999996,40.96645609999996,40.96645609999996,43,57,44,51,57,60,40.96645609999996,42.76650510000036,,,,,,,,,,,,,,,,,,,,３１７,f,２２,2023-05-19_09h28.52.343,RL,2022.2.5,60.08412979858704,
50,49,57,63,0,3,3,3,,,,,,,,,,,None,42.76650510000036,42.76650510000036,42.76650510000036,42.76650510000036,42.76650510000036,42.76650510000036,j,0.3600157999999283,43.15457470000001,43.15457470000001,43.15457470000001,43.15457470000001,43.15457470000001,43.15457470000001,43.44954510000025,45.15048180000031,45.1687993000005,45.1687993000005,45.1687993000005,45.1687993000005,45.1687993000005,45.1687993000005,45.1687993000005,45.1687993000005,45.1687993000005,45.1687993000005,45.1687993000005,45.1687993000005,45.1687993000005,47.183334000000286,47.183334000000286,47.183334000000286,47.183334000000286,47.183334000000286,47.183334000000286,47.183334000000286,50,63,49,57,57,60,47.183334000000286,49.09909220000009,,,,,,,,,,,,,,,,,,,,３１７,f,２２,2023-05-19_09h28.52.343,RL,2022.2.5,60.08412979858704,
37,37,51,63,0,4,4,4,,,,,,,,,,,None,49.09909220000009,49.09909220000009,49.09909220000009,49.09909220000009,49.09909220000009,49.09909220000009,r,0.3532713999993575,49.48597450000034,49.48597450000034,49.48597450000034,49.48597450000034,49.48597450000034,49.48597450000034,49.76525480000055,51.63174489999983,51.664413200000126,51.664413200000126,51.664413200000126,51.664413200000126,51.664413200000126,51.664413200000126,51.664413200000126,51.664413200000126,51.664413200000126,51.664413200000126,51.664413200000126,51.664413200000126,51.664413200000126,53.8331904000006,53.8331904000006,53.8331904000006,53.8331904000006,53.8331904000006,53.8331904000006,53.8331904000006,37,63,37,51,63,60,53.8331904000006,55.78083550000065,,,,,,,,,,,,,,,,,,,,３１７,f,２２,2023-05-19_09h28.52.343,RL,2022.2.5,60.08412979858704,
43,41,49,61,0,5,5,5,,,,,,,,,,,None,55.78083550000065,55.78083550000065,55.78083550000065,55.78083550000065,55.78083550000065,55.78083550000065,j,0.32238430000052176,56.13489579999987,56.13489579999987,56.13489579999987,56.13489579999987,56.13489579999987,56.13489579999987,56.41374580000047,57.580283500000405,57.59922520000055,57.59922520000055,57.59922520000055,57.59922520000055,57.59922520000055,57.59922520000055,57.59922520000055,57.59922520000055,57.59922520000055,57.59922520000055,57.59922520000055,57.59922520000055,57.59922520000055,59.06415040000047,59.06415040000047,59.06415040000047,59.06415040000047,59.06415040000047,59.06415040000047,59.06415040000047,43,61,41,49,49,60,59.06415040000047,60.613549700000476,,,,,,,,,,,,,,,,,,,,３１７,f,２２,2023-05-19_09h28.52.343,RL,2022.2.5,60.08412979858704,
46,42,50,59,0,6,6,6,,,,,,,,,,,None,60.613549700000476,60.613549700000476,60.613549700000476,60.613549700000476,60.613549700000476,60.613549700000476,r,0.31801569999970525,60.97896140000012,60.97896140000012,60.97896140000012,60.97896140000012,60.97896140000012,60.97896140000012,61.24658350000027,62.580535000000054,62.61512070000026,62.61512070000026,62.61512070000026,62.61512070000026,62.61512070000026,62.61512070000026,62.61512070000026,62.61512070000026,62.61512070000026,62.61512070000026,62.61512070000026,62.61512070000026,62.61512070000026,64.24674760000016,64.24674760000016,64.24674760000016,64.24674760000016,64.24674760000016,64.24674760000016,64.24674760000016,46,59,42,50,59,60,64.24674760000016,65.9793725999998,,,,,,,,,,,,,,,,,,,,３１７,f,２２,2023-05-19_09h28.52.343,RL,2022.2.5,60.08412979858704,
33,42,48,62,0,7,7,7,,,,,,,,,,,None,65.9793725999998,65.9793725999998,65.9793725999998,65.9793725999998,65.9793725999998,65.9793725999998,r,0.3855993999995917,66.39955040000041,66.39955040000041,66.39955040000041,66.39955040000041,66.39955040000041,66.39955040000041,66.67948200000046,67.79442999999992,67.82917590000034,67.82917590000034,67.82917590000034,67.82917590000034,67.82917590000034,67.82917590000034,67.82917590000034,67.82917590000034,67.82917590000034,67.82917590000034,67.82917590000034,67.82917590000034,67.82917590000034,69.24523090000002,69.24523090000002,69.24523090000002,69.24523090000002,69.24523090000002,69.24523090000002,69.24523090000002,33,62,42,48,62,60,69.24523090000002,71.11773720000019,,,,,,,,,,,,,,,,,,,,３１７,f,２２,2023-05-19_09h28.52.343,RL,2022.2.5,60.08412979858704,
38,42,50,58,0,8,8,8,,,,,,,,,,,None,71.11773720000019,71.11773720000019,71.11773720000019,71.11773720000019,71.11773720000019,71.11773720000019,r,0.5763986000001751,71.72606170000017,71.72606170000017,71.72606170000017,71.72606170000017,71.72606170000017,71.72606170000017,72.02551709999989,73.04137900000023,73.04137900000023,73.04137900000023,73.04137900000023,73.04137900000023,73.04137900000023,73.04137900000023,73.04137900000023,73.04137900000023,73.04137900000023,73.04137900000023,73.04137900000023,73.04137900000023,73.04137900000023,74.35679020000043,74.35679020000043,74.35679020000043,74.35679020000043,74.35679020000043,74.35679020000043,74.35679020000043,38,58,42,50,58,60,74.35679020000043,75.99084270000003,,,,,,,,,,,,,,,,,,,,３１７,f,２２,2023-05-19_09h28.52.343,RL,2022.2.5,60.08412979858704,
42,37,52,64,0,9,9,9,,,,,,,,,,,None,75.99084270000003,75.99084270000003,75.99084270000003,75.99084270000003,75.99084270000003,75.99084270000003,j,0.39067530000011175,76.40970710000056,76.40970710000056,76.40970710000056,76.40970710000056,76.40970710000056,76.40970710000056,76.69121739999991,78.25745050000023,78.2739687000003,78.2739687000003,78.2739687000003,78.2739687000003,78.2739687000003,78.2739687000003,78.2739687000003,78.2739687000003,78.2739687000003,78.2739687000003,78.2739687000003,78.2739687000003,78.2739687000003,80.1389194000003,80.1389194000003,80.1389194000003,80.1389194000003,80.1389194000003,80.1389194000003,80.1389194000003,42,64,37,52,52,60,80.1389194000003,81.95627820000027,,,,,,,,,,,,,,,,,,,,３１７,f,２２,2023-05-19_09h28.52.343,RL,2022.2.5,60.08412979858704,
38,44,57,62,0,10,10,10,,,,,,,,,,,None,81.95627820000027,81.95627820000027,81.95627820000027,81.95627820000027,81.95627820000027,81.95627820000027,r,0.34878719999960595,82.32351110000036,82.32351110000036,82.32351110000036,82.32351110000036,82.32351110000036,82.32351110000036,82.60639069999979,84.39000940000005,84.4067101999999,84.4067101999999,84.4067101999999,84.4067101999999,84.4067101999999,84.4067101999999,84.4067101999999,84.4067101999999,84.4067101999999,84.4067101999999,84.4067101999999,84.4067101999999,84.4067101999999,86.48779560000003,86.48779560000003,86.48779560000003,86.48779560000003,86.48779560000003,86.48779560000003,86.48779560000003,38,62,44,57,62,60,86.48779560000003,88.35547589999987,,,,,,,,,,,,,,,,,,,,３１７,f,２２,2023-05-19_09h28.52.343,RL,2022.2.5,60.08412979858704,
44,45,51,53,0,11,11,11,,,,,,,,,,,None,88.35547589999987,88.35547589999987,88.35547589999987,88.35547589999987,88.35547589999987,88.35547589999987,r,0.31247129999974277,88.69082680000065,88.69082680000065,88.69082680000065,88.69082680000065,88.69082680000065,88.69082680000065,88.98878080000031,90.62213940000038,90.62213940000038,90.62213940000038,90.62213940000038,90.62213940000038,90.62213940000038,90.62213940000038,90.62213940000038,90.62213940000038,90.62213940000038,90.62213940000038,90.62213940000038,90.62213940000038,90.62213940000038,92.55313600000045,92.55313600000045,92.55313600000045,92.55313600000045,92.55313600000045,92.55313600000045,92.55313600000045,44,53,45,51,53,60,92.55313600000045,94.12063829999988,,,,,,,,,,,,,,,,,,,,３１７,f,２２,2023-05-19_09h28.52.343,RL,2022.2.5,60.08412979858704,
40,49,52,64,0,12,12,12,,,,,,,,,,,None,94.12063829999988,94.12063829999988,94.12063829999988,94.12063829999988,94.12063829999988,94.12063829999988,j,0.3302067000004172,94.47303900000043,94.47303900000043,94.47303900000043,94.47303900000043,94.47303900000043,94.47303900000043,94.77136659999996,95.62145479999981,95.63807460000044,95.63807460000044,95.63807460000044,95.63807460000044,95.63807460000044,95.63807460000044,95.63807460000044,95.63807460000044,95.63807460000044,95.63807460000044,95.63807460000044,95.63807460000044,95.63807460000044,96.78590729999996,96.78590729999996,96.78590729999996,96.78590729999996,96.78590729999996,96.78590729999996,96.78590729999996,40,64,49,52,52,60,96.78590729999996,98.62037500000042,,,,,,,,,,,,,,,,,,,,３１７,f,２２,2023-05-19_09h28.52.343,RL,2022.2.5,60.08412979858704,
39,49,48,68,0,13,13,13,,,,,,,,,,,None,98.62037500000042,98.62037500000042,98.62037500000042,98.62037500000042,98.62037500000042,98.62037500000042,f,0.28483720000076573,98.94074650000039,98.94074650000039,98.94074650000039,98.94074650000039,98.94074650000039,98.94074650000039,99.2207726000006,100.82011849999981,100.83666230000017,100.83666230000017,100.83666230000017,100.83666230000017,100.83666230000017,100.83666230000017,100.83666230000017,100.83666230000017,100.83666230000017,100.83666230000017,100.83666230000017,100.83666230000017,100.83666230000017,102.73475229999985,102.73475229999985,102.73475229999985,102.73475229999985,102.73475229999985,102.73475229999985,102.73475229999985,39,68,49,48,39,60,102.73475229999985,104.71971240000039,,,,,,,,,,,,,,,,,,,,３１７,f,２２,2023-05-19_09h28.52.343,RL,2022.2.5,60.08412979858704,
38,57,55,56,0,14,14,14,,,,,,,,,,,None,104.71971240000039,104.71971240000039,104.71971240000039,104.71971240000039,104.71971240000039,104.71971240000039,r,0.2536923999996361,105.0029298999998,105.0029298999998,105.0029298999998,105.0029298999998,105.0029298999998,105.0029298999998,105.2860971,106.91937150000012,106.93584060000012,106.93584060000012,106.93584060000012,106.93584060000012,106.93584060000012,106.93584060000012,106.93584060000012,106.93584060000012,106.93584060000012,106.93584060000012,106.93584060000012,106.93584060000012,106.93584060000012,108.86728850000054,108.86728850000054,108.86728850000054,108.86728850000054,108.86728850000054,108.86728850000054,108.86728850000054,38,56,57,55,56,60,108.86728850000054,110.58493080000062,,,,,,,,,,,,,,,,,,,,３１７,f,２２,2023-05-19_09h28.52.343,RL,2022.2.5,60.08412979858704,
37,56,57,58,0,15,15,15,,,,,,,,,,,None,110.58493080000062,110.58493080000062,110.58493080000062,110.58493080000062,110.58493080000062,110.58493080000062,j,0.31249209999987215,110.91983470000014,110.91983470000014,110.91983470000014,110.91983470000014,110.91983470000014,110.91983470000014,111.21845269999994,112.61811190000026,112.61811190000026,112.61811190000026,112.61811190000026,112.61811190000026,112.61811190000026,112.61811190000026,112.61811190000026,112.61811190000026,112.61811190000026,112.61811190000026,112.61811190000026,112.61811190000026,112.61811190000026,114.3164882000001,114.3164882000001,114.3164882000001,114.3164882000001,114.3164882000001,114.3164882000001,114.3164882000001,37,58,56,57,57,60,114.3164882000001,115.83362159999979,,,,,,,,,,,,,,,,,,,,３１７,f,２２,2023-05-19_09h28.52.343,RL,2022.2.5,60.08412979858704,
37,43,66,59,0,16,16,16,,,,,,,,,,,None,115.83362159999979,115.83362159999979,115.83362159999979,115.83362159999979,115.83362159999979,115.83362159999979,r,0.2556441000006089,116.11906470000031,116.11906470000031,116.11906470000031,116.11906470000031,116.11906470000031,116.11906470000031,116.41737410000042,118.01741930000026,118.01741930000026,118.01741930000026,118.01741930000026,118.01741930000026,118.01741930000026,118.01741930000026,118.01741930000026,118.01741930000026,118.01741930000026,118.01741930000026,118.01741930000026,118.01741930000026,118.01741930000026,119.91538279999986,119.91538279999986,119.91538279999986,119.91538279999986,119.91538279999986,119.91538279999986,119.91538279999986,37,59,43,66,59,60,119.91538279999986,121.44934710000052,,,,,,,,,,,,,,,,,,,,３１７,f,２２,2023-05-19_09h28.52.343,RL,2022.2.5,60.08412979858704,
39,48,61,61,0,17,17,17,,,,,,,,,,,None,121.44934710000052,121.44934710000052,121.44934710000052,121.44934710000052,121.44934710000052,121.44934710000052,r,0.3182735000000321,121.80452200000036,121.80452200000036,121.80452200000036,121.80452200000036,121.80452200000036,121.80452200000036,122.08309770000051,124.0330555999999,124.04924110000047,124.04924110000047,124.04924110000047,124.04924110000047,124.04924110000047,124.04924110000047,124.04924110000047,124.04924110000047,124.04924110000047,124.04924110000047,124.04924110000047,124.04924110000047,124.04924110000047,126.29702420000012,126.29702420000012,126.29702420000012,126.29702420000012,126.29702420000012,126.29702420000012,126.29702420000012,39,61,48,61,61,60,126.29702420000012,128.2316808000005,,,,,,,,,,,,,,,,,,,,３１７,f,２２,2023-05-19_09h28.52.343,RL,2022.2.5,60.08412979858704,
44,57,62,57,0,18,18,18,,,,,,,,,,,None,128.2316808000005,128.2316808000005,128.2316808000005,128.2316808000005,128.2316808000005,128.2316808000005,r,0.2778477000001658,128.5364208000001,128.5364208000001,128.5364208000001,128.5364208000001,128.5364208000001,128.5364208000001,128.81565480000063,129.98180980000052,129.9985774000006,129.9985774000006,129.9985774000006,129.9985774000006,129.9985774000006,129.9985774000006,129.9985774000006,129.9985774000006,129.9985774000006,129.9985774000006,129.9985774000006,129.9985774000006,129.9985774000006,131.46330410000064,131.46330410000064,131.46330410000064,131.46330410000064,131.46330410000064,131.46330410000064,131.46330410000064,44,57,57,62,57,60,131.46330410000064,133.34787940000024,,,,,,,,,,,,,,,,,,,,３１７,f,２２,2023-05-19_09h28.52.343,RL,2022.2.5,60.08412979858704,
30,51,55,72,0,19,19,19,,,,,,,,,,,None,133.34787940000024,133.34787940000024,133.34787940000024,133.34787940000024,133.34787940000024,133.34787940000024,j,0.24786330000006274,133.61518350000006,133.61518350000006,133.61518350000006,133.61518350000006,133.61518350000006,133.61518350000006,133.89816040000005,135.81418550000035,135.83077709999998,135.83077709999998,135.83077709999998,135.83077709999998,135.83077709999998,135.83077709999998,135.83077709999998,135.83077709999998,135.83077709999998,135.83077709999998,135.83077709999998,135.83077709999998,135.83077709999998,138.0458376000006,138.0458376000006,138.0458376000006,138.0458376000006,138.0458376000006,138.0458376000006,138.0458376000006,30,72,51,55,55,60,138.0458376000006,139.93023559999983,,,,,,,,,,,,,,,,,,,,３１７,f,２２,2023-05-19_09h28.52.343,RL,2022.2.5,60.08412979858704,
32,48,64,72,0,20,20,20,,,,,,,,,,,None,139.93023559999983,139.93023559999983,139.93023559999983,139.93023559999983,139.93023559999983,139.93023559999983,j,0.28328310000051715,140.25125579999985,140.25125579999985,140.25125579999985,140.25125579999985,140.25125579999985,140.25125579999985,140.5302714999998,141.94634330000008,141.96292830000039,141.96292830000039,141.96292830000039,141.96292830000039,141.96292830000039,141.96292830000039,141.96292830000039,141.96292830000039,141.96292830000039,141.96292830000039,141.96292830000039,141.96292830000039,141.96292830000039,143.67783289999988,143.67783289999988,143.67783289999988,143.67783289999988,143.67783289999988,143.67783289999988,143.67783289999988,32,72,48,64,64,60,143.67783289999988,145.67899940000007,,,,,,,,,,,,,,,,,,,,３１７,f,２２,2023-05-19_09h28.52.343,RL,2022.2.5,60.08412979858704,
38,39,62,75,0,21,21,21,,,,,,,,,,,None,145.67899940000007,145.67899940000007,145.67899940000007,145.67899940000007,145.67899940000007,145.67899940000007,r,0.23472969999966153,145.94949730000008,145.94949730000008,145.94949730000008,145.94949730000008,145.94949730000008,145.94949730000008,146.22929000000022,147.19565109999985,147.21228630000041,147.21228630000041,147.21228630000041,147.21228630000041,147.21228630000041,147.21228630000041,147.21228630000041,147.21228630000041,147.21228630000041,147.21228630000041,147.21228630000041,147.21228630000041,147.21228630000041,148.47712000000047,148.47712000000047,148.47712000000047,148.47712000000047,148.47712000000047,148.47712000000047,148.47712000000047,38,75,39,62,75,60,148.47712000000047,149.9949102999999,,,,,,,,,,,,,,,,,,,,３１７,f,２２,2023-05-19_09h28.52.343,RL,2022.2.5,60.08412979858704,
39,39,58,71,0,22,22,22,,,,,,,,,,,None,149.9949102999999,149.9949102999999,149.9949102999999,149.9949102999999,149.9949102999999,149.9949102999999,j,0.32182300000022224,150.34513770000012,150.34513770000012,150.34513770000012,150.34513770000012,150.34513770000012,150.34513770000012,150.64494509999986,151.71143420000044,151.71143420000044,151.71143420000044,151.71143420000044,151.71143420000044,151.71143420000044,151.71143420000044,151.71143420000044,151.71143420000044,151.71143420000044,151.71143420000044,151.71143420000044,151.71143420000044,151.71143420000044,153.0762365999999,153.0762365999999,153.0762365999999,153.0762365999999,153.0762365999999,153.0762365999999,153.0762365999999,39,71,39,58,58,60,153.0762365999999,154.69419110000035,,,,,,,,,,,,,,,,,,,,３１７,f,２２,2023-05-19_09h28.52.343,RL,2022.2.5,60.08412979858704,
32,46,56,79,0,23,23,23,,,,,,,,,,,None,154.69419110000035,154.69419110000035,154.69419110000035,154.69419110000035,154.69419110000035,154.69419110000035,j,0.2948105999994368,155.01163009999982,155.01163009999982,155.01163009999982,155.01163009999982,155.01163009999982,155.01163009999982,155.29388569999992,156.81048759999976,156.8275236999998,156.8275236999998,156.8275236999998,156.8275236999998,156.8275236999998,156.8275236999998,156.8275236999998,156.8275236999998,156.8275236999998,156.8275236999998,156.8275236999998,156.8275236999998,156.8275236999998,158.64187240000047,158.64187240000047,158.64187240000047,158.64187240000047,158.64187240000047,158.64187240000047,158.64187240000047,32,79,46,56,56,60,158.64187240000047,160.20961129999978,,,,,,,,,,,,,,,,,,,,３１７,f,２２,2023-05-19_09h28.52.343,RL,2022.2.5,60.08412979858704,
37,53,59,73,0,24,24,24,,,,,,,,,,,None,160.20961129999978,160.20961129999978,160.20961129999978,160.20961129999978,160.20961129999978,160.20961129999978,r,0.2464682999998331,160.47667660000025,160.47667660000025,160.47667660000025,160.47667660000025,160.47667660000025,160.47667660000025,160.75973840000006,161.8763297000005,161.89263200000005,161.89263200000005,161.89263200000005,161.89263200000005,161.89263200000005,161.89263200000005,161.89263200000005,161.89263200000005,161.89263200000005,161.89263200000005,161.89263200000005,161.89263200000005,161.89263200000005,163.3078303000002,163.3078303000002,163.3078303000002,163.3078303000002,163.3078303000002,163.3078303000002,163.3078303000002,37,73,53,59,73,60,163.3078303000002,165.22527549999995,,,,,,,,,,,,,,,,,,,,３１７,f,２２,2023-05-19_09h28.52.343,RL,2022.2.5,60.08412979858704,
46,50,56,84,0,25,25,25,,,,,,,,,,,None,165.22527549999995,165.22527549999995,165.22527549999995,165.22527549999995,165.22527549999995,165.22527549999995,r,0.2725762999998551,165.5260315000005,165.5260315000005,165.5260315000005,165.5260315000005,165.5260315000005,165.5260315000005,165.8250764000004,167.12530190000052,167.12530190000052,167.12530190000052,167.12530190000052,167.12530190000052,167.12530190000052,167.12530190000052,167.12530190000052,167.12530190000052,167.12530190000052,167.12530190000052,167.12530190000052,167.12530190000052,167.12530190000052,168.72349180000037,168.72349180000037,168.72349180000037,168.72349180000037,168.72349180000037,168.72349180000037,168.72349180000037,46,84,50,56,84,60,168.72349180000037,170.6742162999999,,,,,,,,,,,,,,,,,,,,３１７,f,２２,2023-05-19_09h28.52.343,RL,2022.2.5,60.08412979858704,
38,42,66,77,0,26,26,26,,,,,,,,,,,None,170.6742162999999,170.6742162999999,170.6742162999999,170.6742162999999,170.6742162999999,170.6742162999999,r,0.25971519999984594,170.95835230000012,170.95835230000012,170.95835230000012,170.95835230000012,170.95835230000012,170.95835230000012,171.25830640000004,173.07418280000002,173.07418280000002,173.07418280000002,173.07418280000002,173.07418280000002,173.07418280000002,173.07418280000002,173.07418280000002,173.07418280000002,173.07418280000002,173.07418280000002,173.07418280000002,173.07418280000002,173.07418280000002,175.17231290000018,175.17231290000018,175.17231290000018,175.17231290000018,175.17231290000018,175.17231290000018,175.17231290000018,38,77,42,66,77,60,175.17231290000018,177.0234420000006,,,,,,,,,,,,,,,,,,,,３１７,f,２２,2023-05-19_09h28.52.343,RL,2022.2.5,60.08412979858704,
35,46,60,69,0,27,27,27,,,,,,,,,,,None,177.0234420000006,177.0234420000006,177.0234420000006,177.0234420000006,177.0234420000006,177.0234420000006,r,0.3255661000002874,177.3747297,177.3747297,177.3747297,177.3747297,177.3747297,177.3747297,177.65713039999991,178.74032140000054,178.75680300000022,178.75680300000022,178.75680300000022,178.75680300000022,178.75680300000022,178.75680300000022,178.75680300000022,178.75680300000022,178.75680300000022,178.75680300000022,178.75680300000022,178.75680300000022,178.75680300000022,180.13897090000046,180.13897090000046,180.13897090000046,180.13897090000046,180.13897090000046,180.13897090000046,180.13897090000046,35,69,46,60,69,60,180.13897090000046,181.80573670000012,,,,,,,,,,,,,,,,,,,,３１７,f,２２,2023-05-19_09h28.52.343,RL,2022.2.5,60.08412979858704,
41,52,69,77,0,28,28,28,,,,,,,,,,,None,181.80573670000012,181.80573670000012,181.80573670000012,181.80573670000012,181.80573670000012,181.80573670000012,r,0.26340580000032787,182.09032810000008,182.09032810000008,182.09032810000008,182.09032810000008,182.09032810000008,182.09032810000008,182.37258780000047,183.62238849999994,183.63916510000035,183.63916510000035,183.63916510000035,183.63916510000035,183.63916510000035,183.63916510000035,183.63916510000035,183.63916510000035,183.63916510000035,183.63916510000035,183.63916510000035,183.63916510000035,183.63916510000035,185.187046,185.187046,185.187046,185.187046,185.187046,185.187046,185.187046,41,77,52,69,77,60,185.187046,187.05514660000063,,,,,,,,,,,,,,,,,,,,３１７,f,２２,2023-05-19_09h28.52.343,RL,2022.2.5,60.08412979858704,
26,42,74,89,0,29,29,29,,,,,,,,,,,None,187.05514660000063,187.05514660000063,187.05514660000063,187.05514660000063,187.05514660000063,187.05514660000063,r,0.2599441000002116,187.34071070000027,187.34071070000027,187.34071070000027,187.34071070000027,187.34071070000027,187.34071070000027,187.63858080000045,188.5055084000005,188.5215017999999,188.5215017999999,188.5215017999999,188.5215017999999,188.5215017999999,188.5215017999999,188.5215017999999,188.5215017999999,188.5215017999999,188.5215017999999,188.5215017999999,188.5215017999999,188.5215017999999,189.6863475,189.6863475,189.6863475,189.6863475,189.6863475,189.6863475,189.6863475,26,89,42,74,89,60,189.6863475,191.43731480000042,,,,,,,,,,,,,,,,,,,,３１７,f,２２,2023-05-19_09h28.52.343,RL,2022.2.5,60.08412979858704,
41,46,82,87,0,30,30,30,,,,,,,,,,,None,191.43731480000042,191.43731480000042,191.43731480000042,191.43731480000042,191.43731480000042,191.43731480000042,r,0.3858184999999139,191.8684355000005,191.8684355000005,191.8684355000005,191.8684355000005,191.8684355000005,191.8684355000005,192.1546661000002,193.5872341000004,193.60381510000025,193.60381510000025,193.60381510000025,193.60381510000025,193.60381510000025,193.60381510000025,193.60381510000025,193.60381510000025,193.60381510000025,193.60381510000025,193.60381510000025,193.60381510000025,193.60381510000025,195.33535389999997,195.33535389999997,195.33535389999997,195.33535389999997,195.33535389999997,195.33535389999997,195.33535389999997,41,87,46,82,87,60,195.33535389999997,197.15307699999994,,,,,,,,,,,,,,,,,,,,３１７,f,２２,2023-05-19_09h28.52.343,RL,2022.2.5,60.08412979858704,
35,49,75,86,0,31,31,31,,,,,,,,,,,None,197.15307699999994,197.15307699999994,197.15307699999994,197.15307699999994,197.15307699999994,197.15307699999994,r,0.2681317999995372,197.45624399999997,197.45624399999997,197.45624399999997,197.45624399999997,197.45624399999997,197.45624399999997,197.73685600000044,198.7697803000001,198.78650460000063,198.78650460000063,198.78650460000063,198.78650460000063,198.78650460000063,198.78650460000063,198.78650460000063,198.78650460000063,198.78650460000063,198.78650460000063,198.78650460000063,198.78650460000063,198.78650460000063,200.11827640000047,200.11827640000047,200.11827640000047,200.11827640000047,200.11827640000047,200.11827640000047,200.11827640000047,35,86,49,75,86,60,200.11827640000047,202.05235420000008,,,,,,,,,,,,,,,,,,,,３１７,f,２２,2023-05-19_09h28.52.343,RL,2022.2.5,60.08412979858704,
32,42,75,81,0,32,32,32,,,,,,,,,,,None,202.05235420000008,202.05235420000008,202.05235420000008,202.05235420000008,202.05235420000008,202.05235420000008,r,0.35466599999926984,202.43785879999996,202.43785879999996,202.43785879999996,202.43785879999996,202.43785879999996,202.43785879999996,202.7193728000002,204.05250799999976,204.0858420000004,204.0858420000004,204.0858420000004,204.0858420000004,204.0858420000004,204.0858420000004,204.0858420000004,204.0858420000004,204.0858420000004,204.0858420000004,204.0858420000004,204.0858420000004,204.0858420000004,205.71680790000028,205.71680790000028,205.71680790000028,205.71680790000028,205.71680790000028,205.71680790000028,205.71680790000028,32,81,42,75,81,60,205.71680790000028,207.71776060000047,,,,,,,,,,,,,,,,,,,,３１７,f,２２,2023-05-19_09h28.52.343,RL,2022.2.5,60.08412979858704,
32,44,65,92,0,33,33,33,,,,,,,,,,,None,207.71776060000047,207.71776060000047,207.71776060000047,207.71776060000047,207.71776060000047,207.71776060000047,r,0.24837680000018736,207.98500539999986,207.98500539999986,207.98500539999986,207.98500539999986,207.98500539999986,207.98500539999986,208.26855530000012,210.13472710000042,210.1511973000006,210.1511973000006,210.1511973000006,210.1511973000006,210.1511973000006,210.1511973000006,210.1511973000006,210.1511973000006,210.1511973000006,210.1511973000006,210.1511973000006,210.1511973000006,210.1511973000006,212.31611040000007,212.31611040000007,212.31611040000007,212.31611040000007,212.31611040000007,212.31611040000007,212.31611040000007,32,92,44,65,92,60,212.31611040000007,213.90024410000024,,,,,,,,,,,,,,,,,,,,３１７,f,２２,2023-05-19_09h28.52.343,RL,2022.2.5,60.08412979858704,
22,41,69,91,0,34,34,34,,,,,,,,,,,None,213.90024410000024,213.90024410000024,213.90024410000024,213.90024410000024,213.90024410000024,213.90024410000024,r,0.2509503000001132,214.18819350000012,214.18819350000012,214.18819350000012,214.18819350000012,214.18819350000012,214.18819350000012,214.46716890000062,216.31679520000034,216.33323910000036,216.33323910000036,216.33323910000036,216.33323910000036,216.33323910000036,216.33323910000036,216.33323910000036,216.33323910000036,216.33323910000036,216.33323910000036,216.33323910000036,216.33323910000036,216.33323910000036,218.48174319999998,218.48174319999998,218.48174319999998,218.48174319999998,218.48174319999998,218.48174319999998,218.48174319999998,22,91,41,69,91,60,218.48174319999998,220.23278780000055,,,,,,,,,,,,,,,,,,,,３１７,f,２２,2023-05-19_09h28.52.343,RL,2022.2.5,60.08412979858704,
36,38,77,77,0,35,35,35,,,,,,,,,,,None,220.23278780000055,220.23278780000055,220.23278780000055,220.23278780000055,220.23278780000055,220.23278780000055,r,0.24267319999944448,220.50052589999996,220.50052589999996,220.50052589999996,220.50052589999996,220.50052589999996,220.50052589999996,220.7825641999998,222.14928280000004,222.16570440000032,222.16570440000032,222.16570440000032,222.16570440000032,222.16570440000032,222.16570440000032,222.16570440000032,222.16570440000032,222.16570440000032,222.16570440000032,222.16570440000032,222.16570440000032,222.16570440000032,223.83064850000028,223.83064850000028,223.83064850000028,223.83064850000028,223.83064850000028,223.83064850000028,223.83064850000028,36,77,38,77,77,60,223.83064850000028,225.5316203000002,,,,,,,,,,,,,,,,,,,,３１７,f,２２,2023-05-19_09h28.52.343,RL,2022.2.5,60.08412979858704,
35,38,82,82,0,36,36,36,,,,,,,,,,,None,225.5316203000002,225.5316203000002,225.5316203000002,225.5316203000002,225.5316203000002,225.5316203000002,r,0.33843249999972613,225.90032810000048,225.90032810000048,225.90032810000048,225.90032810000048,225.90032810000048,225.90032810000048,226.1987979000005,227.93150239999977,227.94825370000035,227.94825370000035,227.94825370000035,227.94825370000035,227.94825370000035,227.94825370000035,227.94825370000035,227.94825370000035,227.94825370000035,227.94825370000035,227.94825370000035,227.94825370000035,227.94825370000035,229.9793711000002,229.9793711000002,229.9793711000002,229.9793711000002,229.9793711000002,229.9793711000002,229.9793711000002,35,82,38,82,82,60,229.9793711000002,231.56394160000036,,,,,,,,,,,,,,,,,,,,３１７,f,２２,2023-05-19_09h28.52.343,RL,2022.2.5,60.08412979858704,
23,40,77,86,0,37,37,37,,,,,,,,,,,None,231.56394160000036,231.56394160000036,231.56394160000036,231.56394160000036,231.56394160000036,231.56394160000036,r,0.23277479999978823,231.81535450000047,231.81535450000047,231.81535450000047,231.81535450000047,231.81535450000047,231.81535450000047,232.09750070000064,233.94741720000002,233.9638762000004,233.9638762000004,233.9638762000004,233.9638762000004,233.9638762000004,233.9638762000004,233.9638762000004,233.9638762000004,233.9638762000004,233.9638762000004,233.9638762000004,233.9638762000004,233.9638762000004,236.11195899999984,236.11195899999984,236.11195899999984,236.11195899999984,236.11195899999984,236.11195899999984,236.11195899999984,23,86,40,77,86,60,236.11195899999984,238.04617229999985,,,,,,,,,,,,,,,,,,,,３１７,f,２２,2023-05-19_09h28.52.343,RL,2022.2.5,60.08412979858704,
29,33,78,79,0,38,38,38,,,,,,,,,,,None,238.04617229999985,238.04617229999985,238.04617229999985,238.04617229999985,238.04617229999985,238.04617229999985,j,0.3136034999997719,238.38200730000062,238.38200730000062,238.38200730000062,238.38200730000062,238.38200730000062,238.38200730000062,238.6632395000006,240.59619750000002,240.61268130000008,240.61268130000008,240.61268130000008,240.61268130000008,240.61268130000008,240.61268130000008,240.61268130000008,240.61268130000008,240.61268130000008,240.61268130000008,240.61268130000008,240.61268130000008,240.61268130000008,242.84418920000007,242.84418920000007,242.84418920000007,242.84418920000007,242.84418920000007,242.84418920000007,242.84418920000007,29,79,33,78,78,60,242.84418920000007,244.7782188000001,,,,,,,,,,,,,,,,,,,,３１７,f,２２,2023-05-19_09h28.52.343,RL,2022.2.5,60.08412979858704,
35,39,83,77,0,39,39,39,,,,,,,,,,,None,244.7782188000001,244.7782188000001,244.7782188000001,244.7782188000001,244.7782188000001,244.7782188000001,r,0.2529346000001169,245.0618039000001,245.0618039000001,245.0618039000001,245.0618039000001,245.0618039000001,245.0618039000001,245.3454612000005,246.51166840000042,246.52810490000047,246.52810490000047,246.52810490000047,246.52810490000047,246.52810490000047,246.52810490000047,246.52810490000047,246.52810490000047,246.52810490000047,246.52810490000047,246.52810490000047,246.52810490000047,246.52810490000047,247.9926202000006,247.9926202000006,247.9926202000006,247.9926202000006,247.9926202000006,247.9926202000006,247.9926202000006,35,77,39,83,77,60,247.9926202000006,249.81062999999995,,,,,,,,,,,,,,,,,,,,３１７,f,２２,2023-05-19_09h28.52.343,RL,2022.2.5,60.08412979858704,
25,36,77,76,0,40,40,40,,,,,,,,,,,None,249.81062999999995,249.81062999999995,249.81062999999995,249.81062999999995,249.81062999999995,249.81062999999995,j,0.2865231000005224,250.1276859999998,250.1276859999998,250.1276859999998,250.1276859999998,250.1276859999998,250.1276859999998,250.41093290000026,252.04394950000005,252.0605126999999,252.0605126999999,252.0605126999999,252.0605126999999,252.0605126999999,252.0605126999999,252.0605126999999,252.0605126999999,252.0605126999999,252.0605126999999,252.0605126999999,252.0605126999999,252.0605126999999,253.99222290000034,253.99222290000034,253.99222290000034,253.99222290000034,253.99222290000034,253.99222290000034,253.99222290000034,25,76,36,77,77,60,253.99222290000034,255.69341070000064,,,,,,,,,,,,,,,,,,,,３１７,f,２２,2023-05-19_09h28.52.343,RL,2022.2.5,60.08412979858704,
32,44,81,73,0,41,41,41,,,,,,,,,,,None,255.69341070000064,255.69341070000064,255.69341070000064,255.69341070000064,255.69341070000064,255.69341070000064,j,0.2522319999998217,255.9808982000004,255.9808982000004,255.9808982000004,255.9808982000004,255.9808982000004,255.9808982000004,256.2602080000006,257.80944290000025,257.8260148999998,257.8260148999998,257.8260148999998,257.8260148999998,257.8260148999998,257.8260148999998,257.8260148999998,257.8260148999998,257.8260148999998,257.8260148999998,257.8260148999998,257.8260148999998,257.8260148999998,259.67426969999997,259.67426969999997,259.67426969999997,259.67426969999997,259.67426969999997,259.67426969999997,259.67426969999997,32,73,44,81,81,60,259.67426969999997,261.52519180000036,,,,,,,,,,,,,,,,,,,,３１７,f,２２,2023-05-19_09h28.52.343,RL,2022.2.5,60.08412979858704,
40,40,79,79,0,42,42,42,,,,,,,,,,,None,261.52519180000036,261.52519180000036,261.52519180000036,261.52519180000036,261.52519180000036,261.52519180000036,j,0.2512996999994357,261.8113523000002,261.8113523000002,261.8113523000002,261.8113523000002,261.8113523000002,261.8113523000002,262.09208579999995,263.09187910000037,263.1086661999998,263.1086661999998,263.1086661999998,263.1086661999998,263.1086661999998,263.1086661999998,263.1086661999998,263.1086661999998,263.1086661999998,263.1086661999998,263.1086661999998,263.1086661999998,263.1086661999998,264.4066025000002,264.4066025000002,264.4066025000002,264.4066025000002,264.4066025000002,264.4066025000002,264.4066025000002,40,79,40,79,79,60,264.4066025000002,266.1912753000006,,,,,,,,,,,,,,,,,,,,３１７,f,２２,2023-05-19_09h28.52.343,RL,2022.2.5,60.08412979858704,
31,44,78,84,0,43,43,43,,,,,,,,,,,None,266.1912753000006,266.1912753000006,266.1912753000006,266.1912753000006,266.1912753000006,266.1912753000006,r,0.25146959999983665,266.4788785999999,266.4788785999999,266.4788785999999,266.4788785999999,266.4788785999999,266.4788785999999,266.7745961999999,268.40784880000047,268.42401000000064,268.42401000000064,268.42401000000064,268.42401000000064,268.42401000000064,268.42401000000064,268.42401000000064,268.42401000000064,268.42401000000064,268.42401000000064,268.42401000000064,268.42401000000064,268.42401000000064,270.35551810000015,270.35551810000015,270.35551810000015,270.35551810000015,270.35551810000015,270.35551810000015,270.35551810000015,31,84,44,78,84,60,270.35551810000015,272.02380770000036,,,,,,,,,,,,,,,,,,,,３１７,f,２２,2023-05-19_09h28.52.343,RL,2022.2.5,60.08412979858704,
31,42,81,63,0,44,44,44,,,,,,,,,,,None,272.02380770000036,272.02380770000036,272.02380770000036,272.02380770000036,272.02380770000036,272.02380770000036,r,0.2650957000005292,272.3073420999999,272.3073420999999,272.3073420999999,272.3073420999999,272.3073420999999,272.3073420999999,272.59051050000016,274.07347630000004,274.08980150000025,274.08980150000025,274.08980150000025,274.08980150000025,274.08980150000025,274.08980150000025,274.08980150000025,274.08980150000025,274.08980150000025,274.08980150000025,274.08980150000025,274.08980150000025,274.08980150000025,275.87148030000026,275.87148030000026,275.87148030000026,275.87148030000026,275.87148030000026,275.87148030000026,275.87148030000026,31,63,42,81,63,60,275.87148030000026,277.5722665000003,,,,,,,,,,,,,,,,,,,,３１７,f,２２,2023-05-19_09h28.52.343,RL,2022.2.5,60.08412979858704,
29,39,78,62,0,45,45,45,,,,,,,,,,,None,277.5722665000003,277.5722665000003,277.5722665000003,277.5722665000003,277.5722665000003,277.5722665000003,j,0.25331629999982397,277.85994800000026,277.85994800000026,277.85994800000026,277.85994800000026,277.85994800000026,277.85994800000026,278.13978190000034,279.5395333000006,279.55612139999994,279.55612139999994,279.55612139999994,279.55612139999994,279.55612139999994,279.55612139999994,279.55612139999994,279.55612139999994,279.55612139999994,279.55612139999994,279.55612139999994,279.55612139999994,279.55612139999994,281.25429729999996,281.25429729999996,281.25429729999996,281.25429729999996,281.25429729999996,281.25429729999996,281.25429729999996,29,62,39,78,78,60,281.25429729999996,282.8885707999998,,,,,,,,,,,,,,,,,,,,３１７,f,２２,2023-05-19_09h28.52.343,RL,2022.2.5,60.08412979858704,
20,36,80,62,0,46,46,46,,,,,,,,,,,None,282.8885707999998,282.8885707999998,282.8885707999998,282.8885707999998,282.8885707999998,282.8885707999998,j,0.25844210000013845,283.17487429999983,283.17487429999983,283.17487429999983,283.17487429999983,283.17487429999983,283.17487429999983,283.4554208999998,284.93822030000047,284.9544874000003,284.9544874000003,284.9544874000003,284.9544874000003,284.9544874000003,284.9544874000003,284.9544874000003,284.9544874000003,284.9544874000003,284.9544874000003,284.9544874000003,284.9544874000003,284.9544874000003,286.73624670000027,286.73624670000027,286.73624670000027,286.73624670000027,286.73624670000027,286.73624670000027,286.73624670000027,20,62,36,80,80,60,286.73624670000027,288.37051599999995,,,,,,,,,,,,,,,,,,,,３１７,f,２２,2023-05-19_09h28.52.343,RL,2022.2.5,60.08412979858704,
25,37,73,59,0,47,47,47,,,,,,,,,,,None,288.37051599999995,288.37051599999995,288.37051599999995,288.37051599999995,288.37051599999995,288.37051599999995,j,0.2847076999996716,288.6922319000005,288.6922319000005,288.6922319000005,288.6922319000005,288.6922319000005,288.6922319000005,288.98783230000026,290.75394310000047,290.77048860000014,290.77048860000014,290.77048860000014,290.77048860000014,290.77048860000014,290.77048860000014,290.77048860000014,290.77048860000014,290.77048860000014,290.77048860000014,290.77048860000014,290.77048860000014,290.77048860000014,292.8351739999998,292.8351739999998,292.8351739999998,292.8351739999998,292.8351739999998,292.8351739999998,292.8351739999998,25,59,37,73,73,60,292.8351739999998,294.5193463000005,,,,,,,,,,,,,,,,,,,,３１７,f,２２,2023-05-19_09h28.52.343,RL,2022.2.5,60.08412979858704,
17,37,73,68,0,48,48,48,,,,,,,,,,,None,294.5193463000005,294.5193463000005,294.5193463000005,294.5193463000005,294.5193463000005,294.5193463000005,j,0.2632602000003317,294.8044725,294.8044725,294.8044725,294.8044725,294.8044725,294.8044725,295.08687590000045,295.91977270000007,295.9360327000004,295.9360327000004,295.9360327000004,295.9360327000004,295.9360327000004,295.9360327000004,295.9360327000004,295.9360327000004,295.9360327000004,295.9360327000004,295.9360327000004,295.9360327000004,295.9360327000004,297.0681562,297.0681562,297.0681562,297.0681562,297.0681562,297.0681562,297.0681562,17,68,37,73,73,60,297.0681562,298.6357357000006,,,,,,,,,,,,,,,,,,,,３１７,f,２２,2023-05-19_09h28.52.343,RL,2022.2.5,60.08412979858704,
20,34,75,68,0,49,49,49,,,,,,,,,,,None,298.6357357000006,298.6357357000006,298.6357357000006,298.6357357000006,298.6357357000006,298.6357357000006,j,0.4039718999993056,299.0708261,299.0708261,299.0708261,299.0708261,299.0708261,299.0708261,299.35283250000066,301.0183457000003,301.0355762999998,301.0355762999998,301.0355762999998,301.0355762999998,301.0355762999998,301.0355762999998,301.0355762999998,301.0355762999998,301.0355762999998,301.0355762999998,301.0355762999998,301.0355762999998,301.0355762999998,303.00023409999994,303.00023409999994,303.00023409999994,303.00023409999994,303.00023409999994,303.00023409999994,303.00023409999994,20,68,34,75,75,60,303.00023409999994,304.8347782000001,,,,,,,,,,,,,,,,,,,,３１７,f,２２,2023-05-19_09h28.52.343,RL,2022.2.5,60.08412979858704,
25,50,63,65,0,50,50,50,,,,,,,,,,,None,304.8347782000001,304.8347782000001,304.8347782000001,304.8347782000001,304.8347782000001,304.8347782000001,j,0.252871700000469,305.1185145999998,305.1185145999998,305.1185145999998,305.1185145999998,305.1185145999998,305.1185145999998,305.4012111000002,306.58459630000016,306.6014100000002,306.6014100000002,306.6014100000002,306.6014100000002,306.6014100000002,306.6014100000002,306.6014100000002,306.6014100000002,306.6014100000002,306.6014100000002,306.6014100000002,306.6014100000002,306.6014100000002,308.08258320000004,308.08258320000004,308.08258320000004,308.08258320000004,308.08258320000004,308.08258320000004,308.08258320000004,25,65,50,63,63,60,308.08258320000004,309.84999960000005,,,,,,,,,,,,,,,,,,,,３１７,f,２２,2023-05-19_09h28.52.343,RL,2022.2.5,60.08412979858704,
24,42,80,62,0,51,51,51,,,,,,,,,,,None,309.84999960000005,309.84999960000005,309.84999960000005,309.84999960000005,309.84999960000005,309.84999960000005,f,0.23119929999938904,310.1006349999998,310.1006349999998,310.1006349999998,310.1006349999998,310.1006349999998,310.1006349999998,310.3840091000002,311.4503351000003,311.46740300000056,311.46740300000056,311.46740300000056,311.46740300000056,311.46740300000056,311.46740300000056,311.46740300000056,311.46740300000056,311.46740300000056,311.46740300000056,311.46740300000056,311.46740300000056,311.46740300000056,312.8316715000001,312.8316715000001,312.8316715000001,312.8316715000001,312.8316715000001,312.8316715000001,312.8316715000001,24,62,42,80,24,60,312.8316715000001,314.59976410000036,,,,,,,,,,,,,,,,,,,,３１７,f,２２,2023-05-19_09h28.52.343,RL,2022.2.5,60.08412979858704,
24,39,74,69,0,52,52,52,,,,,,,,,,,None,314.59976410000036,314.59976410000036,314.59976410000036,314.59976410000036,314.59976410000036,314.59976410000036,i,0.4635300999998435,315.0855181000006,315.0855181000006,315.0855181000006,315.0855181000006,315.0855181000006,315.0855181000006,315.36654270000054,316.6664043999999,316.68311129999984,316.68311129999984,316.68311129999984,316.68311129999984,316.68311129999984,316.68311129999984,316.68311129999984,316.68311129999984,316.68311129999984,316.68311129999984,316.68311129999984,316.68311129999984,316.68311129999984,318.28061870000056,318.28061870000056,318.28061870000056,318.28061870000056,318.28061870000056,318.28061870000056,318.28061870000056,24,69,39,74,39,60,318.28061870000056,319.9648461000006,,,,,,,,,,,,,,,,,,,,３１７,f,２２,2023-05-19_09h28.52.343,RL,2022.2.5,60.08412979858704,
31,37,76,60,0,53,53,53,,,,,,,,,,,None,319.9648461000006,319.9648461000006,319.9648461000006,319.9648461000006,319.9648461000006,319.9648461000006,r,0.2315690999994331,320.2154741000004,320.2154741000004,320.2154741000004,320.2154741000004,320.2154741000004,320.2154741000004,320.49867319999976,321.7655289000004,321.7819866,321.7819866,321.7819866,321.7819866,321.7819866,321.7819866,321.7819866,321.7819866,321.7819866,321.7819866,321.7819866,321.7819866,321.7819866,323.3466038000006,323.3466038000006,323.3466038000006,323.3466038000006,323.3466038000006,323.3466038000006,323.3466038000006,31,60,37,76,60,60,323.3466038000006,325.04755170000044,,,,,,,,,,,,,,,,,,,,３１７,f,２２,2023-05-19_09h28.52.343,RL,2022.2.5,60.08412979858704,
27,32,68,57,0,54,54,54,,,,,,,,,,,None,325.04755170000044,325.04755170000044,325.04755170000044,325.04755170000044,325.04755170000044,325.04755170000044,j,0.31051320000005944,325.38140920000023,325.38140920000023,325.38140920000023,325.38140920000023,325.38140920000023,325.38140920000023,325.6646799,326.61477730000024,326.63111220000064,326.63111220000064,326.63111220000064,326.63111220000064,326.63111220000064,326.63111220000064,326.63111220000064,326.63111220000064,326.63111220000064,326.63111220000064,326.63111220000064,326.63111220000064,326.63111220000064,327.87886230000004,327.87886230000004,327.87886230000004,327.87886230000004,327.87886230000004,327.87886230000004,327.87886230000004,27,57,32,68,68,60,327.87886230000004,329.4305877000006,,,,,,,,,,,,,,,,,,,,３１７,f,２２,2023-05-19_09h28.52.343,RL,2022.2.5,60.08412979858704,
24,35,82,60,0,55,55,55,,,,,,,,,,,None,329.4305877000006,329.4305877000006,329.4305877000006,329.4305877000006,329.4305877000006,329.4305877000006,r,0.2604474999998274,329.7153984000006,329.7153984000006,329.7153984000006,329.7153984000006,329.7153984000006,329.7153984000006,329.9968028000003,331.04712590000054,331.0639719999999,331.0639719999999,331.0639719999999,331.0639719999999,331.0639719999999,331.0639719999999,331.0639719999999,331.0639719999999,331.0639719999999,331.0639719999999,331.0639719999999,331.0639719999999,331.0639719999999,332.41203230000065,332.41203230000065,332.41203230000065,332.41203230000065,332.41203230000065,332.41203230000065,332.41203230000065,24,60,35,82,60,60,332.41203230000065,334.2796392,,,,,,,,,,,,,,,,,,,,３１７,f,２２,2023-05-19_09h28.52.343,RL,2022.2.5,60.08412979858704,
31,35,73,63,0,56,56,56,,,,,,,,,,,None,334.2796392,334.2796392,334.2796392,334.2796392,334.2796392,334.2796392,j,0.28445469999951456,334.60146989999976,334.60146989999976,334.60146989999976,334.60146989999976,334.60146989999976,334.60146989999976,334.8796228000001,336.02903010000045,336.06284310000046,336.06284310000046,336.06284310000046,336.06284310000046,336.06284310000046,336.06284310000046,336.06284310000046,336.06284310000046,336.06284310000046,336.06284310000046,336.06284310000046,336.06284310000046,336.06284310000046,337.5107280000002,337.5107280000002,337.5107280000002,337.5107280000002,337.5107280000002,337.5107280000002,337.5107280000002,31,63,35,73,73,60,337.5107280000002,339.49503520000053,,,,,,,,,,,,,,,,,,,,３１７,f,２２,2023-05-19_09h28.52.343,RL,2022.2.5,60.08412979858704,
21,38,68,62,0,57,57,57,,,,,,,,,,,None,339.49503520000053,339.49503520000053,339.49503520000053,339.49503520000053,339.49503520000053,339.49503520000053,j,0.25426619999961986,339.77926819999993,339.77926819999993,339.77926819999993,339.77926819999993,339.77926819999993,339.77926819999993,340.07867970000007,341.5992554000004,341.5992554000004,341.5992554000004,341.5992554000004,341.5992554000004,341.5992554000004,341.5992554000004,341.5992554000004,341.5992554000004,341.5992554000004,341.5992554000004,341.5992554000004,341.5992554000004,341.5992554000004,343.37644120000004,343.37644120000004,343.37644120000004,343.37644120000004,343.37644120000004,343.37644120000004,343.37644120000004,21,62,38,68,68,60,343.37644120000004,345.11111190000065,,,,,,,,,,,,,,,,,,,,３１７,f,２２,2023-05-19_09h28.52.343,RL,2022.2.5,60.08412979858704,
29,42,66,51,0,58,58,58,,,,,,,,,,,None,345.11111190000065,345.11111190000065,345.11111190000065,345.11111190000065,345.11111190000065,345.11111190000065,r,0.24814509999941947,345.37999709999985,345.37999709999985,345.37999709999985,345.37999709999985,345.37999709999985,345.37999709999985,345.6775483000001,347.2443745999999,347.2443745999999,347.2443745999999,347.2443745999999,347.2443745999999,347.2443745999999,347.2443745999999,347.2443745999999,347.2443745999999,347.2443745999999,347.2443745999999,347.2443745999999,347.2443745999999,347.2443745999999,349.1089722000006,349.1089722000006,349.1089722000006,349.1089722000006,349.1089722000006,349.1089722000006,349.1089722000006,29,51,42,66,51,60,349.1089722000006,350.9598566000004,,,,,,,,,,,,,,,,,,,,３１７,f,２２,2023-05-19_09h28.52.343,RL,2022.2.5,60.08412979858704,
30,40,75,60,0,59,59,59,,,,,,,,,,,None,350.9598566000004,350.9598566000004,350.9598566000004,350.9598566000004,350.9598566000004,350.9598566000004,j,0.23705400000017107,351.2282126,351.2282126,351.2282126,351.2282126,351.2282126,351.2282126,351.52660939999987,352.459664,352.459664,352.459664,352.459664,352.459664,352.459664,352.459664,352.459664,352.459664,352.459664,352.459664,352.459664,352.459664,352.459664,353.69105110000055,353.69105110000055,353.69105110000055,353.69105110000055,353.69105110000055,353.69105110000055,353.69105110000055,30,60,40,75,75,60,353.69105110000055,355.32577290000063,,,,,,,,,,,,,,,,,,,,３１７,f,２２,2023-05-19_09h28.52.343,RL,2022.2.5,60.08412979858704,
28,51,68,61,0,60,60,60,,,,,,,,,,,None,355.32577290000063,355.32577290000063,355.32577290000063,355.32577290000063,355.32577290000063,355.32577290000063,j,0.34050849999948696,355.69362569999976,355.69362569999976,355.69362569999976,355.69362569999976,355.69362569999976,355.69362569999976,355.97574110000005,356.85916200000065,356.87594830000035,356.87594830000035,356.87594830000035,356.87594830000035,356.87594830000035,356.87594830000035,356.87594830000035,356.87594830000035,356.87594830000035,356.87594830000035,356.87594830000035,356.87594830000035,356.87594830000035,358.05714350000017,358.05714350000017,358.05714350000017,358.05714350000017,358.05714350000017,358.05714350000017,358.05714350000017,28,61,51,68,68,60,358.05714350000017,359.99139639999976,,,,,,,,,,,,,,,,,,,,３１７,f,２２,2023-05-19_09h28.52.343,RL,2022.2.5,60.08412979858704,
23,42,78,52,0,61,61,61,,,,,,,,,,,None,359.99139639999976,359.99139639999976,359.99139639999976,359.99139639999976,359.99139639999976,359.99139639999976,j,0.23970640000061394,360.25981180000053,360.25981180000053,360.25981180000053,360.25981180000053,360.25981180000053,360.25981180000053,360.5583195999998,361.7913597000006,361.7913597000006,361.7913597000006,361.7913597000006,361.7913597000006,361.7913597000006,361.7913597000006,361.7913597000006,361.7913597000006,361.7913597000006,361.7913597000006,361.7913597000006,361.7913597000006,361.7913597000006,363.32309799999985,363.32309799999985,363.32309799999985,363.32309799999985,363.32309799999985,363.32309799999985,363.32309799999985,23,52,42,78,78,60,363.32309799999985,365.0236380000006,,,,,,,,,,,,,,,,,,,,３１７,f,２２,2023-05-19_09h28.52.343,RL,2022.2.5,60.08412979858704,
23,44,76,52,0,62,62,62,,,,,,,,,,,None,365.0236380000006,365.0236380000006,365.0236380000006,365.0236380000006,365.0236380000006,365.0236380000006,j,0.3216248999997333,365.37426479999976,365.37426479999976,365.37426479999976,365.37426479999976,365.37426479999976,365.37426479999976,365.67437770000015,366.89074900000014,366.89074900000014,366.89074900000014,366.89074900000014,366.89074900000014,366.89074900000014,366.89074900000014,366.89074900000014,366.89074900000014,366.89074900000014,366.89074900000014,366.89074900000014,366.89074900000014,366.89074900000014,368.4058627000004,368.4058627000004,368.4058627000004,368.4058627000004,368.4058627000004,368.4058627000004,368.4058627000004,23,52,44,76,76,60,368.4058627000004,370.0728803000002,,,,,,,,,,,,,,,,,,,,３１７,f,２２,2023-05-19_09h28.52.343,RL,2022.2.5,60.08412979858704,
26,47,78,58,0,63,63,63,,,,,,,,,,,None,370.0728803000002,370.0728803000002,370.0728803000002,370.0728803000002,370.0728803000002,370.0728803000002,j,0.26034030000027997,370.3566871000003,370.3566871000003,370.3566871000003,370.3566871000003,370.3566871000003,370.3566871000003,370.6565021000006,372.2728452000001,372.2728452000001,372.2728452000001,372.2728452000001,372.2728452000001,372.2728452000001,372.2728452000001,372.2728452000001,372.2728452000001,372.2728452000001,372.2728452000001,372.2728452000001,372.2728452000001,372.2728452000001,374.1879600000002,374.1879600000002,374.1879600000002,374.1879600000002,374.1879600000002,374.1879600000002,374.1879600000002,26,58,47,78,78,60,374.1879600000002,376.13862020000033,,,,,,,,,,,,,,,,,,,,３１７,f,２２,2023-05-19_09h28.52.343,RL,2022.2.5,60.08412979858704,
37,44,71,53,0,64,64,64,,,,,,,,,,,None,376.13862020000033,376.13862020000033,376.13862020000033,376.13862020000033,376.13862020000033,376.13862020000033,r,0.32978559999992285,376.4893030000003,376.4893030000003,376.4893030000003,376.4893030000003,376.4893030000003,376.4893030000003,376.7888363000002,378.6385196000001,378.6385196000001,378.6385196000001,378.6385196000001,378.6385196000001,378.6385196000001,378.6385196000001,378.6385196000001,378.6385196000001,378.6385196000001,378.6385196000001,378.6385196000001,378.6385196000001,378.6385196000001,380.78675440000006,380.78675440000006,380.78675440000006,380.78675440000006,380.78675440000006,380.78675440000006,380.78675440000006,37,53,44,71,53,60,380.78675440000006,382.2876907,,,,,,,,,,,,,,,,,,,,３１７,f,２２,2023-05-19_09h28.52.343,RL,2022.2.5,60.08412979858704,
38,54,67,58,0,65,65,65,,,,,,,,,,,None,382.2876907,382.2876907,382.2876907,382.2876907,382.2876907,382.2876907,j,0.29686470000069676,382.60487770000054,382.60487770000054,382.60487770000054,382.60487770000054,382.60487770000054,382.60487770000054,382.88794959999996,384.0374846000004,384.05423580000024,384.05423580000024,384.05423580000024,384.05423580000024,384.05423580000024,384.05423580000024,384.05423580000024,384.05423580000024,384.05423580000024,384.05423580000024,384.05423580000024,384.05423580000024,384.05423580000024,385.50219670000024,385.50219670000024,385.50219670000024,385.50219670000024,385.50219670000024,385.50219670000024,385.50219670000024,38,58,54,67,67,60,385.50219670000024,387.50369880000017,,,,,,,,,,,,,,,,,,,,３１７,f,２２,2023-05-19_09h28.52.343,RL,2022.2.5,60.08412979858704,
44,53,68,62,0,66,66,66,,,,,,,,,,,None,387.50369880000017,387.50369880000017,387.50369880000017,387.50369880000017,387.50369880000017,387.50369880000017,j,0.26440439999987575,387.78998370000045,387.78998370000045,387.78998370000045,387.78998370000045,387.78998370000045,387.78998370000045,388.0706786999999,389.18663389999983,389.2031815999999,389.2031815999999,389.2031815999999,389.2031815999999,389.2031815999999,389.2031815999999,389.2031815999999,389.2031815999999,389.2031815999999,389.2031815999999,389.2031815999999,389.2031815999999,389.2031815999999,390.6180180000001,390.6180180000001,390.6180180000001,390.6180180000001,390.6180180000001,390.6180180000001,390.6180180000001,44,62,53,68,68,60,390.6180180000001,392.5526356999999,,,,,,,,,,,,,,,,,,,,３１７,f,２２,2023-05-19_09h28.52.343,RL,2022.2.5,60.08412979858704,
35,52,63,60,0,67,67,67,,,,,,,,,,,None,392.5526356999999,392.5526356999999,392.5526356999999,392.5526356999999,392.5526356999999,392.5526356999999,j,0.2790250999996715,392.8530885,392.8530885,392.8530885,392.8530885,392.8530885,392.8530885,393.13640399999986,394.0358078999998,394.05249509999976,394.05249509999976,394.05249509999976,394.05249509999976,394.05249509999976,394.05249509999976,394.05249509999976,394.05249509999976,394.05249509999976,394.05249509999976,394.05249509999976,394.05249509999976,394.05249509999976,395.2507374000006,395.2507374000006,395.2507374000006,395.2507374000006,395.2507374000006,395.2507374000006,395.2507374000006,35,60,52,63,63,60,395.2507374000006,397.1517657000004,,,,,,,,,,,,,,,,,,,,３１７,f,２２,2023-05-19_09h28.52.343,RL,2022.2.5,60.08412979858704,
36,41,60,52,0,68,68,68,,,,,,,,,,,None,397.1517657000004,397.1517657000004,397.1517657000004,397.1517657000004,397.1517657000004,397.1517657000004,r,0.29341980000026524,397.4690867999998,397.4690867999998,397.4690867999998,397.4690867999998,397.4690867999998,397.4690867999998,397.75229949999994,399.6187845000004,399.6349815000003,399.6349815000003,399.6349815000003,399.6349815000003,399.6349815000003,399.6349815000003,399.6349815000003,399.6349815000003,399.6349815000003,399.6349815000003,399.6349815000003,399.6349815000003,399.6349815000003,401.79983489999995,401.79983489999995,401.79983489999995,401.79983489999995,401.79983489999995,401.79983489999995,401.79983489999995,36,52,41,60,52,60,401.79983489999995,403.3672443000005,,,,,,,,,,,,,,,,,,,,３１７,f,２２,2023-05-19_09h28.52.343,RL,2022.2.5,60.08412979858704,
37,42,63,67,0,69,69,69,,,,,,,,,,,None,403.3672443000005,403.3672443000005,403.3672443000005,403.3672443000005,403.3672443000005,403.3672443000005,j,0.258560999999645,403.6523351000005,403.6523351000005,403.6523351000005,403.6523351000005,403.6523351000005,403.6523351000005,403.9343712,404.9676506000005,404.9840404000006,404.9840404000006,404.9840404000006,404.9840404000006,404.9840404000006,404.9840404000006,404.9840404000006,404.9840404000006,404.9840404000006,404.9840404000006,404.9840404000006,404.9840404000006,404.9840404000006,406.3153299000005,406.3153299000005,406.3153299000005,406.3153299000005,406.3153299000005,406.3153299000005,406.3153299000005,37,67,42,63,63,60,406.3153299000005,408.2662968000004,,,,,,,,,,,,,,,,,,,,３１７,f,２２,2023-05-19_09h28.52.343,RL,2022.2.5,60.08412979858704,
40,47,64,54,0,70,70,70,,,,,,,,,,,None,408.2662968000004,408.2662968000004,408.2662968000004,408.2662968000004,408.2662968000004,408.2662968000004,j,0.2400095999992118,408.5337586000005,408.5337586000005,408.5337586000005,408.5337586000005,408.5337586000005,408.5337586000005,408.81686230000014,410.3998173,410.41651009999987,410.41651009999987,410.41651009999987,410.41651009999987,410.41651009999987,410.41651009999987,410.41651009999987,410.41651009999987,410.41651009999987,410.41651009999987,410.41651009999987,410.41651009999987,410.41651009999987,412.2974681000005,412.2974681000005,412.2974681000005,412.2974681000005,412.2974681000005,412.2974681000005,412.2974681000005,40,54,47,64,64,60,412.2974681000005,414.04871189999994,,,,,,,,,,,,,,,,,,,,３１７,f,２２,2023-05-19_09h28.52.343,RL,2022.2.5,60.08412979858704,
51,57,56,50,0,71,71,71,,,,,,,,,,,None,414.04871189999994,414.04871189999994,414.04871189999994,414.04871189999994,414.04871189999994,414.04871189999994,j,0.232816400000047,414.3020424000006,414.3020424000006,414.3020424000006,414.3020424000006,414.3020424000006,414.3020424000006,414.58273139999983,416.0151556999999,416.0319215999998,416.0319215999998,416.0319215999998,416.0319215999998,416.0319215999998,416.0319215999998,416.0319215999998,416.0319215999998,416.0319215999998,416.0319215999998,416.0319215999998,416.0319215999998,416.0319215999998,417.7637190000005,417.7637190000005,417.7637190000005,417.7637190000005,417.7637190000005,417.7637190000005,417.7637190000005,51,50,57,56,56,60,417.7637190000005,419.59751420000066,,,,,,,,,,,,,,,,,,,,３１７,f,２２,2023-05-19_09h28.52.343,RL,2022.2.5,60.08412979858704,
38,52,55,50,0,72,72,72,,,,,,,,,,,None,419.59751420000066,419.59751420000066,419.59751420000066,419.59751420000066,419.59751420000066,419.59751420000066,r,0.28733660000034433,419.91961210000045,419.91961210000045,419.91961210000045,419.91961210000045,419.91961210000045,419.91961210000045,420.2147945000006,421.26450170000044,421.26450170000044,421.26450170000044,421.26450170000044,421.26450170000044,421.26450170000044,421.26450170000044,421.26450170000044,421.26450170000044,421.26450170000044,421.26450170000044,421.26450170000044,421.26450170000044,421.26450170000044,422.61293040000055,422.61293040000055,422.61293040000055,422.61293040000055,422.61293040000055,422.61293040000055,422.61293040000055,38,50,52,55,50,60,422.61293040000055,424.39716150000004,,,,,,,,,,,,,,,,,,,,３１７,f,２２,2023-05-19_09h28.52.343,RL,2022.2.5,60.08412979858704,
42,42,56,49,0,73,73,73,,,,,,,,,,,None,424.39716150000004,424.39716150000004,424.39716150000004,424.39716150000004,424.39716150000004,424.39716150000004,j,0.24545930000022054,424.6647498000002,424.6647498000002,424.6647498000002,424.6647498000002,424.6647498000002,424.6647498000002,424.96404859999984,426.8469154000004,426.8469154000004,426.8469154000004,426.8469154000004,426.8469154000004,426.8469154000004,426.8469154000004,426.8469154000004,426.8469154000004,426.8469154000004,426.8469154000004,426.8469154000004,426.8469154000004,426.8469154000004,429.02766969999993,429.02766969999993,429.02766969999993,429.02766969999993,429.02766969999993,429.02766969999993,429.02766969999993,42,49,42,56,56,60,429.02766969999993,430.6460969,,,,,,,,,,,,,,,,,,,,３１７,f,２２,2023-05-19_09h28.52.343,RL,2022.2.5,60.08412979858704,
41,51,46,54,0,74,74,74,,,,,,,,,,,None,430.6460969,430.6460969,430.6460969,430.6460969,430.6460969,430.6460969,j,0.35506859999986773,431.0296294999998,431.0296294999998,431.0296294999998,431.0296294999998,431.0296294999998,431.0296294999998,431.3125140000002,432.59596500000043,432.61228329999994,432.61228329999994,432.61228329999994,432.61228329999994,432.61228329999994,432.61228329999994,432.61228329999994,432.61228329999994,432.61228329999994,432.61228329999994,432.61228329999994,432.61228329999994,432.61228329999994,434.19398790000014,434.19398790000014,434.19398790000014,434.19398790000014,434.19398790000014,434.19398790000014,434.19398790000014,41,54,51,46,46,60,434.19398790000014,436.1604156000003,,,,,,,,,,,,,,,,,,,,３１７,f,２２,2023-05-19_09h28.52.343,RL,2022.2.5,60.08412979858704,
37,47,68,55,0,75,75,75,,,,,,,,,,,q,449.65945530000045,449.65945530000045,449.65945530000045,449.65945530000045,449.65945530000045,449.65945530000045,r,1.4289840000001277,451.1130441000005,451.1130441000005,451.1130441000005,451.1130441000005,451.1130441000005,451.1130441000005,451.39223310000034,452.2094543000003,452.22606820000055,452.22606820000055,452.22606820000055,452.22606820000055,452.22606820000055,452.22606820000055,452.22606820000055,452.22606820000055,452.22606820000055,452.22606820000055,452.22606820000055,452.22606820000055,452.22606820000055,453.3407293999999,453.3407293999999,453.3407293999999,453.3407293999999,453.3407293999999,453.3407293999999,453.3407293999999,37,55,47,68,55,60,453.3407293999999,455.2583897000004,436.1604156000003,436.1604156000003,8.455008500000076,444.6442398999998,444.6442398999998,449.65945530000045,449.65945530000045,,,,,,,,,,,,,３１７,f,２２,2023-05-19_09h28.52.343,RL,2022.2.5,60.08412979858704,
35,56,45,52,0,76,76,76,,,,,,,,,,,None,455.2583897000004,455.2583897000004,455.2583897000004,455.2583897000004,455.2583897000004,455.2583897000004,f,0.2329263000001447,455.51280490000045,455.51280490000045,455.51280490000045,455.51280490000045,455.51280490000045,455.51280490000045,455.8087026000003,457.7751158000001,457.7751158000001,457.7751158000001,457.7751158000001,457.7751158000001,457.7751158000001,457.7751158000001,457.7751158000001,457.7751158000001,457.7751158000001,457.7751158000001,457.7751158000001,457.7751158000001,457.7751158000001,460.0394524000003,460.0394524000003,460.0394524000003,460.0394524000003,460.0394524000003,460.0394524000003,460.0394524000003,35,52,56,45,35,60,460.0394524000003,461.87369300000046,,,,,,,,,,,,,,,,,,,,３１７,f,２２,2023-05-19_09h28.52.343,RL,2022.2.5,60.08412979858704,
34,52,54,52,0,77,77,77,,,,,,,,,,,None,461.87369300000046,461.87369300000046,461.87369300000046,461.87369300000046,461.87369300000046,461.87369300000046,i,0.4266245999997409,462.32405670000026,462.32405670000026,462.32405670000026,462.32405670000026,462.32405670000026,462.32405670000026,462.60762350000005,464.5404408000004,464.5569611000001,464.5569611000001,464.5569611000001,464.5569611000001,464.5569611000001,464.5569611000001,464.5569611000001,464.5569611000001,464.5569611000001,464.5569611000001,464.5569611000001,464.5569611000001,464.5569611000001,466.78807850000067,466.78807850000067,466.78807850000067,466.78807850000067,466.78807850000067,466.78807850000067,466.78807850000067,34,52,52,54,52,60,466.78807850000067,468.3724744000001,,,,,,,,,,,,,,,,,,,,３１７,f,２２,2023-05-19_09h28.52.343,RL,2022.2.5,60.08412979858704,
31,52,66,47,0,78,78,78,,,,,,,,,,,None,468.3724744000001,468.3724744000001,468.3724744000001,468.3724744000001,468.3724744000001,468.3724744000001,j,0.2404240000005302,468.64433760000065,468.64433760000065,468.64433760000065,468.64433760000065,468.64433760000065,468.64433760000065,468.93945429999985,470.35593789999984,470.35593789999984,470.35593789999984,470.35593789999984,470.35593789999984,470.35593789999984,470.35593789999984,470.35593789999984,470.35593789999984,470.35593789999984,470.35593789999984,470.35593789999984,470.35593789999984,470.35593789999984,472.07047670000065,472.07047670000065,472.07047670000065,472.07047670000065,472.07047670000065,472.07047670000065,472.07047670000065,31,47,52,66,66,60,472.07047670000065,473.6552582000004,,,,,,,,,,,,,,,,,,,,３１７,f,２２,2023-05-19_09h28.52.343,RL,2022.2.5,60.08412979858704,
29,50,62,49,0,79,79,79,,,,,,,,,,,None,473.6552582000004,473.6552582000004,473.6552582000004,473.6552582000004,473.6552582000004,473.6552582000004,j,0.35414120000041294,474.0388708999999,474.0388708999999,474.0388708999999,474.0388708999999,474.0388708999999,474.0388708999999,474.3221564000005,475.9218642000005,475.9383349,475.9383349,475.9383349,475.9383349,475.9383349,475.9383349,475.9383349,475.9383349,475.9383349,475.9383349,475.9383349,475.9383349,475.9383349,477.83677570000054,477.83677570000054,477.83677570000054,477.83677570000054,477.83677570000054,477.83677570000054,477.83677570000054,29,49,50,62,62,60,477.83677570000054,479.6374770000002,,,,,,,,,,,,,,,,,,,,３１７,f,２２,2023-05-19_09h28.52.343,RL,2022.2.5,60.08412979858704,
30,49,63,45,0,80,80,80,,,,,,,,,,,None,479.6374770000002,479.6374770000002,479.6374770000002,479.6374770000002,479.6374770000002,479.6374770000002,i,0.2729002000005494,479.93990010000016,479.93990010000016,479.93990010000016,479.93990010000016,479.93990010000016,479.93990010000016,480.23749210000005,481.18731650000063,481.18731650000063,481.18731650000063,481.18731650000063,481.18731650000063,481.18731650000063,481.18731650000063,481.18731650000063,481.18731650000063,481.18731650000063,481.18731650000063,481.18731650000063,481.18731650000063,481.18731650000063,482.43593620000047,482.43593620000047,482.43593620000047,482.43593620000047,482.43593620000047,482.43593620000047,482.43593620000047,30,45,49,63,49,60,482.43593620000047,484.11968760000036,,,,,,,,,,,,,,,,,,,,３１７,f,２２,2023-05-19_09h28.52.343,RL,2022.2.5,60.08412979858704,
34,51,61,39,0,81,81,81,,,,,,,,,,,None,484.11968760000036,484.11968760000036,484.11968760000036,484.11968760000036,484.11968760000036,484.11968760000036,i,0.34757270000045537,484.4880874999999,484.4880874999999,484.4880874999999,484.4880874999999,484.4880874999999,484.4880874999999,484.7706358000005,485.6204643000001,485.6368925000006,485.6368925000006,485.6368925000006,485.6368925000006,485.6368925000006,485.6368925000006,485.6368925000006,485.6368925000006,485.6368925000006,485.6368925000006,485.6368925000006,485.6368925000006,485.6368925000006,486.78452650000054,486.78452650000054,486.78452650000054,486.78452650000054,486.78452650000054,486.78452650000054,486.78452650000054,34,39,51,61,51,60,486.78452650000054,488.3022568000006,,,,,,,,,,,,,,,,,,,,３１７,f,２２,2023-05-19_09h28.52.343,RL,2022.2.5,60.08412979858704,
29,56,57,45,0,82,82,82,,,,,,,,,,,None,488.3022568000006,488.3022568000006,488.3022568000006,488.3022568000006,488.3022568000006,488.3022568000006,j,0.2921708999992916,488.6195708000005,488.6195708000005,488.6195708000005,488.6195708000005,488.6195708000005,488.6195708000005,488.91915020000033,489.8695471000001,489.8695471000001,489.8695471000001,489.8695471000001,489.8695471000001,489.8695471000001,489.8695471000001,489.8695471000001,489.8695471000001,489.8695471000001,489.8695471000001,489.8695471000001,489.8695471000001,489.8695471000001,491.11751640000057,491.11751640000057,491.11751640000057,491.11751640000057,491.11751640000057,491.11751640000057,491.11751640000057,29,45,56,57,57,60,491.11751640000057,492.83509310000045,,,,,,,,,,,,,,,,,,,,３１７,f,２２,2023-05-19_09h28.52.343,RL,2022.2.5,60.08412979858704,
27,51,57,47,0,83,83,83,,,,,,,,,,,None,492.83509310000045,492.83509310000045,492.83509310000045,492.83509310000045,492.83509310000045,492.83509310000045,j,0.2860805000000255,493.15227479999976,493.15227479999976,493.15227479999976,493.15227479999976,493.15227479999976,493.15227479999976,493.43542290000005,495.0853332000006,495.10174129999996,495.10174129999996,495.10174129999996,495.10174129999996,495.10174129999996,495.10174129999996,495.10174129999996,495.10174129999996,495.10174129999996,495.10174129999996,495.10174129999996,495.10174129999996,495.10174129999996,497.0496751999999,497.0496751999999,497.0496751999999,497.0496751999999,497.0496751999999,497.0496751999999,497.0496751999999,27,47,51,57,57,60,497.0496751999999,498.8175701,,,,,,,,,,,,,,,,,,,,３１７,f,２２,2023-05-19_09h28.52.343,RL,2022.2.5,60.08412979858704,
34,49,50,38,0,84,84,84,,,,,,,,,,,None,498.8175701,498.8175701,498.8175701,498.8175701,498.8175701,498.8175701,i,0.26465989999996964,499.10305340000014,499.10305340000014,499.10305340000014,499.10305340000014,499.10305340000014,499.10305340000014,499.40075909999996,500.93450699999994,500.95057090000046,500.95057090000046,500.95057090000046,500.95057090000046,500.95057090000046,500.95057090000046,500.95057090000046,500.95057090000046,500.95057090000046,500.95057090000046,500.95057090000046,500.95057090000046,500.95057090000046,502.7817487000002,502.7817487000002,502.7817487000002,502.7817487000002,502.7817487000002,502.7817487000002,502.7817487000002,34,38,49,50,49,60,502.7817487000002,504.36607790000016,,,,,,,,,,,,,,,,,,,,３１７,f,２２,2023-05-19_09h28.52.343,RL,2022.2.5,60.08412979858704,
36,53,55,31,0,85,85,85,,,,,,,,,,,None,504.36607790000016,504.36607790000016,504.36607790000016,504.36607790000016,504.36607790000016,504.36607790000016,r,0.24227439999958733,504.63449240000045,504.63449240000045,504.63449240000045,504.63449240000045,504.63449240000045,504.63449240000045,504.93315619999976,506.71644670000023,506.71644670000023,506.71644670000023,506.71644670000023,506.71644670000023,506.71644670000023,506.71644670000023,506.71644670000023,506.71644670000023,506.71644670000023,506.71644670000023,506.71644670000023,506.71644670000023,506.71644670000023,508.7973428000005,508.7973428000005,508.7973428000005,508.7973428000005,508.7973428000005,508.7973428000005,508.7973428000005,36,31,53,55,31,60,508.7973428000005,510.3988582000002,,,,,,,,,,,,,,,,,,,,３１７,f,２２,2023-05-19_09h28.52.343,RL,2022.2.5,60.08412979858704,
32,52,55,42,0,86,86,86,,,,,,,,,,,None,510.3988582000002,510.3988582000002,510.3988582000002,510.3988582000002,510.3988582000002,510.3988582000002,j,0.262761999999384,510.6828252000005,510.6828252000005,510.6828252000005,510.6828252000005,510.6828252000005,510.6828252000005,510.96643120000044,512.3319083000006,512.3487285000001,512.3487285000001,512.3487285000001,512.3487285000001,512.3487285000001,512.3487285000001,512.3487285000001,512.3487285000001,512.3487285000001,512.3487285000001,512.3487285000001,512.3487285000001,512.3487285000001,514.0132594000006,514.0132594000006,514.0132594000006,514.0132594000006,514.0132594000006,514.0132594000006,514.0132594000006,32,42,52,55,55,60,514.0132594000006,515.531336,,,,,,,,,,,,,,,,,,,,３１７,f,２２,2023-05-19_09h28.52.343,RL,2022.2.5,60.08412979858704,
31,55,46,45,0,87,87,87,,,,,,,,,,,None,515.531336,515.531336,515.531336,515.531336,515.531336,515.531336,j,0.33415659999991476,515.9082183,515.9082183,515.9082183,515.9082183,515.9082183,515.9082183,516.1812079000001,517.6642505999998,517.6807753000003,517.6807753000003,517.6807753000003,517.6807753000003,517.6807753000003,517.6807753000003,517.6807753000003,517.6807753000003,517.6807753000003,517.6807753000003,517.6807753000003,517.6807753000003,517.6807753000003,519.4624561999999,519.4624561999999,519.4624561999999,519.4624561999999,519.4624561999999,519.4624561999999,519.4624561999999,31,45,55,46,46,60,519.4624561999999,521.3135382,,,,,,,,,,,,,,,,,,,,３１７,f,２２,2023-05-19_09h28.52.343,RL,2022.2.5,60.08412979858704,
32,48,46,36,0,88,88,88,,,,,,,,,,,None,521.3135382,521.3135382,521.3135382,521.3135382,521.3135382,521.3135382,i,0.32402340000044205,521.6647460000004,521.6647460000004,521.6647460000004,521.6647460000004,521.6647460000004,521.6647460000004,521.9472802,523.3802652000004,523.3972515000005,523.3972515000005,523.3972515000005,523.3972515000005,523.3972515000005,523.3972515000005,523.3972515000005,523.3972515000005,523.3972515000005,523.3972515000005,523.3972515000005,523.3972515000005,523.3972515000005,525.1282969000004,525.1282969000004,525.1282969000004,525.1282969000004,525.1282969000004,525.1282969000004,525.1282969000004,32,36,48,46,48,60,525.1282969000004,526.7956177000005,,,,,,,,,,,,,,,,,,,,３１７,f,２２,2023-05-19_09h28.52.343,RL,2022.2.5,60.08412979858704,
27,54,54,40,0,89,89,89,,,,,,,,,,,None,526.7956177000005,526.7956177000005,526.7956177000005,526.7956177000005,526.7956177000005,526.7956177000005,r,0.43254479999995965,527.2473547999998,527.2473547999998,527.2473547999998,527.2473547999998,527.2473547999998,527.2473547999998,527.5297381999999,529.0127913000006,529.0292135,529.0292135,529.0292135,529.0292135,529.0292135,529.0292135,529.0292135,529.0292135,529.0292135,529.0292135,529.0292135,529.0292135,529.0292135,530.8102229000006,530.8102229000006,530.8102229000006,530.8102229000006,530.8102229000006,530.8102229000006,530.8102229000006,27,40,54,54,40,60,530.8102229000006,532.6947219000003,,,,,,,,,,,,,,,,,,,,３１７,f,２２,2023-05-19_09h28.52.343,RL,2022.2.5,60.08412979858704,
33,51,50,34,0,90,90,90,,,,,,,,,,,None,532.6947219000003,532.6947219000003,532.6947219000003,532.6947219000003,532.6947219000003,532.6947219000003,j,0.2463519000002634,532.9619330000005,532.9619330000005,532.9619330000005,532.9619330000005,532.9619330000005,532.9619330000005,533.2450348000002,534.6285696000004,534.6448287000003,534.6448287000003,534.6448287000003,534.6448287000003,534.6448287000003,534.6448287000003,534.6448287000003,534.6448287000003,534.6448287000003,534.6448287000003,534.6448287000003,534.6448287000003,534.6448287000003,536.3261487999998,536.3261487999998,536.3261487999998,536.3261487999998,536.3261487999998,536.3261487999998,536.3261487999998,33,34,51,50,50,60,536.3261487999998,537.8771637,,,,,,,,,,,,,,,,,,,,３１７,f,２２,2023-05-19_09h28.52.343,RL,2022.2.5,60.08412979858704,
34,54,52,36,0,91,91,91,,,,,,,,,,,None,537.8771637,537.8771637,537.8771637,537.8771637,537.8771637,537.8771637,j,0.2993155000003753,538.1969820000004,538.1969820000004,538.1969820000004,538.1969820000004,538.1969820000004,538.1969820000004,538.4944175999999,539.9274974,539.9274974,539.9274974,539.9274974,539.9274974,539.9274974,539.9274974,539.9274974,539.9274974,539.9274974,539.9274974,539.9274974,539.9274974,539.9274974,541.6583752000006,541.6583752000006,541.6583752000006,541.6583752000006,541.6583752000006,541.6583752000006,541.6583752000006,34,36,54,52,52,60,541.6583752000006,543.4096466999999,,,,,,,,,,,,,,,,,,,,３１７,f,２２,2023-05-19_09h28.52.343,RL,2022.2.5,60.08412979858704,
30,59,44,42,0,92,92,92,,,,,,,,,,,None,543.4096466999999,543.4096466999999,543.4096466999999,543.4096466999999,543.4096466999999,543.4096466999999,j,0.25835449999976845,543.6938626000001,543.6938626000001,543.6938626000001,543.6938626000001,543.6938626000001,543.6938626000001,543.9765481000004,545.9427221000005,545.9599036999998,545.9599036999998,545.9599036999998,545.9599036999998,545.9599036999998,545.9599036999998,545.9599036999998,545.9599036999998,545.9599036999998,545.9599036999998,545.9599036999998,545.9599036999998,545.9599036999998,548.2240332000001,548.2240332000001,548.2240332000001,548.2240332000001,548.2240332000001,548.2240332000001,548.2240332000001,30,42,59,44,44,60,548.2240332000001,549.8248374000004,,,,,,,,,,,,,,,,,,,,３１７,f,２２,2023-05-19_09h28.52.343,RL,2022.2.5,60.08412979858704,
24,47,50,37,0,93,93,93,,,,,,,,,,,None,549.8248374000004,549.8248374000004,549.8248374000004,549.8248374000004,549.8248374000004,549.8248374000004,i,0.2933496000005107,550.1436672999998,550.1436672999998,550.1436672999998,550.1436672999998,550.1436672999998,550.1436672999998,550.4255485000003,551.7920306000005,551.8083274,551.8083274,551.8083274,551.8083274,551.8083274,551.8083274,551.8083274,551.8083274,551.8083274,551.8083274,551.8083274,551.8083274,551.8083274,553.4734749999998,553.4734749999998,553.4734749999998,553.4734749999998,553.4734749999998,553.4734749999998,553.4734749999998,24,37,47,50,47,60,553.4734749999998,555.2078556000006,,,,,,,,,,,,,,,,,,,,３１７,f,２２,2023-05-19_09h28.52.343,RL,2022.2.5,60.08412979858704,
35,53,55,34,0,94,94,94,,,,,,,,,,,None,555.2078556000006,555.2078556000006,555.2078556000006,555.2078556000006,555.2078556000006,555.2078556000006,i,0.2739975999993476,555.5081223000007,555.5081223000007,555.5081223000007,555.5081223000007,555.5081223000007,555.5081223000007,555.7913517000006,556.8409385000004,556.8574149000005,556.8574149000005,556.8574149000005,556.8574149000005,556.8574149000005,556.8574149000005,556.8574149000005,556.8574149000005,556.8574149000005,556.8574149000005,556.8574149000005,556.8574149000005,556.8574149000005,558.2055838000006,558.2055838000006,558.2055838000006,558.2055838000006,558.2055838000006,558.2055838000006,558.2055838000006,35,34,53,55,53,60,558.2055838000006,559.8734174000001,,,,,,,,,,,,,,,,,,,,３１７,f,２２,2023-05-19_09h28.52.343,RL,2022.2.5,60.08412979858704,
29,49,53,36,0,95,95,95,,,,,,,,,,,None,559.8734174000001,559.8734174000001,559.8734174000001,559.8734174000001,559.8734174000001,559.8734174000001,i,0.32120339999983116,560.2253055000001,560.2253055000001,560.2253055000001,560.2253055000001,560.2253055000001,560.2253055000001,560.5072777000005,562.2399297000002,562.2564915000003,562.2564915000003,562.2564915000003,562.2564915000003,562.2564915000003,562.2564915000003,562.2564915000003,562.2564915000003,562.2564915000003,562.2564915000003,562.2564915000003,562.2564915000003,562.2564915000003,564.2712098000002,564.2712098000002,564.2712098000002,564.2712098000002,564.2712098000002,564.2712098000002,564.2712098000002,29,36,49,53,49,60,564.2712098000002,565.7891613000002,,,,,,,,,,,,,,,,,,,,３１７,f,２２,2023-05-19_09h28.52.343,RL,2022.2.5,60.08412979858704,
28,43,36,32,0,96,96,96,,,,,,,,,,,None,565.7891613000002,565.7891613000002,565.7891613000002,565.7891613000002,565.7891613000002,565.7891613000002,i,0.26537720000033005,566.0726949999998,566.0726949999998,566.0726949999998,566.0726949999998,566.0726949999998,566.0726949999998,566.3559325000006,567.7556313000005,567.7720804999999,567.7720804999999,567.7720804999999,567.7720804999999,567.7720804999999,567.7720804999999,567.7720804999999,567.7720804999999,567.7720804999999,567.7720804999999,567.7720804999999,567.7720804999999,567.7720804999999,569.4704988000003,569.4704988000003,569.4704988000003,569.4704988000003,569.4704988000003,569.4704988000003,569.4704988000003,28,32,43,36,43,60,569.4704988000003,571.1716747,,,,,,,,,,,,,,,,,,,,３１７,f,２２,2023-05-19_09h28.52.343,RL,2022.2.5,60.08412979858704,
39,46,51,37,0,97,97,97,,,,,,,,,,,None,571.1716747,571.1716747,571.1716747,571.1716747,571.1716747,571.1716747,j,0.24149410000063654,571.4407142,571.4407142,571.4407142,571.4407142,571.4407142,571.4407142,571.7382842000006,573.7380792000004,573.7380792000004,573.7380792000004,573.7380792000004,573.7380792000004,573.7380792000004,573.7380792000004,573.7380792000004,573.7380792000004,573.7380792000004,573.7380792000004,573.7380792000004,573.7380792000004,573.7380792000004,576.0361807999998,576.0361807999998,576.0361807999998,576.0361807999998,576.0361807999998,576.0361807999998,576.0361807999998,39,37,46,51,51,60,576.0361807999998,578.0370073000004,,,,,,,,,,,,,,,,,,,,３１７,f,２２,2023-05-19_09h28.52.343,RL,2022.2.5,60.08412979858704,
30,45,41,39,0,98,98,98,,,,,,,,,,,None,578.0370073000004,578.0370073000004,578.0370073000004,578.0370073000004,578.0370073000004,578.0370073000004,j,0.23676510000041162,578.3041871000005,578.3041871000005,578.3041871000005,578.3041871000005,578.3041871000005,578.3041871000005,578.5873803000004,580.5034106000003,580.5202637000002,580.5202637000002,580.5202637000002,580.5202637000002,580.5202637000002,580.5202637000002,580.5202637000002,580.5202637000002,580.5202637000002,580.5202637000002,580.5202637000002,580.5202637000002,580.5202637000002,582.7347371000005,582.7347371000005,582.7347371000005,582.7347371000005,582.7347371000005,582.7347371000005,582.7347371000005,30,39,45,41,41,60,582.7347371000005,584.6193444999999,,,,,,,,,,,,,,,,,,,,３１７,f,２２,2023-05-19_09h28.52.343,RL,2022.2.5,60.08412979858704,
31,41,48,40,0,99,99,99,,,,,,,,,,,None,584.6193444999999,584.6193444999999,584.6193444999999,584.6193444999999,584.6193444999999,584.6193444999999,r,0.25823010000021895,584.9050053000001,584.9050053000001,584.9050053000001,584.9050053000001,584.9050053000001,584.9050053000001,585.1858480999999,586.1856864000001,586.2022430000006,586.2022430000006,586.2022430000006,586.2022430000006,586.2022430000006,586.2022430000006,586.2022430000006,586.2022430000006,586.2022430000006,586.2022430000006,586.2022430000006,586.2022430000006,586.2022430000006,587.5003799000006,587.5003799000006,587.5003799000006,587.5003799000006,587.5003799000006,587.5003799000006,587.5003799000006,31,40,41,48,40,60,587.5003799000006,589.4186217000006,,,,,,,,,,,,,,,,,,,,３１７,f,２２,2023-05-19_09h28.52.343,RL,2022.2.5,60.08412979858704,
35,54,39,38,0,100,100,100,,,,,,,,,,,None,589.4186217000006,589.4186217000006,589.4186217000006,589.4186217000006,589.4186217000006,589.4186217000006,f,0.23625999999967462,589.6853735000004,589.6853735000004,589.6853735000004,589.6853735000004,589.6853735000004,589.6853735000004,589.9682407999999,591.4349404000004,591.4520183000004,591.4520183000004,591.4520183000004,591.4520183000004,591.4520183000004,591.4520183000004,591.4520183000004,591.4520183000004,591.4520183000004,591.4520183000004,591.4520183000004,591.4520183000004,591.4520183000004,593.2164578000002,593.2164578000002,593.2164578000002,593.2164578000002,593.2164578000002,593.2164578000002,593.2164578000002,35,38,54,39,35,60,593.2164578000002,594.8176144999998,,,,,,,,,,,,,,,,,,,,３１７,f,２２,2023-05-19_09h28.52.343,RL,2022.2.5,60.08412979858704,
34,60,39,45,0,101,101,101,,,,,,,,,,,None,594.8176144999998,594.8176144999998,594.8176144999998,594.8176144999998,594.8176144999998,594.8176144999998,i,0.4452572999998665,595.2848641,595.2848641,595.2848641,595.2848641,595.2848641,595.2848641,595.5839326000005,597.5339285,597.5339285,597.5339285,597.5339285,597.5339285,597.5339285,597.5339285,597.5339285,597.5339285,597.5339285,597.5339285,597.5339285,597.5339285,597.5339285,599.7823804,599.7823804,599.7823804,599.7823804,599.7823804,599.7823804,599.7823804,34,45,60,39,60,60,599.7823804,601.6995876000001,,,,,,,,,,,,,,,,,,,,３１７,f,２２,2023-05-19_09h28.52.343,RL,2022.2.5,60.08412979858704,
30,51,51,53,0,102,102,102,,,,,,,,,,,None,601.6995876000001,601.6995876000001,601.6995876000001,601.6995876000001,601.6995876000001,601.6995876000001,i,0.24709230000007665,601.9667473,601.9667473,601.9667473,601.9667473,601.9667473,601.9667473,602.2501090000005,603.3498288999999,603.3663649999999,603.3663649999999,603.3663649999999,603.3663649999999,603.3663649999999,603.3663649999999,603.3663649999999,603.3663649999999,603.3663649999999,603.3663649999999,603.3663649999999,603.3663649999999,603.3663649999999,604.7643234000006,604.7643234000006,604.7643234000006,604.7643234000006,604.7643234000006,604.7643234000006,604.7643234000006,30,53,51,51,51,60,604.7643234000006,606.3648711000005,,,,,,,,,,,,,,,,,,,,３１７,f,２２,2023-05-19_09h28.52.343,RL,2022.2.5,60.08412979858704,
37,60,43,41,0,103,103,103,,,,,,,,,,,None,606.3648711000005,606.3648711000005,606.3648711000005,606.3648711000005,606.3648711000005,606.3648711000005,i,0.6176473999994414,607.0185415000005,607.0185415000005,607.0185415000005,607.0185415000005,607.0185415000005,607.0185415000005,607.2990200000004,608.2319784000001,608.2653207000003,608.2653207000003,608.2653207000003,608.2653207000003,608.2653207000003,608.2653207000003,608.2653207000003,608.2653207000003,608.2653207000003,608.2653207000003,608.2653207000003,608.2653207000003,608.2653207000003,609.4967944999999,609.4967944999999,609.4967944999999,609.4967944999999,609.4967944999999,609.4967944999999,609.4967944999999,37,41,60,43,60,60,609.4967944999999,611.2645383999998,,,,,,,,,,,,,,,,,,,,３１７,f,２２,2023-05-19_09h28.52.343,RL,2022.2.5,60.08412979858704,
43,46,49,42,0,104,104,104,,,,,,,,,,,None,611.2645383999998,611.2645383999998,611.2645383999998,611.2645383999998,611.2645383999998,611.2645383999998,i,0.4276397999992696,611.7150615999999,611.7150615999999,611.7150615999999,611.7150615999999,611.7150615999999,611.7150615999999,611.9982467,613.1814400000003,613.1979041000004,613.1979041000004,613.1979041000004,613.1979041000004,613.1979041000004,613.1979041000004,613.1979041000004,613.1979041000004,613.1979041000004,613.1979041000004,613.1979041000004,613.1979041000004,613.1979041000004,614.6792185000004,614.6792185000004,614.6792185000004,614.6792185000004,614.6792185000004,614.6792185000004,614.6792185000004,43,42,46,49,46,60,614.6792185000004,616.1967009,,,,,,,,,,,,,,,,,,,,３１７,f,２２,2023-05-19_09h28.52.343,RL,2022.2.5,60.08412979858704,
41,40,44,48,0,105,105,105,,,,,,,,,,,None,616.1967009,616.1967009,616.1967009,616.1967009,616.1967009,616.1967009,i,0.26215249999950174,616.4824806000006,616.4824806000006,616.4824806000006,616.4824806000006,616.4824806000006,616.4824806000006,616.7640398000003,618.0140842999999,618.0302996999999,618.0302996999999,618.0302996999999,618.0302996999999,618.0302996999999,618.0302996999999,618.0302996999999,618.0302996999999,618.0302996999999,618.0302996999999,618.0302996999999,618.0302996999999,618.0302996999999,619.5781930000003,619.5781930000003,619.5781930000003,619.5781930000003,619.5781930000003,619.5781930000003,619.5781930000003,41,48,40,44,40,60,619.5781930000003,621.5628765000001,,,,,,,,,,,,,,,,,,,,３１７,f,２２,2023-05-19_09h28.52.343,RL,2022.2.5,60.08412979858704,
40,42,47,44,0,106,106,106,,,,,,,,,,,None,621.5628765000001,621.5628765000001,621.5628765000001,621.5628765000001,621.5628765000001,621.5628765000001,j,0.25979629999983445,621.8475207000001,621.8475207000001,621.8475207000001,621.8475207000001,621.8475207000001,621.8475207000001,622.1298894000001,623.9127050000006,623.9294766000003,623.9294766000003,623.9294766000003,623.9294766000003,623.9294766000003,623.9294766000003,623.9294766000003,623.9294766000003,623.9294766000003,623.9294766000003,623.9294766000003,623.9294766000003,623.9294766000003,626.0101528000005,626.0101528000005,626.0101528000005,626.0101528000005,626.0101528000005,626.0101528000005,626.0101528000005,40,44,42,47,47,60,626.0101528000005,627.6952872000002,,,,,,,,,,,,,,,,,,,,３１７,f,２２,2023-05-19_09h28.52.343,RL,2022.2.5,60.08412979858704,
38,43,44,38,0,107,107,107,,,,,,,,,,,None,627.6952872000002,627.6952872000002,627.6952872000002,627.6952872000002,627.6952872000002,627.6952872000002,j,0.23664000000007945,627.9643962999999,627.9643962999999,627.9643962999999,627.9643962999999,627.9643962999999,627.9643962999999,628.2452823000003,629.8783823000003,629.8950411000005,629.8950411000005,629.8950411000005,629.8950411000005,629.8950411000005,629.8950411000005,629.8950411000005,629.8950411000005,629.8950411000005,629.8950411000005,629.8950411000005,629.8950411000005,629.8950411000005,631.8261847000003,631.8261847000003,631.8261847000003,631.8261847000003,631.8261847000003,631.8261847000003,631.8261847000003,38,38,43,44,44,60,631.8261847000003,633.5275321999998,,,,,,,,,,,,,,,,,,,,３１７,f,２２,2023-05-19_09h28.52.343,RL,2022.2.5,60.08412979858704,
36,44,44,44,0,108,108,108,,,,,,,,,,,None,633.5275321999998,633.5275321999998,633.5275321999998,633.5275321999998,633.5275321999998,633.5275321999998,j,0.20724780000000464,633.7636509000004,633.7636509000004,633.7636509000004,633.7636509000004,633.7636509000004,633.7636509000004,634.0440684000005,635.5273137000004,635.5437976000003,635.5437976000003,635.5437976000003,635.5437976000003,635.5437976000003,635.5437976000003,635.5437976000003,635.5437976000003,635.5437976000003,635.5437976000003,635.5437976000003,635.5437976000003,635.5437976000003,637.3254361999998,637.3254361999998,637.3254361999998,637.3254361999998,637.3254361999998,637.3254361999998,637.3254361999998,36,44,44,44,44,60,637.3254361999998,639.1763669000002,,,,,,,,,,,,,,,,,,,,３１７,f,２２,2023-05-19_09h28.52.343,RL,2022.2.5,60.08412979858704,
37,55,56,42,0,109,109,109,,,,,,,,,,,None,639.1763669000002,639.1763669000002,639.1763669000002,639.1763669000002,639.1763669000002,639.1763669000002,i,0.24963389999993524,639.4607241000003,639.4607241000003,639.4607241000003,639.4607241000003,639.4607241000003,639.4607241000003,639.7432017000001,641.1264017000003,641.1431459000005,641.1431459000005,641.1431459000005,641.1431459000005,641.1431459000005,641.1431459000005,641.1431459000005,641.1431459000005,641.1431459000005,641.1431459000005,641.1431459000005,641.1431459000005,641.1431459000005,642.8245025000006,642.8245025000006,642.8245025000006,642.8245025000006,642.8245025000006,642.8245025000006,642.8245025000006,37,42,55,56,55,60,642.8245025000006,644.7417357000004,,,,,,,,,,,,,,,,,,,,３１７,f,２２,2023-05-19_09h28.52.343,RL,2022.2.5,60.08412979858704,
39,47,42,39,0,110,110,110,,,,,,,,,,,None,644.7417357000004,644.7417357000004,644.7417357000004,644.7417357000004,644.7417357000004,644.7417357000004,i,0.23754049999934068,645.0180017000002,645.0180017000002,645.0180017000002,645.0180017000002,645.0180017000002,645.0180017000002,645.2925779000007,647.0422448999998,647.0753079000006,647.0753079000006,647.0753079000006,647.0753079000006,647.0753079000006,647.0753079000006,647.0753079000006,647.0753079000006,647.0753079000006,647.0753079000006,647.0753079000006,647.0753079000006,647.0753079000006,649.1233180999998,649.1233180999998,649.1233180999998,649.1233180999998,649.1233180999998,649.1233180999998,649.1233180999998,39,39,47,42,47,60,649.1233180999998,650.6739667000002,,,,,,,,,,,,,,,,,,,,３１７,f,２２,2023-05-19_09h28.52.343,RL,2022.2.5,60.08412979858704,
23,59,55,45,0,111,111,111,,,,,,,,,,,None,650.6739667000002,650.6739667000002,650.6739667000002,650.6739667000002,650.6739667000002,650.6739667000002,r,0.23012610000023415,650.9247753999998,650.9247753999998,650.9247753999998,650.9247753999998,650.9247753999998,650.9247753999998,651.2078701999999,652.8575023000003,652.8741619000002,652.8741619000002,652.8741619000002,652.8741619000002,652.8741619000002,652.8741619000002,652.8741619000002,652.8741619000002,652.8741619000002,652.8741619000002,652.8741619000002,652.8741619000002,652.8741619000002,654.8223991000004,654.8223991000004,654.8223991000004,654.8223991000004,654.8223991000004,654.8223991000004,654.8223991000004,23,45,59,55,45,60,654.8223991000004,656.5898610000004,,,,,,,,,,,,,,,,,,,,３１７,f,２２,2023-05-19_09h28.52.343,RL,2022.2.5,60.08412979858704,
37,58,52,47,0,112,112,112,,,,,,,,,,,None,656.5898610000004,656.5898610000004,656.5898610000004,656.5898610000004,656.5898610000004,656.5898610000004,f,0.24206920000051468,656.8580563000005,656.8580563000005,656.8580563000005,656.8580563000005,656.8580563000005,656.8580563000005,657.1400743000004,658.3900809000006,658.4064925000002,658.4064925000002,658.4064925000002,658.4064925000002,658.4064925000002,658.4064925000002,658.4064925000002,658.4064925000002,658.4064925000002,658.4064925000002,658.4064925000002,658.4064925000002,658.4064925000002,659.954581,659.954581,659.954581,659.954581,659.954581,659.954581,659.954581,37,47,58,52,37,60,659.954581,661.9557095,,,,,,,,,,,,,,,,,,,,３１７,f,２２,2023-05-19_09h28.52.343,RL,2022.2.5,60.08412979858704,
32,60,49,49,0,113,113,113,,,,,,,,,,,None,661.9557095,661.9557095,661.9557095,661.9557095,661.9557095,661.9557095,i,0.23193150000042806,662.2059533000001,662.2059533000001,662.2059533000001,662.2059533000001,662.2059533000001,662.2059533000001,662.4895322000002,663.8388292999998,663.8555686999998,663.8555686999998,663.8555686999998,663.8555686999998,663.8555686999998,663.8555686999998,663.8555686999998,663.8555686999998,663.8555686999998,663.8555686999998,663.8555686999998,663.8555686999998,663.8555686999998,665.5038646000003,665.5038646000003,665.5038646000003,665.5038646000003,665.5038646000003,665.5038646000003,665.5038646000003,32,49,60,49,60,60,665.5038646000003,667.0544593000004,,,,,,,,,,,,,,,,,,,,３１７,f,２２,2023-05-19_09h28.52.343,RL,2022.2.5,60.08412979858704,
28,55,45,42,0,114,114,114,,,,,,,,,,,None,667.0544593000004,667.0544593000004,667.0544593000004,667.0544593000004,667.0544593000004,667.0544593000004,i,0.28122780000012426,667.3550303000002,667.3550303000002,667.3550303000002,667.3550303000002,667.3550303000002,667.3550303000002,667.6387370000002,669.6213986000002,669.6377524999998,669.6377524999998,669.6377524999998,669.6377524999998,669.6377524999998,669.6377524999998,669.6377524999998,669.6377524999998,669.6377524999998,669.6377524999998,669.6377524999998,669.6377524999998,669.6377524999998,671.9193687000006,671.9193687000006,671.9193687000006,671.9193687000006,671.9193687000006,671.9193687000006,671.9193687000006,28,42,55,45,55,60,671.9193687000006,673.5366967,,,,,,,,,,,,,,,,,,,,３１７,f,２２,2023-05-19_09h28.52.343,RL,2022.2.5,60.08412979858704,
34,59,52,44,0,115,115,115,,,,,,,,,,,None,673.5366967,673.5366967,673.5366967,673.5366967,673.5366967,673.5366967,i,0.32712329999958456,673.8876344,673.8876344,673.8876344,673.8876344,673.8876344,673.8876344,674.1869760999998,675.6201023000003,675.6201023000003,675.6201023000003,675.6201023000003,675.6201023000003,675.6201023000003,675.6201023000003,675.6201023000003,675.6201023000003,675.6201023000003,675.6201023000003,675.6201023000003,675.6201023000003,675.6201023000003,677.3513948,677.3513948,677.3513948,677.3513948,677.3513948,677.3513948,677.3513948,34,44,59,52,59,60,677.3513948,678.9357921000001,,,,,,,,,,,,,,,,,,,,３１７,f,２２,2023-05-19_09h28.52.343,RL,2022.2.5,60.08412979858704,
32,67,43,39,0,116,116,116,,,,,,,,,,,None,678.9357921000001,678.9357921000001,678.9357921000001,678.9357921000001,678.9357921000001,678.9357921000001,i,0.26931550000063,679.2407440000006,679.2407440000006,679.2407440000006,679.2407440000006,679.2407440000006,679.2407440000006,679.5195090000007,680.9191701,680.9360710000001,680.9360710000001,680.9360710000001,680.9360710000001,680.9360710000001,680.9360710000001,680.9360710000001,680.9360710000001,680.9360710000001,680.9360710000001,680.9360710000001,680.9360710000001,680.9360710000001,682.6339787000006,682.6339787000006,682.6339787000006,682.6339787000006,682.6339787000006,682.6339787000006,682.6339787000006,32,39,67,43,67,60,682.6339787000006,684.2849201999998,,,,,,,,,,,,,,,,,,,,３１７,f,２２,2023-05-19_09h28.52.343,RL,2022.2.5,60.08412979858704,
25,71,55,48,0,117,117,117,,,,,,,,,,,None,684.2849201999998,684.2849201999998,684.2849201999998,684.2849201999998,684.2849201999998,684.2849201999998,i,0.28888539999934437,684.6039377000006,684.6039377000006,684.6039377000006,684.6039377000006,684.6039377000006,684.6039377000006,684.8854498999999,686.8520706999998,686.8683826000006,686.8683826000006,686.8683826000006,686.8683826000006,686.8683826000006,686.8683826000006,686.8683826000006,686.8683826000006,686.8683826000006,686.8683826000006,686.8683826000006,686.8683826000006,686.8683826000006,689.1328509000004,689.1328509000004,689.1328509000004,689.1328509000004,689.1328509000004,689.1328509000004,689.1328509000004,25,48,71,55,71,60,689.1328509000004,690.9175148000004,,,,,,,,,,,,,,,,,,,,３１７,f,２２,2023-05-19_09h28.52.343,RL,2022.2.5,60.08412979858704,
30,59,46,51,0,118,118,118,,,,,,,,,,,None,690.9175148000004,690.9175148000004,690.9175148000004,690.9175148000004,690.9175148000004,690.9175148000004,i,0.253674200000205,691.2009173000006,691.2009173000006,691.2009173000006,691.2009173000006,691.2009173000006,691.2009173000006,691.5005435000003,693.4169447000004,693.4169447000004,693.4169447000004,693.4169447000004,693.4169447000004,693.4169447000004,693.4169447000004,693.4169447000004,693.4169447000004,693.4169447000004,693.4169447000004,693.4169447000004,693.4169447000004,693.4169447000004,695.6315893999999,695.6315893999999,695.6315893999999,695.6315893999999,695.6315893999999,695.6315893999999,695.6315893999999,30,51,59,46,59,60,695.6315893999999,697.5830569999998,,,,,,,,,,,,,,,,,,,,３１７,f,２２,2023-05-19_09h28.52.343,RL,2022.2.5,60.08412979858704,
39,63,46,51,0,119,119,119,,,,,,,,,,,None,697.5830569999998,697.5830569999998,697.5830569999998,697.5830569999998,697.5830569999998,697.5830569999998,j,0.28034670000033657,697.8848863000003,697.8848863000003,697.8848863000003,697.8848863000003,697.8848863000003,697.8848863000003,698.1662483999999,699.5159291999998,699.5325084000006,699.5325084000006,699.5325084000006,699.5325084000006,699.5325084000006,699.5325084000006,699.5325084000006,699.5325084000006,699.5325084000006,699.5325084000006,699.5325084000006,699.5325084000006,699.5325084000006,701.1805879000003,701.1805879000003,701.1805879000003,701.1805879000003,701.1805879000003,701.1805879000003,701.1805879000003,39,51,63,46,46,60,701.1805879000003,703.1819704,,,,,,,,,,,,,,,,,,,,３１７,f,２２,2023-05-19_09h28.52.343,RL,2022.2.5,60.08412979858704,
40,58,51,53,0,120,120,120,,,,,,,,,,,None,703.1819704,703.1819704,703.1819704,703.1819704,703.1819704,703.1819704,i,0.23584980000032374,703.4548340000001,703.4548340000001,703.4548340000001,703.4548340000001,703.4548340000001,703.4548340000001,703.7319269999998,705.7153720000006,705.7481622000005,705.7481622000005,705.7481622000005,705.7481622000005,705.7481622000005,705.7481622000005,705.7481622000005,705.7481622000005,705.7481622000005,705.7481622000005,705.7481622000005,705.7481622000005,705.7481622000005,708.0295221000006,708.0295221000006,708.0295221000006,708.0295221000006,708.0295221000006,708.0295221000006,708.0295221000006,40,53,58,51,58,60,708.0295221000006,709.7972012,,,,,,,,,,,,,,,,,,,,３１７,f,２２,2023-05-19_09h28.52.343,RL,2022.2.5,60.08412979858704,
