arm1,arm2,arm3,arm4,trials.thisRepN,trials.thisTrialN,trials.thisN,trials.thisIndex,instru_img1.started,instru_resp.started,instru_resp.keys,instru_resp.rt,image_2.started,text_2.started,image_2.stopped,text_2.stopped,fixbefore_2.started,fixbefore_2.stopped,rest_response.keys,red.started,green.started,yellow.started,blue.started,choose_bandit.started,Fixation.started,choose_bandit.keys,choose_bandit.rt,black.started,red_2.started,green_2.started,yellow_2.started,blue_2.started,fixation_2.started,docs.started,docs.stopped,black.stopped,red_2.stopped,green_2.stopped,yellow_2.stopped,blue_2.stopped,fixation_2.stopped,black_com.started,reward_sub.started,reward__sub.started,red_compare.started,green_com.started,yellow_com.started,blue_com.started,black_com.stopped,reward_sub.stopped,reward__sub.stopped,red_compare.stopped,green_com.stopped,yellow_com.stopped,blue_com.stopped,rewardred,rewardyellow,rewardblue,rewardgreen,subchoose,expectation,intertrialfix.started,intertrialfix.stopped,rest_image.started,rest_response.started,rest_response.rt,image_expect_after.started,text_exp_after.started,image_expect_after.stopped,text_exp_after.stopped,image.started,key_resp.started,key_resp.keys,key_resp.rt,participant,Gender,Age,date,expName,psychopyVersion,frameRate,
,,,,,,,,12.391946500000813,12.391946500000813,space,8.987631500000134,,,,,,,,,,,,,,,,,,,,,,,,,,,,,,,,,,,,,,,,,,,,,,,,,,,,,,,,,,,,,,,３１８,f,１９,2023-05-19_10h14.21.213,RL,2022.2.5,60.12180678065385,
43,29,62,55,0,0,0,0,,,,,21.39610950000042,21.39610950000042,26.395305400000325,26.395305400000325,26.395305400000325,27.39726850000079,None,27.39726850000079,27.39726850000079,27.39726850000079,27.39726850000079,27.39726850000079,27.39726850000079,r,0.5423971999998685,27.9697541000005,27.9697541000005,27.9697541000005,27.9697541000005,27.9697541000005,27.9697541000005,28.24993110000014,29.216153200000008,29.237881100000777,29.237881100000777,29.237881100000777,29.237881100000777,29.237881100000777,29.237881100000777,29.237881100000777,29.237881100000777,29.237881100000777,29.237881100000777,29.237881100000777,29.237881100000777,29.237881100000777,30.542107000000215,30.542107000000215,30.542107000000215,30.542107000000215,30.542107000000215,30.542107000000215,30.542107000000215,62,55,43,29,55,70,30.542107000000215,32.1464162000002,,,,,,,,,,,,３１８,f,１９,2023-05-19_10h14.21.213,RL,2022.2.5,60.12180678065385,
36,40,51,54,0,1,1,1,,,,,,,,,,,None,32.1464162000002,32.1464162000002,32.1464162000002,32.1464162000002,32.1464162000002,32.1464162000002,j,0.7481389999993553,32.91275440000027,32.91275440000027,32.91275440000027,32.91275440000027,32.91275440000027,32.91275440000027,33.1959822000008,34.66292590000012,34.679058600000644,34.679058600000644,34.679058600000644,34.679058600000644,34.679058600000644,34.679058600000644,34.679058600000644,34.679058600000644,34.679058600000644,34.679058600000644,34.679058600000644,34.679058600000644,34.679058600000644,36.443906500000594,36.443906500000594,36.443906500000594,36.443906500000594,36.443906500000594,36.443906500000594,36.443906500000594,51,54,36,40,40,70,36.443906500000594,38.261502199999995,,,,,,,,,,,,３１８,f,１９,2023-05-19_10h14.21.213,RL,2022.2.5,60.12180678065385,
43,44,51,57,0,2,2,2,,,,,,,,,,,None,38.261502199999995,38.261502199999995,38.261502199999995,38.261502199999995,38.261502199999995,38.261502199999995,f,0.399458500000037,38.678554500000246,38.678554500000246,38.678554500000246,38.678554500000246,38.678554500000246,38.678554500000246,38.96194420000029,40.66124240000045,40.67780530000073,40.67780530000073,40.67780530000073,40.67780530000073,40.67780530000073,40.67780530000073,40.67780530000073,40.67780530000073,40.67780530000073,40.67780530000073,40.67780530000073,40.67780530000073,40.67780530000073,42.67601850000028,42.67601850000028,42.67601850000028,42.67601850000028,42.67601850000028,42.67601850000028,42.67601850000028,51,57,43,44,51,70,42.67601850000028,44.67661820000012,,,,,,,,,,,,３１８,f,１９,2023-05-19_10h14.21.213,RL,2022.2.5,60.12180678065385,
50,49,57,63,0,3,3,3,,,,,,,,,,,None,44.67661820000012,44.67661820000012,44.67661820000012,44.67661820000012,44.67661820000012,44.67661820000012,j,0.3245587000001251,45.02745320000031,45.02745320000031,45.02745320000031,45.02745320000031,45.02745320000031,45.02745320000031,45.31028190000052,46.59404059999997,46.610502700000325,46.610502700000325,46.610502700000325,46.610502700000325,46.610502700000325,46.610502700000325,46.610502700000325,46.610502700000325,46.610502700000325,46.610502700000325,46.610502700000325,46.610502700000325,46.610502700000325,48.19175870000072,48.19175870000072,48.19175870000072,48.19175870000072,48.19175870000072,48.19175870000072,48.19175870000072,57,63,50,49,49,70,48.19175870000072,49.87617300000056,,,,,,,,,,,,３１８,f,１９,2023-05-19_10h14.21.213,RL,2022.2.5,60.12180678065385,
37,37,51,63,0,4,4,4,,,,,,,,,,,None,49.87617300000056,49.87617300000056,49.87617300000056,49.87617300000056,49.87617300000056,49.87617300000056,r,0.4039106999998694,50.31010090000018,50.31010090000018,50.31010090000018,50.31010090000018,50.31010090000018,50.31010090000018,50.5933414000001,52.39309450000019,52.41017270000066,52.41017270000066,52.41017270000066,52.41017270000066,52.41017270000066,52.41017270000066,52.41017270000066,52.41017270000066,52.41017270000066,52.41017270000066,52.41017270000066,52.41017270000066,52.41017270000066,54.52393540000048,54.52393540000048,54.52393540000048,54.52393540000048,54.52393540000048,54.52393540000048,54.52393540000048,51,63,37,37,63,70,54.52393540000048,56.34177500000078,,,,,,,,,,,,３１８,f,１９,2023-05-19_10h14.21.213,RL,2022.2.5,60.12180678065385,
43,41,49,61,0,5,5,5,,,,,,,,,,,None,56.34177500000078,56.34177500000078,56.34177500000078,56.34177500000078,56.34177500000078,56.34177500000078,i,0.2919807000007495,56.65877200000068,56.65877200000068,56.65877200000068,56.65877200000068,56.65877200000068,56.65877200000068,56.942129600000044,57.79190590000053,57.80845210000007,57.80845210000007,57.80845210000007,57.80845210000007,57.80845210000007,57.80845210000007,57.80845210000007,57.80845210000007,57.80845210000007,57.80845210000007,57.80845210000007,57.80845210000007,57.80845210000007,58.95634170000085,58.95634170000085,58.95634170000085,58.95634170000085,58.95634170000085,58.95634170000085,58.95634170000085,49,61,43,41,43,70,58.95634170000085,60.72438360000069,,,,,,,,,,,,３１８,f,１９,2023-05-19_10h14.21.213,RL,2022.2.5,60.12180678065385,
46,42,50,59,0,6,6,6,,,,,,,,,,,None,60.72438360000069,60.72438360000069,60.72438360000069,60.72438360000069,60.72438360000069,60.72438360000069,f,0.362486799999715,61.10817180000049,61.10817180000049,61.10817180000049,61.10817180000049,61.10817180000049,61.10817180000049,61.407690100000764,63.00740120000046,63.00740120000046,63.00740120000046,63.00740120000046,63.00740120000046,63.00740120000046,63.00740120000046,63.00740120000046,63.00740120000046,63.00740120000046,63.00740120000046,63.00740120000046,63.00740120000046,63.00740120000046,64.90535020000061,64.90535020000061,64.90535020000061,64.90535020000061,64.90535020000061,64.90535020000061,64.90535020000061,50,59,46,42,50,70,64.90535020000061,66.75682430000052,,,,,,,,,,,,３１８,f,１９,2023-05-19_10h14.21.213,RL,2022.2.5,60.12180678065385,
33,42,48,62,0,7,7,7,,,,,,,,,,,None,66.75682430000052,66.75682430000052,66.75682430000052,66.75682430000052,66.75682430000052,66.75682430000052,i,0.23880770000050688,67.02498270000069,67.02498270000069,67.02498270000069,67.02498270000069,67.02498270000069,67.02498270000069,67.32352450000053,68.37349670000003,68.37349670000003,68.37349670000003,68.37349670000003,68.37349670000003,68.37349670000003,68.37349670000003,68.37349670000003,68.37349670000003,68.37349670000003,68.37349670000003,68.37349670000003,68.37349670000003,68.37349670000003,69.72150990000046,69.72150990000046,69.72150990000046,69.72150990000046,69.72150990000046,69.72150990000046,69.72150990000046,48,62,33,42,33,70,69.72150990000046,71.68875130000015,,,,,,,,,,,,３１８,f,１９,2023-05-19_10h14.21.213,RL,2022.2.5,60.12180678065385,
38,42,50,58,0,8,8,8,,,,,,,,,,,None,71.68875130000015,71.68875130000015,71.68875130000015,71.68875130000015,71.68875130000015,71.68875130000015,i,0.2972944000002826,72.0060766000006,72.0060766000006,72.0060766000006,72.0060766000006,72.0060766000006,72.0060766000006,72.28906730000017,73.7724173000006,73.7894081000004,73.7894081000004,73.7894081000004,73.7894081000004,73.7894081000004,73.7894081000004,73.7894081000004,73.7894081000004,73.7894081000004,73.7894081000004,73.7894081000004,73.7894081000004,73.7894081000004,75.57003789999999,75.57003789999999,75.57003789999999,75.57003789999999,75.57003789999999,75.57003789999999,75.57003789999999,50,58,38,42,38,70,75.57003789999999,77.45467410000037,,,,,,,,,,,,３１８,f,１９,2023-05-19_10h14.21.213,RL,2022.2.5,60.12180678065385,
42,37,52,64,0,9,9,9,,,,,,,,,,,None,77.45467410000037,77.45467410000037,77.45467410000037,77.45467410000037,77.45467410000037,77.45467410000037,r,0.20766249999996944,77.68861680000009,77.68861680000009,77.68861680000009,77.68861680000009,77.68861680000009,77.68861680000009,77.9715827,79.70450580000033,79.72130800000014,79.72130800000014,79.72130800000014,79.72130800000014,79.72130800000014,79.72130800000014,79.72130800000014,79.72130800000014,79.72130800000014,79.72130800000014,79.72130800000014,79.72130800000014,79.72130800000014,81.75279450000016,81.75279450000016,81.75279450000016,81.75279450000016,81.75279450000016,81.75279450000016,81.75279450000016,52,64,42,37,64,70,81.75279450000016,83.60388420000072,,,,,,,,,,,,３１８,f,１９,2023-05-19_10h14.21.213,RL,2022.2.5,60.12180678065385,
38,44,57,62,0,10,10,10,,,,,,,,,,,None,83.60388420000072,83.60388420000072,83.60388420000072,83.60388420000072,83.60388420000072,83.60388420000072,f,0.39680050000060874,84.02060520000032,84.02060520000032,84.02060520000032,84.02060520000032,84.02060520000032,84.02060520000032,84.30375380000078,86.27023280000049,86.28662930000064,86.28662930000064,86.28662930000064,86.28662930000064,86.28662930000064,86.28662930000064,86.28662930000064,86.28662930000064,86.28662930000064,86.28662930000064,86.28662930000064,86.28662930000064,86.28662930000064,88.55172110000058,88.55172110000058,88.55172110000058,88.55172110000058,88.55172110000058,88.55172110000058,88.55172110000058,57,62,38,44,57,70,88.55172110000058,90.55256250000002,,,,,,,,,,,,３１８,f,１９,2023-05-19_10h14.21.213,RL,2022.2.5,60.12180678065385,
44,45,51,53,0,11,11,11,,,,,,,,,,,None,90.55256250000002,90.55256250000002,90.55256250000002,90.55256250000002,90.55256250000002,90.55256250000002,j,0.26045479999993404,90.83665810000002,90.83665810000002,90.83665810000002,90.83665810000002,90.83665810000002,90.83665810000002,91.1363052000006,92.80243840000003,92.80243840000003,92.80243840000003,92.80243840000003,92.80243840000003,92.80243840000003,92.80243840000003,92.80243840000003,92.80243840000003,92.80243840000003,92.80243840000003,92.80243840000003,92.80243840000003,92.80243840000003,94.76657760000035,94.76657760000035,94.76657760000035,94.76657760000035,94.76657760000035,94.76657760000035,94.76657760000035,51,53,44,45,45,70,94.76657760000035,96.7349750000003,,,,,,,,,,,,３１８,f,１９,2023-05-19_10h14.21.213,RL,2022.2.5,60.12180678065385,
40,49,52,64,0,12,12,12,,,,,,,,,,,None,96.7349750000003,96.7349750000003,96.7349750000003,96.7349750000003,96.7349750000003,96.7349750000003,j,0.23630640000010317,97.00319000000036,97.00319000000036,97.00319000000036,97.00319000000036,97.00319000000036,97.00319000000036,97.28529470000012,99.18446830000084,99.20124550000037,99.20124550000037,99.20124550000037,99.20124550000037,99.20124550000037,99.20124550000037,99.20124550000037,99.20124550000037,99.20124550000037,99.20124550000037,99.20124550000037,99.20124550000037,99.20124550000037,101.39933520000068,101.39933520000068,101.39933520000068,101.39933520000068,101.39933520000068,101.39933520000068,101.39933520000068,52,64,40,49,49,70,101.39933520000068,103.26689280000028,,,,,,,,,,,,３１８,f,１９,2023-05-19_10h14.21.213,RL,2022.2.5,60.12180678065385,
39,49,48,68,0,13,13,13,,,,,,,,,,,None,103.26689280000028,103.26689280000028,103.26689280000028,103.26689280000028,103.26689280000028,103.26689280000028,r,0.23390139999992243,103.53442150000046,103.53442150000046,103.53442150000046,103.53442150000046,103.53442150000046,103.53442150000046,103.81696660000034,104.95010330000059,104.9835832000008,104.9835832000008,104.9835832000008,104.9835832000008,104.9835832000008,104.9835832000008,104.9835832000008,104.9835832000008,104.9835832000008,104.9835832000008,104.9835832000008,104.9835832000008,104.9835832000008,106.41508420000082,106.41508420000082,106.41508420000082,106.41508420000082,106.41508420000082,106.41508420000082,106.41508420000082,48,68,39,49,68,70,106.41508420000082,108.11576490000061,,,,,,,,,,,,３１８,f,１９,2023-05-19_10h14.21.213,RL,2022.2.5,60.12180678065385,
38,57,55,56,0,14,14,14,,,,,,,,,,,None,108.11576490000061,108.11576490000061,108.11576490000061,108.11576490000061,108.11576490000061,108.11576490000061,r,0.3012029999999868,108.45577270000013,108.45577270000013,108.45577270000013,108.45577270000013,108.45577270000013,108.45577270000013,108.73300749999999,109.75001840000004,109.76573140000073,109.76573140000073,109.76573140000073,109.76573140000073,109.76573140000073,109.76573140000073,109.76573140000073,109.76573140000073,109.76573140000073,109.76573140000073,109.76573140000073,109.76573140000073,109.76573140000073,111.0807904000003,111.0807904000003,111.0807904000003,111.0807904000003,111.0807904000003,111.0807904000003,111.0807904000003,55,56,38,57,56,70,111.0807904000003,112.91494920000059,,,,,,,,,,,,３１８,f,１９,2023-05-19_10h14.21.213,RL,2022.2.5,60.12180678065385,
37,56,57,58,0,15,15,15,,,,,,,,,,,None,112.91494920000059,112.91494920000059,112.91494920000059,112.91494920000059,112.91494920000059,112.91494920000059,i,0.2687548000003517,113.21567110000069,113.21567110000069,113.21567110000069,113.21567110000069,113.21567110000069,113.21567110000069,113.4987813000007,114.81507800000054,114.8318762000008,114.8318762000008,114.8318762000008,114.8318762000008,114.8318762000008,114.8318762000008,114.8318762000008,114.8318762000008,114.8318762000008,114.8318762000008,114.8318762000008,114.8318762000008,114.8318762000008,116.44683010000062,116.44683010000062,116.44683010000062,116.44683010000062,116.44683010000062,116.44683010000062,116.44683010000062,57,58,37,56,37,70,116.44683010000062,118.33115830000042,,,,,,,,,,,,３１８,f,１９,2023-05-19_10h14.21.213,RL,2022.2.5,60.12180678065385,
37,43,66,59,0,16,16,16,,,,,,,,,,,None,118.33115830000042,118.33115830000042,118.33115830000042,118.33115830000042,118.33115830000042,118.33115830000042,f,0.229038300000866,118.5829160000003,118.5829160000003,118.5829160000003,118.5829160000003,118.5829160000003,118.5829160000003,118.86453630000051,119.93102369999997,119.94781690000036,119.94781690000036,119.94781690000036,119.94781690000036,119.94781690000036,119.94781690000036,119.94781690000036,119.94781690000036,119.94781690000036,119.94781690000036,119.94781690000036,119.94781690000036,119.94781690000036,121.31275060000007,121.31275060000007,121.31275060000007,121.31275060000007,121.31275060000007,121.31275060000007,121.31275060000007,66,59,37,43,66,70,121.31275060000007,123.04700400000002,,,,,,,,,,,,３１８,f,１９,2023-05-19_10h14.21.213,RL,2022.2.5,60.12180678065385,
39,48,61,61,0,17,17,17,,,,,,,,,,,None,123.04700400000002,123.04700400000002,123.04700400000002,123.04700400000002,123.04700400000002,123.04700400000002,i,0.4011006000000634,123.48525020000034,123.48525020000034,123.48525020000034,123.48525020000034,123.48525020000034,123.48525020000034,123.7635177000002,125.44663030000083,125.46334100000058,125.46334100000058,125.46334100000058,125.46334100000058,125.46334100000058,125.46334100000058,125.46334100000058,125.46334100000058,125.46334100000058,125.46334100000058,125.46334100000058,125.46334100000058,125.46334100000058,127.44457510000029,127.44457510000029,127.44457510000029,127.44457510000029,127.44457510000029,127.44457510000029,127.44457510000029,61,61,39,48,39,70,127.44457510000029,129.3956272000005,,,,,,,,,,,,３１８,f,１９,2023-05-19_10h14.21.213,RL,2022.2.5,60.12180678065385,
44,57,62,57,0,18,18,18,,,,,,,,,,,None,129.3956272000005,129.3956272000005,129.3956272000005,129.3956272000005,129.3956272000005,129.3956272000005,r,0.2572167999996964,129.67995510000037,129.67995510000037,129.67995510000037,129.67995510000037,129.67995510000037,129.67995510000037,129.97932830000082,131.49537560000044,131.49537560000044,131.49537560000044,131.49537560000044,131.49537560000044,131.49537560000044,131.49537560000044,131.49537560000044,131.49537560000044,131.49537560000044,131.49537560000044,131.49537560000044,131.49537560000044,131.49537560000044,133.31050310000046,133.31050310000046,133.31050310000046,133.31050310000046,133.31050310000046,133.31050310000046,133.31050310000046,62,57,44,57,57,70,133.31050310000046,134.87803630000053,,,,,,,,,,,,３１８,f,１９,2023-05-19_10h14.21.213,RL,2022.2.5,60.12180678065385,
30,51,55,72,0,19,19,19,,,,,,,,,,,None,134.87803630000053,134.87803630000053,134.87803630000053,134.87803630000053,134.87803630000053,134.87803630000053,j,0.6031433999996807,135.51184439999997,135.51184439999997,135.51184439999997,135.51184439999997,135.51184439999997,135.51184439999997,135.79478430000017,136.87820660000034,136.89472640000076,136.89472640000076,136.89472640000076,136.89472640000076,136.89472640000076,136.89472640000076,136.89472640000076,136.89472640000076,136.89472640000076,136.89472640000076,136.89472640000076,136.89472640000076,136.89472640000076,138.27608510000027,138.27608510000027,138.27608510000027,138.27608510000027,138.27608510000027,138.27608510000027,138.27608510000027,55,72,30,51,51,70,138.27608510000027,140.1602842000002,,,,,,,,,,,,３１８,f,１９,2023-05-19_10h14.21.213,RL,2022.2.5,60.12180678065385,
32,48,64,72,0,20,20,20,,,,,,,,,,,None,140.1602842000002,140.1602842000002,140.1602842000002,140.1602842000002,140.1602842000002,140.1602842000002,r,0.2662148999997953,140.44419650000054,140.44419650000054,140.44419650000054,140.44419650000054,140.44419650000054,140.44419650000054,140.7273309000002,141.7607280000002,141.77703250000013,141.77703250000013,141.77703250000013,141.77703250000013,141.77703250000013,141.77703250000013,141.77703250000013,141.77703250000013,141.77703250000013,141.77703250000013,141.77703250000013,141.77703250000013,141.77703250000013,143.108792,143.108792,143.108792,143.108792,143.108792,143.108792,143.108792,64,72,32,48,72,70,143.108792,144.80991360000007,,,,,,,,,,,,３１８,f,１９,2023-05-19_10h14.21.213,RL,2022.2.5,60.12180678065385,
38,39,62,75,0,21,21,21,,,,,,,,,,,None,144.80991360000007,144.80991360000007,144.80991360000007,144.80991360000007,144.80991360000007,144.80991360000007,f,0.36806239999987156,145.21959440000046,145.21959440000046,145.21959440000046,145.21959440000046,145.21959440000046,145.21959440000046,145.49363549999998,146.42626510000082,146.4433469000005,146.4433469000005,146.4433469000005,146.4433469000005,146.4433469000005,146.4433469000005,146.4433469000005,146.4433469000005,146.4433469000005,146.4433469000005,146.4433469000005,146.4433469000005,146.4433469000005,147.67440270000043,147.67440270000043,147.67440270000043,147.67440270000043,147.67440270000043,147.67440270000043,147.67440270000043,62,75,38,39,62,70,147.67440270000043,149.4257045000004,,,,,,,,,,,,３１８,f,１９,2023-05-19_10h14.21.213,RL,2022.2.5,60.12180678065385,
39,39,58,71,0,22,22,22,,,,,,,,,,,None,149.4257045000004,149.4257045000004,149.4257045000004,149.4257045000004,149.4257045000004,149.4257045000004,j,0.26066009999976814,149.70935350000036,149.70935350000036,149.70935350000036,149.70935350000036,149.70935350000036,149.70935350000036,149.99269060000006,150.80901540000013,150.8253631000007,150.8253631000007,150.8253631000007,150.8253631000007,150.8253631000007,150.8253631000007,150.8253631000007,150.8253631000007,150.8253631000007,150.8253631000007,150.8253631000007,150.8253631000007,150.8253631000007,151.94054770000002,151.94054770000002,151.94054770000002,151.94054770000002,151.94054770000002,151.94054770000002,151.94054770000002,58,71,39,39,39,70,151.94054770000002,153.60793770000055,,,,,,,,,,,,３１８,f,１９,2023-05-19_10h14.21.213,RL,2022.2.5,60.12180678065385,
32,46,56,79,0,23,23,23,,,,,,,,,,,None,153.60793770000055,153.60793770000055,153.60793770000055,153.60793770000055,153.60793770000055,153.60793770000055,j,0.2864278999995804,153.9251935000002,153.9251935000002,153.9251935000002,153.9251935000002,153.9251935000002,153.9251935000002,154.20836970000073,155.14169610000044,155.1580885000003,155.1580885000003,155.1580885000003,155.1580885000003,155.1580885000003,155.1580885000003,155.1580885000003,155.1580885000003,155.1580885000003,155.1580885000003,155.1580885000003,155.1580885000003,155.1580885000003,156.3895994000004,156.3895994000004,156.3895994000004,156.3895994000004,156.3895994000004,156.3895994000004,156.3895994000004,56,79,32,46,46,70,156.3895994000004,158.15742350000073,,,,,,,,,,,,３１８,f,１９,2023-05-19_10h14.21.213,RL,2022.2.5,60.12180678065385,
37,53,59,73,0,24,24,24,,,,,,,,,,,None,158.15742350000073,158.15742350000073,158.15742350000073,158.15742350000073,158.15742350000073,158.15742350000073,r,0.2478240000000369,158.42442700000083,158.42442700000083,158.42442700000083,158.42442700000083,158.42442700000083,158.42442700000083,158.70785480000086,159.70736280000074,159.72395040000083,159.72395040000083,159.72395040000083,159.72395040000083,159.72395040000083,159.72395040000083,159.72395040000083,159.72395040000083,159.72395040000083,159.72395040000083,159.72395040000083,159.72395040000083,159.72395040000083,161.02208280000013,161.02208280000013,161.02208280000013,161.02208280000013,161.02208280000013,161.02208280000013,161.02208280000013,59,73,37,53,73,70,161.02208280000013,162.9235232000001,,,,,,,,,,,,３１８,f,１９,2023-05-19_10h14.21.213,RL,2022.2.5,60.12180678065385,
46,50,56,84,0,25,25,25,,,,,,,,,,,None,162.9235232000001,162.9235232000001,162.9235232000001,162.9235232000001,162.9235232000001,162.9235232000001,i,0.2342462999995405,163.19546060000084,163.19546060000084,163.19546060000084,163.19546060000084,163.19546060000084,163.19546060000084,163.49018660000002,164.95678130000033,164.95678130000033,164.95678130000033,164.95678130000033,164.95678130000033,164.95678130000033,164.95678130000033,164.95678130000033,164.95678130000033,164.95678130000033,164.95678130000033,164.95678130000033,164.95678130000033,164.95678130000033,166.7212924000005,166.7212924000005,166.7212924000005,166.7212924000005,166.7212924000005,166.7212924000005,166.7212924000005,56,84,46,50,46,70,166.7212924000005,168.3219779000001,,,,,,,,,,,,３１８,f,１９,2023-05-19_10h14.21.213,RL,2022.2.5,60.12180678065385,
38,42,66,77,0,26,26,26,,,,,,,,,,,None,168.3219779000001,168.3219779000001,168.3219779000001,168.3219779000001,168.3219779000001,168.3219779000001,f,0.27270749999934196,168.6242114000006,168.6242114000006,168.6242114000006,168.6242114000006,168.6242114000006,168.6242114000006,168.90602600000057,169.90613440000016,169.9222520000003,169.9222520000003,169.9222520000003,169.9222520000003,169.9222520000003,169.9222520000003,169.9222520000003,169.9222520000003,169.9222520000003,169.9222520000003,169.9222520000003,169.9222520000003,169.9222520000003,171.2201743000005,171.2201743000005,171.2201743000005,171.2201743000005,171.2201743000005,171.2201743000005,171.2201743000005,66,77,38,42,66,70,171.2201743000005,173.08777650000047,,,,,,,,,,,,３１８,f,１９,2023-05-19_10h14.21.213,RL,2022.2.5,60.12180678065385,
35,46,60,69,0,27,27,27,,,,,,,,,,,None,173.08777650000047,173.08777650000047,173.08777650000047,173.08777650000047,173.08777650000047,173.08777650000047,r,0.4972398999998404,173.6072120000008,173.6072120000008,173.6072120000008,173.6072120000008,173.6072120000008,173.6072120000008,173.88846590000048,175.25502210000013,175.27147740000055,175.27147740000055,175.27147740000055,175.27147740000055,175.27147740000055,175.27147740000055,175.27147740000055,175.27147740000055,175.27147740000055,175.27147740000055,175.27147740000055,175.27147740000055,175.27147740000055,176.9358355000004,176.9358355000004,176.9358355000004,176.9358355000004,176.9358355000004,176.9358355000004,176.9358355000004,60,69,35,46,69,70,176.9358355000004,178.77065660000062,,,,,,,,,,,,３１８,f,１９,2023-05-19_10h14.21.213,RL,2022.2.5,60.12180678065385,
41,52,69,77,0,28,28,28,,,,,,,,,,,None,178.77065660000062,178.77065660000062,178.77065660000062,178.77065660000062,178.77065660000062,178.77065660000062,j,0.2386677000004056,179.03732430000036,179.03732430000036,179.03732430000036,179.03732430000036,179.03732430000036,179.03732430000036,179.32074550000016,180.13726620000034,180.1535988000005,180.1535988000005,180.1535988000005,180.1535988000005,180.1535988000005,180.1535988000005,180.1535988000005,180.1535988000005,180.1535988000005,180.1535988000005,180.1535988000005,180.1535988000005,180.1535988000005,181.26868830000058,181.26868830000058,181.26868830000058,181.26868830000058,181.26868830000058,181.26868830000058,181.26868830000058,69,77,41,52,52,70,181.26868830000058,183.01995180000085,,,,,,,,,,,,３１８,f,１９,2023-05-19_10h14.21.213,RL,2022.2.5,60.12180678065385,
26,42,74,89,0,29,29,29,,,,,,,,,,,None,183.01995180000085,183.01995180000085,183.01995180000085,183.01995180000085,183.01995180000085,183.01995180000085,r,0.3148823999999877,183.35543380000036,183.35543380000036,183.35543380000036,183.35543380000036,183.35543380000036,183.35543380000036,183.65325070000017,184.8864934000003,184.8864934000003,184.8864934000003,184.8864934000003,184.8864934000003,184.8864934000003,184.8864934000003,184.8864934000003,184.8864934000003,184.8864934000003,184.8864934000003,184.8864934000003,184.8864934000003,184.8864934000003,186.41814820000036,186.41814820000036,186.41814820000036,186.41814820000036,186.41814820000036,186.41814820000036,186.41814820000036,74,89,26,42,89,70,186.41814820000036,188.18555080000078,,,,,,,,,,,,３１８,f,１９,2023-05-19_10h14.21.213,RL,2022.2.5,60.12180678065385,
41,46,82,87,0,30,30,30,,,,,,,,,,,None,188.18555080000078,188.18555080000078,188.18555080000078,188.18555080000078,188.18555080000078,188.18555080000078,f,0.2542131000000154,188.46902690000024,188.46902690000024,188.46902690000024,188.46902690000024,188.46902690000024,188.46902690000024,188.7521168000003,190.51907100000062,190.53552770000078,190.53552770000078,190.53552770000078,190.53552770000078,190.53552770000078,190.53552770000078,190.53552770000078,190.53552770000078,190.53552770000078,190.53552770000078,190.53552770000078,190.53552770000078,190.53552770000078,192.60002860000077,192.60002860000077,192.60002860000077,192.60002860000077,192.60002860000077,192.60002860000077,192.60002860000077,82,87,41,46,82,70,192.60002860000077,194.56762900000012,,,,,,,,,,,,３１８,f,１９,2023-05-19_10h14.21.213,RL,2022.2.5,60.12180678065385,
35,49,75,86,0,31,31,31,,,,,,,,,,,None,194.56762900000012,194.56762900000012,194.56762900000012,194.56762900000012,194.56762900000012,194.56762900000012,r,0.23186189999978524,194.81822450000072,194.81822450000072,194.81822450000072,194.81822450000072,194.81822450000072,194.81822450000072,195.10127020000073,196.35134860000016,196.36758720000034,196.36758720000034,196.36758720000034,196.36758720000034,196.36758720000034,196.36758720000034,196.36758720000034,196.36758720000034,196.36758720000034,196.36758720000034,196.36758720000034,196.36758720000034,196.36758720000034,197.91532750000079,197.91532750000079,197.91532750000079,197.91532750000079,197.91532750000079,197.91532750000079,197.91532750000079,75,86,35,49,86,70,197.91532750000079,199.8499270000002,,,,,,,,,,,,３１８,f,１９,2023-05-19_10h14.21.213,RL,2022.2.5,60.12180678065385,
32,42,75,81,0,32,32,32,,,,,,,,,,,None,199.8499270000002,199.8499270000002,199.8499270000002,199.8499270000002,199.8499270000002,199.8499270000002,f,0.2295895000006567,200.10039300000062,200.10039300000062,200.10039300000062,200.10039300000062,200.10039300000062,200.10039300000062,200.3840336000003,202.20002060000024,202.21653650000007,202.21653650000007,202.21653650000007,202.21653650000007,202.21653650000007,202.21653650000007,202.21653650000007,202.21653650000007,202.21653650000007,202.21653650000007,202.21653650000007,202.21653650000007,202.21653650000007,204.3308693000008,204.3308693000008,204.3308693000008,204.3308693000008,204.3308693000008,204.3308693000008,204.3308693000008,75,81,32,42,75,70,204.3308693000008,206.31566850000036,,,,,,,,,,,,３１８,f,１９,2023-05-19_10h14.21.213,RL,2022.2.5,60.12180678065385,
32,44,65,92,0,33,33,33,,,,,,,,,,,None,206.31566850000036,206.31566850000036,206.31566850000036,206.31566850000036,206.31566850000036,206.31566850000036,j,0.262263300000086,206.59931360000064,206.59931360000064,206.59931360000064,206.59931360000064,206.59931360000064,206.59931360000064,206.8829349000007,208.16566409999996,208.18249990000004,208.18249990000004,208.18249990000004,208.18249990000004,208.18249990000004,208.18249990000004,208.18249990000004,208.18249990000004,208.18249990000004,208.18249990000004,208.18249990000004,208.18249990000004,208.18249990000004,209.7632947000002,209.7632947000002,209.7632947000002,209.7632947000002,209.7632947000002,209.7632947000002,209.7632947000002,65,92,32,44,44,70,209.7632947000002,211.63174320000053,,,,,,,,,,,,３１８,f,１９,2023-05-19_10h14.21.213,RL,2022.2.5,60.12180678065385,
22,41,69,91,0,34,34,34,,,,,,,,,,,None,211.63174320000053,211.63174320000053,211.63174320000053,211.63174320000053,211.63174320000053,211.63174320000053,r,0.24127899999984947,211.89921420000064,211.89921420000064,211.89921420000064,211.89921420000064,211.89921420000064,211.89921420000064,212.19842170000084,213.49789080000028,213.49789080000028,213.49789080000028,213.49789080000028,213.49789080000028,213.49789080000028,213.49789080000028,213.49789080000028,213.49789080000028,213.49789080000028,213.49789080000028,213.49789080000028,213.49789080000028,213.49789080000028,215.09635080000044,215.09635080000044,215.09635080000044,215.09635080000044,215.09635080000044,215.09635080000044,215.09635080000044,69,91,22,41,91,70,215.09635080000044,216.89748490000056,,,,,,,,,,,,３１８,f,１９,2023-05-19_10h14.21.213,RL,2022.2.5,60.12180678065385,
36,38,77,77,0,35,35,35,,,,,,,,,,,None,216.89748490000056,216.89748490000056,216.89748490000056,216.89748490000056,216.89748490000056,216.89748490000056,f,0.2952777000000424,217.21449690000009,217.21449690000009,217.21449690000009,217.21449690000009,217.21449690000009,217.21449690000009,217.4977531000004,219.48018310000043,219.49697220000053,219.49697220000053,219.49697220000053,219.49697220000053,219.49697220000053,219.49697220000053,219.49697220000053,219.49697220000053,219.49697220000053,219.49697220000053,219.49697220000053,219.49697220000053,219.49697220000053,221.77860130000045,221.77860130000045,221.77860130000045,221.77860130000045,221.77860130000045,221.77860130000045,221.77860130000045,77,77,36,38,77,70,221.77860130000045,223.56300499999998,,,,,,,,,,,,３１８,f,１９,2023-05-19_10h14.21.213,RL,2022.2.5,60.12180678065385,
35,38,82,82,0,36,36,36,,,,,,,,,,,None,223.56300499999998,223.56300499999998,223.56300499999998,223.56300499999998,223.56300499999998,223.56300499999998,r,0.27196920000005775,223.86511260000043,223.86511260000043,223.86511260000043,223.86511260000043,223.86511260000043,223.86511260000043,224.1634311000007,225.26247570000032,225.26247570000032,225.26247570000032,225.26247570000032,225.26247570000032,225.26247570000032,225.26247570000032,225.26247570000032,225.26247570000032,225.26247570000032,225.26247570000032,225.26247570000032,225.26247570000032,225.26247570000032,226.66067180000027,226.66067180000027,226.66067180000027,226.66067180000027,226.66067180000027,226.66067180000027,226.66067180000027,82,82,35,38,82,70,226.66067180000027,228.49537060000057,,,,,,,,,,,,３１８,f,１９,2023-05-19_10h14.21.213,RL,2022.2.5,60.12180678065385,
23,40,77,86,0,37,37,37,,,,,,,,,,,None,228.49537060000057,228.49537060000057,228.49537060000057,228.49537060000057,228.49537060000057,228.49537060000057,f,0.29881009999917296,228.81305599999996,228.81305599999996,228.81305599999996,228.81305599999996,228.81305599999996,228.81305599999996,229.11203830000068,230.2450273000004,230.2450273000004,230.2450273000004,230.2450273000004,230.2450273000004,230.2450273000004,230.2450273000004,230.2450273000004,230.2450273000004,230.2450273000004,230.2450273000004,230.2450273000004,230.2450273000004,230.2450273000004,231.6765976000006,231.6765976000006,231.6765976000006,231.6765976000006,231.6765976000006,231.6765976000006,231.6765976000006,77,86,23,40,77,70,231.6765976000006,233.47748870000032,,,,,,,,,,,,３１８,f,１９,2023-05-19_10h14.21.213,RL,2022.2.5,60.12180678065385,
29,33,78,79,0,38,38,38,,,,,,,,,,,None,233.47748870000032,233.47748870000032,233.47748870000032,233.47748870000032,233.47748870000032,233.47748870000032,f,0.25702799999999115,233.76265220000005,233.76265220000005,233.76265220000005,233.76265220000005,233.76265220000005,233.76265220000005,234.06125020000036,235.57777550000083,235.57777550000083,235.57777550000083,235.57777550000083,235.57777550000083,235.57777550000083,235.57777550000083,235.57777550000083,235.57777550000083,235.57777550000083,235.57777550000083,235.57777550000083,235.57777550000083,235.57777550000083,237.3919721000002,237.3919721000002,237.3919721000002,237.3919721000002,237.3919721000002,237.3919721000002,237.3919721000002,78,79,29,33,78,70,237.3919721000002,238.97669740000038,,,,,,,,,,,,３１８,f,１９,2023-05-19_10h14.21.213,RL,2022.2.5,60.12180678065385,
35,39,83,77,0,39,39,39,,,,,,,,,,,None,238.97669740000038,238.97669740000038,238.97669740000038,238.97669740000038,238.97669740000038,238.97669740000038,r,0.217866299999514,239.23263530000077,239.23263530000077,239.23263530000077,239.23263530000077,239.23263530000077,239.23263530000077,239.51035200000024,241.01028510000015,241.02694240000073,241.02694240000073,241.02694240000073,241.02694240000073,241.02694240000073,241.02694240000073,241.02694240000073,241.02694240000073,241.02694240000073,241.02694240000073,241.02694240000073,241.02694240000073,241.02694240000073,242.82469710000078,242.82469710000078,242.82469710000078,242.82469710000078,242.82469710000078,242.82469710000078,242.82469710000078,83,77,35,39,77,70,242.82469710000078,244.74229990000003,,,,,,,,,,,,３１８,f,１９,2023-05-19_10h14.21.213,RL,2022.2.5,60.12180678065385,
25,36,77,76,0,40,40,40,,,,,,,,,,,None,244.74229990000003,244.74229990000003,244.74229990000003,244.74229990000003,244.74229990000003,244.74229990000003,f,0.2391725999996197,245.00929750000068,245.00929750000068,245.00929750000068,245.00929750000068,245.00929750000068,245.00929750000068,245.3090112,246.70876960000078,246.70876960000078,246.70876960000078,246.70876960000078,246.70876960000078,246.70876960000078,246.70876960000078,246.70876960000078,246.70876960000078,246.70876960000078,246.70876960000078,246.70876960000078,246.70876960000078,246.70876960000078,248.40700540000034,248.40700540000034,248.40700540000034,248.40700540000034,248.40700540000034,248.40700540000034,248.40700540000034,77,76,25,36,77,70,248.40700540000034,250.37474610000027,,,,,,,,,,,,３１８,f,１９,2023-05-19_10h14.21.213,RL,2022.2.5,60.12180678065385,
32,44,81,73,0,41,41,41,,,,,,,,,,,None,250.37474610000027,250.37474610000027,250.37474610000027,250.37474610000027,250.37474610000027,250.37474610000027,r,0.23846950000006473,250.64278280000053,250.64278280000053,250.64278280000053,250.64278280000053,250.64278280000053,250.64278280000053,250.92473150000023,252.55804640000042,252.57454100000086,252.57454100000086,252.57454100000086,252.57454100000086,252.57454100000086,252.57454100000086,252.57454100000086,252.57454100000086,252.57454100000086,252.57454100000086,252.57454100000086,252.57454100000086,252.57454100000086,254.50612570000067,254.50612570000067,254.50612570000067,254.50612570000067,254.50612570000067,254.50612570000067,254.50612570000067,81,73,32,44,73,70,254.50612570000067,256.2738739000006,,,,,,,,,,,,３１８,f,１９,2023-05-19_10h14.21.213,RL,2022.2.5,60.12180678065385,
40,40,79,79,0,42,42,42,,,,,,,,,,,None,256.2738739000006,256.2738739000006,256.2738739000006,256.2738739000006,256.2738739000006,256.2738739000006,r,0.3360972000000402,256.6437743000006,256.6437743000006,256.6437743000006,256.6437743000006,256.6437743000006,256.6437743000006,256.9241125000008,258.90707629999997,258.9234335000001,258.9234335000001,258.9234335000001,258.9234335000001,258.9234335000001,258.9234335000001,258.9234335000001,258.9234335000001,258.9234335000001,258.9234335000001,258.9234335000001,258.9234335000001,258.9234335000001,261.20451930000036,261.20451930000036,261.20451930000036,261.20451930000036,261.20451930000036,261.20451930000036,261.20451930000036,79,79,40,40,79,70,261.20451930000036,262.8057340000005,,,,,,,,,,,,３１８,f,１９,2023-05-19_10h14.21.213,RL,2022.2.5,60.12180678065385,
31,44,78,84,0,43,43,43,,,,,,,,,,,None,262.8057340000005,262.8057340000005,262.8057340000005,262.8057340000005,262.8057340000005,262.8057340000005,r,0.2204423000002862,263.0578512000002,263.0578512000002,263.0578512000002,263.0578512000002,263.0578512000002,263.0578512000002,263.3392551000006,265.13903220000066,265.1556046000005,265.1556046000005,265.1556046000005,265.1556046000005,265.1556046000005,265.1556046000005,265.1556046000005,265.1556046000005,265.1556046000005,265.1556046000005,265.1556046000005,265.1556046000005,265.1556046000005,267.2537086000002,267.2537086000002,267.2537086000002,267.2537086000002,267.2537086000002,267.2537086000002,267.2537086000002,78,84,31,44,84,70,267.2537086000002,269.1377678000008,,,,,,,,,,,,３１８,f,１９,2023-05-19_10h14.21.213,RL,2022.2.5,60.12180678065385,
31,42,81,63,0,44,44,44,,,,,,,,,,,None,269.1377678000008,269.1377678000008,269.1377678000008,269.1377678000008,269.1377678000008,269.1377678000008,r,0.2470038999999815,269.40509680000014,269.40509680000014,269.40509680000014,269.40509680000014,269.40509680000014,269.40509680000014,269.6881989000003,271.68785800000023,271.7044910000004,271.7044910000004,271.7044910000004,271.7044910000004,271.7044910000004,271.7044910000004,271.7044910000004,271.7044910000004,271.7044910000004,271.7044910000004,271.7044910000004,271.7044910000004,271.7044910000004,274.0026703000003,274.0026703000003,274.0026703000003,274.0026703000003,274.0026703000003,274.0026703000003,274.0026703000003,81,63,31,42,63,70,274.0026703000003,275.6873959000004,,,,,,,,,,,,３１８,f,１９,2023-05-19_10h14.21.213,RL,2022.2.5,60.12180678065385,
29,39,78,62,0,45,45,45,,,,,,,,,,,None,275.6873959000004,275.6873959000004,275.6873959000004,275.6873959000004,275.6873959000004,275.6873959000004,r,0.23562719999972614,275.95696560000033,275.95696560000033,275.95696560000033,275.95696560000033,275.95696560000033,275.95696560000033,276.23701020000044,278.1037259000004,278.12029730000086,278.12029730000086,278.12029730000086,278.12029730000086,278.12029730000086,278.12029730000086,278.12029730000086,278.12029730000086,278.12029730000086,278.12029730000086,278.12029730000086,278.12029730000086,278.12029730000086,280.2846382000007,280.2846382000007,280.2846382000007,280.2846382000007,280.2846382000007,280.2846382000007,280.2846382000007,78,62,29,39,62,70,280.2846382000007,282.1021369,,,,,,,,,,,,３１８,f,１９,2023-05-19_10h14.21.213,RL,2022.2.5,60.12180678065385,
20,36,80,62,0,46,46,46,,,,,,,,,,,None,282.1021369,282.1021369,282.1021369,282.1021369,282.1021369,282.1021369,f,0.26400069999999687,282.3862020000006,282.3862020000006,282.3862020000006,282.3862020000006,282.3862020000006,282.3862020000006,282.6693939000006,284.4689851000003,284.48570220000056,284.48570220000056,284.48570220000056,284.48570220000056,284.48570220000056,284.48570220000056,284.48570220000056,284.48570220000056,284.48570220000056,284.48570220000056,284.48570220000056,284.48570220000056,284.48570220000056,286.58369780000066,286.58369780000066,286.58369780000066,286.58369780000066,286.58369780000066,286.58369780000066,286.58369780000066,80,62,20,36,80,70,286.58369780000066,288.5847132000008,,,,,,,,,,,,３１８,f,１９,2023-05-19_10h14.21.213,RL,2022.2.5,60.12180678065385,
25,37,73,59,0,47,47,47,,,,,,,,,,,None,288.5847132000008,288.5847132000008,288.5847132000008,288.5847132000008,288.5847132000008,288.5847132000008,f,0.2729464000003645,288.8858102000004,288.8858102000004,288.8858102000004,288.8858102000004,288.8858102000004,288.8858102000004,289.1680976000007,290.13446440000007,290.1514037000006,290.1514037000006,290.1514037000006,290.1514037000006,290.1514037000006,290.1514037000006,290.1514037000006,290.1514037000006,290.1514037000006,290.1514037000006,290.1514037000006,290.1514037000006,290.1514037000006,291.41621230000055,291.41621230000055,291.41621230000055,291.41621230000055,291.41621230000055,291.41621230000055,291.41621230000055,73,59,25,37,73,70,291.41621230000055,293.4003294000004,,,,,,,,,,,,３１８,f,１９,2023-05-19_10h14.21.213,RL,2022.2.5,60.12180678065385,
17,37,73,68,0,48,48,48,,,,,,,,,,,None,293.4003294000004,293.4003294000004,293.4003294000004,293.4003294000004,293.4003294000004,293.4003294000004,r,0.22674950000055105,293.65087700000004,293.65087700000004,293.65087700000004,293.65087700000004,293.65087700000004,293.65087700000004,293.9344108000005,295.33364770000026,295.35036110000055,295.35036110000055,295.35036110000055,295.35036110000055,295.35036110000055,295.35036110000055,295.35036110000055,295.35036110000055,295.35036110000055,295.35036110000055,295.35036110000055,295.35036110000055,295.35036110000055,297.04875880000054,297.04875880000054,297.04875880000054,297.04875880000054,297.04875880000054,297.04875880000054,297.04875880000054,73,68,17,37,68,70,297.04875880000054,298.6663999000002,,,,,,,,,,,,３１８,f,１９,2023-05-19_10h14.21.213,RL,2022.2.5,60.12180678065385,
20,34,75,68,0,49,49,49,,,,,,,,,,,None,298.6663999000002,298.6663999000002,298.6663999000002,298.6663999000002,298.6663999000002,298.6663999000002,j,0.2647225000000617,298.9502513000007,298.9502513000007,298.9502513000007,298.9502513000007,298.9502513000007,298.9502513000007,299.24983000000066,300.9327738000002,300.9327738000002,300.9327738000002,300.9327738000002,300.9327738000002,300.9327738000002,300.9327738000002,300.9327738000002,300.9327738000002,300.9327738000002,300.9327738000002,300.9327738000002,300.9327738000002,300.9327738000002,302.91427640000074,302.91427640000074,302.91427640000074,302.91427640000074,302.91427640000074,302.91427640000074,302.91427640000074,75,68,20,34,34,70,302.91427640000074,304.5656676000008,,,,,,,,,,,,３１８,f,１９,2023-05-19_10h14.21.213,RL,2022.2.5,60.12180678065385,
25,50,63,65,0,50,50,50,,,,,,,,,,,None,304.5656676000008,304.5656676000008,304.5656676000008,304.5656676000008,304.5656676000008,304.5656676000008,f,0.22775799999999435,304.8155332000006,304.8155332000006,304.8155332000006,304.8155332000006,304.8155332000006,304.8155332000006,305.09891940000034,307.06557150000026,307.0820068000003,307.0820068000003,307.0820068000003,307.0820068000003,307.0820068000003,307.0820068000003,307.0820068000003,307.0820068000003,307.0820068000003,307.0820068000003,307.0820068000003,307.0820068000003,307.0820068000003,309.3462853000001,309.3462853000001,309.3462853000001,309.3462853000001,309.3462853000001,309.3462853000001,309.3462853000001,63,65,25,50,63,70,309.3462853000001,311.24736460000076,,,,,,,,,,,,３１８,f,１９,2023-05-19_10h14.21.213,RL,2022.2.5,60.12180678065385,
24,42,80,62,0,51,51,51,,,,,,,,,,,None,311.24736460000076,311.24736460000076,311.24736460000076,311.24736460000076,311.24736460000076,311.24736460000076,r,0.29932649999955174,311.5658147000004,311.5658147000004,311.5658147000004,311.5658147000004,311.5658147000004,311.5658147000004,311.8476935000008,313.8304801000004,313.8471285000005,313.8471285000005,313.8471285000005,313.8471285000005,313.8471285000005,313.8471285000005,313.8471285000005,313.8471285000005,313.8471285000005,313.8471285000005,313.8471285000005,313.8471285000005,313.8471285000005,316.1288017000006,316.1288017000006,316.1288017000006,316.1288017000006,316.1288017000006,316.1288017000006,316.1288017000006,80,62,24,42,62,70,316.1288017000006,317.76334040000074,,,,,,,,,,,,３１８,f,１９,2023-05-19_10h14.21.213,RL,2022.2.5,60.12180678065385,
24,39,74,69,0,52,52,52,,,,,,,,,,,None,317.76334040000074,317.76334040000074,317.76334040000074,317.76334040000074,317.76334040000074,317.76334040000074,f,0.29779400000006717,318.08025970000017,318.08025970000017,318.08025970000017,318.08025970000017,318.08025970000017,318.08025970000017,318.3630899,319.5462943000002,319.56299190000027,319.56299190000027,319.56299190000027,319.56299190000027,319.56299190000027,319.56299190000027,319.56299190000027,319.56299190000027,319.56299190000027,319.56299190000027,319.56299190000027,319.56299190000027,319.56299190000027,321.0446015000007,321.0446015000007,321.0446015000007,321.0446015000007,321.0446015000007,321.0446015000007,321.0446015000007,74,69,24,39,74,70,321.0446015000007,322.87875630000053,,,,,,,,,,,,３１８,f,１９,2023-05-19_10h14.21.213,RL,2022.2.5,60.12180678065385,
31,37,76,60,0,53,53,53,,,,,,,,,,,None,322.87875630000053,322.87875630000053,322.87875630000053,322.87875630000053,322.87875630000053,322.87875630000053,r,0.2162546999998085,323.11270550000063,323.11270550000063,323.11270550000063,323.11270550000063,323.11270550000063,323.11270550000063,323.3958895000005,325.27893010000025,325.2955728000006,325.2955728000006,325.2955728000006,325.2955728000006,325.2955728000006,325.2955728000006,325.2955728000006,325.2955728000006,325.2955728000006,325.2955728000006,325.2955728000006,325.2955728000006,325.2955728000006,327.47657530000015,327.47657530000015,327.47657530000015,327.47657530000015,327.47657530000015,327.47657530000015,327.47657530000015,76,60,31,37,60,70,327.47657530000015,329.0108566000008,,,,,,,,,,,,３１８,f,１９,2023-05-19_10h14.21.213,RL,2022.2.5,60.12180678065385,
27,32,68,57,0,54,54,54,,,,,,,,,,,None,329.0108566000008,329.0108566000008,329.0108566000008,329.0108566000008,329.0108566000008,329.0108566000008,r,0.3539413999997123,329.40246690000004,329.40246690000004,329.40246690000004,329.40246690000004,329.40246690000004,329.40246690000004,329.67826500000047,331.4946084000003,331.51114340000004,331.51114340000004,331.51114340000004,331.51114340000004,331.51114340000004,331.51114340000004,331.51114340000004,331.51114340000004,331.51114340000004,331.51114340000004,331.51114340000004,331.51114340000004,331.51114340000004,333.62538790000053,333.62538790000053,333.62538790000053,333.62538790000053,333.62538790000053,333.62538790000053,333.62538790000053,68,57,27,32,57,70,333.62538790000053,335.2928957000004,,,,,,,,,,,,３１８,f,１９,2023-05-19_10h14.21.213,RL,2022.2.5,60.12180678065385,
24,35,82,60,0,55,55,55,,,,,,,,,,,None,335.2928957000004,335.2928957000004,335.2928957000004,335.2928957000004,335.2928957000004,335.2928957000004,i,0.3345544999992853,335.64693520000037,335.64693520000037,335.64693520000037,335.64693520000037,335.64693520000037,335.64693520000037,335.94359130000066,337.3929997000005,337.3929997000005,337.3929997000005,337.3929997000005,337.3929997000005,337.3929997000005,337.3929997000005,337.3929997000005,337.3929997000005,337.3929997000005,337.3929997000005,337.3929997000005,337.3929997000005,337.3929997000005,339.14229590000014,339.14229590000014,339.14229590000014,339.14229590000014,339.14229590000014,339.14229590000014,339.14229590000014,82,60,24,35,24,70,339.14229590000014,340.9252666000002,,,,,,,,,,,,３１８,f,１９,2023-05-19_10h14.21.213,RL,2022.2.5,60.12180678065385,
31,35,73,63,0,56,56,56,,,,,,,,,,,None,340.9252666000002,340.9252666000002,340.9252666000002,340.9252666000002,340.9252666000002,340.9252666000002,f,0.24025689999962196,341.19652900000074,341.19652900000074,341.19652900000074,341.19652900000074,341.19652900000074,341.19652900000074,341.4758543000007,342.9587592000007,342.9753913000004,342.9753913000004,342.9753913000004,342.9753913000004,342.9753913000004,342.9753913000004,342.9753913000004,342.9753913000004,342.9753913000004,342.9753913000004,342.9753913000004,342.9753913000004,342.9753913000004,344.7404471,344.7404471,344.7404471,344.7404471,344.7404471,344.7404471,344.7404471,73,63,31,35,73,70,344.7404471,346.3582894000001,,,,,,,,,,,,３１８,f,１９,2023-05-19_10h14.21.213,RL,2022.2.5,60.12180678065385,
21,38,68,62,0,57,57,57,,,,,,,,,,,None,346.3582894000001,346.3582894000001,346.3582894000001,346.3582894000001,346.3582894000001,346.3582894000001,f,0.39082650000000285,346.7761874000007,346.7761874000007,346.7761874000007,346.7761874000007,346.7761874000007,346.7761874000007,347.0746856000005,348.7316073000002,348.7316073000002,348.7316073000002,348.7316073000002,348.7316073000002,348.7316073000002,348.7316073000002,348.7316073000002,348.7316073000002,348.7316073000002,348.7316073000002,348.7316073000002,348.7316073000002,348.7316073000002,350.63908510000056,350.63908510000056,350.63908510000056,350.63908510000056,350.63908510000056,350.63908510000056,350.63908510000056,68,62,21,38,68,70,350.63908510000056,352.20712510000067,,,,,,,,,,,,３１８,f,１９,2023-05-19_10h14.21.213,RL,2022.2.5,60.12180678065385,
29,42,66,51,0,58,58,58,,,,,,,,,,,None,352.20712510000067,352.20712510000067,352.20712510000067,352.20712510000067,352.20712510000067,352.20712510000067,r,0.2180196999997861,352.4631837000006,352.4631837000006,352.4631837000006,352.4631837000006,352.4631837000006,352.4631837000006,352.74065640000026,354.22344630000043,354.25679450000007,354.25679450000007,354.25679450000007,354.25679450000007,354.25679450000007,354.25679450000007,354.25679450000007,354.25679450000007,354.25679450000007,354.25679450000007,354.25679450000007,354.25679450000007,354.25679450000007,356.03771140000026,356.03771140000026,356.03771140000026,356.03771140000026,356.03771140000026,356.03771140000026,356.03771140000026,66,51,29,42,51,70,356.03771140000026,357.67265530000077,,,,,,,,,,,,３１８,f,１９,2023-05-19_10h14.21.213,RL,2022.2.5,60.12180678065385,
30,40,75,60,0,59,59,59,,,,,,,,,,,None,357.67265530000077,357.67265530000077,357.67265530000077,357.67265530000077,357.67265530000077,357.67265530000077,f,0.26868629999989935,357.98024070000065,357.98024070000065,357.98024070000065,357.98024070000065,357.98024070000065,357.98024070000065,358.2565689000003,359.3896555000001,359.40629140000055,359.40629140000055,359.40629140000055,359.40629140000055,359.40629140000055,359.40629140000055,359.40629140000055,359.40629140000055,359.40629140000055,359.40629140000055,359.40629140000055,359.40629140000055,359.40629140000055,360.8372001000007,360.8372001000007,360.8372001000007,360.8372001000007,360.8372001000007,360.8372001000007,360.8372001000007,75,60,30,40,75,70,360.8372001000007,362.48824780000086,,,,,,,,,,,,３１８,f,１９,2023-05-19_10h14.21.213,RL,2022.2.5,60.12180678065385,
28,51,68,61,0,60,60,60,,,,,,,,,,,None,362.48824780000086,362.48824780000086,362.48824780000086,362.48824780000086,362.48824780000086,362.48824780000086,r,0.38459969999985333,362.9111317000006,362.9111317000006,362.9111317000006,362.9111317000006,362.9111317000006,362.9111317000006,363.1889525000006,364.20523350000076,364.2221313,364.2221313,364.2221313,364.2221313,364.2221313,364.2221313,364.2221313,364.2221313,364.2221313,364.2221313,364.2221313,364.2221313,364.2221313,365.53633720000016,365.53633720000016,365.53633720000016,365.53633720000016,365.53633720000016,365.53633720000016,365.53633720000016,68,61,28,51,61,70,365.53633720000016,367.45400380000046,,,,,,,,,,,,３１８,f,１９,2023-05-19_10h14.21.213,RL,2022.2.5,60.12180678065385,
23,42,78,52,0,61,61,61,,,,,,,,,,,None,367.45400380000046,367.45400380000046,367.45400380000046,367.45400380000046,367.45400380000046,367.45400380000046,f,0.22956740000063292,367.70480810000026,367.70480810000026,367.70480810000026,367.70480810000026,367.70480810000026,367.70480810000026,367.9879954000007,368.8542470000002,368.8708862000003,368.8708862000003,368.8708862000003,368.8708862000003,368.8708862000003,368.8708862000003,368.8708862000003,368.8708862000003,368.8708862000003,368.8708862000003,368.8708862000003,368.8708862000003,368.8708862000003,370.0358814000001,370.0358814000001,370.0358814000001,370.0358814000001,370.0358814000001,370.0358814000001,370.0358814000001,78,52,23,42,78,70,370.0358814000001,372.0033766000006,,,,,,,,,,,,３１８,f,１９,2023-05-19_10h14.21.213,RL,2022.2.5,60.12180678065385,
23,44,76,52,0,62,62,62,,,,,,,,,,,None,372.0033766000006,372.0033766000006,372.0033766000006,372.0033766000006,372.0033766000006,372.0033766000006,f,0.2600302999999258,372.2873391000003,372.2873391000003,372.2873391000003,372.2873391000003,372.2873391000003,372.2873391000003,372.57028570000057,374.3368480000008,374.35338130000036,374.35338130000036,374.35338130000036,374.35338130000036,374.35338130000036,374.35338130000036,374.35338130000036,374.35338130000036,374.35338130000036,374.35338130000036,374.35338130000036,374.35338130000036,374.35338130000036,376.41798520000066,376.41798520000066,376.41798520000066,376.41798520000066,376.41798520000066,376.41798520000066,376.41798520000066,76,52,23,44,76,70,376.41798520000066,378.28539720000026,,,,,,,,,,,,３１８,f,１９,2023-05-19_10h14.21.213,RL,2022.2.5,60.12180678065385,
26,47,78,58,0,63,63,63,,,,,,,,,,,None,378.28539720000026,378.28539720000026,378.28539720000026,378.28539720000026,378.28539720000026,378.28539720000026,f,0.2724523999995654,378.5861211000001,378.5861211000001,378.5861211000001,378.5861211000001,378.5861211000001,378.5861211000001,378.8694271000004,380.5359384000003,380.55253790000006,380.55253790000006,380.55253790000006,380.55253790000006,380.55253790000006,380.55253790000006,380.55253790000006,380.55253790000006,380.55253790000006,380.55253790000006,380.55253790000006,380.55253790000006,380.55253790000006,382.5167429000003,382.5167429000003,382.5167429000003,382.5167429000003,382.5167429000003,382.5167429000003,382.5167429000003,78,58,26,47,78,70,382.5167429000003,384.23449430000073,,,,,,,,,,,,３１８,f,１９,2023-05-19_10h14.21.213,RL,2022.2.5,60.12180678065385,
37,44,71,53,0,64,64,64,,,,,,,,,,,None,384.23449430000073,384.23449430000073,384.23449430000073,384.23449430000073,384.23449430000073,384.23449430000073,f,0.23666279999997641,384.50307900000007,384.50307900000007,384.50307900000007,384.50307900000007,384.50307900000007,384.50307900000007,384.80134520000047,386.70120680000036,386.70120680000036,386.70120680000036,386.70120680000036,386.70120680000036,386.70120680000036,386.70120680000036,386.70120680000036,386.70120680000036,386.70120680000036,386.70120680000036,386.70120680000036,386.70120680000036,386.70120680000036,388.89900940000007,388.89900940000007,388.89900940000007,388.89900940000007,388.89900940000007,388.89900940000007,388.89900940000007,71,53,37,44,71,70,388.89900940000007,390.8339601000007,,,,,,,,,,,,３１８,f,１９,2023-05-19_10h14.21.213,RL,2022.2.5,60.12180678065385,
38,54,67,58,0,65,65,65,,,,,,,,,,,None,390.8339601000007,390.8339601000007,390.8339601000007,390.8339601000007,390.8339601000007,390.8339601000007,f,0.25187479999931384,391.1200024,391.1200024,391.1200024,391.1200024,391.1200024,391.1200024,391.4005753000001,392.60019660000034,392.61681750000025,392.61681750000025,392.61681750000025,392.61681750000025,392.61681750000025,392.61681750000025,392.61681750000025,392.61681750000025,392.61681750000025,392.61681750000025,392.61681750000025,392.61681750000025,392.61681750000025,394.1147834000003,394.1147834000003,394.1147834000003,394.1147834000003,394.1147834000003,394.1147834000003,394.1147834000003,67,58,38,54,67,70,394.1147834000003,395.8157996,,,,,,,,,,,,３１８,f,１９,2023-05-19_10h14.21.213,RL,2022.2.5,60.12180678065385,
44,53,68,62,0,66,66,66,,,,,,,,,,,None,395.8157996,395.8157996,395.8157996,395.8157996,395.8157996,395.8157996,f,0.26904780000040773,396.1208542000004,396.1208542000004,396.1208542000004,396.1208542000004,396.1208542000004,396.1208542000004,396.39934730000004,397.4660883000006,397.48256950000086,397.48256950000086,397.48256950000086,397.48256950000086,397.48256950000086,397.48256950000086,397.48256950000086,397.48256950000086,397.48256950000086,397.48256950000086,397.48256950000086,397.48256950000086,397.48256950000086,398.84773790000054,398.84773790000054,398.84773790000054,398.84773790000054,398.84773790000054,398.84773790000054,398.84773790000054,68,62,44,53,68,70,398.84773790000054,400.64824840000074,,,,,,,,,,,,３１８,f,１９,2023-05-19_10h14.21.213,RL,2022.2.5,60.12180678065385,
35,52,63,60,0,67,67,67,,,,,,,,,,,None,400.64824840000074,400.64824840000074,400.64824840000074,400.64824840000074,400.64824840000074,400.64824840000074,r,0.20306019999952696,400.88429410000026,400.88429410000026,400.88429410000026,400.88429410000026,400.88429410000026,400.88429410000026,401.1652315000001,403.0817982000008,403.0983726000004,403.0983726000004,403.0983726000004,403.0983726000004,403.0983726000004,403.0983726000004,403.0983726000004,403.0983726000004,403.0983726000004,403.0983726000004,403.0983726000004,403.0983726000004,403.0983726000004,405.3133277000006,405.3133277000006,405.3133277000006,405.3133277000006,405.3133277000006,405.3133277000006,405.3133277000006,63,60,35,52,60,70,405.3133277000006,406.91422480000074,,,,,,,,,,,,３１８,f,１９,2023-05-19_10h14.21.213,RL,2022.2.5,60.12180678065385,
36,41,60,52,0,68,68,68,,,,,,,,,,,None,406.91422480000074,406.91422480000074,406.91422480000074,406.91422480000074,406.91422480000074,406.91422480000074,f,0.24078759999974864,407.18122890000086,407.18122890000086,407.18122890000086,407.18122890000086,407.18122890000086,407.18122890000086,407.4646640000001,408.79753680000067,408.81382700000086,408.81382700000086,408.81382700000086,408.81382700000086,408.81382700000086,408.81382700000086,408.81382700000086,408.81382700000086,408.81382700000086,408.81382700000086,408.81382700000086,408.81382700000086,408.81382700000086,410.4450650000008,410.4450650000008,410.4450650000008,410.4450650000008,410.4450650000008,410.4450650000008,410.4450650000008,60,52,36,41,60,70,410.4450650000008,412.4298955000004,,,,,,,,,,,,３１８,f,１９,2023-05-19_10h14.21.213,RL,2022.2.5,60.12180678065385,
37,42,63,67,0,69,69,69,,,,,,,,,,,None,412.4298955000004,412.4298955000004,412.4298955000004,412.4298955000004,412.4298955000004,412.4298955000004,r,0.6849574000007124,413.15115850000075,413.15115850000075,413.15115850000075,413.15115850000075,413.15115850000075,413.15115850000075,413.4296942000001,414.94655560000047,414.96339780000017,414.96339780000017,414.96339780000017,414.96339780000017,414.96339780000017,414.96339780000017,414.96339780000017,414.96339780000017,414.96339780000017,414.96339780000017,414.96339780000017,414.96339780000017,414.96339780000017,416.7772468000003,416.7772468000003,416.7772468000003,416.7772468000003,416.7772468000003,416.7772468000003,416.7772468000003,63,67,37,42,67,70,416.7772468000003,418.2955933000003,,,,,,,,,,,,３１８,f,１９,2023-05-19_10h14.21.213,RL,2022.2.5,60.12180678065385,
40,47,64,54,0,70,70,70,,,,,,,,,,,None,418.2955933000003,418.2955933000003,418.2955933000003,418.2955933000003,418.2955933000003,418.2955933000003,r,0.34316149999995105,418.66269570000077,418.66269570000077,418.66269570000077,418.66269570000077,418.66269570000077,418.66269570000077,418.9621278000004,420.12859150000077,420.12859150000077,420.12859150000077,420.12859150000077,420.12859150000077,420.12859150000077,420.12859150000077,420.12859150000077,420.12859150000077,420.12859150000077,420.12859150000077,420.12859150000077,420.12859150000077,420.12859150000077,421.5935629000005,421.5935629000005,421.5935629000005,421.5935629000005,421.5935629000005,421.5935629000005,421.5935629000005,64,54,40,47,54,70,421.5935629000005,423.3115202000008,,,,,,,,,,,,３１８,f,１９,2023-05-19_10h14.21.213,RL,2022.2.5,60.12180678065385,
51,57,56,50,0,71,71,71,,,,,,,,,,,None,423.3115202000008,423.3115202000008,423.3115202000008,423.3115202000008,423.3115202000008,423.3115202000008,i,0.2577989000001253,423.5956524000003,423.5956524000003,423.5956524000003,423.5956524000003,423.5956524000003,423.5956524000003,423.89466490000086,425.7944802000002,425.7944802000002,425.7944802000002,425.7944802000002,425.7944802000002,425.7944802000002,425.7944802000002,425.7944802000002,425.7944802000002,425.7944802000002,425.7944802000002,425.7944802000002,425.7944802000002,425.7944802000002,427.99236980000023,427.99236980000023,427.99236980000023,427.99236980000023,427.99236980000023,427.99236980000023,427.99236980000023,56,50,51,57,51,70,427.99236980000023,429.6100619000008,,,,,,,,,,,,３１８,f,１９,2023-05-19_10h14.21.213,RL,2022.2.5,60.12180678065385,
38,52,55,50,0,72,72,72,,,,,,,,,,,None,429.6100619000008,429.6100619000008,429.6100619000008,429.6100619000008,429.6100619000008,429.6100619000008,j,0.3686829999996917,430.01843540000027,430.01843540000027,430.01843540000027,430.01843540000027,430.01843540000027,430.01843540000027,430.29386690000047,432.01031180000064,432.02679290000015,432.02679290000015,432.02679290000015,432.02679290000015,432.02679290000015,432.02679290000015,432.02679290000015,432.02679290000015,432.02679290000015,432.02679290000015,432.02679290000015,432.02679290000015,432.02679290000015,434.0413143000005,434.0413143000005,434.0413143000005,434.0413143000005,434.0413143000005,434.0413143000005,434.0413143000005,55,50,38,52,52,70,434.0413143000005,435.7756452000003,,,,,,,,,,,,３１８,f,１９,2023-05-19_10h14.21.213,RL,2022.2.5,60.12180678065385,
42,42,56,49,0,73,73,73,,,,,,,,,,,None,435.7756452000003,435.7756452000003,435.7756452000003,435.7756452000003,435.7756452000003,435.7756452000003,f,0.32500849999996717,436.12610960000075,436.12610960000075,436.12610960000075,436.12610960000075,436.12610960000075,436.12610960000075,436.4095109,438.20889220000026,438.22541620000084,438.22541620000084,438.22541620000084,438.22541620000084,438.22541620000084,438.22541620000084,438.22541620000084,438.22541620000084,438.22541620000084,438.22541620000084,438.22541620000084,438.22541620000084,438.22541620000084,440.3235486000003,440.3235486000003,440.3235486000003,440.3235486000003,440.3235486000003,440.3235486000003,440.3235486000003,56,49,42,42,56,70,440.3235486000003,441.85773770000014,,,,,,,,,,,,３１８,f,１９,2023-05-19_10h14.21.213,RL,2022.2.5,60.12180678065385,
41,51,46,54,0,74,74,74,,,,,,,,,,,None,441.85773770000014,441.85773770000014,441.85773770000014,441.85773770000014,441.85773770000014,441.85773770000014,i,0.3036930000007487,442.19201300000077,442.19201300000077,442.19201300000077,442.19201300000077,442.19201300000077,442.19201300000077,442.4751533000008,444.2909455000008,444.3078602000005,444.3078602000005,444.3078602000005,444.3078602000005,444.3078602000005,444.3078602000005,444.3078602000005,444.3078602000005,444.3078602000005,444.3078602000005,444.3078602000005,444.3078602000005,444.3078602000005,446.42277170000034,446.42277170000034,446.42277170000034,446.42277170000034,446.42277170000034,446.42277170000034,446.42277170000034,46,54,41,51,41,70,446.42277170000034,448.3394851000003,,,,,,,,,,,,３１８,f,１９,2023-05-19_10h14.21.213,RL,2022.2.5,60.12180678065385,
37,47,68,55,0,75,75,75,,,,,,,,,,,q,475.65169230000083,475.65169230000083,475.65169230000083,475.65169230000083,475.65169230000083,475.65169230000083,r,0.7133288000004541,476.3896076000001,476.3896076000001,476.3896076000001,476.3896076000001,476.3896076000001,476.3896076000001,476.68596270000035,478.25200310000037,478.25200310000037,478.25200310000037,478.25200310000037,478.25200310000037,478.25200310000037,478.25200310000037,478.25200310000037,478.25200310000037,478.25200310000037,478.25200310000037,478.25200310000037,478.25200310000037,478.25200310000037,480.11632290000034,480.11632290000034,480.11632290000034,480.11632290000034,480.11632290000034,480.11632290000034,480.11632290000034,68,55,37,47,55,70,480.11632290000034,482.00132360000043,448.3394851000003,448.3394851000003,22.276173899999776,470.6372783000006,470.6372783000006,475.65169230000083,475.65169230000083,,,,,３１８,f,１９,2023-05-19_10h14.21.213,RL,2022.2.5,60.12180678065385,
35,56,45,52,0,76,76,76,,,,,,,,,,,None,482.00132360000043,482.00132360000043,482.00132360000043,482.00132360000043,482.00132360000043,482.00132360000043,f,0.2874564999992799,482.32270660000086,482.32270660000086,482.32270660000086,482.32270660000086,482.32270660000086,482.32270660000086,482.60134820000076,484.1678726,484.2011665,484.2011665,484.2011665,484.2011665,484.2011665,484.2011665,484.2011665,484.2011665,484.2011665,484.2011665,484.2011665,484.2011665,484.2011665,486.0653570000004,486.0653570000004,486.0653570000004,486.0653570000004,486.0653570000004,486.0653570000004,486.0653570000004,45,52,35,56,45,70,486.0653570000004,487.9000268,,,,,,,,,,,,３１８,f,１９,2023-05-19_10h14.21.213,RL,2022.2.5,60.12180678065385,
34,52,54,52,0,77,77,77,,,,,,,,,,,None,487.9000268,487.9000268,487.9000268,487.9000268,487.9000268,487.9000268,j,0.2467354999998861,488.1673500000006,488.1673500000006,488.1673500000006,488.1673500000006,488.1673500000006,488.1673500000006,488.45020080000086,489.7662358000007,489.78315530000054,489.78315530000054,489.78315530000054,489.78315530000054,489.78315530000054,489.78315530000054,489.78315530000054,489.78315530000054,489.78315530000054,489.78315530000054,489.78315530000054,489.78315530000054,489.78315530000054,491.3980786000002,491.3980786000002,491.3980786000002,491.3980786000002,491.3980786000002,491.3980786000002,491.3980786000002,54,52,34,52,52,70,491.3980786000002,493.3488386000008,,,,,,,,,,,,３１８,f,１９,2023-05-19_10h14.21.213,RL,2022.2.5,60.12180678065385,
31,52,66,47,0,78,78,78,,,,,,,,,,,None,493.3488386000008,493.3488386000008,493.3488386000008,493.3488386000008,493.3488386000008,493.3488386000008,i,0.23724369999945338,493.6171024000005,493.6171024000005,493.6171024000005,493.6171024000005,493.6171024000005,493.6171024000005,493.9162872000006,495.7156965000004,495.7156965000004,495.7156965000004,495.7156965000004,495.7156965000004,495.7156965000004,495.7156965000004,495.7156965000004,495.7156965000004,495.7156965000004,495.7156965000004,495.7156965000004,495.7156965000004,495.7156965000004,497.81400290000056,497.81400290000056,497.81400290000056,497.81400290000056,497.81400290000056,497.81400290000056,497.81400290000056,66,47,31,52,31,70,497.81400290000056,499.39796430000024,,,,,,,,,,,,３１８,f,１９,2023-05-19_10h14.21.213,RL,2022.2.5,60.12180678065385,
29,50,62,49,0,79,79,79,,,,,,,,,,,None,499.39796430000024,499.39796430000024,499.39796430000024,499.39796430000024,499.39796430000024,499.39796430000024,r,0.2272891000002346,499.64842600000065,499.64842600000065,499.64842600000065,499.64842600000065,499.64842600000065,499.64842600000065,499.9313006000002,501.2816771000007,501.2978066000005,501.2978066000005,501.2978066000005,501.2978066000005,501.2978066000005,501.2978066000005,501.2978066000005,501.2978066000005,501.2978066000005,501.2978066000005,501.2978066000005,501.2978066000005,501.2978066000005,502.94570920000024,502.94570920000024,502.94570920000024,502.94570920000024,502.94570920000024,502.94570920000024,502.94570920000024,62,49,29,50,49,70,502.94570920000024,504.63103110000065,,,,,,,,,,,,３１８,f,１９,2023-05-19_10h14.21.213,RL,2022.2.5,60.12180678065385,
30,49,63,45,0,80,80,80,,,,,,,,,,,None,504.63103110000065,504.63103110000065,504.63103110000065,504.63103110000065,504.63103110000065,504.63103110000065,f,0.20042560000001686,504.86845600000015,504.86845600000015,504.86845600000015,504.86845600000015,504.86845600000015,504.86845600000015,505.14738920000036,507.08022340000025,507.0968934000002,507.0968934000002,507.0968934000002,507.0968934000002,507.0968934000002,507.0968934000002,507.0968934000002,507.0968934000002,507.0968934000002,507.0968934000002,507.0968934000002,507.0968934000002,507.0968934000002,509.32811220000076,509.32811220000076,509.32811220000076,509.32811220000076,509.32811220000076,509.32811220000076,509.32811220000076,63,45,30,49,63,70,509.32811220000076,511.1793097,,,,,,,,,,,,３１８,f,１９,2023-05-19_10h14.21.213,RL,2022.2.5,60.12180678065385,
34,51,61,39,0,81,81,81,,,,,,,,,,,None,511.1793097,511.1793097,511.1793097,511.1793097,511.1793097,511.1793097,f,0.31110790000002453,511.5142809000008,511.5142809000008,511.5142809000008,511.5142809000008,511.5142809000008,511.5142809000008,511.7963092,513.4962982000006,513.5127773000004,513.5127773000004,513.5127773000004,513.5127773000004,513.5127773000004,513.5127773000004,513.5127773000004,513.5127773000004,513.5127773000004,513.5127773000004,513.5127773000004,513.5127773000004,513.5127773000004,515.5106406000004,515.5106406000004,515.5106406000004,515.5106406000004,515.5106406000004,515.5106406000004,515.5106406000004,61,39,34,51,61,70,515.5106406000004,517.0779708,,,,,,,,,,,,３１８,f,１９,2023-05-19_10h14.21.213,RL,2022.2.5,60.12180678065385,
29,56,57,45,0,82,82,82,,,,,,,,,,,None,517.0779708,517.0779708,517.0779708,517.0779708,517.0779708,517.0779708,f,0.24080529999991995,517.3452439000002,517.3452439000002,517.3452439000002,517.3452439000002,517.3452439000002,517.3452439000002,517.6284930000002,518.5119342000007,518.5283385000002,518.5283385000002,518.5283385000002,518.5283385000002,518.5283385000002,518.5283385000002,518.5283385000002,518.5283385000002,518.5283385000002,518.5283385000002,518.5283385000002,518.5283385000002,518.5283385000002,519.7097692000007,519.7097692000007,519.7097692000007,519.7097692000007,519.7097692000007,519.7097692000007,519.7097692000007,57,45,29,56,57,70,519.7097692000007,521.260518,,,,,,,,,,,,３１８,f,１９,2023-05-19_10h14.21.213,RL,2022.2.5,60.12180678065385,
27,51,57,47,0,83,83,83,,,,,,,,,,,None,521.260518,521.260518,521.260518,521.260518,521.260518,521.260518,j,0.27230929999950604,521.5615216000006,521.5615216000006,521.5615216000006,521.5615216000006,521.5615216000006,521.5615216000006,521.8446177000005,523.7607702000005,523.7772793000004,523.7772793000004,523.7772793000004,523.7772793000004,523.7772793000004,523.7772793000004,523.7772793000004,523.7772793000004,523.7772793000004,523.7772793000004,523.7772793000004,523.7772793000004,523.7772793000004,525.9918000000007,525.9918000000007,525.9918000000007,525.9918000000007,525.9918000000007,525.9918000000007,525.9918000000007,57,47,27,51,51,70,525.9918000000007,527.9097541000001,,,,,,,,,,,,３１８,f,１９,2023-05-19_10h14.21.213,RL,2022.2.5,60.12180678065385,
34,49,50,38,0,84,84,84,,,,,,,,,,,None,527.9097541000001,527.9097541000001,527.9097541000001,527.9097541000001,527.9097541000001,527.9097541000001,r,0.21800869999970018,528.1677825000006,528.1677825000006,528.1677825000006,528.1677825000006,528.1677825000006,528.1677825000006,528.4432715000003,530.3930452000004,530.4094249,530.4094249,530.4094249,530.4094249,530.4094249,530.4094249,530.4094249,530.4094249,530.4094249,530.4094249,530.4094249,530.4094249,530.4094249,532.6570035000004,532.6570035000004,532.6570035000004,532.6570035000004,532.6570035000004,532.6570035000004,532.6570035000004,50,38,34,49,38,70,532.6570035000004,534.458807,,,,,,,,,,,,３１８,f,１９,2023-05-19_10h14.21.213,RL,2022.2.5,60.12180678065385,
36,53,55,31,0,85,85,85,,,,,,,,,,,None,534.458807,534.458807,534.458807,534.458807,534.458807,534.458807,i,0.23826270000063232,534.7269636000001,534.7269636000001,534.7269636000001,534.7269636000001,534.7269636000001,534.7269636000001,535.0087514000006,536.6086131000002,536.625188,536.625188,536.625188,536.625188,536.625188,536.625188,536.625188,536.625188,536.625188,536.625188,536.625188,536.625188,536.625188,538.5231449000003,538.5231449000003,538.5231449000003,538.5231449000003,538.5231449000003,538.5231449000003,538.5231449000003,55,31,36,53,36,70,538.5231449000003,540.4248527,,,,,,,,,,,,３１８,f,１９,2023-05-19_10h14.21.213,RL,2022.2.5,60.12180678065385,
32,52,55,42,0,86,86,86,,,,,,,,,,,None,540.4248527,540.4248527,540.4248527,540.4248527,540.4248527,540.4248527,f,0.23981800000001385,540.6911905000006,540.6911905000006,540.6911905000006,540.6911905000006,540.6911905000006,540.6911905000006,540.9747120000002,541.8076583000002,541.8246806000006,541.8246806000006,541.8246806000006,541.8246806000006,541.8246806000006,541.8246806000006,541.8246806000006,541.8246806000006,541.8246806000006,541.8246806000006,541.8246806000006,541.8246806000006,541.8246806000006,542.9559565000009,542.9559565000009,542.9559565000009,542.9559565000009,542.9559565000009,542.9559565000009,542.9559565000009,55,42,32,52,55,70,542.9559565000009,544.8065463000003,,,,,,,,,,,,３１８,f,１９,2023-05-19_10h14.21.213,RL,2022.2.5,60.12180678065385,
31,55,46,45,0,87,87,87,,,,,,,,,,,None,544.8065463000003,544.8065463000003,544.8065463000003,544.8065463000003,544.8065463000003,544.8065463000003,f,0.28841580000062095,545.1237134000003,545.1237134000003,545.1237134000003,545.1237134000003,545.1237134000003,545.1237134000003,545.4234243000001,547.3236483000001,547.3236483000001,547.3236483000001,547.3236483000001,547.3236483000001,547.3236483000001,547.3236483000001,547.3236483000001,547.3236483000001,547.3236483000001,547.3236483000001,547.3236483000001,547.3236483000001,547.3236483000001,549.5211062000008,549.5211062000008,549.5211062000008,549.5211062000008,549.5211062000008,549.5211062000008,549.5211062000008,46,45,31,55,46,70,549.5211062000008,551.4222799000008,,,,,,,,,,,,３１８,f,１９,2023-05-19_10h14.21.213,RL,2022.2.5,60.12180678065385,
32,48,46,36,0,88,88,88,,,,,,,,,,,None,551.4222799000008,551.4222799000008,551.4222799000008,551.4222799000008,551.4222799000008,551.4222799000008,f,0.21279499999945983,551.6563514000009,551.6563514000009,551.6563514000009,551.6563514000009,551.6563514000009,551.6563514000009,551.9391553000005,552.7727371000001,552.7890047000001,552.7890047000001,552.7890047000001,552.7890047000001,552.7890047000001,552.7890047000001,552.7890047000001,552.7890047000001,552.7890047000001,552.7890047000001,552.7890047000001,552.7890047000001,552.7890047000001,553.9202599,553.9202599,553.9202599,553.9202599,553.9202599,553.9202599,553.9202599,46,36,32,48,46,70,553.9202599,555.7883893000007,,,,,,,,,,,,３１８,f,１９,2023-05-19_10h14.21.213,RL,2022.2.5,60.12180678065385,
27,54,54,40,0,89,89,89,,,,,,,,,,,None,555.7883893000007,555.7883893000007,555.7883893000007,555.7883893000007,555.7883893000007,555.7883893000007,i,0.3564388000004328,556.1744286000003,556.1744286000003,556.1744286000003,556.1744286000003,556.1744286000003,556.1744286000003,556.4549685000002,558.2713853000005,558.2878025,558.2878025,558.2878025,558.2878025,558.2878025,558.2878025,558.2878025,558.2878025,558.2878025,558.2878025,558.2878025,558.2878025,558.2878025,560.4025116000003,560.4025116000003,560.4025116000003,560.4025116000003,560.4025116000003,560.4025116000003,560.4025116000003,54,40,27,54,27,70,560.4025116000003,561.9367310000007,,,,,,,,,,,,３１８,f,１９,2023-05-19_10h14.21.213,RL,2022.2.5,60.12180678065385,
33,51,50,34,0,90,90,90,,,,,,,,,,,None,561.9367310000007,561.9367310000007,561.9367310000007,561.9367310000007,561.9367310000007,561.9367310000007,j,0.2628021999998964,562.2235255000005,562.2235255000005,562.2235255000005,562.2235255000005,562.2235255000005,562.2235255000005,562.5208079000004,564.2034342000006,564.2034342000006,564.2034342000006,564.2034342000006,564.2034342000006,564.2034342000006,564.2034342000006,564.2034342000006,564.2034342000006,564.2034342000006,564.2034342000006,564.2034342000006,564.2034342000006,564.2034342000006,566.1853260000007,566.1853260000007,566.1853260000007,566.1853260000007,566.1853260000007,566.1853260000007,566.1853260000007,50,34,33,51,51,70,566.1853260000007,567.8691194000003,,,,,,,,,,,,３１８,f,１９,2023-05-19_10h14.21.213,RL,2022.2.5,60.12180678065385,
34,54,52,36,0,91,91,91,,,,,,,,,,,None,567.8691194000003,567.8691194000003,567.8691194000003,567.8691194000003,567.8691194000003,567.8691194000003,j,0.24901970000064466,568.1365226000007,568.1365226000007,568.1365226000007,568.1365226000007,568.1365226000007,568.1365226000007,568.4194937000002,569.7360906000004,569.7528039000008,569.7528039000008,569.7528039000008,569.7528039000008,569.7528039000008,569.7528039000008,569.7528039000008,569.7528039000008,569.7528039000008,569.7528039000008,569.7528039000008,569.7528039000008,569.7528039000008,571.3678588000002,571.3678588000002,571.3678588000002,571.3678588000002,571.3678588000002,571.3678588000002,571.3678588000002,52,36,34,54,54,70,571.3678588000002,572.9022142000003,,,,,,,,,,,,３１８,f,１９,2023-05-19_10h14.21.213,RL,2022.2.5,60.12180678065385,
30,59,44,42,0,92,92,92,,,,,,,,,,,None,572.9022142000003,572.9022142000003,572.9022142000003,572.9022142000003,572.9022142000003,572.9022142000003,f,0.2556067000004987,573.1859551000007,573.1859551000007,573.1859551000007,573.1859551000007,573.1859551000007,573.1859551000007,573.4688886000004,574.8351147000003,574.8519387000006,574.8519387000006,574.8519387000006,574.8519387000006,574.8519387000006,574.8519387000006,574.8519387000006,574.8519387000006,574.8519387000006,574.8519387000006,574.8519387000006,574.8519387000006,574.8519387000006,576.5163306000004,576.5163306000004,576.5163306000004,576.5163306000004,576.5163306000004,576.5163306000004,576.5163306000004,44,42,30,59,44,70,576.5163306000004,578.4340852000005,,,,,,,,,,,,３１８,f,１９,2023-05-19_10h14.21.213,RL,2022.2.5,60.12180678065385,
24,47,50,37,0,93,93,93,,,,,,,,,,,None,578.4340852000005,578.4340852000005,578.4340852000005,578.4340852000005,578.4340852000005,578.4340852000005,j,0.2555413000000044,578.7185475000006,578.7185475000006,578.7185475000006,578.7185475000006,578.7185475000006,578.7185475000006,579.0009912000005,580.4842576000001,580.5006297,580.5006297,580.5006297,580.5006297,580.5006297,580.5006297,580.5006297,580.5006297,580.5006297,580.5006297,580.5006297,580.5006297,580.5006297,582.2819462000007,582.2819462000007,582.2819462000007,582.2819462000007,582.2819462000007,582.2819462000007,582.2819462000007,50,37,24,47,47,70,582.2819462000007,584.2497376000001,,,,,,,,,,,,３１８,f,１９,2023-05-19_10h14.21.213,RL,2022.2.5,60.12180678065385,
35,53,55,34,0,94,94,94,,,,,,,,,,,None,584.2497376000001,584.2497376000001,584.2497376000001,584.2497376000001,584.2497376000001,584.2497376000001,r,0.23477999999977328,584.5196845,584.5196845,584.5196845,584.5196845,584.5196845,584.5196845,584.7998685000002,586.7500911000006,586.7666865000001,586.7666865000001,586.7666865000001,586.7666865000001,586.7666865000001,586.7666865000001,586.7666865000001,586.7666865000001,586.7666865000001,586.7666865000001,586.7666865000001,586.7666865000001,586.7666865000001,589.0143626000008,589.0143626000008,589.0143626000008,589.0143626000008,589.0143626000008,589.0143626000008,589.0143626000008,55,34,35,53,34,70,589.0143626000008,590.8490825000008,,,,,,,,,,,,３１８,f,１９,2023-05-19_10h14.21.213,RL,2022.2.5,60.12180678065385,
29,49,53,36,0,95,95,95,,,,,,,,,,,None,590.8490825000008,590.8490825000008,590.8490825000008,590.8490825000008,590.8490825000008,590.8490825000008,i,0.2955255999995643,591.1671390000001,591.1671390000001,591.1671390000001,591.1671390000001,591.1671390000001,591.1671390000001,591.4489681000005,593.4489289000003,593.4821955000007,593.4821955000007,593.4821955000007,593.4821955000007,593.4821955000007,593.4821955000007,593.4821955000007,593.4821955000007,593.4821955000007,593.4821955000007,593.4821955000007,593.4821955000007,593.4821955000007,595.7795928000005,595.7795928000005,595.7795928000005,595.7795928000005,595.7795928000005,595.7795928000005,595.7795928000005,53,36,29,49,29,70,595.7795928000005,597.5644107000007,,,,,,,,,,,,３１８,f,１９,2023-05-19_10h14.21.213,RL,2022.2.5,60.12180678065385,
28,43,36,32,0,96,96,96,,,,,,,,,,,None,597.5644107000007,597.5644107000007,597.5644107000007,597.5644107000007,597.5644107000007,597.5644107000007,f,0.22244980000050418,597.8172954000001,597.8172954000001,597.8172954000001,597.8172954000001,597.8172954000001,597.8172954000001,598.1144126000008,599.997539,599.997539,599.997539,599.997539,599.997539,599.997539,599.997539,599.997539,599.997539,599.997539,599.997539,599.997539,599.997539,599.997539,602.1786820000007,602.1786820000007,602.1786820000007,602.1786820000007,602.1786820000007,602.1786820000007,602.1786820000007,36,32,28,43,36,70,602.1786820000007,603.9298228000007,,,,,,,,,,,,３１８,f,１９,2023-05-19_10h14.21.213,RL,2022.2.5,60.12180678065385,
39,46,51,37,0,97,97,97,,,,,,,,,,,None,603.9298228000007,603.9298228000007,603.9298228000007,603.9298228000007,603.9298228000007,603.9298228000007,j,0.4777486000002682,604.4302616000004,604.4302616000004,604.4302616000004,604.4302616000004,604.4302616000004,604.4302616000004,604.7131847,605.9799111000002,605.9961865000005,605.9961865000005,605.9961865000005,605.9961865000005,605.9961865000005,605.9961865000005,605.9961865000005,605.9961865000005,605.9961865000005,605.9961865000005,605.9961865000005,605.9961865000005,605.9961865000005,607.5612109000003,607.5612109000003,607.5612109000003,607.5612109000003,607.5612109000003,607.5612109000003,607.5612109000003,51,37,39,46,46,70,607.5612109000003,609.2455177000002,,,,,,,,,,,,３１８,f,１９,2023-05-19_10h14.21.213,RL,2022.2.5,60.12180678065385,
30,45,41,39,0,98,98,98,,,,,,,,,,,None,609.2455177000002,609.2455177000002,609.2455177000002,609.2455177000002,609.2455177000002,609.2455177000002,j,0.33451030000014725,609.6200274000003,609.6200274000003,609.6200274000003,609.6200274000003,609.6200274000003,609.6200274000003,609.8956148000007,611.5958621,611.6288528000005,611.6288528000005,611.6288528000005,611.6288528000005,611.6288528000005,611.6288528000005,611.6288528000005,611.6288528000005,611.6288528000005,611.6288528000005,611.6288528000005,611.6288528000005,611.6288528000005,613.6266339000003,613.6266339000003,613.6266339000003,613.6266339000003,613.6266339000003,613.6266339000003,613.6266339000003,41,39,30,45,45,70,613.6266339000003,615.4108310000001,,,,,,,,,,,,３１８,f,１９,2023-05-19_10h14.21.213,RL,2022.2.5,60.12180678065385,
31,41,48,40,0,99,99,99,,,,,,,,,,,None,615.4108310000001,615.4108310000001,615.4108310000001,615.4108310000001,615.4108310000001,615.4108310000001,j,0.36445499999990716,615.7950972000008,615.7950972000008,615.7950972000008,615.7950972000008,615.7950972000008,615.7950972000008,616.0776168000002,617.2610898000003,617.2945156000005,617.2945156000005,617.2945156000005,617.2945156000005,617.2945156000005,617.2945156000005,617.2945156000005,617.2945156000005,617.2945156000005,617.2945156000005,617.2945156000005,617.2945156000005,617.2945156000005,618.7759343000007,618.7759343000007,618.7759343000007,618.7759343000007,618.7759343000007,618.7759343000007,618.7759343000007,48,40,31,41,41,70,618.7759343000007,620.3603053000006,,,,,,,,,,,,３１８,f,１９,2023-05-19_10h14.21.213,RL,2022.2.5,60.12180678065385,
35,54,39,38,0,100,100,100,,,,,,,,,,,None,620.3603053000006,620.3603053000006,620.3603053000006,620.3603053000006,620.3603053000006,620.3603053000006,f,0.24865919999956532,620.6284928000005,620.6284928000005,620.6284928000005,620.6284928000005,620.6284928000005,620.6284928000005,620.9105743,622.2769493000005,622.2933193000008,622.2933193000008,622.2933193000008,622.2933193000008,622.2933193000008,622.2933193000008,622.2933193000008,622.2933193000008,622.2933193000008,622.2933193000008,622.2933193000008,622.2933193000008,622.2933193000008,623.9586409000003,623.9586409000003,623.9586409000003,623.9586409000003,623.9586409000003,623.9586409000003,623.9586409000003,39,38,35,54,39,70,623.9586409000003,625.4931883000008,,,,,,,,,,,,３１８,f,１９,2023-05-19_10h14.21.213,RL,2022.2.5,60.12180678065385,
34,60,39,45,0,101,101,101,,,,,,,,,,,None,625.4931883000008,625.4931883000008,625.4931883000008,625.4931883000008,625.4931883000008,625.4931883000008,r,0.214915700000347,625.7285349000003,625.7285349000003,625.7285349000003,625.7285349000003,625.7285349000003,625.7285349000003,626.0261405000001,627.1760505000002,627.1760505000002,627.1760505000002,627.1760505000002,627.1760505000002,627.1760505000002,627.1760505000002,627.1760505000002,627.1760505000002,627.1760505000002,627.1760505000002,627.1760505000002,627.1760505000002,627.1760505000002,628.6240446000002,628.6240446000002,628.6240446000002,628.6240446000002,628.6240446000002,628.6240446000002,628.6240446000002,39,45,34,60,45,70,628.6240446000002,630.4915181000006,,,,,,,,,,,,３１８,f,１９,2023-05-19_10h14.21.213,RL,2022.2.5,60.12180678065385,
30,51,51,53,0,102,102,102,,,,,,,,,,,None,630.4915181000006,630.4915181000006,630.4915181000006,630.4915181000006,630.4915181000006,630.4915181000006,i,0.22941609999998036,630.7464327000007,630.7464327000007,630.7464327000007,630.7464327000007,630.7464327000007,630.7464327000007,631.0424007000001,632.7584503000007,632.7584503000007,632.7584503000007,632.7584503000007,632.7584503000007,632.7584503000007,632.7584503000007,632.7584503000007,632.7584503000007,632.7584503000007,632.7584503000007,632.7584503000007,632.7584503000007,632.7584503000007,634.7728853000008,634.7728853000008,634.7728853000008,634.7728853000008,634.7728853000008,634.7728853000008,634.7728853000008,51,53,30,51,30,70,634.7728853000008,636.7740979,,,,,,,,,,,,３１８,f,１９,2023-05-19_10h14.21.213,RL,2022.2.5,60.12180678065385,
37,60,43,41,0,103,103,103,,,,,,,,,,,None,636.7740979,636.7740979,636.7740979,636.7740979,636.7740979,636.7740979,r,0.2048758999999336,637.0078943000008,637.0078943000008,637.0078943000008,637.0078943000008,637.0078943000008,637.0078943000008,637.2909870000003,639.2906480000001,639.3068316000008,639.3068316000008,639.3068316000008,639.3068316000008,639.3068316000008,639.3068316000008,639.3068316000008,639.3068316000008,639.3068316000008,639.3068316000008,639.3068316000008,639.3068316000008,639.3068316000008,641.6054685000008,641.6054685000008,641.6054685000008,641.6054685000008,641.6054685000008,641.6054685000008,641.6054685000008,43,41,37,60,41,70,641.6054685000008,643.5897710000008,,,,,,,,,,,,３１８,f,１９,2023-05-19_10h14.21.213,RL,2022.2.5,60.12180678065385,
43,46,49,42,0,104,104,104,,,,,,,,,,,None,643.5897710000008,643.5897710000008,643.5897710000008,643.5897710000008,643.5897710000008,643.5897710000008,f,0.23342169999978069,643.8408762000008,643.8408762000008,643.8408762000008,643.8408762000008,643.8408762000008,643.8408762000008,644.1397850000003,645.7893260000001,645.7893260000001,645.7893260000001,645.7893260000001,645.7893260000001,645.7893260000001,645.7893260000001,645.7893260000001,645.7893260000001,645.7893260000001,645.7893260000001,645.7893260000001,645.7893260000001,645.7893260000001,647.7371680000006,647.7371680000006,647.7371680000006,647.7371680000006,647.7371680000006,647.7371680000006,647.7371680000006,49,42,43,46,49,70,647.7371680000006,649.2555585,,,,,,,,,,,,３１８,f,１９,2023-05-19_10h14.21.213,RL,2022.2.5,60.12180678065385,
41,40,44,48,0,105,105,105,,,,,,,,,,,None,649.2555585,649.2555585,649.2555585,649.2555585,649.2555585,649.2555585,f,0.218992299999627,649.5135514000003,649.5135514000003,649.5135514000003,649.5135514000003,649.5135514000003,649.5135514000003,649.8051563000008,651.6050689000003,651.6050689000003,651.6050689000003,651.6050689000003,651.6050689000003,651.6050689000003,651.6050689000003,651.6050689000003,651.6050689000003,651.6050689000003,651.6050689000003,651.6050689000003,651.6050689000003,651.6050689000003,653.7029390000007,653.7029390000007,653.7029390000007,653.7029390000007,653.7029390000007,653.7029390000007,653.7029390000007,44,48,41,40,44,70,653.7029390000007,655.5706419000007,,,,,,,,,,,,３１８,f,１９,2023-05-19_10h14.21.213,RL,2022.2.5,60.12180678065385,
40,42,47,44,0,106,106,106,,,,,,,,,,,None,655.5706419000007,655.5706419000007,655.5706419000007,655.5706419000007,655.5706419000007,655.5706419000007,r,0.2999024000000645,655.9153884000007,655.9153884000007,655.9153884000007,655.9153884000007,655.9153884000007,655.9153884000007,656.1878358000004,657.5043450000003,657.5372174000004,657.5372174000004,657.5372174000004,657.5372174000004,657.5372174000004,657.5372174000004,657.5372174000004,657.5372174000004,657.5372174000004,657.5372174000004,657.5372174000004,657.5372174000004,657.5372174000004,659.1520094000007,659.1520094000007,659.1520094000007,659.1520094000007,659.1520094000007,659.1520094000007,659.1520094000007,47,44,40,42,44,70,659.1520094000007,660.8863527000003,,,,,,,,,,,,３１８,f,１９,2023-05-19_10h14.21.213,RL,2022.2.5,60.12180678065385,
38,43,44,38,0,107,107,107,,,,,,,,,,,None,660.8863527000003,660.8863527000003,660.8863527000003,660.8863527000003,660.8863527000003,660.8863527000003,j,0.34973360000003595,661.2548860000006,661.2548860000006,661.2548860000006,661.2548860000006,661.2548860000006,661.2548860000006,661.5537852000007,662.8028563000007,662.8028563000007,662.8028563000007,662.8028563000007,662.8028563000007,662.8028563000007,662.8028563000007,662.8028563000007,662.8028563000007,662.8028563000007,662.8028563000007,662.8028563000007,662.8028563000007,662.8028563000007,664.3510420000002,664.3510420000002,664.3510420000002,664.3510420000002,664.3510420000002,664.3510420000002,664.3510420000002,44,38,38,43,43,70,664.3510420000002,666.1188478000004,,,,,,,,,,,,３１８,f,１９,2023-05-19_10h14.21.213,RL,2022.2.5,60.12180678065385,
36,44,44,44,0,108,108,108,,,,,,,,,,,None,666.1188478000004,666.1188478000004,666.1188478000004,666.1188478000004,666.1188478000004,666.1188478000004,i,0.26923009999973146,666.4198797000008,666.4198797000008,666.4198797000008,666.4198797000008,666.4198797000008,666.4198797000008,666.7027206000002,667.9193569000008,667.9355092000005,667.9355092000005,667.9355092000005,667.9355092000005,667.9355092000005,667.9355092000005,667.9355092000005,667.9355092000005,667.9355092000005,667.9355092000005,667.9355092000005,667.9355092000005,667.9355092000005,669.4502232000004,669.4502232000004,669.4502232000004,669.4502232000004,669.4502232000004,669.4502232000004,669.4502232000004,44,44,36,44,36,70,669.4502232000004,671.0011697,,,,,,,,,,,,３１８,f,１９,2023-05-19_10h14.21.213,RL,2022.2.5,60.12180678065385,
37,55,56,42,0,109,109,109,,,,,,,,,,,None,671.0011697,671.0011697,671.0011697,671.0011697,671.0011697,671.0011697,f,0.1923173000004681,671.2186983000001,671.2186983000001,671.2186983000001,671.2186983000001,671.2186983000001,671.2186983000001,671.5017885000007,673.1185396000001,673.1347003000001,673.1347003000001,673.1347003000001,673.1347003000001,673.1347003000001,673.1347003000001,673.1347003000001,673.1347003000001,673.1347003000001,673.1347003000001,673.1347003000001,673.1347003000001,673.1347003000001,675.0490571,675.0490571,675.0490571,675.0490571,675.0490571,675.0490571,675.0490571,56,42,37,55,56,70,675.0490571,676.8672734000002,,,,,,,,,,,,３１８,f,１９,2023-05-19_10h14.21.213,RL,2022.2.5,60.12180678065385,
39,47,42,39,0,110,110,110,,,,,,,,,,,None,676.8672734000002,676.8672734000002,676.8672734000002,676.8672734000002,676.8672734000002,676.8672734000002,f,0.23046100000010483,677.1193814000007,677.1193814000007,677.1193814000007,677.1193814000007,677.1193814000007,677.1193814000007,677.4007017000004,678.6002873000007,678.6171198000002,678.6171198000002,678.6171198000002,678.6171198000002,678.6171198000002,678.6171198000002,678.6171198000002,678.6171198000002,678.6171198000002,678.6171198000002,678.6171198000002,678.6171198000002,678.6171198000002,680.1151997000006,680.1151997000006,680.1151997000006,680.1151997000006,680.1151997000006,680.1151997000006,680.1151997000006,42,39,39,47,42,70,680.1151997000006,682.0498091000009,,,,,,,,,,,,３１８,f,１９,2023-05-19_10h14.21.213,RL,2022.2.5,60.12180678065385,
23,59,55,45,0,111,111,111,,,,,,,,,,,None,682.0498091000009,682.0498091000009,682.0498091000009,682.0498091000009,682.0498091000009,682.0498091000009,r,0.21043289999943227,682.2844865000006,682.2844865000006,682.2844865000006,682.2844865000006,682.2844865000006,682.2844865000006,682.5664005000008,683.5827835,683.5997397000001,683.5997397000001,683.5997397000001,683.5997397000001,683.5997397000001,683.5997397000001,683.5997397000001,683.5997397000001,683.5997397000001,683.5997397000001,683.5997397000001,683.5997397000001,683.5997397000001,684.9141288000001,684.9141288000001,684.9141288000001,684.9141288000001,684.9141288000001,684.9141288000001,684.9141288000001,55,45,23,59,45,70,684.9141288000001,686.7488098000003,,,,,,,,,,,,３１８,f,１９,2023-05-19_10h14.21.213,RL,2022.2.5,60.12180678065385,
37,58,52,47,0,112,112,112,,,,,,,,,,,None,686.7488098000003,686.7488098000003,686.7488098000003,686.7488098000003,686.7488098000003,686.7488098000003,i,0.30904110000028595,687.0837509000003,687.0837509000003,687.0837509000003,687.0837509000003,687.0837509000003,687.0837509000003,687.3660807000006,688.9154132000003,688.9319067000006,688.9319067000006,688.9319067000006,688.9319067000006,688.9319067000006,688.9319067000006,688.9319067000006,688.9319067000006,688.9319067000006,688.9319067000006,688.9319067000006,688.9319067000006,688.9319067000006,690.7798812000001,690.7798812000001,690.7798812000001,690.7798812000001,690.7798812000001,690.7798812000001,690.7798812000001,52,47,37,58,37,70,690.7798812000001,692.2977074,,,,,,,,,,,,３１８,f,１９,2023-05-19_10h14.21.213,RL,2022.2.5,60.12180678065385,
32,60,49,49,0,113,113,113,,,,,,,,,,,None,692.2977074,692.2977074,692.2977074,692.2977074,692.2977074,692.2977074,j,0.24403410000013537,692.5663936000001,692.5663936000001,692.5663936000001,692.5663936000001,692.5663936000001,692.5663936000001,692.8481248000007,693.7143461000005,693.7476783000002,693.7476783000002,693.7476783000002,693.7476783000002,693.7476783000002,693.7476783000002,693.7476783000002,693.7476783000002,693.7476783000002,693.7476783000002,693.7476783000002,693.7476783000002,693.7476783000002,694.9125055000004,694.9125055000004,694.9125055000004,694.9125055000004,694.9125055000004,694.9125055000004,694.9125055000004,49,49,32,60,60,70,694.9125055000004,696.5972049000002,,,,,,,,,,,,３１８,f,１９,2023-05-19_10h14.21.213,RL,2022.2.5,60.12180678065385,
28,55,45,42,0,114,114,114,,,,,,,,,,,None,696.5972049000002,696.5972049000002,696.5972049000002,696.5972049000002,696.5972049000002,696.5972049000002,j,0.2815275000002657,696.8976555000008,696.8976555000008,696.8976555000008,696.8976555000008,696.8976555000008,696.8976555000008,697.1806758000002,698.1973139000002,698.2140479,698.2140479,698.2140479,698.2140479,698.2140479,698.2140479,698.2140479,698.2140479,698.2140479,698.2140479,698.2140479,698.2140479,698.2140479,699.5287386,699.5287386,699.5287386,699.5287386,699.5287386,699.5287386,699.5287386,45,42,28,55,55,70,699.5287386,701.5292984000007,,,,,,,,,,,,３１８,f,１９,2023-05-19_10h14.21.213,RL,2022.2.5,60.12180678065385,
34,59,52,44,0,115,115,115,,,,,,,,,,,None,701.5292984000007,701.5292984000007,701.5292984000007,701.5292984000007,701.5292984000007,701.5292984000007,j,0.22022019999985787,701.7826294000006,701.7826294000006,701.7826294000006,701.7826294000006,701.7826294000006,701.7826294000006,702.0629163000003,703.1965092,703.2127797000003,703.2127797000003,703.2127797000003,703.2127797000003,703.2127797000003,703.2127797000003,703.2127797000003,703.2127797000003,703.2127797000003,703.2127797000003,703.2127797000003,703.2127797000003,703.2127797000003,704.6444773000003,704.6444773000003,704.6444773000003,704.6444773000003,704.6444773000003,704.6444773000003,704.6444773000003,52,44,34,59,59,70,704.6444773000003,706.3454176000005,,,,,,,,,,,,３１８,f,１９,2023-05-19_10h14.21.213,RL,2022.2.5,60.12180678065385,
32,67,43,39,0,116,116,116,,,,,,,,,,,None,706.3454176000005,706.3454176000005,706.3454176000005,706.3454176000005,706.3454176000005,706.3454176000005,j,0.4584698999997272,706.8317485000007,706.8317485000007,706.8317485000007,706.8317485000007,706.8317485000007,706.8317485000007,707.1120976000002,708.5285486000002,708.5450809000004,708.5450809000004,708.5450809000004,708.5450809000004,708.5450809000004,708.5450809000004,708.5450809000004,708.5450809000004,708.5450809000004,708.5450809000004,708.5450809000004,708.5450809000004,708.5450809000004,710.2599995,710.2599995,710.2599995,710.2599995,710.2599995,710.2599995,710.2599995,43,39,32,67,67,70,710.2599995,711.9946309000006,,,,,,,,,,,,３１８,f,１９,2023-05-19_10h14.21.213,RL,2022.2.5,60.12180678065385,
25,71,55,48,0,117,117,117,,,,,,,,,,,None,711.9946309000006,711.9946309000006,711.9946309000006,711.9946309000006,711.9946309000006,711.9946309000006,j,0.23581329999979062,712.2656396000002,712.2656396000002,712.2656396000002,712.2656396000002,712.2656396000002,712.2656396000002,712.5609655000007,713.9112672000001,713.9276989,713.9276989,713.9276989,713.9276989,713.9276989,713.9276989,713.9276989,713.9276989,713.9276989,713.9276989,713.9276989,713.9276989,713.9276989,715.5758172000005,715.5758172000005,715.5758172000005,715.5758172000005,715.5758172000005,715.5758172000005,715.5758172000005,55,48,25,71,71,70,715.5758172000005,717.3603694000003,,,,,,,,,,,,３１８,f,１９,2023-05-19_10h14.21.213,RL,2022.2.5,60.12180678065385,
30,59,46,51,0,118,118,118,,,,,,,,,,,None,717.3603694000003,717.3603694000003,717.3603694000003,717.3603694000003,717.3603694000003,717.3603694000003,j,0.24582879999979923,717.6271360000001,717.6271360000001,717.6271360000001,717.6271360000001,717.6271360000001,717.6271360000001,717.9273487,719.2436355,719.2436355,719.2436355,719.2436355,719.2436355,719.2436355,719.2436355,719.2436355,719.2436355,719.2436355,719.2436355,719.2436355,719.2436355,719.2436355,720.8579934000009,720.8579934000009,720.8579934000009,720.8579934000009,720.8579934000009,720.8579934000009,720.8579934000009,46,51,30,59,59,70,720.8579934000009,722.4427136000004,,,,,,,,,,,,３１８,f,１９,2023-05-19_10h14.21.213,RL,2022.2.5,60.12180678065385,
39,63,46,51,0,119,119,119,,,,,,,,,,,None,722.4427136000004,722.4427136000004,722.4427136000004,722.4427136000004,722.4427136000004,722.4427136000004,j,0.3030936000004658,722.7766084000004,722.7766084000004,722.7766084000004,722.7766084000004,722.7766084000004,722.7766084000004,723.0761498000002,724.3428308000002,724.3428308000002,724.3428308000002,724.3428308000002,724.3428308000002,724.3428308000002,724.3428308000002,724.3428308000002,724.3428308000002,724.3428308000002,724.3428308000002,724.3428308000002,724.3428308000002,724.3428308000002,725.9075422000005,725.9075422000005,725.9075422000005,725.9075422000005,725.9075422000005,725.9075422000005,725.9075422000005,46,51,39,63,63,70,725.9075422000005,727.6584743000003,,,,,,,,,,,,３１８,f,１９,2023-05-19_10h14.21.213,RL,2022.2.5,60.12180678065385,
40,58,51,53,0,120,120,120,,,,,,,,,,,None,727.6584743000003,727.6584743000003,727.6584743000003,727.6584743000003,727.6584743000003,727.6584743000003,j,0.3009257000003345,727.9945194000002,727.9945194000002,727.9945194000002,727.9945194000002,727.9945194000002,727.9945194000002,728.2749581000007,729.8585095000008,729.8920021000004,729.8920021000004,729.8920021000004,729.8920021000004,729.8920021000004,729.8920021000004,729.8920021000004,729.8920021000004,729.8920021000004,729.8920021000004,729.8920021000004,729.8920021000004,729.8920021000004,731.7895319000008,731.7895319000008,731.7895319000008,731.7895319000008,731.7895319000008,731.7895319000008,731.7895319000008,51,53,40,58,58,70,731.7895319000008,733.4074712000001,,,,,,,,,,,,３１８,f,１９,2023-05-19_10h14.21.213,RL,2022.2.5,60.12180678065385,
28,55,59,48,0,121,121,121,,,,,,,,,,,None,733.4074712000001,733.4074712000001,733.4074712000001,733.4074712000001,733.4074712000001,733.4074712000001,i,0.2839040999997451,733.7245234000002,733.7245234000002,733.7245234000002,733.7245234000002,733.7245234000002,733.7245234000002,734.0073567000009,734.9738308000005,734.9908184000005,734.9908184000005,734.9908184000005,734.9908184000005,734.9908184000005,734.9908184000005,734.9908184000005,734.9908184000005,734.9908184000005,734.9908184000005,734.9908184000005,734.9908184000005,734.9908184000005,736.2552274,736.2552274,736.2552274,736.2552274,736.2552274,736.2552274,736.2552274,59,48,28,55,28,70,736.2552274,737.9065645000001,,,,,,,,,,,,３１８,f,１９,2023-05-19_10h14.21.213,RL,2022.2.5,60.12180678065385,
32,61,53,43,0,122,122,122,,,,,,,,,,,None,737.9065645000001,737.9065645000001,737.9065645000001,737.9065645000001,737.9065645000001,737.9065645000001,r,0.2430595000005269,738.1735504000007,738.1735504000007,738.1735504000007,738.1735504000007,738.1735504000007,738.1735504000007,738.4568309000006,740.2901006000002,740.3063009000007,740.3063009000007,740.3063009000007,740.3063009000007,740.3063009000007,740.3063009000007,740.3063009000007,740.3063009000007,740.3063009000007,740.3063009000007,740.3063009000007,740.3063009000007,740.3063009000007,742.4379729000002,742.4379729000002,742.4379729000002,742.4379729000002,742.4379729000002,742.4379729000002,742.4379729000002,53,43,32,61,43,70,742.4379729000002,744.0551590000005,,,,,,,,,,,,３１８,f,１９,2023-05-19_10h14.21.213,RL,2022.2.5,60.12180678065385,
