arm1,arm2,arm3,arm4,trials.thisRepN,trials.thisTrialN,trials.thisN,trials.thisIndex,instru_img1.started,instru_resp.started,instru_resp.keys,instru_resp.rt,image_2.started,text_2.started,image_2.stopped,text_2.stopped,fixbefore_2.started,fixbefore_2.stopped,rest_response.keys,red.started,green.started,yellow.started,blue.started,choose_bandit.started,Fixation.started,choose_bandit.keys,choose_bandit.rt,black.started,red_2.started,green_2.started,yellow_2.started,blue_2.started,fixation_2.started,docs.started,black.stopped,red_2.stopped,green_2.stopped,yellow_2.stopped,blue_2.stopped,fixation_2.stopped,docs.stopped,black_com.started,reward_sub.started,reward__sub.started,red_compare.started,green_com.started,yellow_com.started,blue_com.started,black_com.stopped,reward_sub.stopped,reward__sub.stopped,red_compare.stopped,green_com.stopped,yellow_com.stopped,blue_com.stopped,rewardred,rewardyellow,rewardblue,rewardgreen,subchoose,expectation,intertrialfix.started,intertrialfix.stopped,rest_image.started,rest_response.started,rest_response.rt,image_expect_after.started,text_exp_after.started,image_expect_after.stopped,text_exp_after.stopped,image.started,key_resp.started,key_resp.keys,key_resp.rt,participant,Gender,Age,date,expName,psychopyVersion,frameRate,
,,,,,,,,16.324878100000205,16.324878100000205,space,8.229718200000207,,,,,,,,,,,,,,,,,,,,,,,,,,,,,,,,,,,,,,,,,,,,,,,,,,,,,,,,,,,,,,,３１９,f,１９,2023-05-19_10h48.24.550,RL,2022.2.5,59.925129543134815,
35,45,70,58,0,0,0,0,,,,,24.578651699999682,24.578651699999682,29.578188800000135,29.578188800000135,29.578188800000135,30.579590899998948,None,30.579590899998948,30.579590899998948,30.579590899998948,30.579590899998948,30.579590899998948,30.579590899998948,r,0.5884382000003825,31.197876300000644,31.197876300000644,31.197876300000644,31.197876300000644,31.197876300000644,31.197876300000644,31.51299629999994,32.49783319999915,32.49783319999915,32.49783319999915,32.49783319999915,32.49783319999915,32.49783319999915,32.49783319999915,32.49783319999915,32.49783319999915,32.49783319999915,32.49783319999915,32.49783319999915,32.49783319999915,32.49783319999915,33.83419660000072,33.83419660000072,33.83419660000072,33.83419660000072,33.83419660000072,33.83419660000072,33.83419660000072,35,45,58,70,45,60,33.83419660000072,35.811318899999605,,,,,,,,,,,,３１９,f,１９,2023-05-19_10h48.24.550,RL,2022.2.5,59.925129543134815,
30,45,71,68,0,1,1,1,,,,,,,,,,,None,35.811318899999605,35.811318899999605,35.811318899999605,35.811318899999605,35.811318899999605,35.811318899999605,j,0.5501258000003872,36.378723300000274,36.378723300000274,36.378723300000274,36.378723300000274,36.378723300000274,36.378723300000274,36.661852199998975,37.594884099999035,37.594884099999035,37.594884099999035,37.594884099999035,37.594884099999035,37.594884099999035,37.57871999999952,37.594884099999035,37.594884099999035,37.594884099999035,37.594884099999035,37.594884099999035,37.594884099999035,37.594884099999035,38.81014359999972,38.81014359999972,38.81014359999972,38.81014359999972,38.81014359999972,38.81014359999972,38.81014359999972,30,45,68,71,71,60,38.81014359999972,40.477443399999174,,,,,,,,,,,,３１９,f,１９,2023-05-19_10h48.24.550,RL,2022.2.5,59.925129543134815,
27,51,56,60,0,2,2,2,,,,,,,,,,,None,40.477443399999174,40.477443399999174,40.477443399999174,40.477443399999174,40.477443399999174,40.477443399999174,f,0.8045981000013853,41.31194999999934,41.31194999999934,41.31194999999934,41.31194999999934,41.31194999999934,41.31194999999934,41.611278099999254,42.42725489999975,42.42725489999975,42.42725489999975,42.42725489999975,42.42725489999975,42.42725489999975,42.42725489999975,42.42725489999975,42.42725489999975,42.42725489999975,42.42725489999975,42.42725489999975,42.42725489999975,42.42725489999975,43.54272149999997,43.54272149999997,43.54272149999997,43.54272149999997,43.54272149999997,43.54272149999997,43.54272149999997,27,51,60,56,27,60,43.54272149999997,45.12652619999972,,,,,,,,,,,,３１９,f,１９,2023-05-19_10h48.24.550,RL,2022.2.5,59.925129543134815,
25,42,68,58,0,3,3,3,,,,,,,,,,,None,45.12652619999972,45.12652619999972,45.12652619999972,45.12652619999972,45.12652619999972,45.12652619999972,r,0.7539440999989893,45.913511499999004,45.913511499999004,45.913511499999004,45.913511499999004,45.913511499999004,45.913511499999004,46.193565800000215,47.35983180000039,47.35983180000039,47.35983180000039,47.35983180000039,47.35983180000039,47.35983180000039,47.34362449999935,47.35983180000039,47.35983180000039,47.35983180000039,47.35983180000039,47.35983180000039,47.35983180000039,47.35983180000039,48.80817770000067,48.80817770000067,48.80817770000067,48.80817770000067,48.80817770000067,48.80817770000067,48.80817770000067,25,42,58,68,42,60,48.80817770000067,50.492502799999784,,,,,,,,,,,,３１９,f,１９,2023-05-19_10h48.24.550,RL,2022.2.5,59.925129543134815,
27,43,64,57,0,4,4,4,,,,,,,,,,,None,50.492502799999784,50.492502799999784,50.492502799999784,50.492502799999784,50.492502799999784,50.492502799999784,j,0.6093757999988156,51.12604210000063,51.12604210000063,51.12604210000063,51.12604210000063,51.12604210000063,51.12604210000063,51.42587239999921,52.42547150000064,52.42547150000064,52.42547150000064,52.42547150000064,52.42547150000064,52.42547150000064,52.42547150000064,52.42547150000064,52.42547150000064,52.42547150000064,52.42547150000064,52.42547150000064,52.42547150000064,52.42547150000064,53.72359719999986,53.72359719999986,53.72359719999986,53.72359719999986,53.72359719999986,53.72359719999986,53.72359719999986,27,43,57,64,64,60,53.72359719999986,55.30816740000046,,,,,,,,,,,,３１９,f,１９,2023-05-19_10h48.24.550,RL,2022.2.5,59.925129543134815,
35,44,66,63,0,5,5,5,,,,,,,,,,,None,55.30816740000046,55.30816740000046,55.30816740000046,55.30816740000046,55.30816740000046,55.30816740000046,i,0.7588393999994878,56.092755300000135,56.092755300000135,56.092755300000135,56.092755300000135,56.092755300000135,56.092755300000135,56.37539210000068,57.62463519999983,57.62463519999983,57.62463519999983,57.62463519999983,57.62463519999983,57.62463519999983,57.6081678999999,57.62463519999983,57.62463519999983,57.62463519999983,57.62463519999983,57.62463519999983,57.62463519999983,57.62463519999983,59.156353299998955,59.156353299998955,59.156353299998955,59.156353299998955,59.156353299998955,59.156353299998955,59.156353299998955,35,44,63,66,63,60,59.156353299998955,60.724489000000176,,,,,,,,,,,,３１９,f,１９,2023-05-19_10h48.24.550,RL,2022.2.5,59.925129543134815,
34,44,56,66,0,6,6,6,,,,,,,,,,,None,60.724489000000176,60.724489000000176,60.724489000000176,60.724489000000176,60.724489000000176,60.724489000000176,f,1.0521300000000338,61.813386800000444,61.813386800000444,61.813386800000444,61.813386800000444,61.813386800000444,61.813386800000444,62.09096230000068,63.85689090000051,63.85689090000051,63.85689090000051,63.85689090000051,63.85689090000051,63.85689090000051,63.82372899999973,63.85689090000051,63.85689090000051,63.85689090000051,63.85689090000051,63.85689090000051,63.85689090000051,63.85689090000051,65.88839860000007,65.88839860000007,65.88839860000007,65.88839860000007,65.88839860000007,65.88839860000007,65.88839860000007,34,44,66,56,34,60,65.88839860000007,67.53968560000067,,,,,,,,,,,,３１９,f,１９,2023-05-19_10h48.24.550,RL,2022.2.5,59.925129543134815,
30,46,54,64,0,7,7,7,,,,,,,,,,,None,67.53968560000067,67.53968560000067,67.53968560000067,67.53968560000067,67.53968560000067,67.53968560000067,j,0.5217058999987785,68.09058220000043,68.09058220000043,68.09058220000043,68.09058220000043,68.09058220000043,68.09058220000043,68.38970580000023,70.38914750000004,70.38914750000004,70.38914750000004,70.38914750000004,70.38914750000004,70.38914750000004,70.38914750000004,70.38914750000004,70.38914750000004,70.38914750000004,70.38914750000004,70.38914750000004,70.38914750000004,70.38914750000004,72.68701429999965,72.68701429999965,72.68701429999965,72.68701429999965,72.68701429999965,72.68701429999965,72.68701429999965,30,46,64,54,54,60,72.68701429999965,74.57210499999928,,,,,,,,,,,,３１９,f,１９,2023-05-19_10h48.24.550,RL,2022.2.5,59.925129543134815,
41,41,56,67,0,8,8,8,,,,,,,,,,,None,74.57210499999928,74.57210499999928,74.57210499999928,74.57210499999928,74.57210499999928,74.57210499999928,r,0.27392820000022766,74.87200649999977,74.87200649999977,74.87200649999977,74.87200649999977,74.87200649999977,74.87200649999977,75.15532510000048,76.13873090000016,76.13873090000016,76.13873090000016,76.13873090000016,76.13873090000016,76.13873090000016,76.12190620000001,76.13873090000016,76.13873090000016,76.13873090000016,76.13873090000016,76.13873090000016,76.13873090000016,76.13873090000016,77.40331759999935,77.40331759999935,77.40331759999935,77.40331759999935,77.40331759999935,77.40331759999935,77.40331759999935,41,41,67,56,41,60,77.40331759999935,79.12054999999964,,,,,,,,,,,,３１９,f,１９,2023-05-19_10h48.24.550,RL,2022.2.5,59.925129543134815,
44,44,52,59,0,9,9,9,,,,,,,,,,,None,79.12054999999964,79.12054999999964,79.12054999999964,79.12054999999964,79.12054999999964,79.12054999999964,i,1.1912069999998494,80.33929089999947,80.33929089999947,80.33929089999947,80.33929089999947,80.33929089999947,80.33929089999947,80.63728269999956,82.03740560000006,82.03740560000006,82.03740560000006,82.03740560000006,82.03740560000006,82.03740560000006,82.03740560000006,82.03740560000006,82.03740560000006,82.03740560000006,82.03740560000006,82.03740560000006,82.03740560000006,82.03740560000006,83.73551640000005,83.73551640000005,83.73551640000005,83.73551640000005,83.73551640000005,83.73551640000005,83.73551640000005,44,44,59,52,59,60,83.73551640000005,85.68649539999933,,,,,,,,,,,,３１９,f,１９,2023-05-19_10h48.24.550,RL,2022.2.5,59.925129543134815,
50,49,54,66,0,10,10,10,,,,,,,,,,,None,85.68649539999933,85.68649539999933,85.68649539999933,85.68649539999933,85.68649539999933,85.68649539999933,f,0.31198160000167263,86.02123369999936,86.02123369999936,86.02123369999936,86.02123369999936,86.02123369999936,86.02123369999936,86.30402669999967,87.95271639999919,87.95271639999919,87.95271639999919,87.95271639999919,87.95271639999919,87.95271639999919,87.93665349999901,87.95271639999919,87.95271639999919,87.95271639999919,87.95271639999919,87.95271639999919,87.95271639999919,87.95271639999919,89.88420299999962,89.88420299999962,89.88420299999962,89.88420299999962,89.88420299999962,89.88420299999962,89.88420299999962,50,49,66,54,50,60,89.88420299999962,91.60194330000013,,,,,,,,,,,,３１９,f,１９,2023-05-19_10h48.24.550,RL,2022.2.5,59.925129543134815,
41,51,50,64,0,11,11,11,,,,,,,,,,,None,91.60194330000013,91.60194330000013,91.60194330000013,91.60194330000013,91.60194330000013,91.60194330000013,i,0.4925722999996651,92.12002799999937,92.12002799999937,92.12002799999937,92.12002799999937,92.12002799999937,92.12002799999937,92.40221949999977,94.25170380000054,94.25170380000054,94.25170380000054,94.25170380000054,94.25170380000054,94.25170380000054,94.23505900000055,94.25170380000054,94.25170380000054,94.25170380000054,94.25170380000054,94.25170380000054,94.25170380000054,94.25170380000054,96.36628869999913,96.36628869999913,96.36628869999913,96.36628869999913,96.36628869999913,96.36628869999913,96.36628869999913,41,51,64,50,64,60,96.36628869999913,98.30106630000046,,,,,,,,,,,,３１９,f,１９,2023-05-19_10h48.24.550,RL,2022.2.5,59.925129543134815,
47,46,53,61,0,12,12,12,,,,,,,,,,,None,98.30106630000046,98.30106630000046,98.30106630000046,98.30106630000046,98.30106630000046,98.30106630000046,i,0.4341586999998981,98.77275399999962,98.77275399999962,98.77275399999962,98.77275399999962,98.77275399999962,98.77275399999962,99.05131090000032,101.03402219999953,101.03402219999953,101.03402219999953,101.03402219999953,101.03402219999953,101.03402219999953,101.017199599999,101.03402219999953,101.03402219999953,101.03402219999953,101.03402219999953,101.03402219999953,101.03402219999953,101.03402219999953,103.29859949999991,103.29859949999991,103.29859949999991,103.29859949999991,103.29859949999991,103.29859949999991,103.29859949999991,47,46,61,53,61,60,103.29859949999991,105.01640279999992,,,,,,,,,,,,３１９,f,１９,2023-05-19_10h48.24.550,RL,2022.2.5,59.925129543134815,
39,47,52,62,0,13,13,13,,,,,,,,,,,None,105.01640279999992,105.01640279999992,105.01640279999992,105.01640279999992,105.01640279999992,105.01640279999992,f,0.2974589000004926,105.33477060000041,105.33477060000041,105.33477060000041,105.33477060000041,105.33477060000041,105.33477060000041,105.61647350000021,106.68285920000017,106.68285920000017,106.68285920000017,106.68285920000017,106.68285920000017,106.68285920000017,106.66664209999908,106.68285920000017,106.68285920000017,106.68285920000017,106.68285920000017,106.68285920000017,106.68285920000017,106.68285920000017,108.0310499999996,108.0310499999996,108.0310499999996,108.0310499999996,108.0310499999996,108.0310499999996,108.0310499999996,39,47,62,52,39,60,108.0310499999996,109.99893949999932,,,,,,,,,,,,３１９,f,１９,2023-05-19_10h48.24.550,RL,2022.2.5,59.925129543134815,
47,46,54,60,0,14,14,14,,,,,,,,,,,None,109.99893949999932,109.99893949999932,109.99893949999932,109.99893949999932,109.99893949999932,109.99893949999932,r,0.6319136999991315,110.64979529999982,110.64979529999982,110.64979529999982,110.64979529999982,110.64979529999982,110.64979529999982,110.93271239999922,111.78201009999975,111.78201009999975,111.78201009999975,111.78201009999975,111.78201009999975,111.78201009999975,111.76536510000005,111.78201009999975,111.78201009999975,111.78201009999975,111.78201009999975,111.78201009999975,111.78201009999975,111.78201009999975,112.91355470000053,112.91355470000053,112.91355470000053,112.91355470000053,112.91355470000053,112.91355470000053,112.91355470000053,47,46,60,54,46,60,112.91355470000053,114.44829430000027,,,,,,,,,,,,３１９,f,１９,2023-05-19_10h48.24.550,RL,2022.2.5,59.925129543134815,
46,44,55,57,0,15,15,15,,,,,,,,,,,None,114.44829430000027,114.44829430000027,114.44829430000027,114.44829430000027,114.44829430000027,114.44829430000027,j,0.6407389000014518,115.11504400000013,115.11504400000013,115.11504400000013,115.11504400000013,115.11504400000013,115.11504400000013,115.39776940000047,116.49806390000049,116.49806390000049,116.49806390000049,116.49806390000049,116.49806390000049,116.49806390000049,116.48133699999926,116.49806390000049,116.49806390000049,116.49806390000049,116.49806390000049,116.49806390000049,116.49806390000049,116.49806390000049,117.87945140000011,117.87945140000011,117.87945140000011,117.87945140000011,117.87945140000011,117.87945140000011,117.87945140000011,46,44,57,55,55,60,117.87945140000011,119.76426829999946,,,,,,,,,,,,３１９,f,１９,2023-05-19_10h48.24.550,RL,2022.2.5,59.925129543134815,
52,48,57,53,0,16,16,16,,,,,,,,,,,None,119.76426829999946,119.76426829999946,119.76426829999946,119.76426829999946,119.76426829999946,119.76426829999946,j,0.5344507000008889,120.33688079999956,120.33688079999956,120.33688079999956,120.33688079999956,120.33688079999956,120.33688079999956,120.61403570000039,121.81385020000016,121.81385020000016,121.81385020000016,121.81385020000016,121.81385020000016,121.81385020000016,121.79732119999971,121.81385020000016,121.81385020000016,121.81385020000016,121.81385020000016,121.81385020000016,121.81385020000016,121.81385020000016,123.29489250000006,123.29489250000006,123.29489250000006,123.29489250000006,123.29489250000006,123.29489250000006,123.29489250000006,52,48,53,57,57,60,123.29489250000006,125.1458492999991,,,,,,,,,,,,３１９,f,１９,2023-05-19_10h48.24.550,RL,2022.2.5,59.925129543134815,
45,45,49,61,0,17,17,17,,,,,,,,,,,None,125.1458492999991,125.1458492999991,125.1458492999991,125.1458492999991,125.1458492999991,125.1458492999991,j,0.4884743000002345,125.66346580000027,125.66346580000027,125.66346580000027,125.66346580000027,125.66346580000027,125.66346580000027,125.9461969999993,127.06275559999995,127.06275559999995,127.06275559999995,127.06275559999995,127.06275559999995,127.06275559999995,127.04629899999964,127.06275559999995,127.06275559999995,127.06275559999995,127.06275559999995,127.06275559999995,127.06275559999995,127.06275559999995,128.46078370000032,128.46078370000032,128.46078370000032,128.46078370000032,128.46078370000032,128.46078370000032,128.46078370000032,45,45,61,49,49,60,128.46078370000032,130.0453180000004,,,,,,,,,,,,３１９,f,１９,2023-05-19_10h48.24.550,RL,2022.2.5,59.925129543134815,
41,45,55,64,0,18,18,18,,,,,,,,,,,None,130.0453180000004,130.0453180000004,130.0453180000004,130.0453180000004,130.0453180000004,130.0453180000004,r,0.4863820000009582,130.56222770000022,130.56222770000022,130.56222770000022,130.56222770000022,130.56222770000022,130.56222770000022,130.84583939999902,132.7784159999992,132.7784159999992,132.7784159999992,132.7784159999992,132.7784159999992,132.7784159999992,132.7615750999994,132.7784159999992,132.7784159999992,132.7784159999992,132.7784159999992,132.7784159999992,132.7784159999992,132.7784159999992,134.99317399999927,134.99317399999927,134.99317399999927,134.99317399999927,134.99317399999927,134.99317399999927,134.99317399999927,41,45,64,55,45,60,134.99317399999927,136.97772919999989,,,,,,,,,,,,３１９,f,１９,2023-05-19_10h48.24.550,RL,2022.2.5,59.925129543134815,
51,39,41,60,0,19,19,19,,,,,,,,,,,None,136.97772919999989,136.97772919999989,136.97772919999989,136.97772919999989,136.97772919999989,136.97772919999989,i,0.334430799999609,137.34927860000062,137.34927860000062,137.34927860000062,137.34927860000062,137.34927860000062,137.34927860000062,137.62792309999895,138.77755380000053,138.77755380000053,138.77755380000053,138.77755380000053,138.77755380000053,138.77755380000053,138.7607551000001,138.77755380000053,138.77755380000053,138.77755380000053,138.77755380000053,138.77755380000053,138.77755380000053,138.77755380000053,140.2086629000005,140.2086629000005,140.2086629000005,140.2086629000005,140.2086629000005,140.2086629000005,140.2086629000005,51,39,60,41,60,60,140.2086629000005,142.12698339999952,,,,,,,,,,,,３１９,f,１９,2023-05-19_10h48.24.550,RL,2022.2.5,59.925129543134815,
55,39,44,61,0,20,20,20,,,,,,,,,,,None,142.12698339999952,142.12698339999952,142.12698339999952,142.12698339999952,142.12698339999952,142.12698339999952,f,0.32488050000029034,142.47694500000034,142.47694500000034,142.47694500000034,142.47694500000034,142.47694500000034,142.47694500000034,142.76022399999965,143.7597034999999,143.7597034999999,143.7597034999999,143.7597034999999,143.7597034999999,143.7597034999999,143.74366530000043,143.7597034999999,143.7597034999999,143.7597034999999,143.7597034999999,143.7597034999999,143.7597034999999,143.7597034999999,145.04143040000054,145.04143040000054,145.04143040000054,145.04143040000054,145.04143040000054,145.04143040000054,145.04143040000054,55,39,61,44,55,60,145.04143040000054,146.97563049999917,,,,,,,,,,,,３１９,f,１９,2023-05-19_10h48.24.550,RL,2022.2.5,59.925129543134815,
52,41,49,68,0,21,21,21,,,,,,,,,,,None,146.97563049999917,146.97563049999917,146.97563049999917,146.97563049999917,146.97563049999917,146.97563049999917,r,0.8790917999995145,147.8760474999999,147.8760474999999,147.8760474999999,147.8760474999999,147.8760474999999,147.8760474999999,148.15915949999908,149.89230490000045,149.89230490000045,149.89230490000045,149.89230490000045,149.89230490000045,149.89230490000045,149.8754571999998,149.89230490000045,149.89230490000045,149.89230490000045,149.89230490000045,149.89230490000045,149.89230490000045,149.89230490000045,151.90704779999942,151.90704779999942,151.90704779999942,151.90704779999942,151.90704779999942,151.90704779999942,151.90704779999942,52,41,68,49,41,60,151.90704779999942,153.4913976000007,,,,,,,,,,,,３１９,f,１９,2023-05-19_10h48.24.550,RL,2022.2.5,59.925129543134815,
56,47,60,66,0,22,22,22,,,,,,,,,,,None,153.4913976000007,153.4913976000007,153.4913976000007,153.4913976000007,153.4913976000007,153.4913976000007,j,0.2294185999999172,153.74260270000013,153.74260270000013,153.74260270000013,153.74260270000013,153.74260270000013,153.74260270000013,154.02459069999895,155.44131430000016,155.44131430000016,155.44131430000016,155.44131430000016,155.44131430000016,155.44131430000016,155.4248088000004,155.44131430000016,155.44131430000016,155.44131430000016,155.44131430000016,155.44131430000016,155.44131430000016,155.44131430000016,157.1391910000002,157.1391910000002,157.1391910000002,157.1391910000002,157.1391910000002,157.1391910000002,157.1391910000002,56,47,66,60,60,60,157.1391910000002,158.94036570000026,,,,,,,,,,,,３１９,f,１９,2023-05-19_10h48.24.550,RL,2022.2.5,59.925129543134815,
42,49,45,61,0,23,23,23,,,,,,,,,,,None,158.94036570000026,158.94036570000026,158.94036570000026,158.94036570000026,158.94036570000026,158.94036570000026,r,1.029674299999897,159.9905844999994,159.9905844999994,159.9905844999994,159.9905844999994,159.9905844999994,159.9905844999994,160.27395119999892,161.72349329999997,161.72349329999997,161.72349329999997,161.72349329999997,161.72349329999997,161.72349329999997,161.7068593999993,161.72349329999997,161.72349329999997,161.72349329999997,161.72349329999997,161.72349329999997,161.72349329999997,161.72349329999997,163.45509239999956,163.45509239999956,163.45509239999956,163.45509239999956,163.45509239999956,163.45509239999956,163.45509239999956,42,49,61,45,49,60,163.45509239999956,165.35539339999923,,,,,,,,,,,,３１９,f,１９,2023-05-19_10h48.24.550,RL,2022.2.5,59.925129543134815,
39,56,54,55,0,24,24,24,,,,,,,,,,,None,165.35539339999923,165.35539339999923,165.35539339999923,165.35539339999923,165.35539339999923,165.35539339999923,i,0.23952319999989413,165.62292399999933,165.62292399999933,165.62292399999933,165.62292399999933,165.62292399999933,165.62292399999933,165.9063339000004,167.17233040000065,167.17233040000065,167.17233040000065,167.17233040000065,167.17233040000065,167.17233040000065,167.1560258999998,167.17233040000065,167.17233040000065,167.17233040000065,167.17233040000065,167.17233040000065,167.17233040000065,167.17233040000065,168.72052389999953,168.72052389999953,168.72052389999953,168.72052389999953,168.72052389999953,168.72052389999953,168.72052389999953,39,56,55,54,55,60,168.72052389999953,170.4883334999995,,,,,,,,,,,,３１９,f,１９,2023-05-19_10h48.24.550,RL,2022.2.5,59.925129543134815,
43,52,52,61,0,25,25,25,,,,,,,,,,,None,170.4883334999995,170.4883334999995,170.4883334999995,170.4883334999995,170.4883334999995,170.4883334999995,f,0.2830661999996664,170.78963269999986,170.78963269999986,170.78963269999986,170.78963269999986,170.78963269999986,170.78963269999986,171.0721711999995,171.98833580000064,171.98833580000064,171.98833580000064,171.98833580000064,171.98833580000064,171.98833580000064,171.97142390000045,171.98833580000064,171.98833580000064,171.98833580000064,171.98833580000064,171.98833580000064,171.98833580000064,171.98833580000064,173.1867201999994,173.1867201999994,173.1867201999994,173.1867201999994,173.1867201999994,173.1867201999994,173.1867201999994,43,52,61,52,43,60,173.1867201999994,175.02056939999966,,,,,,,,,,,,３１９,f,１９,2023-05-19_10h48.24.550,RL,2022.2.5,59.925129543134815,
43,45,59,68,0,26,26,26,,,,,,,,,,,None,175.02056939999966,175.02056939999966,175.02056939999966,175.02056939999966,175.02056939999966,175.02056939999966,i,0.8431696000006923,175.88950959999966,175.88950959999966,175.88950959999966,175.88950959999966,175.88950959999966,175.88950959999966,176.17106749999948,177.05383729999994,177.05383729999994,177.05383729999994,177.05383729999994,177.05383729999994,177.05383729999994,177.0378335000005,177.05383729999994,177.05383729999994,177.05383729999994,177.05383729999994,177.05383729999994,177.05383729999994,177.05383729999994,178.2190258999999,178.2190258999999,178.2190258999999,178.2190258999999,178.2190258999999,178.2190258999999,178.2190258999999,43,45,68,59,68,60,178.2190258999999,179.7370919999994,,,,,,,,,,,,３１９,f,１９,2023-05-19_10h48.24.550,RL,2022.2.5,59.925129543134815,
38,49,56,77,0,27,27,27,,,,,,,,,,,None,179.7370919999994,179.7370919999994,179.7370919999994,179.7370919999994,179.7370919999994,179.7370919999994,j,1.0229397000002791,180.78911189999963,180.78911189999963,180.78911189999963,180.78911189999963,180.78911189999963,180.78911189999963,181.07043990000057,182.28680600000007,182.28680600000007,182.28680600000007,182.28680600000007,182.28680600000007,182.28680600000007,182.26997630000005,182.28680600000007,182.28680600000007,182.28680600000007,182.28680600000007,182.28680600000007,182.28680600000007,182.28680600000007,183.78476969999974,183.78476969999974,183.78476969999974,183.78476969999974,183.78476969999974,183.78476969999974,183.78476969999974,38,49,77,56,56,60,183.78476969999974,185.5857875999991,,,,,,,,,,,,３１９,f,１９,2023-05-19_10h48.24.550,RL,2022.2.5,59.925129543134815,
39,49,46,65,0,28,28,28,,,,,,,,,,,None,185.5857875999991,185.5857875999991,185.5857875999991,185.5857875999991,185.5857875999991,185.5857875999991,r,0.5162005999991379,186.1193972000001,186.1193972000001,186.1193972000001,186.1193972000001,186.1193972000001,186.1193972000001,186.41904989999966,187.3356146999995,187.3356146999995,187.3356146999995,187.3356146999995,187.3356146999995,187.3356146999995,187.3356146999995,187.3356146999995,187.3356146999995,187.3356146999995,187.3356146999995,187.3356146999995,187.3356146999995,187.3356146999995,188.5506248999991,188.5506248999991,188.5506248999991,188.5506248999991,188.5506248999991,188.5506248999991,188.5506248999991,39,49,65,46,49,60,188.5506248999991,190.15186619999986,,,,,,,,,,,,３１９,f,１９,2023-05-19_10h48.24.550,RL,2022.2.5,59.925129543134815,
51,47,50,64,0,29,29,29,,,,,,,,,,,None,190.15186619999986,190.15186619999986,190.15186619999986,190.15186619999986,190.15186619999986,190.15186619999986,i,0.3168040000000474,190.50742919999902,190.50742919999902,190.50742919999902,190.50742919999902,190.50742919999902,190.50742919999902,190.80194780000056,191.8184301000001,191.8184301000001,191.8184301000001,191.8184301000001,191.8184301000001,191.8184301000001,191.8184301000001,191.8184301000001,191.8184301000001,191.8184301000001,191.8184301000001,191.8184301000001,191.8184301000001,191.8184301000001,193.1330127000001,193.1330127000001,193.1330127000001,193.1330127000001,193.1330127000001,193.1330127000001,193.1330127000001,51,47,64,50,64,60,193.1330127000001,194.81782070000008,,,,,,,,,,,,３１９,f,１９,2023-05-19_10h48.24.550,RL,2022.2.5,59.925129543134815,
44,44,49,61,0,30,30,30,,,,,,,,,,,None,194.81782070000008,194.81782070000008,194.81782070000008,194.81782070000008,194.81782070000008,194.81782070000008,i,0.5215733999993972,195.3707128999995,195.3707128999995,195.3707128999995,195.3707128999995,195.3707128999995,195.3707128999995,195.6672634000006,196.78391949999968,196.78391949999968,196.78391949999968,196.78391949999968,196.78391949999968,196.78391949999968,196.78391949999968,196.78391949999968,196.78391949999968,196.78391949999968,196.78391949999968,196.78391949999968,196.78391949999968,196.78391949999968,198.1987097000001,198.1987097000001,198.1987097000001,198.1987097000001,198.1987097000001,198.1987097000001,198.1987097000001,44,44,61,49,61,60,198.1987097000001,200.18285660000038,,,,,,,,,,,,３１９,f,１９,2023-05-19_10h48.24.550,RL,2022.2.5,59.925129543134815,
48,56,56,59,0,31,31,31,,,,,,,,,,,None,200.18285660000038,200.18285660000038,200.18285660000038,200.18285660000038,200.18285660000038,200.18285660000038,f,0.5664902999997139,200.76732869999978,200.76732869999978,200.76732869999978,200.76732869999978,200.76732869999978,200.76732869999978,201.0499431999997,202.04975139999988,202.04975139999988,202.04975139999988,202.04975139999988,202.04975139999988,202.04975139999988,202.0329029000004,202.04975139999988,202.04975139999988,202.04975139999988,202.04975139999988,202.04975139999988,202.04975139999988,202.04975139999988,203.33122989999902,203.33122989999902,203.33122989999902,203.33122989999902,203.33122989999902,203.33122989999902,203.33122989999902,48,56,59,56,48,60,203.33122989999902,205.21542339999905,,,,,,,,,,,,３１９,f,１９,2023-05-19_10h48.24.550,RL,2022.2.5,59.925129543134815,
39,59,44,64,0,32,32,32,,,,,,,,,,,None,205.21542339999905,205.21542339999905,205.21542339999905,205.21542339999905,205.21542339999905,205.21542339999905,i,0.5862320999985968,205.83493839999937,205.83493839999937,205.83493839999937,205.83493839999937,205.83493839999937,205.83493839999937,206.1161133000005,207.6487821999999,207.6487821999999,207.6487821999999,207.6487821999999,207.6487821999999,207.6487821999999,207.63240419999966,207.6487821999999,207.6487821999999,207.6487821999999,207.6487821999999,207.6487821999999,207.6487821999999,207.6487821999999,209.46345409999958,209.46345409999958,209.46345409999958,209.46345409999958,209.46345409999958,209.46345409999958,209.46345409999958,39,59,64,44,64,60,209.46345409999958,211.06455939999978,,,,,,,,,,,,３１９,f,１９,2023-05-19_10h48.24.550,RL,2022.2.5,59.925129543134815,
32,43,47,63,0,33,33,33,,,,,,,,,,,None,211.06455939999978,211.06455939999978,211.06455939999978,211.06455939999978,211.06455939999978,211.06455939999978,i,0.5076377000004868,211.59989289999976,211.59989289999976,211.59989289999976,211.59989289999976,211.59989289999976,211.59989289999976,211.88175339999907,212.99772479999956,212.99772479999956,212.99772479999956,212.99772479999956,212.99772479999956,212.99772479999956,212.96468280000045,212.99772479999956,212.99772479999956,212.99772479999956,212.99772479999956,212.99772479999956,212.99772479999956,212.99772479999956,214.37970940000014,214.37970940000014,214.37970940000014,214.37970940000014,214.37970940000014,214.37970940000014,214.37970940000014,32,43,63,47,63,60,214.37970940000014,216.2473360999993,,,,,,,,,,,,３１９,f,１９,2023-05-19_10h48.24.550,RL,2022.2.5,59.925129543134815,
43,56,46,61,0,34,34,34,,,,,,,,,,,None,216.2473360999993,216.2473360999993,216.2473360999993,216.2473360999993,216.2473360999993,216.2473360999993,i,0.7120020000002114,216.98063299999922,216.98063299999922,216.98063299999922,216.98063299999922,216.98063299999922,216.98063299999922,217.26397410000027,219.2467400000005,219.2467400000005,219.2467400000005,219.2467400000005,219.2467400000005,219.2467400000005,219.23015470000064,219.2467400000005,219.2467400000005,219.2467400000005,219.2467400000005,219.2467400000005,219.2467400000005,219.2467400000005,221.5114039,221.5114039,221.5114039,221.5114039,221.5114039,221.5114039,221.5114039,43,56,61,46,61,60,221.5114039,223.09590509999907,,,,,,,,,,,,３１９,f,１９,2023-05-19_10h48.24.550,RL,2022.2.5,59.925129543134815,
37,48,46,59,0,35,35,35,,,,,,,,,,,None,223.09590509999907,223.09590509999907,223.09590509999907,223.09590509999907,223.09590509999907,223.09590509999907,j,0.28840979999949923,223.413134299999,223.413134299999,223.413134299999,223.413134299999,223.413134299999,223.413134299999,223.6961468999998,224.77888949999942,224.77888949999942,224.77888949999942,224.77888949999942,224.77888949999942,224.77888949999942,224.76262339999994,224.77888949999942,224.77888949999942,224.77888949999942,224.77888949999942,224.77888949999942,224.77888949999942,224.77888949999942,226.1437937999999,226.1437937999999,226.1437937999999,226.1437937999999,226.1437937999999,226.1437937999999,226.1437937999999,37,48,59,46,46,60,226.1437937999999,227.72851749999973,,,,,,,,,,,,３１９,f,１９,2023-05-19_10h48.24.550,RL,2022.2.5,59.925129543134815,
39,54,45,57,0,36,36,36,,,,,,,,,,,None,227.72851749999973,227.72851749999973,227.72851749999973,227.72851749999973,227.72851749999973,227.72851749999973,r,0.292353799999546,228.04607849999957,228.04607849999957,228.04607849999957,228.04607849999957,228.04607849999957,228.04607849999957,228.32852359999924,229.76166530000046,229.76166530000046,229.76166530000046,229.76166530000046,229.76166530000046,229.76166530000046,229.74525919999905,229.76166530000046,229.76166530000046,229.76166530000046,229.76166530000046,229.76166530000046,229.76166530000046,229.76166530000046,231.47638329999972,231.47638329999972,231.47638329999972,231.47638329999972,231.47638329999972,231.47638329999972,231.47638329999972,39,54,57,45,54,60,231.47638329999972,233.2275052999994,,,,,,,,,,,,３１９,f,１９,2023-05-19_10h48.24.550,RL,2022.2.5,59.925129543134815,
45,55,46,56,0,37,37,37,,,,,,,,,,,None,233.2275052999994,233.2275052999994,233.2275052999994,233.2275052999994,233.2275052999994,233.2275052999994,i,0.38724069999989297,233.64592520000042,233.64592520000042,233.64592520000042,233.64592520000042,233.64592520000042,233.64592520000042,233.94450779999897,234.77723499999956,234.77723499999956,234.77723499999956,234.77723499999956,234.77723499999956,234.77723499999956,234.77723499999956,234.77723499999956,234.77723499999956,234.77723499999956,234.77723499999956,234.77723499999956,234.77723499999956,234.77723499999956,235.90916389999984,235.90916389999984,235.90916389999984,235.90916389999984,235.90916389999984,235.90916389999984,235.90916389999984,45,55,56,46,56,60,235.90916389999984,237.7097919000007,,,,,,,,,,,,３１９,f,１９,2023-05-19_10h48.24.550,RL,2022.2.5,59.925129543134815,
41,50,46,56,0,38,38,38,,,,,,,,,,,None,237.7097919000007,237.7097919000007,237.7097919000007,237.7097919000007,237.7097919000007,237.7097919000007,f,0.2787907999991148,238.01371370000015,238.01371370000015,238.01371370000015,238.01371370000015,238.01371370000015,238.01371370000015,238.29362310000033,240.14298009999948,240.14298009999948,240.14298009999948,240.14298009999948,240.14298009999948,240.14298009999948,240.12666080000054,240.14298009999948,240.14298009999948,240.14298009999948,240.14298009999948,240.14298009999948,240.14298009999948,240.14298009999948,242.27458879999904,242.27458879999904,242.27458879999904,242.27458879999904,242.27458879999904,242.27458879999904,242.27458879999904,41,50,56,46,41,60,242.27458879999904,243.9589147000006,,,,,,,,,,,,３１９,f,１９,2023-05-19_10h48.24.550,RL,2022.2.5,59.925129543134815,
38,56,48,53,0,39,39,39,,,,,,,,,,,None,243.9589147000006,243.9589147000006,243.9589147000006,243.9589147000006,243.9589147000006,243.9589147000006,j,0.2553927000008116,244.24256679999962,244.24256679999962,244.24256679999962,244.24256679999962,244.24256679999962,244.24256679999962,244.5261191999998,245.72565209999993,245.72565209999993,245.72565209999993,245.72565209999993,245.72565209999993,245.72565209999993,245.70904039999914,245.72565209999993,245.72565209999993,245.72565209999993,245.72565209999993,245.72565209999993,245.72565209999993,245.72565209999993,247.20735179999974,247.20735179999974,247.20735179999974,247.20735179999974,247.20735179999974,247.20735179999974,247.20735179999974,38,56,53,48,48,60,247.20735179999974,249.1243603999992,,,,,,,,,,,,３１９,f,１９,2023-05-19_10h48.24.550,RL,2022.2.5,59.925129543134815,
38,62,49,55,0,40,40,40,,,,,,,,,,,None,249.1243603999992,249.1243603999992,249.1243603999992,249.1243603999992,249.1243603999992,249.1243603999992,i,0.5877304999994521,249.74180290000004,249.74180290000004,249.74180290000004,249.74180290000004,249.74180290000004,249.74180290000004,250.02533519999997,251.55798379999942,251.55798379999942,251.55798379999942,251.55798379999942,251.55798379999942,251.55798379999942,251.54151509999974,251.55798379999942,251.55798379999942,251.55798379999942,251.55798379999942,251.55798379999942,251.55798379999942,251.55798379999942,253.37230889999955,253.37230889999955,253.37230889999955,253.37230889999955,253.37230889999955,253.37230889999955,253.37230889999955,38,62,55,49,55,60,253.37230889999955,255.1903784999995,,,,,,,,,,,,３１９,f,１９,2023-05-19_10h48.24.550,RL,2022.2.5,59.925129543134815,
44,58,40,64,0,41,41,41,,,,,,,,,,,None,255.1903784999995,255.1903784999995,255.1903784999995,255.1903784999995,255.1903784999995,255.1903784999995,r,0.31316289999995206,255.52461219999896,255.52461219999896,255.52461219999896,255.52461219999896,255.52461219999896,255.52461219999896,255.82361089999904,257.53997789999994,257.53997789999994,257.53997789999994,257.53997789999994,257.53997789999994,257.53997789999994,257.53997789999994,257.53997789999994,257.53997789999994,257.53997789999994,257.53997789999994,257.53997789999994,257.53997789999994,257.53997789999994,259.5546482999998,259.5546482999998,259.5546482999998,259.5546482999998,259.5546482999998,259.5546482999998,259.5546482999998,44,58,64,40,58,60,259.5546482999998,261.5555322,,,,,,,,,,,,３１９,f,１９,2023-05-19_10h48.24.550,RL,2022.2.5,59.925129543134815,
55,60,48,53,0,42,42,42,,,,,,,,,,,None,261.5555322,261.5555322,261.5555322,261.5555322,261.5555322,261.5555322,i,0.34816570000111824,261.92291809999915,261.92291809999915,261.92291809999915,261.92291809999915,261.92291809999915,261.92291809999915,262.20599760000005,263.2391613999989,263.2391613999989,263.2391613999989,263.2391613999989,263.2391613999989,263.2391613999989,263.2226976999991,263.2391613999989,263.2391613999989,263.2391613999989,263.2391613999989,263.2391613999989,263.2391613999989,263.2391613999989,264.55365659999916,264.55365659999916,264.55365659999916,264.55365659999916,264.55365659999916,264.55365659999916,264.55365659999916,55,60,53,48,53,60,264.55365659999916,266.28804949999903,,,,,,,,,,,,３１９,f,１９,2023-05-19_10h48.24.550,RL,2022.2.5,59.925129543134815,
53,60,44,61,0,43,43,43,,,,,,,,,,,None,266.28804949999903,266.28804949999903,266.28804949999903,266.28804949999903,266.28804949999903,266.28804949999903,f,0.3297434999985853,266.64084039999943,266.64084039999943,266.64084039999943,266.64084039999943,266.64084039999943,266.64084039999943,266.9221121999999,267.8718702999995,267.8718702999995,267.8718702999995,267.8718702999995,267.8718702999995,267.8718702999995,267.8548807999996,267.8718702999995,267.8718702999995,267.8718702999995,267.8718702999995,267.8718702999995,267.8718702999995,267.8718702999995,269.10318319999897,269.10318319999897,269.10318319999897,269.10318319999897,269.10318319999897,269.10318319999897,269.10318319999897,53,60,61,44,53,60,269.10318319999897,271.0877653000007,,,,,,,,,,,,３１９,f,１９,2023-05-19_10h48.24.550,RL,2022.2.5,59.925129543134815,
50,69,50,59,0,44,44,44,,,,,,,,,,,None,271.0877653000007,271.0877653000007,271.0877653000007,271.0877653000007,271.0877653000007,271.0877653000007,r,0.29779840000082913,271.40485249999983,271.40485249999983,271.40485249999983,271.40485249999983,271.40485249999983,271.40485249999983,271.6880617000006,273.1041494000001,273.1041494000001,273.1041494000001,273.1041494000001,273.1041494000001,273.1041494000001,273.08770360000017,273.1041494000001,273.1041494000001,273.1041494000001,273.1041494000001,273.1041494000001,273.1041494000001,273.1041494000001,274.80237189999934,274.80237189999934,274.80237189999934,274.80237189999934,274.80237189999934,274.80237189999934,274.80237189999934,50,69,59,50,69,60,274.80237189999934,276.41965170000003,,,,,,,,,,,,３１９,f,１９,2023-05-19_10h48.24.550,RL,2022.2.5,59.925129543134815,
49,50,55,48,0,45,45,45,,,,,,,,,,,None,276.41965170000003,276.41965170000003,276.41965170000003,276.41965170000003,276.41965170000003,276.41965170000003,r,0.39094939999995404,276.8387440000006,276.8387440000006,276.8387440000006,276.8387440000006,276.8387440000006,276.8387440000006,277.13694469999973,278.3865005000007,278.3865005000007,278.3865005000007,278.3865005000007,278.3865005000007,278.3865005000007,278.3865005000007,278.3865005000007,278.3865005000007,278.3865005000007,278.3865005000007,278.3865005000007,278.3865005000007,278.3865005000007,279.93441209999946,279.93441209999946,279.93441209999946,279.93441209999946,279.93441209999946,279.93441209999946,279.93441209999946,49,50,48,55,50,60,279.93441209999946,281.6851760999998,,,,,,,,,,,,３１９,f,１９,2023-05-19_10h48.24.550,RL,2022.2.5,59.925129543134815,
56,64,48,56,0,46,46,46,,,,,,,,,,,None,281.6851760999998,281.6851760999998,281.6851760999998,281.6851760999998,281.6851760999998,281.6851760999998,j,0.3106496000000334,282.0220852000002,282.0220852000002,282.0220852000002,282.0220852000002,282.0220852000002,282.0220852000002,282.30295320000005,283.95202620000055,283.95202620000055,283.95202620000055,283.95202620000055,283.95202620000055,283.95202620000055,283.93556549999994,283.95202620000055,283.95202620000055,283.95202620000055,283.95202620000055,283.95202620000055,283.95202620000055,283.95202620000055,285.86703560000024,285.86703560000024,285.86703560000024,285.86703560000024,285.86703560000024,285.86703560000024,285.86703560000024,56,64,56,48,48,60,285.86703560000024,287.50097409999944,,,,,,,,,,,,３１９,f,１９,2023-05-19_10h48.24.550,RL,2022.2.5,59.925129543134815,
52,62,46,53,0,47,47,47,,,,,,,,,,,None,287.50097409999944,287.50097409999944,287.50097409999944,287.50097409999944,287.50097409999944,287.50097409999944,i,0.3464382999991358,287.8694123999994,287.8694123999994,287.8694123999994,287.8694123999994,287.8694123999994,287.8694123999994,288.15141649999896,289.6178516,289.6178516,289.6178516,289.6178516,289.6178516,289.6178516,289.60132969999904,289.6178516,289.6178516,289.6178516,289.6178516,289.6178516,289.6178516,289.6178516,291.36571379999987,291.36571379999987,291.36571379999987,291.36571379999987,291.36571379999987,291.36571379999987,291.36571379999987,52,62,53,46,53,60,291.36571379999987,293.30003790000046,,,,,,,,,,,,３１９,f,１９,2023-05-19_10h48.24.550,RL,2022.2.5,59.925129543134815,
57,59,50,53,0,48,48,48,,,,,,,,,,,None,293.30003790000046,293.30003790000046,293.30003790000046,293.30003790000046,293.30003790000046,293.30003790000046,r,0.34621530000003986,293.66836890000013,293.66836890000013,293.66836890000013,293.66836890000013,293.66836890000013,293.66836890000013,293.95063909999953,295.1003667999994,295.1003667999994,295.1003667999994,295.1003667999994,295.1003667999994,295.1003667999994,295.0835504000006,295.1003667999994,295.1003667999994,295.1003667999994,295.1003667999994,295.1003667999994,295.1003667999994,295.1003667999994,296.53153139999995,296.53153139999995,296.53153139999995,296.53153139999995,296.53153139999995,296.53153139999995,296.53153139999995,57,59,53,50,59,60,296.53153139999995,298.53291050000007,,,,,,,,,,,,３１９,f,１９,2023-05-19_10h48.24.550,RL,2022.2.5,59.925129543134815,
55,60,53,46,0,49,49,49,,,,,,,,,,,None,298.53291050000007,298.53291050000007,298.53291050000007,298.53291050000007,298.53291050000007,298.53291050000007,f,0.25841740000032587,298.8164280000001,298.8164280000001,298.8164280000001,298.8164280000001,298.8164280000001,298.8164280000001,299.0994178000001,300.1661411999994,300.1661411999994,300.1661411999994,300.1661411999994,300.1661411999994,300.1661411999994,300.14926190000006,300.1661411999994,300.1661411999994,300.1661411999994,300.1661411999994,300.1661411999994,300.1661411999994,300.1661411999994,301.51445799999965,301.51445799999965,301.51445799999965,301.51445799999965,301.51445799999965,301.51445799999965,301.51445799999965,55,60,46,53,55,60,301.51445799999965,303.2485417000007,,,,,,,,,,,,３１９,f,１９,2023-05-19_10h48.24.550,RL,2022.2.5,59.925129543134815,
62,59,45,45,0,50,50,50,,,,,,,,,,,None,303.2485417000007,303.2485417000007,303.2485417000007,303.2485417000007,303.2485417000007,303.2485417000007,i,0.586085599999933,303.8681230000002,303.8681230000002,303.8681230000002,303.8681230000002,303.8681230000002,303.8681230000002,304.14883310000005,305.69824530000005,305.69824530000005,305.69824530000005,305.69824530000005,305.69824530000005,305.69824530000005,305.68142350000016,305.69824530000005,305.69824530000005,305.69824530000005,305.69824530000005,305.69824530000005,305.69824530000005,305.69824530000005,307.51284660000056,307.51284660000056,307.51284660000056,307.51284660000056,307.51284660000056,307.51284660000056,307.51284660000056,62,59,45,45,45,60,307.51284660000056,309.3476162999996,,,,,,,,,,,,３１９,f,１９,2023-05-19_10h48.24.550,RL,2022.2.5,59.925129543134815,
50,69,49,54,0,51,51,51,,,,,,,,,,,None,309.3476162999996,309.3476162999996,309.3476162999996,309.3476162999996,309.3476162999996,309.3476162999996,j,0.37917819999893254,309.7477304999993,309.7477304999993,309.7477304999993,309.7477304999993,309.7477304999993,309.7477304999993,310.0476914999999,311.96405830000003,311.96405830000003,311.96405830000003,311.96405830000003,311.96405830000003,311.96405830000003,311.96405830000003,311.96405830000003,311.96405830000003,311.96405830000003,311.96405830000003,311.96405830000003,311.96405830000003,311.96405830000003,314.1791333000001,314.1791333000001,314.1791333000001,314.1791333000001,314.1791333000001,314.1791333000001,314.1791333000001,50,69,54,49,49,60,314.1791333000001,315.89615740000045,,,,,,,,,,,,３１９,f,１９,2023-05-19_10h48.24.550,RL,2022.2.5,59.925129543134815,
39,63,54,50,0,52,52,52,,,,,,,,,,,None,315.89615740000045,315.89615740000045,315.89615740000045,315.89615740000045,315.89615740000045,315.89615740000045,f,0.27593699999852106,316.1967566000003,316.1967566000003,316.1967566000003,316.1967566000003,316.1967566000003,316.1967566000003,316.48031679999985,317.7464792999999,317.7464792999999,317.7464792999999,317.7464792999999,317.7464792999999,317.7464792999999,317.73021250000056,317.7464792999999,317.7464792999999,317.7464792999999,317.7464792999999,317.7464792999999,317.7464792999999,317.7464792999999,319.29448799999955,319.29448799999955,319.29448799999955,319.29448799999955,319.29448799999955,319.29448799999955,319.29448799999955,39,63,50,54,39,60,319.29448799999955,320.97872649999954,,,,,,,,,,,,３１９,f,１９,2023-05-19_10h48.24.550,RL,2022.2.5,59.925129543134815,
46,61,58,45,0,53,53,53,,,,,,,,,,,None,320.97872649999954,320.97872649999954,320.97872649999954,320.97872649999954,320.97872649999954,320.97872649999954,i,0.3685172000004968,321.3833739999991,321.3833739999991,321.3833739999991,321.3833739999991,321.3833739999991,321.3833739999991,321.66221360000054,323.06245669999953,323.06245669999953,323.06245669999953,323.06245669999953,323.06245669999953,323.06245669999953,323.0286773000007,323.06245669999953,323.06245669999953,323.06245669999953,323.06245669999953,323.06245669999953,323.06245669999953,323.06245669999953,324.7270401000005,324.7270401000005,324.7270401000005,324.7270401000005,324.7270401000005,324.7270401000005,324.7270401000005,46,61,45,58,45,60,324.7270401000005,326.6609322000004,,,,,,,,,,,,３１９,f,１９,2023-05-19_10h48.24.550,RL,2022.2.5,59.925129543134815,
41,59,57,52,0,54,54,54,,,,,,,,,,,None,326.6609322000004,326.6609322000004,326.6609322000004,326.6609322000004,326.6609322000004,326.6609322000004,r,0.3215127000003122,327.01351559999966,327.01351559999966,327.01351559999966,327.01351559999966,327.01351559999966,327.01351559999966,327.29478559999916,328.39423259999967,328.39423259999967,328.39423259999967,328.39423259999967,328.39423259999967,328.39423259999967,328.3777157000004,328.39423259999967,328.39423259999967,328.39423259999967,328.39423259999967,328.39423259999967,328.39423259999967,328.39423259999967,329.77581569999893,329.77581569999893,329.77581569999893,329.77581569999893,329.77581569999893,329.77581569999893,329.77581569999893,41,59,52,57,59,60,329.77581569999893,331.4101539000003,,,,,,,,,,,,３１９,f,１９,2023-05-19_10h48.24.550,RL,2022.2.5,59.925129543134815,
36,70,54,64,0,55,55,55,,,,,,,,,,,None,331.4101539000003,331.4101539000003,331.4101539000003,331.4101539000003,331.4101539000003,331.4101539000003,r,0.471422700000403,331.9114611999994,331.9114611999994,331.9114611999994,331.9114611999994,331.9114611999994,331.9114611999994,332.2106256999996,333.4101737000001,333.4101737000001,333.4101737000001,333.4101737000001,333.4101737000001,333.4101737000001,333.4101737000001,333.4101737000001,333.4101737000001,333.4101737000001,333.4101737000001,333.4101737000001,333.4101737000001,333.4101737000001,334.90823979999914,334.90823979999914,334.90823979999914,334.90823979999914,334.90823979999914,334.90823979999914,334.90823979999914,36,70,64,54,70,60,334.90823979999914,336.84282840000014,,,,,,,,,,,,３１９,f,１９,2023-05-19_10h48.24.550,RL,2022.2.5,59.925129543134815,
48,60,62,54,0,56,56,56,,,,,,,,,,,None,336.84282840000014,336.84282840000014,336.84282840000014,336.84282840000014,336.84282840000014,336.84282840000014,r,0.301615700000184,337.18086070000027,337.18086070000027,337.18086070000027,337.18086070000027,337.18086070000027,337.18086070000027,337.4599410999999,339.09282659999917,339.09282659999917,339.09282659999917,339.09282659999917,339.09282659999917,339.09282659999917,339.0762386999995,339.09282659999917,339.09282659999917,339.09282659999917,339.09282659999917,339.09282659999917,339.09282659999917,339.09282659999917,341.0070073000006,341.0070073000006,341.0070073000006,341.0070073000006,341.0070073000006,341.0070073000006,341.0070073000006,48,60,54,62,60,60,341.0070073000006,342.52531669999917,,,,,,,,,,,,３１９,f,１９,2023-05-19_10h48.24.550,RL,2022.2.5,59.925129543134815,
44,54,58,54,0,57,57,57,,,,,,,,,,,None,342.52531669999917,342.52531669999917,342.52531669999917,342.52531669999917,342.52531669999917,342.52531669999917,r,0.39909349999834376,342.94363089999933,342.94363089999933,342.94363089999933,342.94363089999933,342.94363089999933,342.94363089999933,343.24177319999944,344.2006497000002,344.2006497000002,344.2006497000002,344.2006497000002,344.2006497000002,344.2006497000002,344.2006497000002,344.2006497000002,344.2006497000002,344.2006497000002,344.2006497000002,344.2006497000002,344.2006497000002,344.2006497000002,345.406449099999,345.406449099999,345.406449099999,345.406449099999,345.406449099999,345.406449099999,345.406449099999,44,54,54,58,54,60,345.406449099999,346.9077940999996,,,,,,,,,,,,３１９,f,１９,2023-05-19_10h48.24.550,RL,2022.2.5,59.925129543134815,
47,53,67,48,0,58,58,58,,,,,,,,,,,None,346.9077940999996,346.9077940999996,346.9077940999996,346.9077940999996,346.9077940999996,346.9077940999996,j,0.4396085000007588,347.3759706000001,347.3759706000001,347.3759706000001,347.3759706000001,347.3759706000001,347.3759706000001,347.65802090000034,349.6074086999997,349.6074086999997,349.6074086999997,349.6074086999997,349.6074086999997,349.6074086999997,349.59107720000065,349.6074086999997,349.6074086999997,349.6074086999997,349.6074086999997,349.6074086999997,349.6074086999997,349.6074086999997,351.8383887,351.8383887,351.8383887,351.8383887,351.8383887,351.8383887,351.8383887,47,53,48,67,67,60,351.8383887,353.72325739999906,,,,,,,,,,,,３１９,f,１９,2023-05-19_10h48.24.550,RL,2022.2.5,59.925129543134815,
44,58,61,44,0,59,59,59,,,,,,,,,,,None,353.72325739999906,353.72325739999906,353.72325739999906,353.72325739999906,353.72325739999906,353.72325739999906,j,0.3549915999992663,354.1084952000001,354.1084952000001,354.1084952000001,354.1084952000001,354.1084952000001,354.1084952000001,354.40655460000016,355.95642000000043,355.95642000000043,355.95642000000043,355.95642000000043,355.95642000000043,355.95642000000043,355.95642000000043,355.95642000000043,355.95642000000043,355.95642000000043,355.95642000000043,355.95642000000043,355.95642000000043,355.95642000000043,357.804265499999,357.804265499999,357.804265499999,357.804265499999,357.804265499999,357.804265499999,357.804265499999,44,58,44,61,61,60,357.804265499999,359.43888719999995,,,,,,,,,,,,３１９,f,１９,2023-05-19_10h48.24.550,RL,2022.2.5,59.925129543134815,
52,60,60,50,0,60,60,60,,,,,,,,,,,None,359.43888719999995,359.43888719999995,359.43888719999995,359.43888719999995,359.43888719999995,359.43888719999995,j,0.2871075999992172,359.7575039000003,359.7575039000003,359.7575039000003,359.7575039000003,359.7575039000003,359.7575039000003,360.0391835999999,361.55529899999965,361.55529899999965,361.55529899999965,361.55529899999965,361.55529899999965,361.55529899999965,361.5387688999999,361.55529899999965,361.55529899999965,361.55529899999965,361.55529899999965,361.55529899999965,361.55529899999965,361.55529899999965,363.3533356000007,363.3533356000007,363.3533356000007,363.3533356000007,363.3533356000007,363.3533356000007,363.3533356000007,52,60,50,60,60,60,363.3533356000007,365.13763219999964,,,,,,,,,,,,３１９,f,１９,2023-05-19_10h48.24.550,RL,2022.2.5,59.925129543134815,
46,63,60,56,0,61,61,61,,,,,,,,,,,None,365.13763219999964,365.13763219999964,365.13763219999964,365.13763219999964,365.13763219999964,365.13763219999964,r,0.3934506000005058,365.5589887999995,365.5589887999995,365.5589887999995,365.5589887999995,365.5589887999995,365.5589887999995,365.85449270000026,366.6875667000004,366.6875667000004,366.6875667000004,366.6875667000004,366.6875667000004,366.6875667000004,366.6875667000004,366.6875667000004,366.6875667000004,366.6875667000004,366.6875667000004,366.6875667000004,366.6875667000004,366.6875667000004,367.8197332,367.8197332,367.8197332,367.8197332,367.8197332,367.8197332,367.8197332,46,63,56,60,63,60,367.8197332,369.70391670000026,,,,,,,,,,,,３１９,f,１９,2023-05-19_10h48.24.550,RL,2022.2.5,59.925129543134815,
44,62,64,49,0,62,62,62,,,,,,,,,,,None,369.70391670000026,369.70391670000026,369.70391670000026,369.70391670000026,369.70391670000026,369.70391670000026,r,0.5141794000010123,370.2389683000001,370.2389683000001,370.2389683000001,370.2389683000001,370.2389683000001,370.2389683000001,370.52051369999936,371.82047500000044,371.82047500000044,371.82047500000044,371.82047500000044,371.82047500000044,371.82047500000044,371.8035204000007,371.82047500000044,371.82047500000044,371.82047500000044,371.82047500000044,371.82047500000044,371.82047500000044,371.82047500000044,373.4018835000006,373.4018835000006,373.4018835000006,373.4018835000006,373.4018835000006,373.4018835000006,373.4018835000006,44,62,49,64,62,60,373.4018835000006,375.3521911000007,,,,,,,,,,,,３１９,f,１９,2023-05-19_10h48.24.550,RL,2022.2.5,59.925129543134815,
46,69,76,53,0,63,63,63,,,,,,,,,,,None,375.3521911000007,375.3521911000007,375.3521911000007,375.3521911000007,375.3521911000007,375.3521911000007,r,0.2814935999995214,375.6531138999999,375.6531138999999,375.6531138999999,375.6531138999999,375.6531138999999,375.6531138999999,375.9526960000003,377.38599280000017,377.38599280000017,377.38599280000017,377.38599280000017,377.38599280000017,377.38599280000017,377.38599280000017,377.38599280000017,377.38599280000017,377.38599280000017,377.38599280000017,377.38599280000017,377.38599280000017,377.38599280000017,379.11710649999986,379.11710649999986,379.11710649999986,379.11710649999986,379.11710649999986,379.11710649999986,379.11710649999986,46,69,53,76,69,60,379.11710649999986,380.90143910000006,,,,,,,,,,,,３１９,f,１９,2023-05-19_10h48.24.550,RL,2022.2.5,59.925129543134815,
41,78,80,54,0,64,64,64,,,,,,,,,,,None,380.90143910000006,380.90143910000006,380.90143910000006,380.90143910000006,380.90143910000006,380.90143910000006,r,0.49538529999881575,381.418773899999,381.418773899999,381.418773899999,381.418773899999,381.418773899999,381.418773899999,381.70189989999926,382.8184853999992,382.8184853999992,382.8184853999992,382.8184853999992,382.8184853999992,382.8184853999992,382.8020981999998,382.8184853999992,382.8184853999992,382.8184853999992,382.8184853999992,382.8184853999992,382.8184853999992,382.8184853999992,384.2164620000003,384.2164620000003,384.2164620000003,384.2164620000003,384.2164620000003,384.2164620000003,384.2164620000003,41,78,54,80,78,60,384.2164620000003,386.05068199999914,,,,,,,,,,,,３１９,f,１９,2023-05-19_10h48.24.550,RL,2022.2.5,59.925129543134815,
45,58,77,56,0,65,65,65,,,,,,,,,,,None,386.05068199999914,386.05068199999914,386.05068199999914,386.05068199999914,386.05068199999914,386.05068199999914,r,0.2851909999990312,386.37291129999903,386.37291129999903,386.37291129999903,386.37291129999903,386.37291129999903,386.37291129999903,386.6508993999996,387.91750540000066,387.91750540000066,387.91750540000066,387.91750540000066,387.91750540000066,387.91750540000066,387.900615999999,387.91750540000066,387.91750540000066,387.91750540000066,387.91750540000066,387.91750540000066,387.91750540000066,387.91750540000066,389.4653691000003,389.4653691000003,389.4653691000003,389.4653691000003,389.4653691000003,389.4653691000003,389.4653691000003,45,58,56,77,58,60,389.4653691000003,390.9836290000003,,,,,,,,,,,,３１９,f,１９,2023-05-19_10h48.24.550,RL,2022.2.5,59.925129543134815,
34,58,83,58,0,66,66,66,,,,,,,,,,,None,390.9836290000003,390.9836290000003,390.9836290000003,390.9836290000003,390.9836290000003,390.9836290000003,j,0.3138113999993948,391.31803319999926,391.31803319999926,391.31803319999926,391.31803319999926,391.31803319999926,391.31803319999926,391.6006063999994,392.8332900000005,392.8332900000005,392.8332900000005,392.8332900000005,392.8332900000005,392.8332900000005,392.81677370000034,392.8332900000005,392.8332900000005,392.8332900000005,392.8332900000005,392.8332900000005,392.8332900000005,392.8332900000005,394.34785310000007,394.34785310000007,394.34785310000007,394.34785310000007,394.34785310000007,394.34785310000007,394.34785310000007,34,58,58,83,83,60,394.34785310000007,396.16609459999927,,,,,,,,,,,,３１９,f,１９,2023-05-19_10h48.24.550,RL,2022.2.5,59.925129543134815,
36,65,69,57,0,67,67,67,,,,,,,,,,,None,396.16609459999927,396.16609459999927,396.16609459999927,396.16609459999927,396.16609459999927,396.16609459999927,j,0.34520119999979215,396.5369852999993,396.5369852999993,396.5369852999993,396.5369852999993,396.5369852999993,396.5369852999993,396.8327927999999,397.91522310000073,397.91522310000073,397.91522310000073,397.91522310000073,397.91522310000073,397.91522310000073,397.91522310000073,397.91522310000073,397.91522310000073,397.91522310000073,397.91522310000073,397.91522310000073,397.91522310000073,397.91522310000073,399.2973528000002,399.2973528000002,399.2973528000002,399.2973528000002,399.2973528000002,399.2973528000002,399.2973528000002,36,65,57,69,69,60,399.2973528000002,401.2312404000004,,,,,,,,,,,,３１９,f,１９,2023-05-19_10h48.24.550,RL,2022.2.5,59.925129543134815,
38,62,70,54,0,68,68,68,,,,,,,,,,,None,401.2312404000004,401.2312404000004,401.2312404000004,401.2312404000004,401.2312404000004,401.2312404000004,j,0.9773224000000482,402.2316953999998,402.2316953999998,402.2316953999998,402.2316953999998,402.2316953999998,402.2316953999998,402.53147999999965,403.9478426000005,403.9478426000005,403.9478426000005,403.9478426000005,403.9478426000005,403.9478426000005,403.9478426000005,403.9478426000005,403.9478426000005,403.9478426000005,403.9478426000005,403.9478426000005,403.9478426000005,403.9478426000005,405.66231010000047,405.66231010000047,405.66231010000047,405.66231010000047,405.66231010000047,405.66231010000047,405.66231010000047,38,62,54,70,70,60,405.66231010000047,407.6138097000003,,,,,,,,,,,,３１９,f,１９,2023-05-19_10h48.24.550,RL,2022.2.5,59.925129543134815,
45,64,64,53,0,69,69,69,,,,,,,,,,,None,407.6138097000003,407.6138097000003,407.6138097000003,407.6138097000003,407.6138097000003,407.6138097000003,r,0.3334716000008484,407.98084050000034,407.98084050000034,407.98084050000034,407.98084050000034,407.98084050000034,407.98084050000034,408.263907999999,410.06366849999904,410.06366849999904,410.06366849999904,410.06366849999904,410.06366849999904,410.06366849999904,410.0468361000003,410.06366849999904,410.06366849999904,410.06366849999904,410.06366849999904,410.06366849999904,410.06366849999904,410.06366849999904,412.14527160000034,412.14527160000034,412.14527160000034,412.14527160000034,412.14527160000034,412.14527160000034,412.14527160000034,45,64,53,64,64,60,412.14527160000034,413.84600780000073,,,,,,,,,,,,３１９,f,１９,2023-05-19_10h48.24.550,RL,2022.2.5,59.925129543134815,
26,57,63,64,0,70,70,70,,,,,,,,,,,None,413.84600780000073,413.84600780000073,413.84600780000073,413.84600780000073,413.84600780000073,413.84600780000073,j,0.41425729999900796,414.2797931999994,414.2797931999994,414.2797931999994,414.2797931999994,414.2797931999994,414.2797931999994,414.5793787999992,415.57916999999907,415.57916999999907,415.57916999999907,415.57916999999907,415.57916999999907,415.57916999999907,415.57916999999907,415.57916999999907,415.57916999999907,415.57916999999907,415.57916999999907,415.57916999999907,415.57916999999907,415.57916999999907,416.8771837000004,416.8771837000004,416.8771837000004,416.8771837000004,416.8771837000004,416.8771837000004,416.8771837000004,26,57,64,63,63,60,416.8771837000004,418.7618922999991,,,,,,,,,,,,３１９,f,１９,2023-05-19_10h48.24.550,RL,2022.2.5,59.925129543134815,
31,61,61,64,0,71,71,71,,,,,,,,,,,None,418.7618922999991,418.7618922999991,418.7618922999991,418.7618922999991,418.7618922999991,418.7618922999991,i,0.34188279999943916,419.1303738000006,419.1303738000006,419.1303738000006,419.1303738000006,419.1303738000006,419.1303738000006,419.4121266000002,420.4784500000005,420.4784500000005,420.4784500000005,420.4784500000005,420.4784500000005,420.4784500000005,420.46156340000016,420.4784500000005,420.4784500000005,420.4784500000005,420.4784500000005,420.4784500000005,420.4784500000005,420.4784500000005,421.8262376999992,421.8262376999992,421.8262376999992,421.8262376999992,421.8262376999992,421.8262376999992,421.8262376999992,31,61,64,61,64,60,421.8262376999992,423.8277796000002,,,,,,,,,,,,３１９,f,１９,2023-05-19_10h48.24.550,RL,2022.2.5,59.925129543134815,
36,64,59,63,0,72,72,72,,,,,,,,,,,None,423.8277796000002,423.8277796000002,423.8277796000002,423.8277796000002,423.8277796000002,423.8277796000002,f,0.3874393999994936,424.2449558999997,424.2449558999997,424.2449558999997,424.2449558999997,424.2449558999997,424.2449558999997,424.5447129999993,426.31076629999916,426.31076629999916,426.31076629999916,426.31076629999916,426.31076629999916,426.31076629999916,426.31076629999916,426.31076629999916,426.31076629999916,426.31076629999916,426.31076629999916,426.31076629999916,426.31076629999916,426.31076629999916,428.37540289999924,428.37540289999924,428.37540289999924,428.37540289999924,428.37540289999924,428.37540289999924,428.37540289999924,36,64,63,59,36,60,428.37540289999924,429.90975199999957,,,,,,,,,,,,３１９,f,１９,2023-05-19_10h48.24.550,RL,2022.2.5,59.925129543134815,
34,60,57,54,0,73,73,73,,,,,,,,,,,None,429.90975199999957,429.90975199999957,429.90975199999957,429.90975199999957,429.90975199999957,429.90975199999957,i,0.5127821999994921,430.4449715999999,430.4449715999999,430.4449715999999,430.4449715999999,430.4449715999999,430.4449715999999,430.72711829999935,432.4596825999997,432.4596825999997,432.4596825999997,432.4596825999997,432.4596825999997,432.4596825999997,432.44287500000064,432.4596825999997,432.4596825999997,432.4596825999997,432.4596825999997,432.4596825999997,432.4596825999997,432.4596825999997,434.47444969999924,434.47444969999924,434.47444969999924,434.47444969999924,434.47444969999924,434.47444969999924,434.47444969999924,34,60,54,57,54,60,434.47444969999924,436.25899949999985,,,,,,,,,,,,３１９,f,１９,2023-05-19_10h48.24.550,RL,2022.2.5,59.925129543134815,
30,65,64,49,0,74,74,74,,,,,,,,,,,None,436.25899949999985,436.25899949999985,436.25899949999985,436.25899949999985,436.25899949999985,436.25899949999985,r,0.26794909999989613,436.5738772000004,436.5738772000004,436.5738772000004,436.5738772000004,436.5738772000004,436.5738772000004,436.8423387999992,438.77515569999923,438.77515569999923,438.77515569999923,438.77515569999923,438.77515569999923,438.77515569999923,438.7422728999991,438.77515569999923,438.77515569999923,438.77515569999923,438.77515569999923,438.77515569999923,438.77515569999923,438.77515569999923,440.9733935999993,440.9733935999993,440.9733935999993,440.9733935999993,440.9733935999993,440.9733935999993,440.9733935999993,30,65,49,64,65,60,440.9733935999993,442.6069501999991,,,,,,,,,,,,３１９,f,１９,2023-05-19_10h48.24.550,RL,2022.2.5,59.925129543134815,
28,55,55,47,0,75,75,75,,,,,,,,,,,q,464.4869423,464.4869423,464.4869423,464.4869423,464.4869423,464.4869423,r,0.6733549999989918,465.1925988999992,465.1925988999992,465.1925988999992,465.1925988999992,465.1925988999992,465.1925988999992,465.4874046999994,467.3701371999996,467.3701371999996,467.3701371999996,467.3701371999996,467.3701371999996,467.3701371999996,467.3701371999996,467.3701371999996,467.3701371999996,467.3701371999996,467.3701371999996,467.3701371999996,467.3701371999996,467.3701371999996,469.5518489999995,469.5518489999995,469.5518489999995,469.5518489999995,469.5518489999995,469.5518489999995,469.5518489999995,28,55,47,55,55,60,469.5518489999995,471.40260769999986,442.6069501999991,442.6069501999991,16.84070669999892,459.472441599999,459.472441599999,464.4869423,464.4869423,,,,,３１９,f,１９,2023-05-19_10h48.24.550,RL,2022.2.5,59.925129543134815,
35,53,62,55,0,76,76,76,,,,,,,,,,,None,471.40260769999986,471.40260769999986,471.40260769999986,471.40260769999986,471.40260769999986,471.40260769999986,j,0.3437134999985574,471.7733638999998,471.7733638999998,471.7733638999998,471.7733638999998,471.7733638999998,471.7733638999998,472.05316089999906,473.0860666999997,473.0860666999997,473.0860666999997,473.0860666999997,473.0860666999997,473.0860666999997,473.06919819999894,473.0860666999997,473.0860666999997,473.0860666999997,473.0860666999997,473.0860666999997,473.0860666999997,473.0860666999997,474.4005477999999,474.4005477999999,474.4005477999999,474.4005477999999,474.4005477999999,474.4005477999999,474.4005477999999,35,53,55,62,62,60,474.4005477999999,476.3017340999995,,,,,,,,,,,,３１９,f,１９,2023-05-19_10h48.24.550,RL,2022.2.5,59.925129543134815,
32,57,47,50,0,77,77,77,,,,,,,,,,,None,476.3017340999995,476.3017340999995,476.3017340999995,476.3017340999995,476.3017340999995,476.3017340999995,i,0.6058687000004284,476.93696420000015,476.93696420000015,476.93696420000015,476.93696420000015,476.93696420000015,476.93696420000015,477.2186684999997,478.20190009999897,478.20190009999897,478.20190009999897,478.20190009999897,478.20190009999897,478.20190009999897,478.1852386999999,478.20190009999897,478.20190009999897,478.20190009999897,478.20190009999897,478.20190009999897,478.20190009999897,478.20190009999897,479.46662359999937,479.46662359999937,479.46662359999937,479.46662359999937,479.46662359999937,479.46662359999937,479.46662359999937,32,57,50,47,50,60,479.46662359999937,481.1505784000001,,,,,,,,,,,,３１９,f,１９,2023-05-19_10h48.24.550,RL,2022.2.5,59.925129543134815,
32,64,54,48,0,78,78,78,,,,,,,,,,,None,481.1505784000001,481.1505784000001,481.1505784000001,481.1505784000001,481.1505784000001,481.1505784000001,f,0.36864020000029996,481.5569266000002,481.5569266000002,481.5569266000002,481.5569266000002,481.5569266000002,481.5569266000002,481.8344993999999,483.40116920000037,483.40116920000037,483.40116920000037,483.40116920000037,483.40116920000037,483.40116920000037,483.38450809999995,483.40116920000037,483.40116920000037,483.40116920000037,483.40116920000037,483.40116920000037,483.40116920000037,483.40116920000037,485.2492433999996,485.2492433999996,485.2492433999996,485.2492433999996,485.2492433999996,485.2492433999996,485.2492433999996,32,64,48,54,32,60,485.2492433999996,487.2334523999998,,,,,,,,,,,,３１９,f,１９,2023-05-19_10h48.24.550,RL,2022.2.5,59.925129543134815,
30,65,49,41,0,79,79,79,,,,,,,,,,,None,487.2334523999998,487.2334523999998,487.2334523999998,487.2334523999998,487.2334523999998,487.2334523999998,j,0.30110469999999623,487.5717234999993,487.5717234999993,487.5717234999993,487.5717234999993,487.5717234999993,487.5717234999993,487.85004389999995,489.19991859999936,489.19991859999936,489.19991859999936,489.19991859999936,489.19991859999936,489.19991859999936,489.1829366999991,489.19991859999936,489.19991859999936,489.19991859999936,489.19991859999936,489.19991859999936,489.19991859999936,489.19991859999936,490.8309936000005,490.8309936000005,490.8309936000005,490.8309936000005,490.8309936000005,490.8309936000005,490.8309936000005,30,65,41,49,49,60,490.8309936000005,492.3989351,,,,,,,,,,,,３１９,f,１９,2023-05-19_10h48.24.550,RL,2022.2.5,59.925129543134815,
37,70,51,48,0,80,80,80,,,,,,,,,,,None,492.3989351,492.3989351,492.3989351,492.3989351,492.3989351,492.3989351,r,0.3637849000006099,492.7826124000003,492.7826124000003,492.7826124000003,492.7826124000003,492.7826124000003,492.7826124000003,493.0662169999996,494.7488458000007,494.7488458000007,494.7488458000007,494.7488458000007,494.7488458000007,494.7488458000007,494.7321632000003,494.7488458000007,494.7488458000007,494.7488458000007,494.7488458000007,494.7488458000007,494.7488458000007,494.7488458000007,496.713775799999,496.713775799999,496.713775799999,496.713775799999,496.713775799999,496.713775799999,496.713775799999,37,70,48,51,70,60,496.713775799999,498.5810784999994,,,,,,,,,,,,３１９,f,１９,2023-05-19_10h48.24.550,RL,2022.2.5,59.925129543134815,
34,60,58,43,0,81,81,81,,,,,,,,,,,None,498.5810784999994,498.5810784999994,498.5810784999994,498.5810784999994,498.5810784999994,498.5810784999994,r,0.42958619999990333,499.03160559999924,499.03160559999924,499.03160559999924,499.03160559999924,499.03160559999924,499.03160559999924,499.3315385999995,500.5646835999996,500.5646835999996,500.5646835999996,500.5646835999996,500.5646835999996,500.5646835999996,500.5646835999996,500.5646835999996,500.5646835999996,500.5646835999996,500.5646835999996,500.5646835999996,500.5646835999996,500.5646835999996,502.0959344999992,502.0959344999992,502.0959344999992,502.0959344999992,502.0959344999992,502.0959344999992,502.0959344999992,34,60,43,58,60,60,502.0959344999992,504.0968212000007,,,,,,,,,,,,３１９,f,１９,2023-05-19_10h48.24.550,RL,2022.2.5,59.925129543134815,
34,70,55,55,0,82,82,82,,,,,,,,,,,None,504.0968212000007,504.0968212000007,504.0968212000007,504.0968212000007,504.0968212000007,504.0968212000007,i,0.25853400000050897,504.38065599999936,504.38065599999936,504.38065599999936,504.38065599999936,504.38065599999936,504.38065599999936,504.6642216,506.5965687000007,506.5965687000007,506.5965687000007,506.5965687000007,506.5965687000007,506.5965687000007,506.5800796000003,506.5965687000007,506.5965687000007,506.5965687000007,506.5965687000007,506.5965687000007,506.5965687000007,506.5965687000007,508.81159859999934,508.81159859999934,508.81159859999934,508.81159859999934,508.81159859999934,508.81159859999934,508.81159859999934,34,70,55,55,55,60,508.81159859999934,510.41238599999997,,,,,,,,,,,,３１９,f,１９,2023-05-19_10h48.24.550,RL,2022.2.5,59.925129543134815,
37,70,56,46,0,83,83,83,,,,,,,,,,,None,510.41238599999997,510.41238599999997,510.41238599999997,510.41238599999997,510.41238599999997,510.41238599999997,r,0.46760579999863694,510.89622210000016,510.89622210000016,510.89622210000016,510.89622210000016,510.89622210000016,510.89622210000016,511.19615969999904,512.9455247000005,512.9455247000005,512.9455247000005,512.9455247000005,512.9455247000005,512.9455247000005,512.9455247000005,512.9455247000005,512.9455247000005,512.9455247000005,512.9455247000005,512.9455247000005,512.9455247000005,512.9455247000005,514.9937229000006,514.9937229000006,514.9937229000006,514.9937229000006,514.9937229000006,514.9937229000006,514.9937229000006,37,70,46,56,70,60,514.9937229000006,516.6618039000005,,,,,,,,,,,,３１９,f,１９,2023-05-19_10h48.24.550,RL,2022.2.5,59.925129543134815,
33,55,55,46,0,84,84,84,,,,,,,,,,,None,516.6618039000005,516.6618039000005,516.6618039000005,516.6618039000005,516.6618039000005,516.6618039000005,r,0.8103362999991077,517.498725899999,517.498725899999,517.498725899999,517.498725899999,517.498725899999,517.498725899999,517.7946781999999,519.6445543999998,519.6445543999998,519.6445543999998,519.6445543999998,519.6445543999998,519.6445543999998,519.6445543999998,519.6445543999998,519.6445543999998,519.6445543999998,519.6445543999998,519.6445543999998,519.6445543999998,519.6445543999998,521.7927053999992,521.7927053999992,521.7927053999992,521.7927053999992,521.7927053999992,521.7927053999992,521.7927053999992,33,55,46,55,55,60,521.7927053999992,523.6100346000003,,,,,,,,,,,,３１９,f,１９,2023-05-19_10h48.24.550,RL,2022.2.5,59.925129543134815,
30,64,42,43,0,85,85,85,,,,,,,,,,,None,523.6100346000003,523.6100346000003,523.6100346000003,523.6100346000003,523.6100346000003,523.6100346000003,j,0.33008970000082627,523.9630331999997,523.9630331999997,523.9630331999997,523.9630331999997,523.9630331999997,523.9630331999997,524.2606190999995,525.2103645000007,525.2103645000007,525.2103645000007,525.2103645000007,525.2103645000007,525.2103645000007,525.2103645000007,525.2103645000007,525.2103645000007,525.2103645000007,525.2103645000007,525.2103645000007,525.2103645000007,525.2103645000007,526.4584914000006,526.4584914000006,526.4584914000006,526.4584914000006,526.4584914000006,526.4584914000006,526.4584914000006,30,64,43,42,42,60,526.4584914000006,528.4592291999998,,,,,,,,,,,,３１９,f,１９,2023-05-19_10h48.24.550,RL,2022.2.5,59.925129543134815,
37,63,50,50,0,86,86,86,,,,,,,,,,,None,528.4592291999998,528.4592291999998,528.4592291999998,528.4592291999998,528.4592291999998,528.4592291999998,f,0.40569479999976465,528.8936831999999,528.8936831999999,528.8936831999999,528.8936831999999,528.8936831999999,528.8936831999999,529.1760630999997,530.1760639000004,530.1760639000004,530.1760639000004,530.1760639000004,530.1760639000004,530.1760639000004,530.1593391999995,530.1760639000004,530.1760639000004,530.1760639000004,530.1760639000004,530.1760639000004,530.1760639000004,530.1760639000004,531.4576895999999,531.4576895999999,531.4576895999999,531.4576895999999,531.4576895999999,531.4576895999999,531.4576895999999,37,63,50,50,37,60,531.4576895999999,533.0583893000003,,,,,,,,,,,,３１９,f,１９,2023-05-19_10h48.24.550,RL,2022.2.5,59.925129543134815,
41,68,53,49,0,87,87,87,,,,,,,,,,,None,533.0583893000003,533.0583893000003,533.0583893000003,533.0583893000003,533.0583893000003,533.0583893000003,i,0.2960605999996915,533.3784961000001,533.3784961000001,533.3784961000001,533.3784961000001,533.3784961000001,533.3784961000001,533.6587985000006,535.5248095999996,535.5248095999996,535.5248095999996,535.5248095999996,535.5248095999996,535.5248095999996,535.5083775000003,535.5248095999996,535.5248095999996,535.5248095999996,535.5248095999996,535.5248095999996,535.5248095999996,535.5248095999996,537.6728466000004,537.6728466000004,537.6728466000004,537.6728466000004,537.6728466000004,537.6728466000004,537.6728466000004,41,68,49,53,49,60,537.6728466000004,539.3072606000005,,,,,,,,,,,,３１９,f,１９,2023-05-19_10h48.24.550,RL,2022.2.5,59.925129543134815,
31,62,55,47,0,88,88,88,,,,,,,,,,,None,539.3072606000005,539.3072606000005,539.3072606000005,539.3072606000005,539.3072606000005,539.3072606000005,i,0.2779898000007961,539.6089001,539.6089001,539.6089001,539.6089001,539.6089001,539.6089001,539.8909972000001,541.2072016000002,541.2072016000002,541.2072016000002,541.2072016000002,541.2072016000002,541.2072016000002,541.1909037999994,541.2072016000002,541.2072016000002,541.2072016000002,541.2072016000002,541.2072016000002,541.2072016000002,541.2072016000002,542.8056591999994,542.8056591999994,542.8056591999994,542.8056591999994,542.8056591999994,542.8056591999994,542.8056591999994,31,62,47,55,47,60,542.8056591999994,544.5901128000005,,,,,,,,,,,,３１９,f,１９,2023-05-19_10h48.24.550,RL,2022.2.5,59.925129543134815,
35,69,50,43,0,89,89,89,,,,,,,,,,,None,544.5901128000005,544.5901128000005,544.5901128000005,544.5901128000005,544.5901128000005,544.5901128000005,r,0.3245959000014409,544.9453358999999,544.9453358999999,544.9453358999999,544.9453358999999,544.9453358999999,544.9453358999999,545.2236842999991,546.2067064000003,546.2067064000003,546.2067064000003,546.2067064000003,546.2067064000003,546.2067064000003,546.1903359000007,546.2067064000003,546.2067064000003,546.2067064000003,546.2067064000003,546.2067064000003,546.2067064000003,546.2067064000003,547.4714088000001,547.4714088000001,547.4714088000001,547.4714088000001,547.4714088000001,547.4714088000001,547.4714088000001,35,69,43,50,69,60,547.4714088000001,549.2225189000001,,,,,,,,,,,,３１９,f,１９,2023-05-19_10h48.24.550,RL,2022.2.5,59.925129543134815,
33,71,49,43,0,90,90,90,,,,,,,,,,,None,549.2225189000001,549.2225189000001,549.2225189000001,549.2225189000001,549.2225189000001,549.2225189000001,r,0.30740309999964666,549.5573774000004,549.5573774000004,549.5573774000004,549.5573774000004,549.5573774000004,549.5573774000004,549.8392356000004,551.5889069999994,551.5889069999994,551.5889069999994,551.5889069999994,551.5889069999994,551.5889069999994,551.5725691999996,551.5889069999994,551.5889069999994,551.5889069999994,551.5889069999994,551.5889069999994,551.5889069999994,551.5889069999994,553.6199620999996,553.6199620999996,553.6199620999996,553.6199620999996,553.6199620999996,553.6199620999996,553.6199620999996,33,71,43,49,71,60,553.6199620999996,555.3541406999993,,,,,,,,,,,,３１９,f,１９,2023-05-19_10h48.24.550,RL,2022.2.5,59.925129543134815,
35,71,50,44,0,91,91,91,,,,,,,,,,,None,555.3541406999993,555.3541406999993,555.3541406999993,555.3541406999993,555.3541406999993,555.3541406999993,r,0.2908829000007245,555.6716701999994,555.6716701999994,555.6716701999994,555.6716701999994,555.6716701999994,555.6716701999994,555.9548883999996,557.8710883000003,557.8710883000003,557.8710883000003,557.8710883000003,557.8710883000003,557.8710883000003,557.8550453000007,557.8710883000003,557.8710883000003,557.8710883000003,557.8710883000003,557.8710883000003,557.8710883000003,557.8710883000003,560.0691633000006,560.0691633000006,560.0691633000006,560.0691633000006,560.0691633000006,560.0691633000006,560.0691633000006,35,71,44,50,71,60,560.0691633000006,561.9371499999997,,,,,,,,,,,,３１９,f,１９,2023-05-19_10h48.24.550,RL,2022.2.5,59.925129543134815,
32,73,41,40,0,92,92,92,,,,,,,,,,,None,561.9371499999997,561.9371499999997,561.9371499999997,561.9371499999997,561.9371499999997,561.9371499999997,r,0.35548129999915545,562.322575799999,562.322575799999,562.322575799999,562.322575799999,562.322575799999,562.322575799999,562.6039939000002,563.5535777999994,563.5535777999994,563.5535777999994,563.5535777999994,563.5535777999994,563.5535777999994,563.5201318,563.5535777999994,563.5535777999994,563.5535777999994,563.5535777999994,563.5535777999994,563.5535777999994,563.5535777999994,564.7682341,564.7682341,564.7682341,564.7682341,564.7682341,564.7682341,564.7682341,32,73,40,41,73,60,564.7682341,566.535671399999,,,,,,,,,,,,３１９,f,１９,2023-05-19_10h48.24.550,RL,2022.2.5,59.925129543134815,
31,71,45,47,0,93,93,93,,,,,,,,,,,None,566.535671399999,566.535671399999,566.535671399999,566.535671399999,566.535671399999,566.535671399999,r,0.3806683000002522,566.9372662999995,566.9372662999995,566.9372662999995,566.9372662999995,566.9372662999995,566.9372662999995,567.2362298999997,568.7028086999999,568.7028086999999,568.7028086999999,568.7028086999999,568.7028086999999,568.7028086999999,568.7028086999999,568.7028086999999,568.7028086999999,568.7028086999999,568.7028086999999,568.7028086999999,568.7028086999999,568.7028086999999,570.4670564000007,570.4670564000007,570.4670564000007,570.4670564000007,570.4670564000007,570.4670564000007,570.4670564000007,31,71,47,45,71,60,570.4670564000007,572.4683540999995,,,,,,,,,,,,３１９,f,１９,2023-05-19_10h48.24.550,RL,2022.2.5,59.925129543134815,
31,68,47,38,0,94,94,94,,,,,,,,,,,None,572.4683540999995,572.4683540999995,572.4683540999995,572.4683540999995,572.4683540999995,572.4683540999995,r,0.6971589000004315,573.1855104000006,573.1855104000006,573.1855104000006,573.1855104000006,573.1855104000006,573.1855104000006,573.4853024999993,575.4347032000005,575.4347032000005,575.4347032000005,575.4347032000005,575.4347032000005,575.4347032000005,575.4347032000005,575.4347032000005,575.4347032000005,575.4347032000005,575.4347032000005,575.4347032000005,575.4347032000005,575.4347032000005,577.6830740000005,577.6830740000005,577.6830740000005,577.6830740000005,577.6830740000005,577.6830740000005,577.6830740000005,31,68,38,47,68,60,577.6830740000005,579.6173481000005,,,,,,,,,,,,３１９,f,１９,2023-05-19_10h48.24.550,RL,2022.2.5,59.925129543134815,
47,73,37,49,0,95,95,95,,,,,,,,,,,None,579.6173481000005,579.6173481000005,579.6173481000005,579.6173481000005,579.6173481000005,579.6173481000005,r,0.34706270000060613,579.9845807999991,579.9845807999991,579.9845807999991,579.9845807999991,579.9845807999991,579.9845807999991,580.2670355999999,581.5839603999993,581.5839603999993,581.5839603999993,581.5839603999993,581.5839603999993,581.5839603999993,581.5675176999994,581.5839603999993,581.5839603999993,581.5839603999993,581.5839603999993,581.5839603999993,581.5839603999993,581.5839603999993,583.1822386999993,583.1822386999993,583.1822386999993,583.1822386999993,583.1822386999993,583.1822386999993,583.1822386999993,47,73,49,37,73,60,583.1822386999993,584.9997855999991,,,,,,,,,,,,３１９,f,１９,2023-05-19_10h48.24.550,RL,2022.2.5,59.925129543134815,
37,72,45,44,0,96,96,96,,,,,,,,,,,None,584.9997855999991,584.9997855999991,584.9997855999991,584.9997855999991,584.9997855999991,584.9997855999991,r,0.34065040000132285,585.366922199999,585.366922199999,585.366922199999,585.366922199999,585.366922199999,585.366922199999,585.6497048000001,587.5326741999997,587.5326741999997,587.5326741999997,587.5326741999997,587.5326741999997,587.5326741999997,587.5161453000001,587.5326741999997,587.5326741999997,587.5326741999997,587.5326741999997,587.5326741999997,587.5326741999997,587.5326741999997,589.6972014999992,589.6972014999992,589.6972014999992,589.6972014999992,589.6972014999992,589.6972014999992,589.6972014999992,37,72,44,45,72,60,589.6972014999992,591.2317679999996,,,,,,,,,,,,３１９,f,１９,2023-05-19_10h48.24.550,RL,2022.2.5,59.925129543134815,
30,68,43,41,0,97,97,97,,,,,,,,,,,None,591.2317679999996,591.2317679999996,591.2317679999996,591.2317679999996,591.2317679999996,591.2317679999996,r,0.31237289999990026,591.566571899999,591.566571899999,591.566571899999,591.566571899999,591.566571899999,591.566571899999,591.8487824999993,593.1818593000007,593.1818593000007,593.1818593000007,593.1818593000007,593.1818593000007,593.1818593000007,593.1651299000005,593.1818593000007,593.1818593000007,593.1818593000007,593.1818593000007,593.1818593000007,593.1818593000007,593.1818593000007,594.7962473999996,594.7962473999996,594.7962473999996,594.7962473999996,594.7962473999996,594.7962473999996,594.7962473999996,30,68,41,43,68,60,594.7962473999996,596.4308953,,,,,,,,,,,,３１９,f,１９,2023-05-19_10h48.24.550,RL,2022.2.5,59.925129543134815,
35,69,46,44,0,98,98,98,,,,,,,,,,,None,596.4308953,596.4308953,596.4308953,596.4308953,596.4308953,596.4308953,j,0.355375200000708,596.8154644000006,596.8154644000006,596.8154644000006,596.8154644000006,596.8154644000006,596.8154644000006,597.0979238,598.5476844000004,598.5476844000004,598.5476844000004,598.5476844000004,598.5476844000004,598.5476844000004,598.5310659000006,598.5476844000004,598.5476844000004,598.5476844000004,598.5476844000004,598.5476844000004,598.5476844000004,598.5476844000004,600.278543299999,600.278543299999,600.278543299999,600.278543299999,600.278543299999,600.278543299999,600.278543299999,35,69,44,46,46,60,600.278543299999,602.1631077000002,,,,,,,,,,,,３１９,f,１９,2023-05-19_10h48.24.550,RL,2022.2.5,59.925129543134815,
33,69,47,39,0,99,99,99,,,,,,,,,,,None,602.1631077000002,602.1631077000002,602.1631077000002,602.1631077000002,602.1631077000002,602.1631077000002,f,0.3431986000014149,602.5300994999998,602.5300994999998,602.5300994999998,602.5300994999998,602.5300994999998,602.5300994999998,602.8133395000004,603.9297365000002,603.9297365000002,603.9297365000002,603.9297365000002,603.9297365000002,603.9297365000002,603.9130617999999,603.9297365000002,603.9297365000002,603.9297365000002,603.9297365000002,603.9297365000002,603.9297365000002,603.9297365000002,605.3277622000005,605.3277622000005,605.3277622000005,605.3277622000005,605.3277622000005,605.3277622000005,605.3277622000005,33,69,39,47,33,60,605.3277622000005,606.9454267000001,,,,,,,,,,,,３１９,f,１９,2023-05-19_10h48.24.550,RL,2022.2.5,59.925129543134815,
34,60,39,38,0,100,100,100,,,,,,,,,,,None,606.9454267000001,606.9454267000001,606.9454267000001,606.9454267000001,606.9454267000001,606.9454267000001,i,0.1392132999990281,607.1129758999996,607.1129758999996,607.1129758999996,607.1129758999996,607.1129758999996,607.1129758999996,607.4125512999999,609.1453877999993,609.1453877999993,609.1453877999993,609.1453877999993,609.1453877999993,609.1453877999993,609.1453877999993,609.1453877999993,609.1453877999993,609.1453877999993,609.1453877999993,609.1453877999993,609.1453877999993,609.1453877999993,611.1771114000003,611.1771114000003,611.1771114000003,611.1771114000003,611.1771114000003,611.1771114000003,611.1771114000003,34,60,38,39,38,60,611.1771114000003,612.7279154000007,,,,,,,,,,,,３１９,f,１９,2023-05-19_10h48.24.550,RL,2022.2.5,59.925129543134815,
33,63,49,52,0,101,101,101,,,,,,,,,,,None,612.7279154000007,612.7279154000007,612.7279154000007,612.7279154000007,612.7279154000007,612.7279154000007,r,0.2395338999995147,612.995034399999,612.995034399999,612.995034399999,612.995034399999,612.995034399999,612.995034399999,613.2781453999996,614.8615446999993,614.8615446999993,614.8615446999993,614.8615446999993,614.8615446999993,614.8615446999993,614.8446091999995,614.8615446999993,614.8615446999993,614.8615446999993,614.8615446999993,614.8615446999993,614.8615446999993,614.8615446999993,616.7261679999992,616.7261679999992,616.7261679999992,616.7261679999992,616.7261679999992,616.7261679999992,616.7261679999992,33,63,52,49,63,60,616.7261679999992,618.626698099999,,,,,,,,,,,,３１９,f,１９,2023-05-19_10h48.24.550,RL,2022.2.5,59.925129543134815,
30,56,45,45,0,102,102,102,,,,,,,,,,,None,618.626698099999,618.626698099999,618.626698099999,618.626698099999,618.626698099999,618.626698099999,r,0.23008450000088487,618.8800255999995,618.8800255999995,618.8800255999995,618.8800255999995,618.8800255999995,618.8800255999995,619.1775651000007,620.5435660000003,620.5435660000003,620.5435660000003,620.5435660000003,620.5435660000003,620.5435660000003,620.5435660000003,620.5435660000003,620.5435660000003,620.5435660000003,620.5435660000003,620.5435660000003,620.5435660000003,620.5435660000003,622.1920618000004,622.1920618000004,622.1920618000004,622.1920618000004,622.1920618000004,622.1920618000004,622.1920618000004,30,56,45,45,56,60,622.1920618000004,624.1759060000004,,,,,,,,,,,,３１９,f,１９,2023-05-19_10h48.24.550,RL,2022.2.5,59.925129543134815,
28,64,38,46,0,103,103,103,,,,,,,,,,,None,624.1759060000004,624.1759060000004,624.1759060000004,624.1759060000004,624.1759060000004,624.1759060000004,i,0.8735773000007612,625.0778422999992,625.0778422999992,625.0778422999992,625.0778422999992,625.0778422999992,625.0778422999992,625.375865,626.5593599999993,626.5593599999993,626.5593599999993,626.5593599999993,626.5593599999993,626.5593599999993,626.5593599999993,626.5593599999993,626.5593599999993,626.5593599999993,626.5593599999993,626.5593599999993,626.5593599999993,626.5593599999993,628.0408611999992,628.0408611999992,628.0408611999992,628.0408611999992,628.0408611999992,628.0408611999992,628.0408611999992,28,64,46,38,46,60,628.0408611999992,629.8252735000005,,,,,,,,,,,,３１９,f,１９,2023-05-19_10h48.24.550,RL,2022.2.5,59.925129543134815,
32,56,46,42,0,104,104,104,,,,,,,,,,,None,629.8252735000005,629.8252735000005,629.8252735000005,629.8252735000005,629.8252735000005,629.8252735000005,j,0.34497929999997723,630.1933114000003,630.1933114000003,630.1933114000003,630.1933114000003,630.1933114000003,630.1933114000003,630.4752664999996,632.2915157000007,632.2915157000007,632.2915157000007,632.2915157000007,632.2915157000007,632.2915157000007,632.2751444999994,632.2915157000007,632.2915157000007,632.2915157000007,632.2915157000007,632.2915157000007,632.2915157000007,632.2915157000007,634.3897636999991,634.3897636999991,634.3897636999991,634.3897636999991,634.3897636999991,634.3897636999991,634.3897636999991,32,56,42,46,46,60,634.3897636999991,636.0905430000003,,,,,,,,,,,,３１９,f,１９,2023-05-19_10h48.24.550,RL,2022.2.5,59.925129543134815,
37,71,42,44,0,105,105,105,,,,,,,,,,,None,636.0905430000003,636.0905430000003,636.0905430000003,636.0905430000003,636.0905430000003,636.0905430000003,j,0.0097819000002346,636.1248199000001,636.1248199000001,636.1248199000001,636.1248199000001,636.1248199000001,636.1248199000001,636.4071774999993,637.7739961999996,637.7739961999996,637.7739961999996,637.7739961999996,637.7739961999996,637.7739961999996,637.7574291000001,637.7739961999996,637.7739961999996,637.7739961999996,637.7739961999996,637.7739961999996,637.7739961999996,637.7739961999996,639.4221385000001,639.4221385000001,639.4221385000001,639.4221385000001,639.4221385000001,639.4221385000001,639.4221385000001,37,71,44,42,42,60,639.4221385000001,641.373259,,,,,,,,,,,,３１９,f,１９,2023-05-19_10h48.24.550,RL,2022.2.5,59.925129543134815,
43,76,49,43,0,106,106,106,,,,,,,,,,,None,641.373259,641.373259,641.373259,641.373259,641.373259,641.373259,r,0.2764432999993005,641.6735358000005,641.6735358000005,641.6735358000005,641.6735358000005,641.6735358000005,641.6735358000005,641.9567750000006,643.0728374999999,643.0728374999999,643.0728374999999,643.0728374999999,643.0728374999999,643.0728374999999,643.0562520000003,643.0728374999999,643.0728374999999,643.0728374999999,643.0728374999999,643.0728374999999,643.0728374999999,643.0728374999999,644.4710715000001,644.4710715000001,644.4710715000001,644.4710715000001,644.4710715000001,644.4710715000001,644.4710715000001,43,76,43,49,76,60,644.4710715000001,646.1054815999996,,,,,,,,,,,,３１９,f,１９,2023-05-19_10h48.24.550,RL,2022.2.5,59.925129543134815,
42,76,37,38,0,107,107,107,,,,,,,,,,,None,646.1054815999996,646.1054815999996,646.1054815999996,646.1054815999996,646.1054815999996,646.1054815999996,r,0.38797599999998056,646.5227283999993,646.5227283999993,646.5227283999993,646.5227283999993,646.5227283999993,646.5227283999993,646.8060769000003,647.7392908000002,647.7392908000002,647.7392908000002,647.7392908000002,647.7392908000002,647.7392908000002,647.7221367999991,647.7392908000002,647.7392908000002,647.7392908000002,647.7392908000002,647.7392908000002,647.7392908000002,647.7392908000002,648.9538623999997,648.9538623999997,648.9538623999997,648.9538623999997,648.9538623999997,648.9538623999997,648.9538623999997,42,76,38,37,76,60,648.9538623999997,650.8049453999993,,,,,,,,,,,,３１９,f,１９,2023-05-19_10h48.24.550,RL,2022.2.5,59.925129543134815,
38,77,23,35,0,108,108,108,,,,,,,,,,,None,650.8049453999993,650.8049453999993,650.8049453999993,650.8049453999993,650.8049453999993,650.8049453999993,r,0.3299981000000116,651.1573152000001,651.1573152000001,651.1573152000001,651.1573152000001,651.1573152000001,651.1573152000001,651.4546547999998,653.2378786999998,653.2378786999998,653.2378786999998,653.2378786999998,653.2378786999998,653.2378786999998,653.2378786999998,653.2378786999998,653.2378786999998,653.2378786999998,653.2378786999998,653.2378786999998,653.2378786999998,653.2378786999998,655.3189411999992,655.3189411999992,655.3189411999992,655.3189411999992,655.3189411999992,655.3189411999992,655.3189411999992,38,77,35,23,77,60,655.3189411999992,657.1705165999992,,,,,,,,,,,,３１９,f,１９,2023-05-19_10h48.24.550,RL,2022.2.5,59.925129543134815,
37,72,29,42,0,109,109,109,,,,,,,,,,,None,657.1705165999992,657.1705165999992,657.1705165999992,657.1705165999992,657.1705165999992,657.1705165999992,r,0.4350352000001294,657.653062899999,657.653062899999,657.653062899999,657.653062899999,657.653062899999,657.653062899999,657.9375834000002,659.6205076000006,659.6205076000006,659.6205076000006,659.6205076000006,659.6205076000006,659.6205076000006,659.6036139999997,659.6205076000006,659.6205076000006,659.6205076000006,659.6205076000006,659.6205076000006,659.6205076000006,659.6205076000006,661.5850043999999,661.5850043999999,661.5850043999999,661.5850043999999,661.5850043999999,661.5850043999999,661.5850043999999,37,72,42,29,72,60,661.5850043999999,663.4692063999992,,,,,,,,,,,,３１９,f,１９,2023-05-19_10h48.24.550,RL,2022.2.5,59.925129543134815,
43,81,35,38,0,110,110,110,,,,,,,,,,,None,663.4692063999992,663.4692063999992,663.4692063999992,663.4692063999992,663.4692063999992,663.4692063999992,r,0.3115174000013212,663.8064238999996,663.8064238999996,663.8064238999996,663.8064238999996,663.8064238999996,663.8064238999996,664.0862130000005,665.5855785999993,665.5855785999993,665.5855785999993,665.5855785999993,665.5855785999993,665.5855785999993,665.5691086999996,665.5855785999993,665.5855785999993,665.5855785999993,665.5855785999993,665.5855785999993,665.5855785999993,665.5855785999993,667.3668275,667.3668275,667.3668275,667.3668275,667.3668275,667.3668275,667.3668275,43,81,38,35,81,60,667.3668275,669.218198999999,,,,,,,,,,,,３１９,f,１９,2023-05-19_10h48.24.550,RL,2022.2.5,59.925129543134815,
35,80,30,42,0,111,111,111,,,,,,,,,,,None,669.218198999999,669.218198999999,669.218198999999,669.218198999999,669.218198999999,669.218198999999,r,0.28690389999974286,669.5365060000004,669.5365060000004,669.5365060000004,669.5365060000004,669.5365060000004,669.5365060000004,669.8352625000007,671.5347509999992,671.5347509999992,671.5347509999992,671.5347509999992,671.5347509999992,671.5347509999992,671.5347509999992,671.5347509999992,671.5347509999992,671.5347509999992,671.5347509999992,671.5347509999992,671.5347509999992,671.5347509999992,673.5328881000005,673.5328881000005,673.5328881000005,673.5328881000005,673.5328881000005,673.5328881000005,673.5328881000005,35,80,42,30,80,60,673.5328881000005,675.267374699999,,,,,,,,,,,,３１９,f,１９,2023-05-19_10h48.24.550,RL,2022.2.5,59.925129543134815,
35,76,34,39,0,112,112,112,,,,,,,,,,,None,675.267374699999,675.267374699999,675.267374699999,675.267374699999,675.267374699999,675.267374699999,r,0.26400850000027276,675.5510582000006,675.5510582000006,675.5510582000006,675.5510582000006,675.5510582000006,675.5510582000006,675.8343396,677.1675794000002,677.1675794000002,677.1675794000002,677.1675794000002,677.1675794000002,677.1675794000002,677.1508362999994,677.1675794000002,677.1675794000002,677.1675794000002,677.1675794000002,677.1675794000002,677.1675794000002,677.1675794000002,678.7821124999991,678.7821124999991,678.7821124999991,678.7821124999991,678.7821124999991,678.7821124999991,678.7821124999991,35,76,39,34,76,60,678.7821124999991,680.5995803999995,,,,,,,,,,,,３１９,f,１９,2023-05-19_10h48.24.550,RL,2022.2.5,59.925129543134815,
38,66,26,42,0,113,113,113,,,,,,,,,,,None,680.5995803999995,680.5995803999995,680.5995803999995,680.5995803999995,680.5995803999995,680.5995803999995,r,0.3583459000001312,680.9842838999994,680.9842838999994,680.9842838999994,680.9842838999994,680.9842838999994,680.9842838999994,681.2666668999991,683.1327431999998,683.1327431999998,683.1327431999998,683.1327431999998,683.1327431999998,683.1327431999998,683.116207699999,683.1327431999998,683.1327431999998,683.1327431999998,683.1327431999998,683.1327431999998,683.1327431999998,683.1327431999998,685.2806070000006,685.2806070000006,685.2806070000006,685.2806070000006,685.2806070000006,685.2806070000006,685.2806070000006,38,66,42,26,66,60,685.2806070000006,687.1652494999998,,,,,,,,,,,,３１９,f,１９,2023-05-19_10h48.24.550,RL,2022.2.5,59.925129543134815,
23,63,31,37,0,114,114,114,,,,,,,,,,,None,687.1652494999998,687.1652494999998,687.1652494999998,687.1652494999998,687.1652494999998,687.1652494999998,r,0.295876700000008,687.4835997999999,687.4835997999999,687.4835997999999,687.4835997999999,687.4835997999999,687.4835997999999,687.7819469999995,689.5484185999994,689.5484185999994,689.5484185999994,689.5484185999994,689.5484185999994,689.5484185999994,689.5484185999994,689.5484185999994,689.5484185999994,689.5484185999994,689.5484185999994,689.5484185999994,689.5484185999994,689.5484185999994,691.6130555,691.6130555,691.6130555,691.6130555,691.6130555,691.6130555,691.6130555,23,63,37,31,63,60,691.6130555,693.2472887000004,,,,,,,,,,,,３１９,f,１９,2023-05-19_10h48.24.550,RL,2022.2.5,59.925129543134815,
24,64,28,40,0,115,115,115,,,,,,,,,,,None,693.2472887000004,693.2472887000004,693.2472887000004,693.2472887000004,693.2472887000004,693.2472887000004,r,0.31884920000084094,693.6001995000006,693.6001995000006,693.6001995000006,693.6001995000006,693.6001995000006,693.6001995000006,693.8813267999994,694.8642254999995,694.8642254999995,694.8642254999995,694.8642254999995,694.8642254999995,694.8642254999995,694.8476685000005,694.8642254999995,694.8642254999995,694.8642254999995,694.8642254999995,694.8642254999995,694.8642254999995,694.8642254999995,696.1286010000003,696.1286010000003,696.1286010000003,696.1286010000003,696.1286010000003,696.1286010000003,696.1286010000003,24,64,40,28,64,60,696.1286010000003,697.8969223999993,,,,,,,,,,,,３１９,f,１９,2023-05-19_10h48.24.550,RL,2022.2.5,59.925129543134815,
33,68,26,36,0,116,116,116,,,,,,,,,,,None,697.8969223999993,697.8969223999993,697.8969223999993,697.8969223999993,697.8969223999993,697.8969223999993,r,0.31283040000016626,698.2316107999995,698.2316107999995,698.2316107999995,698.2316107999995,698.2316107999995,698.2316107999995,698.5135131999996,700.096493699999,700.096493699999,700.096493699999,700.096493699999,700.096493699999,700.096493699999,700.0796814000005,700.096493699999,700.096493699999,700.096493699999,700.096493699999,700.096493699999,700.096493699999,700.096493699999,701.9613036999999,701.9613036999999,701.9613036999999,701.9613036999999,701.9613036999999,701.9613036999999,701.9613036999999,33,68,36,26,68,60,701.9613036999999,703.7786426999992,,,,,,,,,,,,３１９,f,１９,2023-05-19_10h48.24.550,RL,2022.2.5,59.925129543134815,
19,66,28,36,0,117,117,117,,,,,,,,,,,None,703.7786426999992,703.7786426999992,703.7786426999992,703.7786426999992,703.7786426999992,703.7786426999992,i,0.26238179999927524,704.0626511999999,704.0626511999999,704.0626511999999,704.0626511999999,704.0626511999999,704.0626511999999,704.3460544999998,706.3122831000001,706.3122831000001,706.3122831000001,706.3122831000001,706.3122831000001,706.3122831000001,706.2956233999994,706.3122831000001,706.3122831000001,706.3122831000001,706.3122831000001,706.3122831000001,706.3122831000001,706.3122831000001,708.5599390000007,708.5599390000007,708.5599390000007,708.5599390000007,708.5599390000007,708.5599390000007,708.5599390000007,19,66,36,28,36,60,708.5599390000007,710.1776124000007,,,,,,,,,,,,３１９,f,１９,2023-05-19_10h48.24.550,RL,2022.2.5,59.925129543134815,
25,66,31,37,0,118,118,118,,,,,,,,,,,None,710.1776124000007,710.1776124000007,710.1776124000007,710.1776124000007,710.1776124000007,710.1776124000007,r,0.345793100001174,710.5448562000001,710.5448562000001,710.5448562000001,710.5448562000001,710.5448562000001,710.5448562000001,710.8284356000004,712.4110049999999,712.4110049999999,712.4110049999999,712.4110049999999,712.4110049999999,712.4110049999999,712.3947356999997,712.4110049999999,712.4110049999999,712.4110049999999,712.4110049999999,712.4110049999999,712.4110049999999,712.4110049999999,714.2757196999992,714.2757196999992,714.2757196999992,714.2757196999992,714.2757196999992,714.2757196999992,714.2757196999992,25,66,37,31,66,60,714.2757196999992,715.9265066000007,,,,,,,,,,,,３１９,f,１９,2023-05-19_10h48.24.550,RL,2022.2.5,59.925129543134815,
33,56,36,37,0,119,119,119,,,,,,,,,,,None,715.9265066000007,715.9265066000007,715.9265066000007,715.9265066000007,715.9265066000007,715.9265066000007,f,0.3264985000005254,716.2806086,716.2806086,716.2806086,716.2806086,716.2806086,716.2806086,716.5606441,718.1600333000006,718.1600333000006,718.1600333000006,718.1600333000006,718.1600333000006,718.1600333000006,718.1432973999999,718.1600333000006,718.1600333000006,718.1600333000006,718.1600333000006,718.1600333000006,718.1600333000006,718.1600333000006,720.0409237999993,720.0409237999993,720.0409237999993,720.0409237999993,720.0409237999993,720.0409237999993,720.0409237999993,33,56,37,36,33,60,720.0409237999993,721.6260736999993,,,,,,,,,,,,３１９,f,１９,2023-05-19_10h48.24.550,RL,2022.2.5,59.925129543134815,
32,63,27,36,0,120,120,120,,,,,,,,,,,None,721.6260736999993,721.6260736999993,721.6260736999993,721.6260736999993,721.6260736999993,721.6260736999993,j,0.6264702999997098,722.2809837999994,722.2809837999994,722.2809837999994,722.2809837999994,722.2809837999994,722.2809837999994,722.5597307999997,724.1589268000007,724.1589268000007,724.1589268000007,724.1589268000007,724.1589268000007,724.1589268000007,724.1425015999994,724.1589268000007,724.1589268000007,724.1589268000007,724.1589268000007,724.1589268000007,724.1589268000007,724.1589268000007,726.0407302999993,726.0407302999993,726.0407302999993,726.0407302999993,726.0407302999993,726.0407302999993,726.0407302999993,32,63,36,27,27,60,726.0407302999993,727.6077698999998,,,,,,,,,,,,３１９,f,１９,2023-05-19_10h48.24.550,RL,2022.2.5,59.925129543134815,
