arm1,arm2,arm3,arm4,trials.thisRepN,trials.thisTrialN,trials.thisN,trials.thisIndex,instru_img1.started,instru_resp.started,instru_resp.keys,instru_resp.rt,image_2.started,text_2.started,image_2.stopped,text_2.stopped,fixbefore_2.started,fixbefore_2.stopped,rest_response.keys,red.started,green.started,yellow.started,blue.started,choose_bandit.started,Fixation.started,choose_bandit.keys,choose_bandit.rt,black.started,red_2.started,green_2.started,yellow_2.started,blue_2.started,fixation_2.started,docs.started,docs.stopped,black.stopped,red_2.stopped,green_2.stopped,yellow_2.stopped,blue_2.stopped,fixation_2.stopped,black_com.started,reward_sub.started,reward__sub.started,red_compare.started,green_com.started,yellow_com.started,blue_com.started,black_com.stopped,reward_sub.stopped,reward__sub.stopped,red_compare.stopped,green_com.stopped,yellow_com.stopped,blue_com.stopped,rewardred,rewardyellow,rewardblue,rewardgreen,subchoose,expectation,intertrialfix.started,intertrialfix.stopped,red.stopped,green.stopped,yellow.stopped,blue.stopped,choose_bandit.stopped,Fixation.stopped,bigx.started,bigx.stopped,rest_image.started,rest_response.started,rest_response.rt,image_expect_after.started,text_exp_after.started,image_expect_after.stopped,text_exp_after.stopped,image.started,key_resp.started,key_resp.keys,key_resp.rt,participant,Gender,Age,date,expName,psychopyVersion,frameRate,
,,,,,,,,13.002476600000591,13.002476600000591,space,15.942019000000073,,,,,,,,,,,,,,,,,,,,,,,,,,,,,,,,,,,,,,,,,,,,,,,,,,,,,,,,,,,,,,,,,,,,,,,３２０,f,２３,2023-05-19_11h29.48.931,RL,2022.2.5,60.059663269326094,
35,45,70,58,0,0,0,0,,,,,28.969901300000856,28.969901300000856,33.96956130000035,33.96956130000035,33.96956130000035,34.9721669999999,None,34.9721669999999,34.9721669999999,34.9721669999999,34.9721669999999,34.9721669999999,34.9721669999999,r,0.7017448999995395,35.713729900000544,35.713729900000544,35.713729900000544,35.713729900000544,35.713729900000544,35.713729900000544,35.98870259999967,37.80794070000047,37.828787500000544,37.828787500000544,37.828787500000544,37.828787500000544,37.828787500000544,37.828787500000544,37.828787500000544,37.828787500000544,37.828787500000544,37.828787500000544,37.828787500000544,37.828787500000544,37.828787500000544,39.99686440000005,39.99686440000005,39.99686440000005,39.99686440000005,39.99686440000005,39.99686440000005,39.99686440000005,70,35,45,58,35,70,39.99686440000005,41.753040800000235,,,,,,,,,,,,,,,,,,,,３２０,f,２３,2023-05-19_11h29.48.931,RL,2022.2.5,60.059663269326094,
30,45,71,68,0,1,1,1,,,,,,,,,,,None,41.753040800000235,41.753040800000235,41.753040800000235,41.753040800000235,41.753040800000235,41.753040800000235,r,0.6904615000003105,42.47186260000126,42.47186260000126,42.47186260000126,42.47186260000126,42.47186260000126,42.47186260000126,42.769718999999895,43.60305080000035,43.60305080000035,43.60305080000035,43.60305080000035,43.60305080000035,43.60305080000035,43.60305080000035,43.60305080000035,43.60305080000035,43.60305080000035,43.60305080000035,43.60305080000035,43.60305080000035,43.60305080000035,44.73425359999965,44.73425359999965,44.73425359999965,44.73425359999965,44.73425359999965,44.73425359999965,44.73425359999965,71,30,45,68,30,70,44.73425359999965,46.552290900001026,,,,,,,,,,,,,,,,,,,,３２０,f,２３,2023-05-19_11h29.48.931,RL,2022.2.5,60.059663269326094,
27,51,56,60,0,2,2,2,,,,,,,,,,,None,46.552290900001026,46.552290900001026,46.552290900001026,46.552290900001026,46.552290900001026,46.552290900001026,j,1.1861480999996274,47.7738532000003,47.7738532000003,47.7738532000003,47.7738532000003,47.7738532000003,47.7738532000003,48.068747900000744,49.851697899999635,49.851697899999635,49.851697899999635,49.851697899999635,49.851697899999635,49.851697899999635,49.851697899999635,49.851697899999635,49.851697899999635,49.851697899999635,49.851697899999635,49.851697899999635,49.851697899999635,49.851697899999635,51.932912100000976,51.932912100000976,51.932912100000976,51.932912100000976,51.932912100000976,51.932912100000976,51.932912100000976,56,27,51,60,60,70,51.932912100000976,53.6509115000008,,,,,,,,,,,,,,,,,,,,３２０,f,２３,2023-05-19_11h29.48.931,RL,2022.2.5,60.059663269326094,
25,42,68,58,0,3,3,3,,,,,,,,,,,None,53.6509115000008,53.6509115000008,53.6509115000008,53.6509115000008,53.6509115000008,53.6509115000008,None,,,,,,,,,,,,,,,,,,,,,,,,,,,,,,68,25,42,58,0,70,61.1645337000009,62.84969450000062,55.15123029999995,55.15123029999995,55.15123029999995,55.15123029999995,55.15123029999995,55.15123029999995,55.15123029999995,61.1645337000009,,,,,,,,,,,,３２０,f,２３,2023-05-19_11h29.48.931,RL,2022.2.5,60.059663269326094,
27,43,64,57,0,4,4,4,,,,,,,,,,,None,62.84969450000062,62.84969450000062,62.84969450000062,62.84969450000062,62.84969450000062,62.84969450000062,f,0.3213294000015594,63.20019880000109,63.20019880000109,63.20019880000109,63.20019880000109,63.20019880000109,63.20019880000109,63.49939670000094,64.59905869999966,64.59905869999966,64.59905869999966,64.59905869999966,64.59905869999966,64.59905869999966,64.59905869999966,64.59905869999966,64.59905869999966,64.59905869999966,64.59905869999966,64.59905869999966,64.59905869999966,64.59905869999966,65.99769560000095,65.99769560000095,65.99769560000095,65.99769560000095,65.99769560000095,65.99769560000095,65.99769560000095,64,27,43,57,64,70,65.99769560000095,67.76522470000054,,,,,,,,,,,,,,,,,,,,３２０,f,２３,2023-05-19_11h29.48.931,RL,2022.2.5,60.059663269326094,
35,44,66,63,0,5,5,5,,,,,,,,,,,None,67.76522470000054,67.76522470000054,67.76522470000054,67.76522470000054,67.76522470000054,67.76522470000054,i,0.3326008999993064,68.11706480000066,68.11706480000066,68.11706480000066,68.11706480000066,68.11706480000066,68.11706480000066,68.41536550000092,69.41510019999987,69.41510019999987,69.41510019999987,69.41510019999987,69.41510019999987,69.41510019999987,69.41510019999987,69.41510019999987,69.41510019999987,69.41510019999987,69.41510019999987,69.41510019999987,69.41510019999987,69.41510019999987,70.71311310000056,70.71311310000056,70.71311310000056,70.71311310000056,70.71311310000056,70.71311310000056,70.71311310000056,66,35,44,63,44,70,70.71311310000056,72.58118529999956,,,,,,,,,,,,,,,,,,,,３２０,f,２３,2023-05-19_11h29.48.931,RL,2022.2.5,60.059663269326094,
34,44,56,66,0,6,6,6,,,,,,,,,,,None,72.58118529999956,72.58118529999956,72.58118529999956,72.58118529999956,72.58118529999956,72.58118529999956,f,0.49338799999895855,73.09802010000021,73.09802010000021,73.09802010000021,73.09802010000021,73.09802010000021,73.09802010000021,73.38138980000076,74.3815212999998,74.397994500001,74.397994500001,74.397994500001,74.397994500001,74.397994500001,74.397994500001,74.397994500001,74.397994500001,74.397994500001,74.397994500001,74.397994500001,74.397994500001,74.397994500001,75.69512060000125,75.69512060000125,75.69512060000125,75.69512060000125,75.69512060000125,75.69512060000125,75.69512060000125,56,34,44,66,56,70,75.69512060000125,77.3468367000005,,,,,,,,,,,,,,,,,,,,３２０,f,２３,2023-05-19_11h29.48.931,RL,2022.2.5,60.059663269326094,
30,46,54,64,0,7,7,7,,,,,,,,,,,None,77.3468367000005,77.3468367000005,77.3468367000005,77.3468367000005,77.3468367000005,77.3468367000005,j,0.502658600000359,77.88125140000011,77.88125140000011,77.88125140000011,77.88125140000011,77.88125140000011,77.88125140000011,78.16383630000018,79.71313270000064,79.73002070000075,79.73002070000075,79.73002070000075,79.73002070000075,79.73002070000075,79.73002070000075,79.73002070000075,79.73002070000075,79.73002070000075,79.73002070000075,79.73002070000075,79.73002070000075,79.73002070000075,81.57774280000012,81.57774280000012,81.57774280000012,81.57774280000012,81.57774280000012,81.57774280000012,81.57774280000012,54,30,46,64,64,70,81.57774280000012,83.19542290000027,,,,,,,,,,,,,,,,,,,,３２０,f,２３,2023-05-19_11h29.48.931,RL,2022.2.5,60.059663269326094,
41,41,56,67,0,8,8,8,,,,,,,,,,,None,83.19542290000027,83.19542290000027,83.19542290000027,83.19542290000027,83.19542290000027,83.19542290000027,f,0.5606987999999546,83.77932780000083,83.77932780000083,83.77932780000083,83.77932780000083,83.77932780000083,83.77932780000083,84.06272480000007,85.47906370000055,85.49580810000043,85.49580810000043,85.49580810000043,85.49580810000043,85.49580810000043,85.49580810000043,85.49580810000043,85.49580810000043,85.49580810000043,85.49580810000043,85.49580810000043,85.49580810000043,85.49580810000043,87.20995680000124,87.20995680000124,87.20995680000124,87.20995680000124,87.20995680000124,87.20995680000124,87.20995680000124,56,41,41,67,56,70,87.20995680000124,89.1277925000013,,,,,,,,,,,,,,,,,,,,３２０,f,２３,2023-05-19_11h29.48.931,RL,2022.2.5,60.059663269326094,
44,44,52,59,0,9,9,9,,,,,,,,,,,None,89.1277925000013,89.1277925000013,89.1277925000013,89.1277925000013,89.1277925000013,89.1277925000013,j,0.6452742000001308,89.79507150000063,89.79507150000063,89.79507150000063,89.79507150000063,89.79507150000063,89.79507150000063,90.09466950000024,90.92762729999959,90.92762729999959,90.92762729999959,90.92762729999959,90.92762729999959,90.92762729999959,90.92762729999959,90.92762729999959,90.92762729999959,90.92762729999959,90.92762729999959,90.92762729999959,90.92762729999959,90.92762729999959,92.05936380000094,92.05936380000094,92.05936380000094,92.05936380000094,92.05936380000094,92.05936380000094,92.05936380000094,52,44,44,59,59,70,92.05936380000094,94.0436566999997,,,,,,,,,,,,,,,,,,,,３２０,f,２３,2023-05-19_11h29.48.931,RL,2022.2.5,60.059663269326094,
50,49,54,66,0,10,10,10,,,,,,,,,,,None,94.0436566999997,94.0436566999997,94.0436566999997,94.0436566999997,94.0436566999997,94.0436566999997,r,1.0767133999997895,95.14395859999968,95.14395859999968,95.14395859999968,95.14395859999968,95.14395859999968,95.14395859999968,95.42716500000097,96.31040800000119,96.32693040000049,96.32693040000049,96.32693040000049,96.32693040000049,96.32693040000049,96.32693040000049,96.32693040000049,96.32693040000049,96.32693040000049,96.32693040000049,96.32693040000049,96.32693040000049,96.32693040000049,97.50838380000096,97.50838380000096,97.50838380000096,97.50838380000096,97.50838380000096,97.50838380000096,97.50838380000096,54,50,49,66,50,70,97.50838380000096,99.0928072000006,,,,,,,,,,,,,,,,,,,,３２０,f,２３,2023-05-19_11h29.48.931,RL,2022.2.5,60.059663269326094,
41,51,50,64,0,11,11,11,,,,,,,,,,,None,99.0928072000006,99.0928072000006,99.0928072000006,99.0928072000006,99.0928072000006,99.0928072000006,f,0.8057400999987294,99.92730090000077,99.92730090000077,99.92730090000077,99.92730090000077,99.92730090000077,99.92730090000077,100.20958500000052,102.04262120000021,102.0591639000013,102.0591639000013,102.0591639000013,102.0591639000013,102.0591639000013,102.0591639000013,102.0591639000013,102.0591639000013,102.0591639000013,102.0591639000013,102.0591639000013,102.0591639000013,102.0591639000013,104.19076630000018,104.19076630000018,104.19076630000018,104.19076630000018,104.19076630000018,104.19076630000018,104.19076630000018,50,41,51,64,50,70,104.19076630000018,105.89154310000049,,,,,,,,,,,,,,,,,,,,３２０,f,２３,2023-05-19_11h29.48.931,RL,2022.2.5,60.059663269326094,
47,46,53,61,0,12,12,12,,,,,,,,,,,None,105.89154310000049,105.89154310000049,105.89154310000049,105.89154310000049,105.89154310000049,105.89154310000049,j,0.6620536999998876,106.57539390000056,106.57539390000056,106.57539390000056,106.57539390000056,106.57539390000056,106.57539390000056,106.87499930000013,108.67469900000106,108.67469900000106,108.67469900000106,108.67469900000106,108.67469900000106,108.67469900000106,108.67469900000106,108.67469900000106,108.67469900000106,108.67469900000106,108.67469900000106,108.67469900000106,108.67469900000106,108.67469900000106,110.77265389999957,110.77265389999957,110.77265389999957,110.77265389999957,110.77265389999957,110.77265389999957,110.77265389999957,53,47,46,61,61,70,110.77265389999957,112.74033919999965,,,,,,,,,,,,,,,,,,,,３２０,f,２３,2023-05-19_11h29.48.931,RL,2022.2.5,60.059663269326094,
39,47,52,62,0,13,13,13,,,,,,,,,,,None,112.74033919999965,112.74033919999965,112.74033919999965,112.74033919999965,112.74033919999965,112.74033919999965,j,0.5316297999997914,113.29104560000087,113.29104560000087,113.29104560000087,113.29104560000087,113.29104560000087,113.29104560000087,113.57439610000074,114.80716270000084,114.823687600001,114.823687600001,114.823687600001,114.823687600001,114.823687600001,114.823687600001,114.823687600001,114.823687600001,114.823687600001,114.823687600001,114.823687600001,114.823687600001,114.823687600001,116.35519209999984,116.35519209999984,116.35519209999984,116.35519209999984,116.35519209999984,116.35519209999984,116.35519209999984,52,39,47,62,62,70,116.35519209999984,118.30633130000024,,,,,,,,,,,,,,,,,,,,３２０,f,２３,2023-05-19_11h29.48.931,RL,2022.2.5,60.059663269326094,
47,46,54,60,0,14,14,14,,,,,,,,,,,None,118.30633130000024,118.30633130000024,118.30633130000024,118.30633130000024,118.30633130000024,118.30633130000024,j,0.5361744000001636,118.87318200000118,118.87318200000118,118.87318200000118,118.87318200000118,118.87318200000118,118.87318200000118,119.15623930000038,120.03951510000115,120.05611330000102,120.05611330000102,120.05611330000102,120.05611330000102,120.05611330000102,120.05611330000102,120.05611330000102,120.05611330000102,120.05611330000102,120.05611330000102,120.05611330000102,120.05611330000102,120.05611330000102,121.23774229999981,121.23774229999981,121.23774229999981,121.23774229999981,121.23774229999981,121.23774229999981,121.23774229999981,54,47,46,60,60,70,121.23774229999981,123.00523620000058,,,,,,,,,,,,,,,,,,,,３２０,f,２３,2023-05-19_11h29.48.931,RL,2022.2.5,60.059663269326094,
46,44,55,57,0,15,15,15,,,,,,,,,,,None,123.00523620000058,123.00523620000058,123.00523620000058,123.00523620000058,123.00523620000058,123.00523620000058,i,0.4737230000009731,123.50589560000117,123.50589560000117,123.50589560000117,123.50589560000117,123.50589560000117,123.50589560000117,123.78890750000028,125.75533689999975,125.77169620000132,125.77169620000132,125.77169620000132,125.77169620000132,125.77169620000132,125.77169620000132,125.77169620000132,125.77169620000132,125.77169620000132,125.77169620000132,125.77169620000132,125.77169620000132,125.77169620000132,128.0363862000013,128.0363862000013,128.0363862000013,128.0363862000013,128.0363862000013,128.0363862000013,128.0363862000013,55,46,44,57,44,70,128.0363862000013,129.83736710000085,,,,,,,,,,,,,,,,,,,,３２０,f,２３,2023-05-19_11h29.48.931,RL,2022.2.5,60.059663269326094,
52,48,57,53,0,16,16,16,,,,,,,,,,,None,129.83736710000085,129.83736710000085,129.83736710000085,129.83736710000085,129.83736710000085,129.83736710000085,j,0.2764499999993859,130.14080260000082,130.14080260000082,130.14080260000082,130.14080260000082,130.14080260000082,130.14080260000082,130.42123790000005,132.17076439999983,132.18752880000102,132.18752880000102,132.18752880000102,132.18752880000102,132.18752880000102,132.18752880000102,132.18752880000102,132.18752880000102,132.18752880000102,132.18752880000102,132.18752880000102,132.18752880000102,132.18752880000102,134.23524309999993,134.23524309999993,134.23524309999993,134.23524309999993,134.23524309999993,134.23524309999993,134.23524309999993,57,52,48,53,53,70,134.23524309999993,135.83621479999965,,,,,,,,,,,,,,,,,,,,３２０,f,２３,2023-05-19_11h29.48.931,RL,2022.2.5,60.059663269326094,
45,45,49,61,0,17,17,17,,,,,,,,,,,None,135.83621479999965,135.83621479999965,135.83621479999965,135.83621479999965,135.83621479999965,135.83621479999965,f,0.3740570999998454,136.2367919999997,136.2367919999997,136.2367919999997,136.2367919999997,136.2367919999997,136.2367919999997,136.53691720000097,137.85324140000012,137.85324140000012,137.85324140000012,137.85324140000012,137.85324140000012,137.85324140000012,137.85324140000012,137.85324140000012,137.85324140000012,137.85324140000012,137.85324140000012,137.85324140000012,137.85324140000012,137.85324140000012,139.46756650000134,139.46756650000134,139.46756650000134,139.46756650000134,139.46756650000134,139.46756650000134,139.46756650000134,49,45,45,61,49,70,139.46756650000134,141.0687796000002,,,,,,,,,,,,,,,,,,,,３２０,f,２３,2023-05-19_11h29.48.931,RL,2022.2.5,60.059663269326094,
41,45,55,64,0,18,18,18,,,,,,,,,,,None,141.0687796000002,141.0687796000002,141.0687796000002,141.0687796000002,141.0687796000002,141.0687796000002,r,0.5062151000001904,141.60274670000035,141.60274670000035,141.60274670000035,141.60274670000035,141.60274670000035,141.60274670000035,141.88596739999957,143.01933910000116,143.03557739999997,143.03557739999997,143.03557739999997,143.03557739999997,143.03557739999997,143.03557739999997,143.03557739999997,143.03557739999997,143.03557739999997,143.03557739999997,143.03557739999997,143.03557739999997,143.03557739999997,144.46712740000112,144.46712740000112,144.46712740000112,144.46712740000112,144.46712740000112,144.46712740000112,144.46712740000112,55,41,45,64,41,70,144.46712740000112,146.18470350000098,,,,,,,,,,,,,,,,,,,,３２０,f,２３,2023-05-19_11h29.48.931,RL,2022.2.5,60.059663269326094,
51,39,41,60,0,19,19,19,,,,,,,,,,,None,146.18470350000098,146.18470350000098,146.18470350000098,146.18470350000098,146.18470350000098,146.18470350000098,i,0.8571254999988014,147.06868849999955,147.06868849999955,147.06868849999955,147.06868849999955,147.06868849999955,147.06868849999955,147.3514809999997,148.71782320000057,148.73442419999992,148.73442419999992,148.73442419999992,148.73442419999992,148.73442419999992,148.73442419999992,148.73442419999992,148.73442419999992,148.73442419999992,148.73442419999992,148.73442419999992,148.73442419999992,148.73442419999992,150.3990141000013,150.3990141000013,150.3990141000013,150.3990141000013,150.3990141000013,150.3990141000013,150.3990141000013,41,51,39,60,39,70,150.3990141000013,151.91676290000032,,,,,,,,,,,,,,,,,,,,３２０,f,２３,2023-05-19_11h29.48.931,RL,2022.2.5,60.059663269326094,
55,39,44,61,0,20,20,20,,,,,,,,,,,None,151.91676290000032,151.91676290000032,151.91676290000032,151.91676290000032,151.91676290000032,151.91676290000032,j,0.8362961000002542,152.78884130000006,152.78884130000006,152.78884130000006,152.78884130000006,152.78884130000006,152.78884130000006,153.06704739999986,154.75006620000022,154.76664730000084,154.76664730000084,154.76664730000084,154.76664730000084,154.76664730000084,154.76664730000084,154.76664730000084,154.76664730000084,154.76664730000084,154.76664730000084,154.76664730000084,154.76664730000084,154.76664730000084,156.74796330000027,156.74796330000027,156.74796330000027,156.74796330000027,156.74796330000027,156.74796330000027,156.74796330000027,44,55,39,61,61,70,156.74796330000027,158.59902710000097,,,,,,,,,,,,,,,,,,,,３２０,f,２３,2023-05-19_11h29.48.931,RL,2022.2.5,60.059663269326094,
52,41,49,68,0,21,21,21,,,,,,,,,,,None,158.59902710000097,158.59902710000097,158.59902710000097,158.59902710000097,158.59902710000097,158.59902710000097,f,0.5048685999990994,159.13291690000005,159.13291690000005,159.13291690000005,159.13291690000005,159.13291690000005,159.13291690000005,159.4160423000012,160.4157722,160.43244779999986,160.43244779999986,160.43244779999986,160.43244779999986,160.43244779999986,160.43244779999986,160.43244779999986,160.43244779999986,160.43244779999986,160.43244779999986,160.43244779999986,160.43244779999986,160.43244779999986,161.73083279999992,161.73083279999992,161.73083279999992,161.73083279999992,161.73083279999992,161.73083279999992,161.73083279999992,49,52,41,68,49,70,161.73083279999992,163.23164879999968,,,,,,,,,,,,,,,,,,,,３２０,f,２３,2023-05-19_11h29.48.931,RL,2022.2.5,60.059663269326094,
56,47,60,66,0,22,22,22,,,,,,,,,,,None,163.23164879999968,163.23164879999968,163.23164879999968,163.23164879999968,163.23164879999968,163.23164879999968,j,0.6665835999992851,163.9391897000005,163.9391897000005,163.9391897000005,163.9391897000005,163.9391897000005,163.9391897000005,164.23175040000024,165.89810410000064,165.89810410000064,165.89810410000064,165.89810410000064,165.89810410000064,165.89810410000064,165.89810410000064,165.89810410000064,165.89810410000064,165.89810410000064,165.89810410000064,165.89810410000064,165.89810410000064,165.89810410000064,167.86277250000057,167.86277250000057,167.86277250000057,167.86277250000057,167.86277250000057,167.86277250000057,167.86277250000057,60,56,47,66,66,70,167.86277250000057,169.6139890000013,,,,,,,,,,,,,,,,,,,,３２０,f,２３,2023-05-19_11h29.48.931,RL,2022.2.5,60.059663269326094,
42,49,45,61,0,23,23,23,,,,,,,,,,,None,169.6139890000013,169.6139890000013,169.6139890000013,169.6139890000013,169.6139890000013,169.6139890000013,j,0.587559899999178,170.23157830000127,170.23157830000127,170.23157830000127,170.23157830000127,170.23157830000127,170.23157830000127,170.51403220000066,172.44707879999987,172.46364340000036,172.46364340000036,172.46364340000036,172.46364340000036,172.46364340000036,172.46364340000036,172.46364340000036,172.46364340000036,172.46364340000036,172.46364340000036,172.46364340000036,172.46364340000036,172.46364340000036,174.69488570000067,174.69488570000067,174.69488570000067,174.69488570000067,174.69488570000067,174.69488570000067,174.69488570000067,45,42,49,61,61,70,174.69488570000067,176.59589589999996,,,,,,,,,,,,,,,,,,,,３２０,f,２３,2023-05-19_11h29.48.931,RL,2022.2.5,60.059663269326094,
39,56,54,55,0,24,24,24,,,,,,,,,,,None,176.59589589999996,176.59589589999996,176.59589589999996,176.59589589999996,176.59589589999996,176.59589589999996,j,0.4360811000005924,177.0640469000009,177.0640469000009,177.0640469000009,177.0640469000009,177.0640469000009,177.0640469000009,177.34666430000107,178.9625931999999,178.97911540000132,178.97911540000132,178.97911540000132,178.97911540000132,178.97911540000132,178.97911540000132,178.97911540000132,178.97911540000132,178.97911540000132,178.97911540000132,178.97911540000132,178.97911540000132,178.97911540000132,180.8938651999997,180.8938651999997,180.8938651999997,180.8938651999997,180.8938651999997,180.8938651999997,180.8938651999997,54,39,56,55,55,70,180.8938651999997,182.7781599000009,,,,,,,,,,,,,,,,,,,,３２０,f,２３,2023-05-19_11h29.48.931,RL,2022.2.5,60.059663269326094,
43,52,52,61,0,25,25,25,,,,,,,,,,,None,182.7781599000009,182.7781599000009,182.7781599000009,182.7781599000009,182.7781599000009,182.7781599000009,r,0.5403260000002774,183.3475913000002,183.3475913000002,183.3475913000002,183.3475913000002,183.3475913000002,183.3475913000002,183.64527760000055,184.544880200001,184.544880200001,184.544880200001,184.544880200001,184.544880200001,184.544880200001,184.544880200001,184.544880200001,184.544880200001,184.544880200001,184.544880200001,184.544880200001,184.544880200001,184.544880200001,185.74290649999966,185.74290649999966,185.74290649999966,185.74290649999966,185.74290649999966,185.74290649999966,185.74290649999966,52,43,52,61,43,70,185.74290649999966,187.39431859999968,,,,,,,,,,,,,,,,,,,,３２０,f,２３,2023-05-19_11h29.48.931,RL,2022.2.5,60.059663269326094,
43,45,59,68,0,26,26,26,,,,,,,,,,,None,187.39431859999968,187.39431859999968,187.39431859999968,187.39431859999968,187.39431859999968,187.39431859999968,f,0.7655627000003733,188.18148459999975,188.18148459999975,188.18148459999975,188.18148459999975,188.18148459999975,188.18148459999975,188.4610504000011,189.44408590000057,189.46062960000017,189.46062960000017,189.46062960000017,189.46062960000017,189.46062960000017,189.46062960000017,189.46062960000017,189.46062960000017,189.46062960000017,189.46062960000017,189.46062960000017,189.46062960000017,189.46062960000017,190.74216890000025,190.74216890000025,190.74216890000025,190.74216890000025,190.74216890000025,190.74216890000025,190.74216890000025,59,43,45,68,59,70,190.74216890000025,192.35962400000062,,,,,,,,,,,,,,,,,,,,３２０,f,２３,2023-05-19_11h29.48.931,RL,2022.2.5,60.059663269326094,
38,49,56,77,0,27,27,27,,,,,,,,,,,None,192.35962400000062,192.35962400000062,192.35962400000062,192.35962400000062,192.35962400000062,192.35962400000062,j,0.4594858000000386,192.84549230000084,192.84549230000084,192.84549230000084,192.84549230000084,192.84549230000084,192.84549230000084,193.1267884000008,194.9097339,194.94301470000028,194.94301470000028,194.94301470000028,194.94301470000028,194.94301470000028,194.94301470000028,194.94301470000028,194.94301470000028,194.94301470000028,194.94301470000028,194.94301470000028,194.94301470000028,194.94301470000028,197.02453340000102,197.02453340000102,197.02453340000102,197.02453340000102,197.02453340000102,197.02453340000102,197.02453340000102,56,38,49,77,77,70,197.02453340000102,198.60888330000125,,,,,,,,,,,,,,,,,,,,３２０,f,２３,2023-05-19_11h29.48.931,RL,2022.2.5,60.059663269326094,
39,49,46,65,0,28,28,28,,,,,,,,,,,None,198.60888330000125,198.60888330000125,198.60888330000125,198.60888330000125,198.60888330000125,198.60888330000125,j,0.41445590000148513,199.0462731000007,199.0462731000007,199.0462731000007,199.0462731000007,199.0462731000007,199.0462731000007,199.34239160000106,200.15878320000047,200.15878320000047,200.15878320000047,200.15878320000047,200.15878320000047,200.15878320000047,200.15878320000047,200.15878320000047,200.15878320000047,200.15878320000047,200.15878320000047,200.15878320000047,200.15878320000047,200.15878320000047,201.27379910000127,201.27379910000127,201.27379910000127,201.27379910000127,201.27379910000127,201.27379910000127,201.27379910000127,46,39,49,65,65,70,201.27379910000127,202.89184730000125,,,,,,,,,,,,,,,,,,,,３２０,f,２３,2023-05-19_11h29.48.931,RL,2022.2.5,60.059663269326094,
51,47,50,64,0,29,29,29,,,,,,,,,,,None,202.89184730000125,202.89184730000125,202.89184730000125,202.89184730000125,202.89184730000125,202.89184730000125,j,0.630329100000381,203.54210930000045,203.54210930000045,203.54210930000045,203.54210930000045,203.54210930000045,203.54210930000045,203.84171600000082,205.17480220000107,205.17480220000107,205.17480220000107,205.17480220000107,205.17480220000107,205.17480220000107,205.17480220000107,205.17480220000107,205.17480220000107,205.17480220000107,205.17480220000107,205.17480220000107,205.17480220000107,205.17480220000107,206.80595650000032,206.80595650000032,206.80595650000032,206.80595650000032,206.80595650000032,206.80595650000032,206.80595650000032,50,51,47,64,64,70,206.80595650000032,208.64048809999986,,,,,,,,,,,,,,,,,,,,３２０,f,２３,2023-05-19_11h29.48.931,RL,2022.2.5,60.059663269326094,
44,44,49,61,0,30,30,30,,,,,,,,,,,None,208.64048809999986,208.64048809999986,208.64048809999986,208.64048809999986,208.64048809999986,208.64048809999986,i,0.5313473000005615,209.1907785000003,209.1907785000003,209.1907785000003,209.1907785000003,209.1907785000003,209.1907785000003,209.4740485000002,210.85707619999994,210.8736194000012,210.8736194000012,210.8736194000012,210.8736194000012,210.8736194000012,210.8736194000012,210.8736194000012,210.8736194000012,210.8736194000012,210.8736194000012,210.8736194000012,210.8736194000012,210.8736194000012,212.55507800000123,212.55507800000123,212.55507800000123,212.55507800000123,212.55507800000123,212.55507800000123,212.55507800000123,49,44,44,61,44,70,212.55507800000123,214.07271650000075,,,,,,,,,,,,,,,,,,,,３２０,f,２３,2023-05-19_11h29.48.931,RL,2022.2.5,60.059663269326094,
48,56,56,59,0,31,31,31,,,,,,,,,,,None,214.07271650000075,214.07271650000075,214.07271650000075,214.07271650000075,214.07271650000075,214.07271650000075,r,0.6577302000005147,214.75671930000135,214.75671930000135,214.75671930000135,214.75671930000135,214.75671930000135,214.75671930000135,215.0397243999996,216.20608770000035,216.22251810000125,216.22251810000125,216.22251810000125,216.22251810000125,216.22251810000125,216.22251810000125,216.22251810000125,216.22251810000125,216.22251810000125,216.22251810000125,216.22251810000125,216.22251810000125,216.22251810000125,217.68732760000057,217.68732760000057,217.68732760000057,217.68732760000057,217.68732760000057,217.68732760000057,217.68732760000057,56,48,56,59,48,70,217.68732760000057,219.3050228000011,,,,,,,,,,,,,,,,,,,,３２０,f,２３,2023-05-19_11h29.48.931,RL,2022.2.5,60.059663269326094,
39,59,44,64,0,32,32,32,,,,,,,,,,,None,219.3050228000011,219.3050228000011,219.3050228000011,219.3050228000011,219.3050228000011,219.3050228000011,f,0.3703521000006731,219.70575280000048,219.70575280000048,219.70575280000048,219.70575280000048,219.70575280000048,219.70575280000048,219.98876349999955,221.72180769999977,221.73841830000129,221.73841830000129,221.73841830000129,221.73841830000129,221.73841830000129,221.73841830000129,221.73841830000129,221.73841830000129,221.73841830000129,221.73841830000129,221.73841830000129,221.73841830000129,221.73841830000129,223.77023590000135,223.77023590000135,223.77023590000135,223.77023590000135,223.77023590000135,223.77023590000135,223.77023590000135,44,39,59,64,44,70,223.77023590000135,225.3872965999999,,,,,,,,,,,,,,,,,,,,３２０,f,２３,2023-05-19_11h29.48.931,RL,2022.2.5,60.059663269326094,
32,43,47,63,0,33,33,33,,,,,,,,,,,None,225.3872965999999,225.3872965999999,225.3872965999999,225.3872965999999,225.3872965999999,225.3872965999999,r,0.27626710000004095,225.68799000000035,225.68799000000035,225.68799000000035,225.68799000000035,225.68799000000035,225.68799000000035,225.98786910000126,227.50417740000012,227.50417740000012,227.50417740000012,227.50417740000012,227.50417740000012,227.50417740000012,227.50417740000012,227.50417740000012,227.50417740000012,227.50417740000012,227.50417740000012,227.50417740000012,227.50417740000012,227.50417740000012,229.319158100001,229.319158100001,229.319158100001,229.319158100001,229.319158100001,229.319158100001,229.319158100001,47,32,43,63,32,70,229.319158100001,231.1198715999999,,,,,,,,,,,,,,,,,,,,３２０,f,２３,2023-05-19_11h29.48.931,RL,2022.2.5,60.059663269326094,
43,56,46,61,0,34,34,34,,,,,,,,,,,None,231.1198715999999,231.1198715999999,231.1198715999999,231.1198715999999,231.1198715999999,231.1198715999999,i,0.2715155000005325,231.42280530000062,231.42280530000062,231.42280530000062,231.42280530000062,231.42280530000062,231.42280530000062,231.7204039999997,232.6199231999999,232.6199231999999,232.6199231999999,232.6199231999999,232.6199231999999,232.6199231999999,232.6199231999999,232.6199231999999,232.6199231999999,232.6199231999999,232.6199231999999,232.6199231999999,232.6199231999999,232.6199231999999,233.8182878000007,233.8182878000007,233.8182878000007,233.8182878000007,233.8182878000007,233.8182878000007,233.8182878000007,46,43,56,61,56,70,233.8182878000007,235.65276650000123,,,,,,,,,,,,,,,,,,,,３２０,f,２３,2023-05-19_11h29.48.931,RL,2022.2.5,60.059663269326094,
37,48,46,59,0,35,35,35,,,,,,,,,,,None,235.65276650000123,235.65276650000123,235.65276650000123,235.65276650000123,235.65276650000123,235.65276650000123,i,0.24715269999978773,235.9195677000007,235.9195677000007,235.9195677000007,235.9195677000007,235.9195677000007,235.9195677000007,236.20298449999973,237.38600680000127,237.40249960000074,237.40249960000074,237.40249960000074,237.40249960000074,237.40249960000074,237.40249960000074,237.40249960000074,237.40249960000074,237.40249960000074,237.40249960000074,237.40249960000074,237.40249960000074,237.40249960000074,238.88381649999974,238.88381649999974,238.88381649999974,238.88381649999974,238.88381649999974,238.88381649999974,238.88381649999974,46,37,48,59,48,70,238.88381649999974,240.7511596000004,,,,,,,,,,,,,,,,,,,,３２０,f,２３,2023-05-19_11h29.48.931,RL,2022.2.5,60.059663269326094,
39,54,45,57,0,36,36,36,,,,,,,,,,,None,240.7511596000004,240.7511596000004,240.7511596000004,240.7511596000004,240.7511596000004,240.7511596000004,j,0.2738284000006388,241.05204670000057,241.05204670000057,241.05204670000057,241.05204670000057,241.05204670000057,241.05204670000057,241.3350188000004,242.91803000000073,242.93491670000003,242.93491670000003,242.93491670000003,242.93491670000003,242.93491670000003,242.93491670000003,242.93491670000003,242.93491670000003,242.93491670000003,242.93491670000003,242.93491670000003,242.93491670000003,242.93491670000003,244.8160669000008,244.8160669000008,244.8160669000008,244.8160669000008,244.8160669000008,244.8160669000008,244.8160669000008,45,39,54,57,57,70,244.8160669000008,246.60052370000085,,,,,,,,,,,,,,,,,,,,３２０,f,２３,2023-05-19_11h29.48.931,RL,2022.2.5,60.059663269326094,
45,55,46,56,0,37,37,37,,,,,,,,,,,None,246.60052370000085,246.60052370000085,246.60052370000085,246.60052370000085,246.60052370000085,246.60052370000085,j,0.2686690999998973,246.9028271999996,246.9028271999996,246.9028271999996,246.9028271999996,246.9028271999996,246.9028271999996,247.18391340000016,249.0503461999997,249.0668112000003,249.0668112000003,249.0668112000003,249.0668112000003,249.0668112000003,249.0668112000003,249.0668112000003,249.0668112000003,249.0668112000003,249.0668112000003,249.0668112000003,249.0668112000003,249.0668112000003,251.23147790000075,251.23147790000075,251.23147790000075,251.23147790000075,251.23147790000075,251.23147790000075,251.23147790000075,46,45,55,56,56,70,251.23147790000075,252.74915330000113,,,,,,,,,,,,,,,,,,,,３２０,f,２３,2023-05-19_11h29.48.931,RL,2022.2.5,60.059663269326094,
41,50,46,56,0,38,38,38,,,,,,,,,,,None,252.74915330000113,252.74915330000113,252.74915330000113,252.74915330000113,252.74915330000113,252.74915330000113,f,0.27921649999916553,253.05056150000019,253.05056150000019,253.05056150000019,253.05056150000019,253.05056150000019,253.05056150000019,253.33299100000113,254.4661881000011,254.48283120000087,254.48283120000087,254.48283120000087,254.48283120000087,254.48283120000087,254.48283120000087,254.48283120000087,254.48283120000087,254.48283120000087,254.48283120000087,254.48283120000087,254.48283120000087,254.48283120000087,255.91422740000053,255.91422740000053,255.91422740000053,255.91422740000053,255.91422740000053,255.91422740000053,255.91422740000053,46,41,50,56,46,70,255.91422740000053,257.631769900001,,,,,,,,,,,,,,,,,,,,３２０,f,２３,2023-05-19_11h29.48.931,RL,2022.2.5,60.059663269326094,
38,56,48,53,0,39,39,39,,,,,,,,,,,None,257.631769900001,257.631769900001,257.631769900001,257.631769900001,257.631769900001,257.631769900001,i,0.564934699999867,258.21581739999965,258.21581739999965,258.21581739999965,258.21581739999965,258.21581739999965,258.21581739999965,258.4989075000012,259.31518739999956,259.3318842000008,259.3318842000008,259.3318842000008,259.3318842000008,259.3318842000008,259.3318842000008,259.3318842000008,259.3318842000008,259.3318842000008,259.3318842000008,259.3318842000008,259.3318842000008,259.3318842000008,260.4465250000012,260.4465250000012,260.4465250000012,260.4465250000012,260.4465250000012,260.4465250000012,260.4465250000012,48,38,56,53,56,70,260.4465250000012,262.2975929000004,,,,,,,,,,,,,,,,,,,,３２０,f,２３,2023-05-19_11h29.48.931,RL,2022.2.5,60.059663269326094,
38,62,49,55,0,40,40,40,,,,,,,,,,,None,262.2975929000004,262.2975929000004,262.2975929000004,262.2975929000004,262.2975929000004,262.2975929000004,j,0.2788081000016973,262.59831380000105,262.59831380000105,262.59831380000105,262.59831380000105,262.59831380000105,262.59831380000105,262.8814763999999,263.9815176000011,263.99772049999956,263.99772049999956,263.99772049999956,263.99772049999956,263.99772049999956,263.99772049999956,263.99772049999956,263.99772049999956,263.99772049999956,263.99772049999956,263.99772049999956,263.99772049999956,263.99772049999956,265.3957855999997,265.3957855999997,265.3957855999997,265.3957855999997,265.3957855999997,265.3957855999997,265.3957855999997,49,38,62,55,55,70,265.3957855999997,267.33007400000133,,,,,,,,,,,,,,,,,,,,３２０,f,２３,2023-05-19_11h29.48.931,RL,2022.2.5,60.059663269326094,
44,58,40,64,0,41,41,41,,,,,,,,,,,None,267.33007400000133,267.33007400000133,267.33007400000133,267.33007400000133,267.33007400000133,267.33007400000133,i,0.2960665999999037,267.6478691000011,267.6478691000011,267.6478691000011,267.6478691000011,267.6478691000011,267.6478691000011,267.9473149000005,269.63006850000056,269.63006850000056,269.63006850000056,269.63006850000056,269.63006850000056,269.63006850000056,269.63006850000056,269.63006850000056,269.63006850000056,269.63006850000056,269.63006850000056,269.63006850000056,269.63006850000056,269.63006850000056,271.6113492000004,271.6113492000004,271.6113492000004,271.6113492000004,271.6113492000004,271.6113492000004,271.6113492000004,40,44,58,64,58,70,271.6113492000004,273.4124419,,,,,,,,,,,,,,,,,,,,３２０,f,２３,2023-05-19_11h29.48.931,RL,2022.2.5,60.059663269326094,
55,60,48,53,0,42,42,42,,,,,,,,,,,None,273.4124419,273.4124419,273.4124419,273.4124419,273.4124419,273.4124419,j,0.306606300000567,273.74631860000045,273.74631860000045,273.74631860000045,273.74631860000045,273.74631860000045,273.74631860000045,274.0293263000003,275.3790071000003,275.39574019999964,275.39574019999964,275.39574019999964,275.39574019999964,275.39574019999964,275.39574019999964,275.39574019999964,275.39574019999964,275.39574019999964,275.39574019999964,275.39574019999964,275.39574019999964,275.39574019999964,277.0439365000002,277.0439365000002,277.0439365000002,277.0439365000002,277.0439365000002,277.0439365000002,277.0439365000002,48,55,60,53,53,70,277.0439365000002,278.76153259999955,,,,,,,,,,,,,,,,,,,,３２０,f,２３,2023-05-19_11h29.48.931,RL,2022.2.5,60.059663269326094,
53,60,44,61,0,43,43,43,,,,,,,,,,,None,278.76153259999955,278.76153259999955,278.76153259999955,278.76153259999955,278.76153259999955,278.76153259999955,i,0.3996974000001501,279.17864480000026,279.17864480000026,279.17864480000026,279.17864480000026,279.17864480000026,279.17864480000026,279.4619160000002,280.5448548000004,280.5614146000007,280.5614146000007,280.5614146000007,280.5614146000007,280.5614146000007,280.5614146000007,280.5614146000007,280.5614146000007,280.5614146000007,280.5614146000007,280.5614146000007,280.5614146000007,280.5614146000007,281.94304530000045,281.94304530000045,281.94304530000045,281.94304530000045,281.94304530000045,281.94304530000045,281.94304530000045,44,53,60,61,60,70,281.94304530000045,283.6938643000012,,,,,,,,,,,,,,,,,,,,３２０,f,２３,2023-05-19_11h29.48.931,RL,2022.2.5,60.059663269326094,
50,69,50,59,0,44,44,44,,,,,,,,,,,None,283.6938643000012,283.6938643000012,283.6938643000012,283.6938643000012,283.6938643000012,283.6938643000012,i,0.27977649999957066,283.99450270000125,283.99450270000125,283.99450270000125,283.99450270000125,283.99450270000125,283.99450270000125,284.2778513000012,285.4607553000005,285.4777525999998,285.4777525999998,285.4777525999998,285.4777525999998,285.4777525999998,285.4777525999998,285.4777525999998,285.4777525999998,285.4777525999998,285.4777525999998,285.4777525999998,285.4777525999998,285.4777525999998,286.95879440000135,286.95879440000135,286.95879440000135,286.95879440000135,286.95879440000135,286.95879440000135,286.95879440000135,50,50,69,59,69,70,286.95879440000135,288.5767400000004,,,,,,,,,,,,,,,,,,,,３２０,f,２３,2023-05-19_11h29.48.931,RL,2022.2.5,60.059663269326094,
49,50,55,48,0,45,45,45,,,,,,,,,,,None,288.5767400000004,288.5767400000004,288.5767400000004,288.5767400000004,288.5767400000004,288.5767400000004,i,0.339153199998691,288.9436278000012,288.9436278000012,288.9436278000012,288.9436278000012,288.9436278000012,288.9436278000012,289.2269021000011,290.54343719999997,290.5599736000004,290.5599736000004,290.5599736000004,290.5599736000004,290.5599736000004,290.5599736000004,290.5599736000004,290.5599736000004,290.5599736000004,290.5599736000004,290.5599736000004,290.5599736000004,290.5599736000004,292.15784990000066,292.15784990000066,292.15784990000066,292.15784990000066,292.15784990000066,292.15784990000066,292.15784990000066,55,49,50,48,50,70,292.15784990000066,294.1421437000008,,,,,,,,,,,,,,,,,,,,３２０,f,２３,2023-05-19_11h29.48.931,RL,2022.2.5,60.059663269326094,
56,64,48,56,0,46,46,46,,,,,,,,,,,None,294.1421437000008,294.1421437000008,294.1421437000008,294.1421437000008,294.1421437000008,294.1421437000008,r,0.24907639999946696,294.40972800000054,294.40972800000054,294.40972800000054,294.40972800000054,294.40972800000054,294.40972800000054,294.6923930000012,295.8591069000013,295.8757523000004,295.8757523000004,295.8757523000004,295.8757523000004,295.8757523000004,295.8757523000004,295.8757523000004,295.8757523000004,295.8757523000004,295.8757523000004,295.8757523000004,295.8757523000004,295.8757523000004,297.3402186000003,297.3402186000003,297.3402186000003,297.3402186000003,297.3402186000003,297.3402186000003,297.3402186000003,48,56,64,56,56,70,297.3402186000003,299.30793860000085,,,,,,,,,,,,,,,,,,,,３２０,f,２３,2023-05-19_11h29.48.931,RL,2022.2.5,60.059663269326094,
52,62,46,53,0,47,47,47,,,,,,,,,,,None,299.30793860000085,299.30793860000085,299.30793860000085,299.30793860000085,299.30793860000085,299.30793860000085,r,0.2617735999992874,299.5918330000004,299.5918330000004,299.5918330000004,299.5918330000004,299.5918330000004,299.5918330000004,299.87486160000117,301.02458620000107,301.0411445999998,301.0411445999998,301.0411445999998,301.0411445999998,301.0411445999998,301.0411445999998,301.0411445999998,301.0411445999998,301.0411445999998,301.0411445999998,301.0411445999998,301.0411445999998,301.0411445999998,302.489426600001,302.489426600001,302.489426600001,302.489426600001,302.489426600001,302.489426600001,302.489426600001,46,52,62,53,52,70,302.489426600001,304.4407006000001,,,,,,,,,,,,,,,,,,,,３２０,f,２３,2023-05-19_11h29.48.931,RL,2022.2.5,60.059663269326094,
57,59,50,53,0,48,48,48,,,,,,,,,,,None,304.4407006000001,304.4407006000001,304.4407006000001,304.4407006000001,304.4407006000001,304.4407006000001,r,0.4196209000001545,304.8908478000012,304.8908478000012,304.8908478000012,304.8908478000012,304.8908478000012,304.8908478000012,305.17417639999985,307.10716030000003,307.12349840000024,307.12349840000024,307.12349840000024,307.12349840000024,307.12349840000024,307.12349840000024,307.12349840000024,307.12349840000024,307.12349840000024,307.12349840000024,307.12349840000024,307.12349840000024,307.12349840000024,309.354680800001,309.354680800001,309.354680800001,309.354680800001,309.354680800001,309.354680800001,309.354680800001,50,57,59,53,57,70,309.354680800001,310.9062083000008,,,,,,,,,,,,,,,,,,,,３２０,f,２３,2023-05-19_11h29.48.931,RL,2022.2.5,60.059663269326094,
55,60,53,46,0,49,49,49,,,,,,,,,,,None,310.9062083000008,310.9062083000008,310.9062083000008,310.9062083000008,310.9062083000008,310.9062083000008,r,0.29607469999973546,311.22323529999994,311.22323529999994,311.22323529999994,311.22323529999994,311.22323529999994,311.22323529999994,311.50618399999985,312.5227289000013,312.539369600001,312.539369600001,312.539369600001,312.539369600001,312.539369600001,312.539369600001,312.539369600001,312.539369600001,312.539369600001,312.539369600001,312.539369600001,312.539369600001,312.539369600001,313.85438630000135,313.85438630000135,313.85438630000135,313.85438630000135,313.85438630000135,313.85438630000135,313.85438630000135,53,55,60,46,55,70,313.85438630000135,315.85499189999973,,,,,,,,,,,,,,,,,,,,３２０,f,２３,2023-05-19_11h29.48.931,RL,2022.2.5,60.059663269326094,
62,59,45,45,0,50,50,50,,,,,,,,,,,None,315.85499189999973,315.85499189999973,315.85499189999973,315.85499189999973,315.85499189999973,315.85499189999973,j,0.49296250000043074,316.3724473000002,316.3724473000002,316.3724473000002,316.3724473000002,316.3724473000002,316.3724473000002,316.65535810000074,318.07176150000123,318.0883568999998,318.0883568999998,318.0883568999998,318.0883568999998,318.0883568999998,318.0883568999998,318.0883568999998,318.0883568999998,318.0883568999998,318.0883568999998,318.0883568999998,318.0883568999998,318.0883568999998,319.80317579999974,319.80317579999974,319.80317579999974,319.80317579999974,319.80317579999974,319.80317579999974,319.80317579999974,45,62,59,45,45,70,319.80317579999974,321.8039742000001,,,,,,,,,,,,,,,,,,,,３２０,f,２３,2023-05-19_11h29.48.931,RL,2022.2.5,60.059663269326094,
50,69,49,54,0,51,51,51,,,,,,,,,,,None,321.8039742000001,321.8039742000001,321.8039742000001,321.8039742000001,321.8039742000001,321.8039742000001,r,0.5529724000007263,322.38980919999995,322.38980919999995,322.38980919999995,322.38980919999995,322.38980919999995,322.38980919999995,322.67075600000135,323.83747510000103,323.8539602000001,323.8539602000001,323.8539602000001,323.8539602000001,323.8539602000001,323.8539602000001,323.8539602000001,323.8539602000001,323.8539602000001,323.8539602000001,323.8539602000001,323.8539602000001,323.8539602000001,325.31870400000116,325.31870400000116,325.31870400000116,325.31870400000116,325.31870400000116,325.31870400000116,325.31870400000116,49,50,69,54,50,70,325.31870400000116,326.91963080000096,,,,,,,,,,,,,,,,,,,,３２０,f,２３,2023-05-19_11h29.48.931,RL,2022.2.5,60.059663269326094,
39,63,54,50,0,52,52,52,,,,,,,,,,,None,326.91963080000096,326.91963080000096,326.91963080000096,326.91963080000096,326.91963080000096,326.91963080000096,f,0.26976209999884304,327.2205933000005,327.2205933000005,327.2205933000005,327.2205933000005,327.2205933000005,327.2205933000005,327.50337690000015,328.8031522000001,328.82001070000115,328.82001070000115,328.82001070000115,328.82001070000115,328.82001070000115,328.82001070000115,328.82001070000115,328.82001070000115,328.82001070000115,328.82001070000115,328.82001070000115,328.82001070000115,328.82001070000115,330.41837080000005,330.41837080000005,330.41837080000005,330.41837080000005,330.41837080000005,330.41837080000005,330.41837080000005,54,39,63,50,54,70,330.41837080000005,332.2690068000011,,,,,,,,,,,,,,,,,,,,３２０,f,２３,2023-05-19_11h29.48.931,RL,2022.2.5,60.059663269326094,
46,61,58,45,0,53,53,53,,,,,,,,,,,None,332.2690068000011,332.2690068000011,332.2690068000011,332.2690068000011,332.2690068000011,332.2690068000011,f,0.25540970000110974,332.5527175999996,332.5527175999996,332.5527175999996,332.5527175999996,332.5527175999996,332.5527175999996,332.83612429999994,334.08574729999964,334.1023827000008,334.1023827000008,334.1023827000008,334.1023827000008,334.1023827000008,334.1023827000008,334.1023827000008,334.1023827000008,334.1023827000008,334.1023827000008,334.1023827000008,334.1023827000008,334.1023827000008,335.6503584000002,335.6503584000002,335.6503584000002,335.6503584000002,335.6503584000002,335.6503584000002,335.6503584000002,58,46,61,45,58,70,335.6503584000002,337.2345716,,,,,,,,,,,,,,,,,,,,３２０,f,２３,2023-05-19_11h29.48.931,RL,2022.2.5,60.059663269326094,
41,59,57,52,0,54,54,54,,,,,,,,,,,None,337.2345716,337.2345716,337.2345716,337.2345716,337.2345716,337.2345716,f,0.6986240999995061,337.9518698000011,337.9518698000011,337.9518698000011,337.9518698000011,337.9518698000011,337.9518698000011,338.234763800001,339.7011940000011,339.7178304000008,339.7178304000008,339.7178304000008,339.7178304000008,339.7178304000008,339.7178304000008,339.7178304000008,339.7178304000008,339.7178304000008,339.7178304000008,339.7178304000008,339.7178304000008,339.7178304000008,341.48248799999965,341.48248799999965,341.48248799999965,341.48248799999965,341.48248799999965,341.48248799999965,341.48248799999965,57,41,59,52,57,70,341.48248799999965,343.3668056000006,,,,,,,,,,,,,,,,,,,,３２０,f,２３,2023-05-19_11h29.48.931,RL,2022.2.5,60.059663269326094,
36,70,54,64,0,55,55,55,,,,,,,,,,,None,343.3668056000006,343.3668056000006,343.3668056000006,343.3668056000006,343.3668056000006,343.3668056000006,i,0.5021097000008012,343.9056044000008,343.9056044000008,343.9056044000008,343.9056044000008,343.9056044000008,343.9056044000008,344.18385599999965,346.0169444000003,346.0335508999997,346.0335508999997,346.0335508999997,346.0335508999997,346.0335508999997,346.0335508999997,346.0335508999997,346.0335508999997,346.0335508999997,346.0335508999997,346.0335508999997,346.0335508999997,346.0335508999997,348.1648937000009,348.1648937000009,348.1648937000009,348.1648937000009,348.1648937000009,348.1648937000009,348.1648937000009,54,36,70,64,70,70,348.1648937000009,349.8493724,,,,,,,,,,,,,,,,,,,,３２０,f,２３,2023-05-19_11h29.48.931,RL,2022.2.5,60.059663269326094,
48,60,62,54,0,56,56,56,,,,,,,,,,,None,349.8493724,349.8493724,349.8493724,349.8493724,349.8493724,349.8493724,i,0.2610335999997915,350.1328716000007,350.1328716000007,350.1328716000007,350.1328716000007,350.1328716000007,350.1328716000007,350.4161225000007,352.0659792000006,352.0828371000007,352.0828371000007,352.0828371000007,352.0828371000007,352.0828371000007,352.0828371000007,352.0828371000007,352.0828371000007,352.0828371000007,352.0828371000007,352.0828371000007,352.0828371000007,352.0828371000007,354.03042319999986,354.03042319999986,354.03042319999986,354.03042319999986,354.03042319999986,354.03042319999986,354.03042319999986,62,48,60,54,60,70,354.03042319999986,355.71501230000104,,,,,,,,,,,,,,,,,,,,３２０,f,２３,2023-05-19_11h29.48.931,RL,2022.2.5,60.059663269326094,
44,54,58,54,0,57,57,57,,,,,,,,,,,None,355.71501230000104,355.71501230000104,355.71501230000104,355.71501230000104,355.71501230000104,355.71501230000104,i,0.3395061999999598,356.08204230000047,356.08204230000047,356.08204230000047,356.08204230000047,356.08204230000047,356.08204230000047,356.36489360000087,357.46496900000056,357.48150259999966,357.48150259999966,357.48150259999966,357.48150259999966,357.48150259999966,357.48150259999966,357.48150259999966,357.48150259999966,357.48150259999966,357.48150259999966,357.48150259999966,357.48150259999966,357.48150259999966,358.87951930000054,358.87951930000054,358.87951930000054,358.87951930000054,358.87951930000054,358.87951930000054,358.87951930000054,58,44,54,54,54,70,358.87951930000054,360.6307444000013,,,,,,,,,,,,,,,,,,,,３２０,f,２３,2023-05-19_11h29.48.931,RL,2022.2.5,60.059663269326094,
47,53,67,48,0,58,58,58,,,,,,,,,,,None,360.6307444000013,360.6307444000013,360.6307444000013,360.6307444000013,360.6307444000013,360.6307444000013,j,0.2990453999991587,360.94822209999984,360.94822209999984,360.94822209999984,360.94822209999984,360.94822209999984,360.94822209999984,361.2309573000002,362.3809454000002,362.43887280000126,362.43887280000126,362.43887280000126,362.43887280000126,362.43887280000126,362.43887280000126,362.43887280000126,362.43887280000126,362.43887280000126,362.43887280000126,362.43887280000126,362.43887280000126,362.43887280000126,363.8954375000012,363.8954375000012,363.8954375000012,363.8954375000012,363.8954375000012,363.8954375000012,363.8954375000012,67,47,53,48,48,70,363.8954375000012,365.78014280000025,,,,,,,,,,,,,,,,,,,,３２０,f,２３,2023-05-19_11h29.48.931,RL,2022.2.5,60.059663269326094,
44,58,61,44,0,59,59,59,,,,,,,,,,,None,365.78014280000025,365.78014280000025,365.78014280000025,365.78014280000025,365.78014280000025,365.78014280000025,r,0.5481189000001905,366.3469504000004,366.3469504000004,366.3469504000004,366.3469504000004,366.3469504000004,366.3469504000004,366.6465601,368.46310220000123,368.46310220000123,368.46310220000123,368.46310220000123,368.46310220000123,368.46310220000123,368.46310220000123,368.46310220000123,368.46310220000123,368.46310220000123,368.46310220000123,368.46310220000123,368.46310220000123,368.46310220000123,370.57767950000016,370.57767950000016,370.57767950000016,370.57767950000016,370.57767950000016,370.57767950000016,370.57767950000016,61,44,58,44,44,70,370.57767950000016,372.2618063000009,,,,,,,,,,,,,,,,,,,,３２０,f,２３,2023-05-19_11h29.48.931,RL,2022.2.5,60.059663269326094,
52,60,60,50,0,60,60,60,,,,,,,,,,,None,372.2618063000009,372.2618063000009,372.2618063000009,372.2618063000009,372.2618063000009,372.2618063000009,f,0.3321581000000151,372.61236550000103,372.61236550000103,372.61236550000103,372.61236550000103,372.61236550000103,372.61236550000103,372.8955065000009,374.4119105999998,374.4284564999998,374.4284564999998,374.4284564999998,374.4284564999998,374.4284564999998,374.4284564999998,374.4284564999998,374.4284564999998,374.4284564999998,374.4284564999998,374.4284564999998,374.4284564999998,374.4284564999998,376.2266158000002,376.2266158000002,376.2266158000002,376.2266158000002,376.2266158000002,376.2266158000002,376.2266158000002,60,52,60,50,60,70,376.2266158000002,378.0608685999996,,,,,,,,,,,,,,,,,,,,３２０,f,２３,2023-05-19_11h29.48.931,RL,2022.2.5,60.059663269326094,
46,63,60,56,0,61,61,61,,,,,,,,,,,None,378.0608685999996,378.0608685999996,378.0608685999996,378.0608685999996,378.0608685999996,378.0608685999996,f,0.27392349999900034,378.36148010000034,378.36148010000034,378.36148010000034,378.36148010000034,378.36148010000034,378.36148010000034,378.6444532000005,379.52776240000094,379.5443997000002,379.5443997000002,379.5443997000002,379.5443997000002,379.5443997000002,379.5443997000002,379.5443997000002,379.5443997000002,379.5443997000002,379.5443997000002,379.5443997000002,379.5443997000002,379.5443997000002,380.7256945000008,380.7256945000008,380.7256945000008,380.7256945000008,380.7256945000008,380.7256945000008,380.7256945000008,60,46,63,56,60,70,380.7256945000008,382.29341790000035,,,,,,,,,,,,,,,,,,,,３２０,f,２３,2023-05-19_11h29.48.931,RL,2022.2.5,60.059663269326094,
44,62,64,49,0,62,62,62,,,,,,,,,,,None,382.29341790000035,382.29341790000035,382.29341790000035,382.29341790000035,382.29341790000035,382.29341790000035,f,0.29609329999948386,382.6108256999996,382.6108256999996,382.6108256999996,382.6108256999996,382.6108256999996,382.6108256999996,382.8936743000013,383.6936533999997,383.71027010000034,383.71027010000034,383.71027010000034,383.71027010000034,383.71027010000034,383.71027010000034,383.71027010000034,383.71027010000034,383.71027010000034,383.71027010000034,383.71027010000034,383.71027010000034,383.71027010000034,384.8083712000007,384.8083712000007,384.8083712000007,384.8083712000007,384.8083712000007,384.8083712000007,384.8083712000007,64,44,62,49,64,70,384.8083712000007,386.57602060000136,,,,,,,,,,,,,,,,,,,,３２０,f,２３,2023-05-19_11h29.48.931,RL,2022.2.5,60.059663269326094,
46,69,76,53,0,63,63,63,,,,,,,,,,,None,386.57602060000136,386.57602060000136,386.57602060000136,386.57602060000136,386.57602060000136,386.57602060000136,f,0.27805910000097356,386.8779400000003,386.8779400000003,386.8779400000003,386.8779400000003,386.8779400000003,386.8779400000003,387.15956820000065,388.3095451999998,388.32605220000005,388.32605220000005,388.32605220000005,388.32605220000005,388.32605220000005,388.32605220000005,388.32605220000005,388.32605220000005,388.32605220000005,388.32605220000005,388.32605220000005,388.32605220000005,388.32605220000005,389.77438170000096,389.77438170000096,389.77438170000096,389.77438170000096,389.77438170000096,389.77438170000096,389.77438170000096,76,46,69,53,76,70,389.77438170000096,391.45860950000133,,,,,,,,,,,,,,,,,,,,３２０,f,２３,2023-05-19_11h29.48.931,RL,2022.2.5,60.059663269326094,
41,78,80,54,0,64,64,64,,,,,,,,,,,None,391.45860950000133,391.45860950000133,391.45860950000133,391.45860950000133,391.45860950000133,391.45860950000133,f,0.3642392000001564,391.84370370000033,391.84370370000033,391.84370370000033,391.84370370000033,391.84370370000033,391.84370370000033,392.12558759999956,393.4753082999996,393.49186999999984,393.49186999999984,393.49186999999984,393.49186999999984,393.49186999999984,393.49186999999984,393.49186999999984,393.49186999999984,393.49186999999984,393.49186999999984,393.49186999999984,393.49186999999984,393.49186999999984,395.1399873999999,395.1399873999999,395.1399873999999,395.1399873999999,395.1399873999999,395.1399873999999,395.1399873999999,80,41,78,54,80,70,395.1399873999999,397.0909217999997,,,,,,,,,,,,,,,,,,,,３２０,f,２３,2023-05-19_11h29.48.931,RL,2022.2.5,60.059663269326094,
45,58,77,56,0,65,65,65,,,,,,,,,,,None,397.0909217999997,397.0909217999997,397.0909217999997,397.0909217999997,397.0909217999997,397.0909217999997,f,0.27621410000028845,397.39444209999965,397.39444209999965,397.39444209999965,397.39444209999965,397.39444209999965,397.39444209999965,397.6744307000008,399.3242252,399.34114860000045,399.34114860000045,399.34114860000045,399.34114860000045,399.34114860000045,399.34114860000045,399.34114860000045,399.34114860000045,399.34114860000045,399.34114860000045,399.34114860000045,399.34114860000045,399.34114860000045,401.2890590999996,401.2890590999996,401.2890590999996,401.2890590999996,401.2890590999996,401.2890590999996,401.2890590999996,77,45,58,56,77,70,401.2890590999996,403.0899556000004,,,,,,,,,,,,,,,,,,,,３２０,f,２３,2023-05-19_11h29.48.931,RL,2022.2.5,60.059663269326094,
34,58,83,58,0,66,66,66,,,,,,,,,,,None,403.0899556000004,403.0899556000004,403.0899556000004,403.0899556000004,403.0899556000004,403.0899556000004,f,0.31797699999879114,403.4433261000013,403.4433261000013,403.4433261000013,403.4433261000013,403.4433261000013,403.4433261000013,403.72355270000116,405.13996020000013,405.1565738999998,405.1565738999998,405.1565738999998,405.1565738999998,405.1565738999998,405.1565738999998,405.1565738999998,405.1565738999998,405.1565738999998,405.1565738999998,405.1565738999998,405.1565738999998,405.1565738999998,406.871261100001,406.871261100001,406.871261100001,406.871261100001,406.871261100001,406.871261100001,406.871261100001,83,34,58,58,83,70,406.871261100001,408.5724217999996,,,,,,,,,,,,,,,,,,,,３２０,f,２３,2023-05-19_11h29.48.931,RL,2022.2.5,60.059663269326094,
36,65,69,57,0,67,67,67,,,,,,,,,,,None,408.5724217999996,408.5724217999996,408.5724217999996,408.5724217999996,408.5724217999996,408.5724217999996,f,0.2762789000007615,408.87282870000126,408.87282870000126,408.87282870000126,408.87282870000126,408.87282870000126,408.87282870000126,409.15656409999974,410.4890292,410.50550289999956,410.50550289999956,410.50550289999956,410.50550289999956,410.50550289999956,410.50550289999956,410.50550289999956,410.50550289999956,410.50550289999956,410.50550289999956,410.50550289999956,410.50550289999956,410.50550289999956,412.13700980000067,412.13700980000067,412.13700980000067,412.13700980000067,412.13700980000067,412.13700980000067,412.13700980000067,69,36,65,57,69,70,412.13700980000067,414.0879925999998,,,,,,,,,,,,,,,,,,,,３２０,f,２３,2023-05-19_11h29.48.931,RL,2022.2.5,60.059663269326094,
38,62,70,54,0,68,68,68,,,,,,,,,,,None,414.0879925999998,414.0879925999998,414.0879925999998,414.0879925999998,414.0879925999998,414.0879925999998,i,0.49887929999931657,414.6051368999997,414.6051368999997,414.6051368999997,414.6051368999997,414.6051368999997,414.6051368999997,414.8881806999998,415.9715474000004,415.98796680000123,415.98796680000123,415.98796680000123,415.98796680000123,415.98796680000123,415.98796680000123,415.98796680000123,415.98796680000123,415.98796680000123,415.98796680000123,415.98796680000123,415.98796680000123,415.98796680000123,417.36939189999975,417.36939189999975,417.36939189999975,417.36939189999975,417.36939189999975,417.36939189999975,417.36939189999975,70,38,62,54,62,70,417.36939189999975,419.0872470000013,,,,,,,,,,,,,,,,,,,,３２０,f,２３,2023-05-19_11h29.48.931,RL,2022.2.5,60.059663269326094,
45,64,64,53,0,69,69,69,,,,,,,,,,,None,419.0872470000013,419.0872470000013,419.0872470000013,419.0872470000013,419.0872470000013,419.0872470000013,i,0.34826949999842327,419.45696640000097,419.45696640000097,419.45696640000097,419.45696640000097,419.45696640000097,419.45696640000097,419.73780480000096,421.57038190000094,421.58704840000064,421.58704840000064,421.58704840000064,421.58704840000064,421.58704840000064,421.58704840000064,421.58704840000064,421.58704840000064,421.58704840000064,421.58704840000064,421.58704840000064,421.58704840000064,421.58704840000064,423.7016487000001,423.7016487000001,423.7016487000001,423.7016487000001,423.7016487000001,423.7016487000001,423.7016487000001,64,45,64,53,64,70,423.7016487000001,425.3192968000003,,,,,,,,,,,,,,,,,,,,３２０,f,２３,2023-05-19_11h29.48.931,RL,2022.2.5,60.059663269326094,
26,57,63,64,0,70,70,70,,,,,,,,,,,None,425.3192968000003,425.3192968000003,425.3192968000003,425.3192968000003,425.3192968000003,425.3192968000003,i,0.338574499999595,425.68664920000083,425.68664920000083,425.68664920000083,425.68664920000083,425.68664920000083,425.68664920000083,425.9697801000002,427.3197484000011,427.33612770000036,427.33612770000036,427.33612770000036,427.33612770000036,427.33612770000036,427.33612770000036,427.33612770000036,427.33612770000036,427.33612770000036,427.33612770000036,427.33612770000036,427.33612770000036,427.33612770000036,428.98407080000106,428.98407080000106,428.98407080000106,428.98407080000106,428.98407080000106,428.98407080000106,428.98407080000106,63,26,57,64,57,70,428.98407080000106,430.71842450000076,,,,,,,,,,,,,,,,,,,,３２０,f,２３,2023-05-19_11h29.48.931,RL,2022.2.5,60.059663269326094,
31,61,61,64,0,71,71,71,,,,,,,,,,,None,430.71842450000076,430.71842450000076,430.71842450000076,430.71842450000076,430.71842450000076,430.71842450000076,j,0.39685710000048857,431.1374245999996,431.1374245999996,431.1374245999996,431.1374245999996,431.1374245999996,431.1374245999996,431.4187906999996,432.5017019000006,432.5183837000004,432.5183837000004,432.5183837000004,432.5183837000004,432.5183837000004,432.5183837000004,432.5183837000004,432.5183837000004,432.5183837000004,432.5183837000004,432.5183837000004,432.5183837000004,432.5183837000004,433.9001953999996,433.9001953999996,433.9001953999996,433.9001953999996,433.9001953999996,433.9001953999996,433.9001953999996,61,31,61,64,64,70,433.9001953999996,435.8506928000006,,,,,,,,,,,,,,,,,,,,３２０,f,２３,2023-05-19_11h29.48.931,RL,2022.2.5,60.059663269326094,
36,64,59,63,0,72,72,72,,,,,,,,,,,None,435.8506928000006,435.8506928000006,435.8506928000006,435.8506928000006,435.8506928000006,435.8506928000006,j,0.26971450000019104,436.1513558000006,436.1513558000006,436.1513558000006,436.1513558000006,436.1513558000006,436.1513558000006,436.4346693999996,438.2676736000012,438.28403660000004,438.28403660000004,438.28403660000004,438.28403660000004,438.28403660000004,438.28403660000004,438.28403660000004,438.28403660000004,438.28403660000004,438.28403660000004,438.28403660000004,438.28403660000004,438.28403660000004,440.4154219000011,440.4154219000011,440.4154219000011,440.4154219000011,440.4154219000011,440.4154219000011,440.4154219000011,59,36,64,63,63,70,440.4154219000011,442.04971250000017,,,,,,,,,,,,,,,,,,,,３２０,f,２３,2023-05-19_11h29.48.931,RL,2022.2.5,60.059663269326094,
34,60,57,54,0,73,73,73,,,,,,,,,,,None,442.04971250000017,442.04971250000017,442.04971250000017,442.04971250000017,442.04971250000017,442.04971250000017,j,0.5377490999999281,442.6177442999997,442.6177442999997,442.6177442999997,442.6177442999997,442.6177442999997,442.6177442999997,442.89993440000035,444.3997614,444.4162604000012,444.4162604000012,444.4162604000012,444.4162604000012,444.4162604000012,444.4162604000012,444.4162604000012,444.4162604000012,444.4162604000012,444.4162604000012,444.4162604000012,444.4162604000012,444.4162604000012,446.21437590000096,446.21437590000096,446.21437590000096,446.21437590000096,446.21437590000096,446.21437590000096,446.21437590000096,57,34,60,54,54,70,446.21437590000096,448.0819588000013,,,,,,,,,,,,,,,,,,,,３２０,f,２３,2023-05-19_11h29.48.931,RL,2022.2.5,60.059663269326094,
30,65,64,49,0,74,74,74,,,,,,,,,,,None,448.0819588000013,448.0819588000013,448.0819588000013,448.0819588000013,448.0819588000013,448.0819588000013,r,0.331623000000036,448.43414160000066,448.43414160000066,448.43414160000066,448.43414160000066,448.43414160000066,448.43414160000066,448.7324047000002,449.7488639000003,449.7488639000003,449.7488639000003,449.7488639000003,449.7488639000003,449.7488639000003,449.7488639000003,449.7488639000003,449.7488639000003,449.7488639000003,449.7488639000003,449.7488639000003,449.7488639000003,449.7488639000003,451.0634891999998,451.0634891999998,451.0634891999998,451.0634891999998,451.0634891999998,451.0634891999998,451.0634891999998,64,30,65,49,30,70,451.0634891999998,452.9801989000007,,,,,,,,,,,,,,,,,,,,３２０,f,２３,2023-05-19_11h29.48.931,RL,2022.2.5,60.059663269326094,
28,55,55,47,0,75,75,75,,,,,,,,,,,q,474.01104810000106,474.01104810000106,474.01104810000106,474.01104810000106,474.01104810000106,474.01104810000106,r,0.552193299999999,474.5980283000008,474.5980283000008,474.5980283000008,474.5980283000008,474.5980283000008,474.5980283000008,474.8778116000012,476.144360100001,476.1613174000013,476.1613174000013,476.1613174000013,476.1613174000013,476.1613174000013,476.1613174000013,476.1613174000013,476.1613174000013,476.1613174000013,476.1613174000013,476.1613174000013,476.1613174000013,476.1613174000013,477.7256436000007,477.7256436000007,477.7256436000007,477.7256436000007,477.7256436000007,477.7256436000007,477.7256436000007,55,28,55,47,28,70,477.7256436000007,479.70975499999986,,,,,,,,,452.9801989000007,452.9801989000007,15.981583199998568,469.00203320000037,469.00203320000037,474.01104810000106,474.01104810000106,,,,,３２０,f,２３,2023-05-19_11h29.48.931,RL,2022.2.5,60.059663269326094,
35,53,62,55,0,76,76,76,,,,,,,,,,,None,479.70975499999986,479.70975499999986,479.70975499999986,479.70975499999986,479.70975499999986,479.70975499999986,f,0.281863300000623,480.01049129999956,480.01049129999956,480.01049129999956,480.01049129999956,480.01049129999956,480.01049129999956,480.3101996000005,482.2930210000013,482.2930210000013,482.2930210000013,482.2930210000013,482.2930210000013,482.2930210000013,482.2930210000013,482.2930210000013,482.2930210000013,482.2930210000013,482.2930210000013,482.2930210000013,482.2930210000013,482.2930210000013,484.57439090000116,484.57439090000116,484.57439090000116,484.57439090000116,484.57439090000116,484.57439090000116,484.57439090000116,62,35,53,55,62,70,484.57439090000116,486.5587007000013,,,,,,,,,,,,,,,,,,,,３２０,f,２３,2023-05-19_11h29.48.931,RL,2022.2.5,60.059663269326094,
32,57,47,50,0,77,77,77,,,,,,,,,,,None,486.5587007000013,486.5587007000013,486.5587007000013,486.5587007000013,486.5587007000013,486.5587007000013,i,0.3215413999987504,486.90957979999985,486.90957979999985,486.90957979999985,486.90957979999985,486.90957979999985,486.90957979999985,487.1925201000013,489.1087970000008,489.12521949999973,489.12521949999973,489.12521949999973,489.12521949999973,489.12521949999973,489.12521949999973,489.12521949999973,489.12521949999973,489.12521949999973,489.12521949999973,489.12521949999973,489.12521949999973,489.12521949999973,491.33995529999993,491.33995529999993,491.33995529999993,491.33995529999993,491.33995529999993,491.33995529999993,491.33995529999993,47,32,57,50,57,70,491.33995529999993,492.840911700001,,,,,,,,,,,,,,,,,,,,３２０,f,２３,2023-05-19_11h29.48.931,RL,2022.2.5,60.059663269326094,
32,64,54,48,0,78,78,78,,,,,,,,,,,None,492.840911700001,492.840911700001,492.840911700001,492.840911700001,492.840911700001,492.840911700001,j,0.32438449999972363,493.1916068999999,493.1916068999999,493.1916068999999,493.1916068999999,493.1916068999999,493.1916068999999,493.4744819999996,495.07413290000113,495.0908539000011,495.0908539000011,495.0908539000011,495.0908539000011,495.0908539000011,495.0908539000011,495.0908539000011,495.0908539000011,495.0908539000011,495.0908539000011,495.0908539000011,495.0908539000011,495.0908539000011,496.98890589999974,496.98890589999974,496.98890589999974,496.98890589999974,496.98890589999974,496.98890589999974,496.98890589999974,54,32,64,48,48,70,496.98890589999974,498.77499139999964,,,,,,,,,,,,,,,,,,,,３２０,f,２３,2023-05-19_11h29.48.931,RL,2022.2.5,60.059663269326094,
30,65,49,41,0,79,79,79,,,,,,,,,,,None,498.77499139999964,498.77499139999964,498.77499139999964,498.77499139999964,498.77499139999964,498.77499139999964,f,0.2354445000000851,499.0415449000011,499.0415449000011,499.0415449000011,499.0415449000011,499.0415449000011,499.0415449000011,499.3402686999998,500.98985019999964,500.98985019999964,500.98985019999964,500.98985019999964,500.98985019999964,500.98985019999964,500.98985019999964,500.98985019999964,500.98985019999964,500.98985019999964,500.98985019999964,500.98985019999964,500.98985019999964,500.98985019999964,502.9377697,502.9377697,502.9377697,502.9377697,502.9377697,502.9377697,502.9377697,49,30,65,41,49,70,502.9377697,504.85545660000025,,,,,,,,,,,,,,,,,,,,３２０,f,２３,2023-05-19_11h29.48.931,RL,2022.2.5,60.059663269326094,
37,70,51,48,0,80,80,80,,,,,,,,,,,None,504.85545660000025,504.85545660000025,504.85545660000025,504.85545660000025,504.85545660000025,504.85545660000025,i,0.32126419999985956,505.2059055000009,505.2059055000009,505.2059055000009,505.2059055000009,505.2059055000009,505.2059055000009,505.4891180000013,507.18884400000024,507.20557650000046,507.20557650000046,507.20557650000046,507.20557650000046,507.20557650000046,507.20557650000046,507.20557650000046,507.20557650000046,507.20557650000046,507.20557650000046,507.20557650000046,507.20557650000046,507.20557650000046,509.2033889000013,509.2033889000013,509.2033889000013,509.2033889000013,509.2033889000013,509.2033889000013,509.2033889000013,51,37,70,48,70,70,509.2033889000013,511.1043264,,,,,,,,,,,,,,,,,,,,３２０,f,２３,2023-05-19_11h29.48.931,RL,2022.2.5,60.059663269326094,
34,60,58,43,0,81,81,81,,,,,,,,,,,None,511.1043264,511.1043264,511.1043264,511.1043264,511.1043264,511.1043264,i,0.268039200000203,511.40763920000063,511.40763920000063,511.40763920000063,511.40763920000063,511.40763920000063,511.40763920000063,511.68849630000113,512.6542332999998,512.6709976000002,512.6709976000002,512.6709976000002,512.6709976000002,512.6709976000002,512.6709976000002,512.6709976000002,512.6709976000002,512.6709976000002,512.6709976000002,512.6709976000002,512.6709976000002,512.6709976000002,513.9360986000011,513.9360986000011,513.9360986000011,513.9360986000011,513.9360986000011,513.9360986000011,513.9360986000011,58,34,60,43,60,70,513.9360986000011,515.9035373999995,,,,,,,,,,,,,,,,,,,,３２０,f,２３,2023-05-19_11h29.48.931,RL,2022.2.5,60.059663269326094,
34,70,55,55,0,82,82,82,,,,,,,,,,,None,515.9035373999995,515.9035373999995,515.9035373999995,515.9035373999995,515.9035373999995,515.9035373999995,i,0.32343310000032943,516.2542458000007,516.2542458000007,516.2542458000007,516.2542458000007,516.2542458000007,516.2542458000007,516.537156800001,517.9367158000005,517.9701361999996,517.9701361999996,517.9701361999996,517.9701361999996,517.9701361999996,517.9701361999996,517.9701361999996,517.9701361999996,517.9701361999996,517.9701361999996,517.9701361999996,517.9701361999996,517.9701361999996,519.6683014000009,519.6683014000009,519.6683014000009,519.6683014000009,519.6683014000009,519.6683014000009,519.6683014000009,55,34,70,55,70,70,519.6683014000009,521.2526890999998,,,,,,,,,,,,,,,,,,,,３２０,f,２３,2023-05-19_11h29.48.931,RL,2022.2.5,60.059663269326094,
37,70,56,46,0,83,83,83,,,,,,,,,,,None,521.2526890999998,521.2526890999998,521.2526890999998,521.2526890999998,521.2526890999998,521.2526890999998,i,0.43872129999908793,521.7198336000001,521.7198336000001,521.7198336000001,521.7198336000001,521.7198336000001,521.7198336000001,522.0030695000005,523.8860647000001,523.9025235999998,523.9025235999998,523.9025235999998,523.9025235999998,523.9025235999998,523.9025235999998,523.9025235999998,523.9025235999998,523.9025235999998,523.9025235999998,523.9025235999998,523.9025235999998,523.9025235999998,526.0836532000012,526.0836532000012,526.0836532000012,526.0836532000012,526.0836532000012,526.0836532000012,526.0836532000012,56,37,70,46,70,70,526.0836532000012,528.0682729,,,,,,,,,,,,,,,,,,,,３２０,f,２３,2023-05-19_11h29.48.931,RL,2022.2.5,60.059663269326094,
33,55,55,46,0,84,84,84,,,,,,,,,,,None,528.0682729,528.0682729,528.0682729,528.0682729,528.0682729,528.0682729,i,0.28412609999941196,528.3879549000012,528.3879549000012,528.3879549000012,528.3879549000012,528.3879549000012,528.3879549000012,528.6682837000008,529.5349107000002,529.5516024999997,529.5516024999997,529.5516024999997,529.5516024999997,529.5516024999997,529.5516024999997,529.5516024999997,529.5516024999997,529.5516024999997,529.5516024999997,529.5516024999997,529.5516024999997,529.5516024999997,530.7165311000008,530.7165311000008,530.7165311000008,530.7165311000008,530.7165311000008,530.7165311000008,530.7165311000008,55,33,55,46,55,70,530.7165311000008,532.3339154000005,,,,,,,,,,,,,,,,,,,,３２０,f,２３,2023-05-19_11h29.48.931,RL,2022.2.5,60.059663269326094,
30,64,42,43,0,85,85,85,,,,,,,,,,,None,532.3339154000005,532.3339154000005,532.3339154000005,532.3339154000005,532.3339154000005,532.3339154000005,f,0.3561706000000413,532.7178273999998,532.7178273999998,532.7178273999998,532.7178273999998,532.7178273999998,532.7178273999998,533.0008869000012,534.4340661000006,534.4506343000012,534.4506343000012,534.4506343000012,534.4506343000012,534.4506343000012,534.4506343000012,534.4506343000012,534.4506343000012,534.4506343000012,534.4506343000012,534.4506343000012,534.4506343000012,534.4506343000012,536.182282400001,536.182282400001,536.182282400001,536.182282400001,536.182282400001,536.182282400001,536.182282400001,42,30,64,43,42,70,536.182282400001,537.7496800999998,,,,,,,,,,,,,,,,,,,,３２０,f,２３,2023-05-19_11h29.48.931,RL,2022.2.5,60.059663269326094,
37,63,50,50,0,86,86,86,,,,,,,,,,,None,537.7496800999998,537.7496800999998,537.7496800999998,537.7496800999998,537.7496800999998,537.7496800999998,i,0.2871838999999454,538.0709368999997,538.0709368999997,538.0709368999997,538.0709368999997,538.0709368999997,538.0709368999997,538.3502117000007,539.9498942999999,539.9663763999997,539.9663763999997,539.9663763999997,539.9663763999997,539.9663763999997,539.9663763999997,539.9663763999997,539.9663763999997,539.9663763999997,539.9663763999997,539.9663763999997,539.9663763999997,539.9663763999997,541.8644572000012,541.8644572000012,541.8644572000012,541.8644572000012,541.8644572000012,541.8644572000012,541.8644572000012,50,37,63,50,63,70,541.8644572000012,543.7320254000006,,,,,,,,,,,,,,,,,,,,３２０,f,２３,2023-05-19_11h29.48.931,RL,2022.2.5,60.059663269326094,
41,68,53,49,0,87,87,87,,,,,,,,,,,None,543.7320254000006,543.7320254000006,543.7320254000006,543.7320254000006,543.7320254000006,543.7320254000006,i,0.5786908000009134,544.3326404,544.3326404,544.3326404,544.3326404,544.3326404,544.3326404,544.6322990999997,545.7656888000001,545.7656888000001,545.7656888000001,545.7656888000001,545.7656888000001,545.7656888000001,545.7656888000001,545.7656888000001,545.7656888000001,545.7656888000001,545.7656888000001,545.7656888000001,545.7656888000001,545.7656888000001,547.196777000001,547.196777000001,547.196777000001,547.196777000001,547.196777000001,547.196777000001,547.196777000001,53,41,68,49,68,70,547.196777000001,548.7479653000009,,,,,,,,,,,,,,,,,,,,３２０,f,２３,2023-05-19_11h29.48.931,RL,2022.2.5,60.059663269326094,
31,62,55,47,0,88,88,88,,,,,,,,,,,None,548.7479653000009,548.7479653000009,548.7479653000009,548.7479653000009,548.7479653000009,548.7479653000009,i,0.3615831999995862,549.131863300001,549.131863300001,549.131863300001,549.131863300001,549.131863300001,549.131863300001,549.4147553000003,550.4980520999998,550.5144747000013,550.5144747000013,550.5144747000013,550.5144747000013,550.5144747000013,550.5144747000013,550.5144747000013,550.5144747000013,550.5144747000013,550.5144747000013,550.5144747000013,550.5144747000013,550.5144747000013,551.8963075000011,551.8963075000011,551.8963075000011,551.8963075000011,551.8963075000011,551.8963075000011,551.8963075000011,55,31,62,47,62,70,551.8963075000011,553.5970077000002,,,,,,,,,,,,,,,,,,,,３２０,f,２３,2023-05-19_11h29.48.931,RL,2022.2.5,60.059663269326094,
35,69,50,43,0,89,89,89,,,,,,,,,,,None,553.5970077000002,553.5970077000002,553.5970077000002,553.5970077000002,553.5970077000002,553.5970077000002,i,0.44534940000085044,554.0642817000007,554.0642817000007,554.0642817000007,554.0642817000007,554.0642817000007,554.0642817000007,554.3472526000005,555.2972110999999,555.313921500001,555.313921500001,555.313921500001,555.313921500001,555.313921500001,555.313921500001,555.313921500001,555.313921500001,555.313921500001,555.313921500001,555.313921500001,555.313921500001,555.313921500001,556.5622777999997,556.5622777999997,556.5622777999997,556.5622777999997,556.5622777999997,556.5622777999997,556.5622777999997,50,35,69,43,69,70,556.5622777999997,558.1129517000008,,,,,,,,,,,,,,,,,,,,３２０,f,２３,2023-05-19_11h29.48.931,RL,2022.2.5,60.059663269326094,
33,71,49,43,0,90,90,90,,,,,,,,,,,None,558.1129517000008,558.1129517000008,558.1129517000008,558.1129517000008,558.1129517000008,558.1129517000008,i,0.28371320000042033,558.4334228000007,558.4334228000007,558.4334228000007,558.4334228000007,558.4334228000007,558.4334228000007,558.7131343000001,559.9132418999998,559.9462678,559.9462678,559.9462678,559.9462678,559.9462678,559.9462678,559.9462678,559.9462678,559.9462678,559.9462678,559.9462678,559.9462678,559.9462678,561.4451344999998,561.4451344999998,561.4451344999998,561.4451344999998,561.4451344999998,561.4451344999998,561.4451344999998,49,33,71,43,71,70,561.4451344999998,563.2951131000009,,,,,,,,,,,,,,,,,,,,３２０,f,２３,2023-05-19_11h29.48.931,RL,2022.2.5,60.059663269326094,
35,71,50,44,0,91,91,91,,,,,,,,,,,None,563.2951131000009,563.2951131000009,563.2951131000009,563.2951131000009,563.2951131000009,563.2951131000009,i,0.6010895999988861,563.9331662000004,563.9331662000004,563.9331662000004,563.9331662000004,563.9331662000004,563.9331662000004,564.2123115000013,565.6953472000005,565.7118511000008,565.7118511000008,565.7118511000008,565.7118511000008,565.7118511000008,565.7118511000008,565.7118511000008,565.7118511000008,565.7118511000008,565.7118511000008,565.7118511000008,565.7118511000008,565.7118511000008,567.4933106000008,567.4933106000008,567.4933106000008,567.4933106000008,567.4933106000008,567.4933106000008,567.4933106000008,50,35,71,44,71,70,567.4933106000008,569.1442623000003,,,,,,,,,,,,,,,,,,,,３２０,f,２３,2023-05-19_11h29.48.931,RL,2022.2.5,60.059663269326094,
32,73,41,40,0,92,92,92,,,,,,,,,,,None,569.1442623000003,569.1442623000003,569.1442623000003,569.1442623000003,569.1442623000003,569.1442623000003,i,0.25195910000002186,569.4301076000011,569.4301076000011,569.4301076000011,569.4301076000011,569.4301076000011,569.4301076000011,569.7115855000011,570.6943915000011,570.7110783999997,570.7110783999997,570.7110783999997,570.7110783999997,570.7110783999997,570.7110783999997,570.7110783999997,570.7110783999997,570.7110783999997,570.7110783999997,570.7110783999997,570.7110783999997,570.7110783999997,571.9924881999996,571.9924881999996,571.9924881999996,571.9924881999996,571.9924881999996,571.9924881999996,571.9924881999996,41,32,73,40,73,70,571.9924881999996,573.6768284999998,,,,,,,,,,,,,,,,,,,,３２０,f,２３,2023-05-19_11h29.48.931,RL,2022.2.5,60.059663269326094,
31,71,45,47,0,93,93,93,,,,,,,,,,,None,573.6768284999998,573.6768284999998,573.6768284999998,573.6768284999998,573.6768284999998,573.6768284999998,i,0.24859180000021297,573.9471799000003,573.9471799000003,573.9471799000003,573.9471799000003,573.9471799000003,573.9471799000003,574.2440442000006,576.2100190000001,576.2100190000001,576.2100190000001,576.2100190000001,576.2100190000001,576.2100190000001,576.2100190000001,576.2100190000001,576.2100190000001,576.2100190000001,576.2100190000001,576.2100190000001,576.2100190000001,576.2100190000001,578.4748954000006,578.4748954000006,578.4748954000006,578.4748954000006,578.4748954000006,578.4748954000006,578.4748954000006,45,31,71,47,71,70,578.4748954000006,580.3756157000007,,,,,,,,,,,,,,,,,,,,３２０,f,２３,2023-05-19_11h29.48.931,RL,2022.2.5,60.059663269326094,
31,68,47,38,0,94,94,94,,,,,,,,,,,None,580.3756157000007,580.3756157000007,580.3756157000007,580.3756157000007,580.3756157000007,580.3756157000007,i,0.29100019999896176,580.6928191000006,580.6928191000006,580.6928191000006,580.6928191000006,580.6928191000006,580.6928191000006,580.9759346999999,582.4589825000003,582.475621900001,582.475621900001,582.475621900001,582.475621900001,582.475621900001,582.475621900001,582.475621900001,582.475621900001,582.475621900001,582.475621900001,582.475621900001,582.475621900001,582.475621900001,584.2571566000006,584.2571566000006,584.2571566000006,584.2571566000006,584.2571566000006,584.2571566000006,584.2571566000006,47,31,68,38,68,70,584.2571566000006,586.1246568000006,,,,,,,,,,,,,,,,,,,,３２０,f,２３,2023-05-19_11h29.48.931,RL,2022.2.5,60.059663269326094,
47,73,37,49,0,95,95,95,,,,,,,,,,,None,586.1246568000006,586.1246568000006,586.1246568000006,586.1246568000006,586.1246568000006,586.1246568000006,i,0.270424099999218,586.4252582000008,586.4252582000008,586.4252582000008,586.4252582000008,586.4252582000008,586.4252582000008,586.7080689000013,588.2580533,588.2746872999996,588.2746872999996,588.2746872999996,588.2746872999996,588.2746872999996,588.2746872999996,588.2746872999996,588.2746872999996,588.2746872999996,588.2746872999996,588.2746872999996,588.2746872999996,588.2746872999996,590.122620600001,590.122620600001,590.122620600001,590.122620600001,590.122620600001,590.122620600001,590.122620600001,37,47,73,49,73,70,590.122620600001,592.0071489000002,,,,,,,,,,,,,,,,,,,,３２０,f,２３,2023-05-19_11h29.48.931,RL,2022.2.5,60.059663269326094,
37,72,45,44,0,96,96,96,,,,,,,,,,,None,592.0071489000002,592.0071489000002,592.0071489000002,592.0071489000002,592.0071489000002,592.0071489000002,i,0.28531889999976556,592.3279484000013,592.3279484000013,592.3279484000013,592.3279484000013,592.3279484000013,592.3279484000013,592.6075879,593.4907012000003,593.5070370000012,593.5070370000012,593.5070370000012,593.5070370000012,593.5070370000012,593.5070370000012,593.5070370000012,593.5070370000012,593.5070370000012,593.5070370000012,593.5070370000012,593.5070370000012,593.5070370000012,594.6885148000001,594.6885148000001,594.6885148000001,594.6885148000001,594.6885148000001,594.6885148000001,594.6885148000001,45,37,72,44,72,70,594.6885148000001,596.4062152000006,,,,,,,,,,,,,,,,,,,,３２０,f,２３,2023-05-19_11h29.48.931,RL,2022.2.5,60.059663269326094,
30,68,43,41,0,97,97,97,,,,,,,,,,,None,596.4062152000006,596.4062152000006,596.4062152000006,596.4062152000006,596.4062152000006,596.4062152000006,i,0.9867190000004484,597.4232269000004,597.4232269000004,597.4232269000004,597.4232269000004,597.4232269000004,597.4232269000004,597.7064270999999,598.5563354000005,598.5728591999996,598.5728591999996,598.5728591999996,598.5728591999996,598.5728591999996,598.5728591999996,598.5728591999996,598.5728591999996,598.5728591999996,598.5728591999996,598.5728591999996,598.5728591999996,598.5728591999996,599.7210363000013,599.7210363000013,599.7210363000013,599.7210363000013,599.7210363000013,599.7210363000013,599.7210363000013,43,30,68,41,68,70,599.7210363000013,601.6552800999998,,,,,,,,,,,,,,,,,,,,３２０,f,２３,2023-05-19_11h29.48.931,RL,2022.2.5,60.059663269326094,
35,69,46,44,0,98,98,98,,,,,,,,,,,None,601.6552800999998,601.6552800999998,601.6552800999998,601.6552800999998,601.6552800999998,601.6552800999998,i,0.2760409000002255,601.9558096000001,601.9558096000001,601.9558096000001,601.9558096000001,601.9558096000001,601.9558096000001,602.2391712999997,603.8054780000002,603.8220504000001,603.8220504000001,603.8220504000001,603.8220504000001,603.8220504000001,603.8220504000001,603.8220504000001,603.8220504000001,603.8220504000001,603.8220504000001,603.8220504000001,603.8220504000001,603.8220504000001,605.6865323000002,605.6865323000002,605.6865323000002,605.6865323000002,605.6865323000002,605.6865323000002,605.6865323000002,46,35,69,44,69,70,605.6865323000002,607.6709967000006,,,,,,,,,,,,,,,,,,,,３２０,f,２３,2023-05-19_11h29.48.931,RL,2022.2.5,60.059663269326094,
33,69,47,39,0,99,99,99,,,,,,,,,,,None,607.6709967000006,607.6709967000006,607.6709967000006,607.6709967000006,607.6709967000006,607.6709967000006,i,0.33372010000130103,608.0446455000001,608.0446455000001,608.0446455000001,608.0446455000001,608.0446455000001,608.0446455000001,608.321141800001,609.6210456999997,609.6543899000008,609.6543899000008,609.6543899000008,609.6543899000008,609.6543899000008,609.6543899000008,609.6543899000008,609.6543899000008,609.6543899000008,609.6543899000008,609.6543899000008,609.6543899000008,609.6543899000008,611.2523273999996,611.2523273999996,611.2523273999996,611.2523273999996,611.2523273999996,611.2523273999996,611.2523273999996,47,33,69,39,69,70,611.2523273999996,613.2032799999997,,,,,,,,,,,,,,,,,,,,３２０,f,２３,2023-05-19_11h29.48.931,RL,2022.2.5,60.059663269326094,
34,60,39,38,0,100,100,100,,,,,,,,,,,None,613.2032799999997,613.2032799999997,613.2032799999997,613.2032799999997,613.2032799999997,613.2032799999997,i,0.25959770000008575,613.4883253000007,613.4883253000007,613.4883253000007,613.4883253000007,613.4883253000007,613.4883253000007,613.7871873000004,615.6698539999998,615.6698539999998,615.6698539999998,615.6698539999998,615.6698539999998,615.6698539999998,615.6698539999998,615.6698539999998,615.6698539999998,615.6698539999998,615.6698539999998,615.6698539999998,615.6698539999998,615.6698539999998,617.8513327000001,617.8513327000001,617.8513327000001,617.8513327000001,617.8513327000001,617.8513327000001,617.8513327000001,39,34,60,38,60,70,617.8513327000001,619.7520076000001,,,,,,,,,,,,,,,,,,,,３２０,f,２３,2023-05-19_11h29.48.931,RL,2022.2.5,60.059663269326094,
33,63,49,52,0,101,101,101,,,,,,,,,,,None,619.7520076000001,619.7520076000001,619.7520076000001,619.7520076000001,619.7520076000001,619.7520076000001,f,0.26558420000037586,620.0361522000003,620.0361522000003,620.0361522000003,620.0361522000003,620.0361522000003,620.0361522000003,620.3193804000002,621.7355439000003,621.7522953999996,621.7522953999996,621.7522953999996,621.7522953999996,621.7522953999996,621.7522953999996,621.7522953999996,621.7522953999996,621.7522953999996,621.7522953999996,621.7522953999996,621.7522953999996,621.7522953999996,623.4667186000006,623.4667186000006,623.4667186000006,623.4667186000006,623.4667186000006,623.4667186000006,623.4667186000006,49,33,63,52,49,70,623.4667186000006,625.2178768000012,,,,,,,,,,,,,,,,,,,,３２０,f,２３,2023-05-19_11h29.48.931,RL,2022.2.5,60.059663269326094,
30,56,45,45,0,102,102,102,,,,,,,,,,,None,625.2178768000012,625.2178768000012,625.2178768000012,625.2178768000012,625.2178768000012,625.2178768000012,i,0.2730149999988498,625.5184777000013,625.5184777000013,625.5184777000013,625.5184777000013,625.5184777000013,625.5184777000013,625.8014162,627.2177785000003,627.2345258000005,627.2345258000005,627.2345258000005,627.2345258000005,627.2345258000005,627.2345258000005,627.2345258000005,627.2345258000005,627.2345258000005,627.2345258000005,627.2345258000005,627.2345258000005,627.2345258000005,628.9496041000002,628.9496041000002,628.9496041000002,628.9496041000002,628.9496041000002,628.9496041000002,628.9496041000002,45,30,56,45,56,70,628.9496041000002,630.6004434000006,,,,,,,,,,,,,,,,,,,,３２０,f,２３,2023-05-19_11h29.48.931,RL,2022.2.5,60.059663269326094,
28,64,38,46,0,103,103,103,,,,,,,,,,,None,630.6004434000006,630.6004434000006,630.6004434000006,630.6004434000006,630.6004434000006,630.6004434000006,j,0.27246370000102615,630.9007676000001,630.9007676000001,630.9007676000001,630.9007676000001,630.9007676000001,630.9007676000001,631.1838652000006,632.0835822000008,632.1003079000002,632.1003079000002,632.1003079000002,632.1003079000002,632.1003079000002,632.1003079000002,632.1003079000002,632.1003079000002,632.1003079000002,632.1003079000002,632.1003079000002,632.1003079000002,632.1003079000002,633.2987427999997,633.2987427999997,633.2987427999997,633.2987427999997,633.2987427999997,633.2987427999997,633.2987427999997,38,28,64,46,46,70,633.2987427999997,635.1661922000003,,,,,,,,,,,,,,,,,,,,３２０,f,２３,2023-05-19_11h29.48.931,RL,2022.2.5,60.059663269326094,
32,56,46,42,0,104,104,104,,,,,,,,,,,None,635.1661922000003,635.1661922000003,635.1661922000003,635.1661922000003,635.1661922000003,635.1661922000003,r,0.2773845000010624,635.4666556000011,635.4666556000011,635.4666556000011,635.4666556000011,635.4666556000011,635.4666556000011,635.7499496,636.8002659000012,636.8162239000012,636.8162239000012,636.8162239000012,636.8162239000012,636.8162239000012,636.8162239000012,636.8162239000012,636.8162239000012,636.8162239000012,636.8162239000012,636.8162239000012,636.8162239000012,636.8162239000012,638.164356700001,638.164356700001,638.164356700001,638.164356700001,638.164356700001,638.164356700001,638.164356700001,46,32,56,42,32,70,638.164356700001,640.1490185000002,,,,,,,,,,,,,,,,,,,,３２０,f,２３,2023-05-19_11h29.48.931,RL,2022.2.5,60.059663269326094,
37,71,42,44,0,105,105,105,,,,,,,,,,,None,640.1490185000002,640.1490185000002,640.1490185000002,640.1490185000002,640.1490185000002,640.1490185000002,i,0.28971659999842814,640.4657392999998,640.4657392999998,640.4657392999998,640.4657392999998,640.4657392999998,640.4657392999998,640.7489483999998,641.7825947000001,641.7987431000001,641.7987431000001,641.7987431000001,641.7987431000001,641.7987431000001,641.7987431000001,641.7987431000001,641.7987431000001,641.7987431000001,641.7987431000001,641.7987431000001,641.7987431000001,641.7987431000001,643.1302637999997,643.1302637999997,643.1302637999997,643.1302637999997,643.1302637999997,643.1302637999997,643.1302637999997,42,37,71,44,71,70,643.1302637999997,644.914530600001,,,,,,,,,,,,,,,,,,,,３２０,f,２３,2023-05-19_11h29.48.931,RL,2022.2.5,60.059663269326094,
43,76,49,43,0,106,106,106,,,,,,,,,,,None,644.914530600001,644.914530600001,644.914530600001,644.914530600001,644.914530600001,644.914530600001,i,0.24885770000037155,645.1843370000006,645.1843370000006,645.1843370000006,645.1843370000006,645.1843370000006,645.1843370000006,645.4647478000006,646.9143695000002,646.9311008000004,646.9311008000004,646.9311008000004,646.9311008000004,646.9311008000004,646.9311008000004,646.9311008000004,646.9311008000004,646.9311008000004,646.9311008000004,646.9311008000004,646.9311008000004,646.9311008000004,648.6793237000002,648.6793237000002,648.6793237000002,648.6793237000002,648.6793237000002,648.6793237000002,648.6793237000002,49,43,76,43,76,70,648.6793237000002,650.6637721999996,,,,,,,,,,,,,,,,,,,,３２０,f,２３,2023-05-19_11h29.48.931,RL,2022.2.5,60.059663269326094,
42,76,37,38,0,107,107,107,,,,,,,,,,,None,650.6637721999996,650.6637721999996,650.6637721999996,650.6637721999996,650.6637721999996,650.6637721999996,i,0.2616416000000754,650.9473453999999,650.9473453999999,650.9473453999999,650.9473453999999,650.9473453999999,650.9473453999999,651.2302545000002,652.8635789,652.8801798000004,652.8801798000004,652.8801798000004,652.8801798000004,652.8801798000004,652.8801798000004,652.8801798000004,652.8801798000004,652.8801798000004,652.8801798000004,652.8801798000004,652.8801798000004,652.8801798000004,654.8113915000013,654.8113915000013,654.8113915000013,654.8113915000013,654.8113915000013,654.8113915000013,654.8113915000013,37,42,76,38,76,70,654.8113915000013,656.5124503999996,,,,,,,,,,,,,,,,,,,,３２０,f,２３,2023-05-19_11h29.48.931,RL,2022.2.5,60.059663269326094,
38,77,23,35,0,108,108,108,,,,,,,,,,,None,656.5124503999996,656.5124503999996,656.5124503999996,656.5124503999996,656.5124503999996,656.5124503999996,i,0.4082484000009572,656.9497002999997,656.9497002999997,656.9497002999997,656.9497002999997,656.9497002999997,656.9497002999997,657.2292283999996,658.1958795999999,658.2124144999998,658.2124144999998,658.2124144999998,658.2124144999998,658.2124144999998,658.2124144999998,658.2124144999998,658.2124144999998,658.2124144999998,658.2124144999998,658.2124144999998,658.2124144999998,658.2124144999998,659.4771281000012,659.4771281000012,659.4771281000012,659.4771281000012,659.4771281000012,659.4771281000012,659.4771281000012,23,38,77,35,77,70,659.4771281000012,661.1448603999997,,,,,,,,,,,,,,,,,,,,３２０,f,２３,2023-05-19_11h29.48.931,RL,2022.2.5,60.059663269326094,
37,72,29,42,0,109,109,109,,,,,,,,,,,None,661.1448603999997,661.1448603999997,661.1448603999997,661.1448603999997,661.1448603999997,661.1448603999997,i,0.3507558000001154,661.5327660000003,661.5327660000003,661.5327660000003,661.5327660000003,661.5327660000003,661.5327660000003,661.812124,662.6615911000008,662.6783618999998,662.6783618999998,662.6783618999998,662.6783618999998,662.6783618999998,662.6783618999998,662.6783618999998,662.6783618999998,662.6783618999998,662.6783618999998,662.6783618999998,662.6783618999998,662.6783618999998,663.8265240000001,663.8265240000001,663.8265240000001,663.8265240000001,663.8265240000001,663.8265240000001,663.8265240000001,29,37,72,42,72,70,663.8265240000001,665.7607366000011,,,,,,,,,,,,,,,,,,,,３２０,f,２３,2023-05-19_11h29.48.931,RL,2022.2.5,60.059663269326094,
43,81,35,38,0,110,110,110,,,,,,,,,,,None,665.7607366000011,665.7607366000011,665.7607366000011,665.7607366000011,665.7607366000011,665.7607366000011,i,0.302660500001366,666.1008903000002,666.1008903000002,666.1008903000002,666.1008903000002,666.1008903000002,666.1008903000002,666.3779838999999,668.0439667999999,668.0607404000002,668.0607404000002,668.0607404000002,668.0607404000002,668.0607404000002,668.0607404000002,668.0607404000002,668.0607404000002,668.0607404000002,668.0607404000002,668.0607404000002,668.0607404000002,668.0607404000002,670.0254022999998,670.0254022999998,670.0254022999998,670.0254022999998,670.0254022999998,670.0254022999998,670.0254022999998,35,43,81,38,81,70,670.0254022999998,671.5430082000003,,,,,,,,,,,,,,,,,,,,３２０,f,２３,2023-05-19_11h29.48.931,RL,2022.2.5,60.059663269326094,
35,80,30,42,0,111,111,111,,,,,,,,,,,None,671.5430082000003,671.5430082000003,671.5430082000003,671.5430082000003,671.5430082000003,671.5430082000003,i,0.2474220999993122,671.8107092999999,671.8107092999999,671.8107092999999,671.8107092999999,671.8107092999999,671.8107092999999,672.0934334000012,672.9763890000013,672.993622,672.993622,672.993622,672.993622,672.993622,672.993622,672.993622,672.993622,672.993622,672.993622,672.993622,672.993622,672.993622,674.1749094999996,674.1749094999996,674.1749094999996,674.1749094999996,674.1749094999996,674.1749094999996,674.1749094999996,30,35,80,42,80,70,674.1749094999996,675.9756603000005,,,,,,,,,,,,,,,,,,,,３２０,f,２３,2023-05-19_11h29.48.931,RL,2022.2.5,60.059663269326094,
35,76,34,39,0,112,112,112,,,,,,,,,,,None,675.9756603000005,675.9756603000005,675.9756603000005,675.9756603000005,675.9756603000005,675.9756603000005,i,0.3622027999990678,676.3634880999998,676.3634880999998,676.3634880999998,676.3634880999998,676.3634880999998,676.3634880999998,676.6593095999997,678.5426230000012,678.5426230000012,678.5426230000012,678.5426230000012,678.5426230000012,678.5426230000012,678.5426230000012,678.5426230000012,678.5426230000012,678.5426230000012,678.5426230000012,678.5426230000012,678.5426230000012,678.5426230000012,680.7235145000013,680.7235145000013,680.7235145000013,680.7235145000013,680.7235145000013,680.7235145000013,680.7235145000013,34,35,76,39,76,70,680.7235145000013,682.4414950999999,,,,,,,,,,,,,,,,,,,,３２０,f,２３,2023-05-19_11h29.48.931,RL,2022.2.5,60.059663269326094,
38,66,26,42,0,113,113,113,,,,,,,,,,,None,682.4414950999999,682.4414950999999,682.4414950999999,682.4414950999999,682.4414950999999,682.4414950999999,i,0.28457190000153787,682.761617600001,682.761617600001,682.761617600001,682.761617600001,682.761617600001,682.761617600001,683.0414830999998,684.5411746999998,684.5577728999997,684.5577728999997,684.5577728999997,684.5577728999997,684.5577728999997,684.5577728999997,684.5577728999997,684.5577728999997,684.5577728999997,684.5577728999997,684.5577728999997,684.5577728999997,684.5577728999997,686.3557854999999,686.3557854999999,686.3557854999999,686.3557854999999,686.3557854999999,686.3557854999999,686.3557854999999,26,38,66,42,66,70,686.3557854999999,688.3235156999999,,,,,,,,,,,,,,,,,,,,３２０,f,２３,2023-05-19_11h29.48.931,RL,2022.2.5,60.059663269326094,
23,63,31,37,0,114,114,114,,,,,,,,,,,None,688.3235156999999,688.3235156999999,688.3235156999999,688.3235156999999,688.3235156999999,688.3235156999999,i,0.38200619999952323,688.7259620000004,688.7259620000004,688.7259620000004,688.7259620000004,688.7259620000004,688.7259620000004,689.0237642000011,691.0069187999998,691.0069187999998,691.0069187999998,691.0069187999998,691.0069187999998,691.0069187999998,691.0069187999998,691.0069187999998,691.0069187999998,691.0069187999998,691.0069187999998,691.0069187999998,691.0069187999998,691.0069187999998,693.2883908000003,693.2883908000003,693.2883908000003,693.2883908000003,693.2883908000003,693.2883908000003,693.2883908000003,31,23,63,37,63,70,693.2883908000003,695.0227401000011,,,,,,,,,,,,,,,,,,,,３２０,f,２３,2023-05-19_11h29.48.931,RL,2022.2.5,60.059663269326094,
24,64,28,40,0,115,115,115,,,,,,,,,,,None,695.0227401000011,695.0227401000011,695.0227401000011,695.0227401000011,695.0227401000011,695.0227401000011,f,0.35200430000077176,695.4145955000004,695.4145955000004,695.4145955000004,695.4145955000004,695.4145955000004,695.4145955000004,695.6894418000011,696.6060054999998,696.6225828999995,696.6225828999995,696.6225828999995,696.6225828999995,696.6225828999995,696.6225828999995,696.6225828999995,696.6225828999995,696.6225828999995,696.6225828999995,696.6225828999995,696.6225828999995,696.6225828999995,697.8372662000002,697.8372662000002,697.8372662000002,697.8372662000002,697.8372662000002,697.8372662000002,697.8372662000002,28,24,64,40,28,70,697.8372662000002,699.3554565000013,,,,,,,,,,,,,,,,,,,,３２０,f,２３,2023-05-19_11h29.48.931,RL,2022.2.5,60.059663269326094,
33,68,26,36,0,116,116,116,,,,,,,,,,,None,699.3554565000013,699.3554565000013,699.3554565000013,699.3554565000013,699.3554565000013,699.3554565000013,i,0.3480990000007296,699.7224533999997,699.7224533999997,699.7224533999997,699.7224533999997,699.7224533999997,699.7224533999997,700.0060013000002,701.7889907000008,701.8054162000008,701.8054162000008,701.8054162000008,701.8054162000008,701.8054162000008,701.8054162000008,701.8054162000008,701.8054162000008,701.8054162000008,701.8054162000008,701.8054162000008,701.8054162000008,701.8054162000008,703.886536,703.886536,703.886536,703.886536,703.886536,703.886536,703.886536,26,33,68,36,68,70,703.886536,705.8210937000003,,,,,,,,,,,,,,,,,,,,３２０,f,２３,2023-05-19_11h29.48.931,RL,2022.2.5,60.059663269326094,
19,66,28,36,0,117,117,117,,,,,,,,,,,None,705.8210937000003,705.8210937000003,705.8210937000003,705.8210937000003,705.8210937000003,705.8210937000003,i,0.54348519999985,706.3881280000005,706.3881280000005,706.3881280000005,706.3881280000005,706.3881280000005,706.3881280000005,706.6878597000014,708.670759300001,708.6873723999997,708.6873723999997,708.6873723999997,708.6873723999997,708.6873723999997,708.6873723999997,708.6873723999997,708.6873723999997,708.6873723999997,708.6873723999997,708.6873723999997,708.6873723999997,708.6873723999997,710.9690049000001,710.9690049000001,710.9690049000001,710.9690049000001,710.9690049000001,710.9690049000001,710.9690049000001,28,19,66,36,66,70,710.9690049000001,712.9033073999999,,,,,,,,,,,,,,,,,,,,３２０,f,２３,2023-05-19_11h29.48.931,RL,2022.2.5,60.059663269326094,
25,66,31,37,0,118,118,118,,,,,,,,,,,None,712.9033073999999,712.9033073999999,712.9033073999999,712.9033073999999,712.9033073999999,712.9033073999999,j,0.33108270000047924,713.2567409000003,713.2567409000003,713.2567409000003,713.2567409000003,713.2567409000003,713.2567409000003,713.5366394000011,715.1360070999999,715.1694674000009,715.1694674000009,715.1694674000009,715.1694674000009,715.1694674000009,715.1694674000009,715.1694674000009,715.1694674000009,715.1694674000009,715.1694674000009,715.1694674000009,715.1694674000009,715.1694674000009,717.067543000001,717.067543000001,717.067543000001,717.067543000001,717.067543000001,717.067543000001,717.067543000001,31,25,66,37,37,70,717.067543000001,719.0183281000009,,,,,,,,,,,,,,,,,,,,３２０,f,２３,2023-05-19_11h29.48.931,RL,2022.2.5,60.059663269326094,
33,56,36,37,0,119,119,119,,,,,,,,,,,None,719.0183281000009,719.0183281000009,719.0183281000009,719.0183281000009,719.0183281000009,719.0183281000009,r,0.27630559999852267,719.3187870000002,719.3187870000002,719.3187870000002,719.3187870000002,719.3187870000002,719.3187870000002,719.6019317999999,720.9020658000009,720.9185017,720.9185017,720.9185017,720.9185017,720.9185017,720.9185017,720.9185017,720.9185017,720.9185017,720.9185017,720.9185017,720.9185017,720.9185017,722.5166864000003,722.5166864000003,722.5166864000003,722.5166864000003,722.5166864000003,722.5166864000003,722.5166864000003,36,33,56,37,33,70,722.5166864000003,724.4506720999998,,,,,,,,,,,,,,,,,,,,３２０,f,２３,2023-05-19_11h29.48.931,RL,2022.2.5,60.059663269326094,
32,63,27,36,0,120,120,120,,,,,,,,,,,None,724.4506720999998,724.4506720999998,724.4506720999998,724.4506720999998,724.4506720999998,724.4506720999998,i,0.32311010000012175,724.8057564999999,724.8057564999999,724.8057564999999,724.8057564999999,724.8057564999999,724.8057564999999,725.1015607000008,726.1845411000013,726.1845411000013,726.1845411000013,726.1845411000013,726.1845411000013,726.1845411000013,726.1845411000013,726.1845411000013,726.1845411000013,726.1845411000013,726.1845411000013,726.1845411000013,726.1845411000013,726.1845411000013,727.5654169000009,727.5654169000009,727.5654169000009,727.5654169000009,727.5654169000009,727.5654169000009,727.5654169000009,27,32,63,36,63,70,727.5654169000009,729.4995438000005,,,,,,,,,,,,,,,,,,,,３２０,f,２３,2023-05-19_11h29.48.931,RL,2022.2.5,60.059663269326094,
