arm1,arm2,arm3,arm4,trials.thisRepN,trials.thisTrialN,trials.thisN,trials.thisIndex,instru_img1.started,instru_resp.started,instru_resp.keys,instru_resp.rt,image_2.started,text_2.started,image_2.stopped,text_2.stopped,fixbefore_2.started,fixbefore_2.stopped,rest_response.keys,red.started,green.started,yellow.started,blue.started,choose_bandit.started,Fixation.started,choose_bandit.keys,choose_bandit.rt,black.started,red_2.started,green_2.started,yellow_2.started,blue_2.started,fixation_2.started,docs.started,docs.stopped,black.stopped,red_2.stopped,green_2.stopped,yellow_2.stopped,blue_2.stopped,fixation_2.stopped,black_com.started,reward_sub.started,reward__sub.started,red_compare.started,green_com.started,yellow_com.started,blue_com.started,black_com.stopped,reward_sub.stopped,reward__sub.stopped,red_compare.stopped,green_com.stopped,yellow_com.stopped,blue_com.stopped,rewardred,rewardyellow,rewardblue,rewardgreen,subchoose,expectation,intertrialfix.started,intertrialfix.stopped,red.stopped,green.stopped,yellow.stopped,blue.stopped,choose_bandit.stopped,Fixation.stopped,bigx.started,bigx.stopped,rest_image.started,rest_response.started,rest_response.rt,image_expect_after.started,text_exp_after.started,image_expect_after.stopped,text_exp_after.stopped,image.started,key_resp.started,key_resp.keys,key_resp.rt,participant,Gender,Age,date,expName,psychopyVersion,frameRate,
,,,,,,,,20.04616139997961,20.04616139997961,space,16.358891299983952,,,,,,,,,,,,,,,,,,,,,,,,,,,,,,,,,,,,,,,,,,,,,,,,,,,,,,,,,,,,,,,,,,,,,,,３３１,f,２３,2023-05-21_09h00.32.824,RL,2022.2.5,59.91317382299069,
30,40,56,63,0,0,0,0,,,,,36.432773799984716,36.432773799984716,41.43225319997873,41.43225319997873,41.43225319997873,42.433708299999125,None,42.433708299999125,42.433708299999125,42.433708299999125,42.433708299999125,42.433708299999125,42.433708299999125,f,0.6790820999885909,43.14744879998034,43.14744879998034,43.14744879998034,43.14744879998034,43.14744879998034,43.14744879998034,43.43344639998395,44.95011069998145,44.967285099992296,44.967285099992296,44.967285099992296,44.967285099992296,44.967285099992296,44.967285099992296,44.967285099992296,44.967285099992296,44.967285099992296,44.967285099992296,44.967285099992296,44.967285099992296,44.967285099992296,46.82712669999455,46.82712669999455,46.82712669999455,46.82712669999455,46.82712669999455,46.82712669999455,46.82712669999455,30,56,40,63,30,60,46.82712669999455,48.64932749999571,,,,,,,,,,,,,,,,,,,,３３１,f,２３,2023-05-21_09h00.32.824,RL,2022.2.5,59.91317382299069,
33,40,56,55,0,1,1,1,,,,,,,,,,,None,48.64932749999571,48.64932749999571,48.64932749999571,48.64932749999571,48.64932749999571,48.64932749999571,r,0.33347300000605173,49.00273310000193,49.00273310000193,49.00273310000193,49.00273310000193,49.00273310000193,49.00273310000193,49.29936279999674,50.18204899999546,50.18204899999546,50.18204899999546,50.18204899999546,50.18204899999546,50.18204899999546,50.18204899999546,50.18204899999546,50.18204899999546,50.18204899999546,50.18204899999546,50.18204899999546,50.18204899999546,50.18204899999546,51.363676099979784,51.363676099979784,51.363676099979784,51.363676099979784,51.363676099979784,51.363676099979784,51.363676099979784,33,56,40,55,56,60,51.363676099979784,53.298272699990775,,,,,,,,,,,,,,,,,,,,３３１,f,２３,2023-05-21_09h00.32.824,RL,2022.2.5,59.91317382299069,
28,44,54,63,0,2,2,2,,,,,,,,,,,None,53.298272699990775,53.298272699990775,53.298272699990775,53.298272699990775,53.298272699990775,53.298272699990775,j,0.3188603000016883,53.6556838999968,53.6556838999968,53.6556838999968,53.6556838999968,53.6556838999968,53.6556838999968,53.93221449997509,55.61508619997767,55.6311268999998,55.6311268999998,55.6311268999998,55.6311268999998,55.6311268999998,55.6311268999998,55.6311268999998,55.6311268999998,55.6311268999998,55.6311268999998,55.6311268999998,55.6311268999998,55.6311268999998,57.613006799976574,57.613006799976574,57.613006799976574,57.613006799976574,57.613006799976574,57.613006799976574,57.613006799976574,28,54,44,63,63,60,57.613006799976574,59.464122999983374,,,,,,,,,,,,,,,,,,,,３３１,f,２３,2023-05-21_09h00.32.824,RL,2022.2.5,59.91317382299069,
22,38,54,53,0,3,3,3,,,,,,,,,,,None,59.464122999983374,59.464122999983374,59.464122999983374,59.464122999983374,59.464122999983374,59.464122999983374,i,0.3525826999975834,59.85156359997927,59.85156359997927,59.85156359997927,59.85156359997927,59.85156359997927,59.85156359997927,60.13063699999475,62.11368989999755,62.13000859998283,62.13000859998283,62.13000859998283,62.13000859998283,62.13000859998283,62.13000859998283,62.13000859998283,62.13000859998283,62.13000859998283,62.13000859998283,62.13000859998283,62.13000859998283,62.13000859998283,64.41173299998627,64.41173299998627,64.41173299998627,64.41173299998627,64.41173299998627,64.41173299998627,64.41173299998627,22,54,38,53,38,60,64.41173299998627,65.99611099998583,,,,,,,,,,,,,,,,,,,,３３１,f,２３,2023-05-21_09h00.32.824,RL,2022.2.5,59.91317382299069,
30,44,59,59,0,4,4,4,,,,,,,,,,,None,65.99611099998583,65.99611099998583,65.99611099998583,65.99611099998583,65.99611099998583,65.99611099998583,j,0.3257393999956548,66.34656529998756,66.34656529998756,66.34656529998756,66.34656529998756,66.34656529998756,66.34656529998756,66.64598319999641,68.49998739999137,68.49998739999137,68.49998739999137,68.49998739999137,68.49998739999137,68.49998739999137,68.49998739999137,68.49998739999137,68.49998739999137,68.49998739999137,68.49998739999137,68.49998739999137,68.49998739999137,68.49998739999137,70.64406510000117,70.64406510000117,70.64406510000117,70.64406510000117,70.64406510000117,70.64406510000117,70.64406510000117,30,59,44,59,59,60,70.64406510000117,72.645196700003,,,,,,,,,,,,,,,,,,,,３３１,f,２３,2023-05-21_09h00.32.824,RL,2022.2.5,59.91317382299069,
33,44,64,55,0,5,5,5,,,,,,,,,,,None,72.645196700003,72.645196700003,72.645196700003,72.645196700003,72.645196700003,72.645196700003,j,0.3543192000070121,73.02978019998409,73.02978019998409,73.02978019998409,73.02978019998409,73.02978019998409,73.02978019998409,73.31183699998655,74.29535249999026,74.31163079998805,74.31163079998805,74.31163079998805,74.31163079998805,74.31163079998805,74.31163079998805,74.31163079998805,74.31163079998805,74.31163079998805,74.31163079998805,74.31163079998805,74.31163079998805,74.31163079998805,75.59293829998933,75.59293829998933,75.59293829998933,75.59293829998933,75.59293829998933,75.59293829998933,75.59293829998933,33,64,44,55,55,60,75.59293829998933,77.29428649999318,,,,,,,,,,,,,,,,,,,,３３１,f,２３,2023-05-21_09h00.32.824,RL,2022.2.5,59.91317382299069,
28,44,61,52,0,6,6,6,,,,,,,,,,,None,77.29428649999318,77.29428649999318,77.29428649999318,77.29428649999318,77.29428649999318,77.29428649999318,f,0.39621450001141056,77.71161879997817,77.71161879997817,77.71161879997817,77.71161879997817,77.71161879997817,77.71161879997817,78.01145269998233,79.16088049998507,79.16088049998507,79.16088049998507,79.16088049998507,79.16088049998507,79.16088049998507,79.16088049998507,79.16088049998507,79.16088049998507,79.16088049998507,79.16088049998507,79.16088049998507,79.16088049998507,79.16088049998507,80.60914559999947,80.60914559999947,80.60914559999947,80.60914559999947,80.60914559999947,80.60914559999947,80.60914559999947,28,61,44,52,28,60,80.60914559999947,82.26009539997904,,,,,,,,,,,,,,,,,,,,３３１,f,２３,2023-05-21_09h00.32.824,RL,2022.2.5,59.91317382299069,
26,46,68,44,0,7,7,7,,,,,,,,,,,None,82.26009539997904,82.26009539997904,82.26009539997904,82.26009539997904,82.26009539997904,82.26009539997904,r,0.5812757999810856,82.86200569997891,82.86200569997891,82.86200569997891,82.86200569997891,82.86200569997891,82.86200569997891,83.16015299997525,84.92627739999443,84.92627739999443,84.92627739999443,84.92627739999443,84.92627739999443,84.92627739999443,84.92627739999443,84.92627739999443,84.92627739999443,84.92627739999443,84.92627739999443,84.92627739999443,84.92627739999443,84.92627739999443,86.99104490000173,86.99104490000173,86.99104490000173,86.99104490000173,86.99104490000173,86.99104490000173,86.99104490000173,26,68,46,44,68,60,86.99104490000173,88.80909119997523,,,,,,,,,,,,,,,,,,,,３３１,f,２３,2023-05-21_09h00.32.824,RL,2022.2.5,59.91317382299069,
29,45,69,47,0,8,8,8,,,,,,,,,,,None,88.80909119997523,88.80909119997523,88.80909119997523,88.80909119997523,88.80909119997523,88.80909119997523,r,0.2957352999947034,89.12595459999284,89.12595459999284,89.12595459999284,89.12595459999284,89.12595459999284,89.12595459999284,89.42555839999113,91.12519089999842,91.12519089999842,91.12519089999842,91.12519089999842,91.12519089999842,91.12519089999842,91.12519089999842,91.12519089999842,91.12519089999842,91.12519089999842,91.12519089999842,91.12519089999842,91.12519089999842,91.12519089999842,93.12372149998555,93.12372149998555,93.12372149998555,93.12372149998555,93.12372149998555,93.12372149998555,93.12372149998555,29,69,45,47,69,60,93.12372149998555,95.04088570000022,,,,,,,,,,,,,,,,,,,,３３１,f,２３,2023-05-21_09h00.32.824,RL,2022.2.5,59.91317382299069,
24,50,63,37,0,9,9,9,,,,,,,,,,,None,95.04088570000022,95.04088570000022,95.04088570000022,95.04088570000022,95.04088570000022,95.04088570000022,r,0.2848680000170134,95.35936949998722,95.35936949998722,95.35936949998722,95.35936949998722,95.35936949998722,95.35936949998722,95.64121549998526,96.47460529999807,96.49115989997517,96.49115989997517,96.49115989997517,96.49115989997517,96.49115989997517,96.49115989997517,96.49115989997517,96.49115989997517,96.49115989997517,96.49115989997517,96.49115989997517,96.49115989997517,96.49115989997517,97.62253799999598,97.62253799999598,97.62253799999598,97.62253799999598,97.62253799999598,97.62253799999598,97.62253799999598,24,63,50,37,63,60,97.62253799999598,99.19016399999964,,,,,,,,,,,,,,,,,,,,３３１,f,２３,2023-05-21_09h00.32.824,RL,2022.2.5,59.91317382299069,
24,52,69,47,0,10,10,10,,,,,,,,,,,None,99.19016399999964,99.19016399999964,99.19016399999964,99.19016399999964,99.19016399999964,99.19016399999964,r,0.42950070000370033,99.64186709999922,99.64186709999922,99.64186709999922,99.64186709999922,99.64186709999922,99.64186709999922,99.94029219998629,100.92361019999953,100.92361019999953,100.92361019999953,100.92361019999953,100.92361019999953,100.92361019999953,100.92361019999953,100.92361019999953,100.92361019999953,100.92361019999953,100.92361019999953,100.92361019999953,100.92361019999953,100.92361019999953,102.20518249997986,102.20518249997986,102.20518249997986,102.20518249997986,102.20518249997986,102.20518249997986,102.20518249997986,24,69,52,47,69,60,102.20518249997986,103.8225320999918,,,,,,,,,,,,,,,,,,,,３３１,f,２３,2023-05-21_09h00.32.824,RL,2022.2.5,59.91317382299069,
23,50,55,40,0,11,11,11,,,,,,,,,,,None,103.8225320999918,103.8225320999918,103.8225320999918,103.8225320999918,103.8225320999918,103.8225320999918,r,0.26250209999852814,104.10759040000266,104.10759040000266,104.10759040000266,104.10759040000266,104.10759040000266,104.10759040000266,104.40635769997607,105.2898026999901,105.2898026999901,105.2898026999901,105.2898026999901,105.2898026999901,105.2898026999901,105.2898026999901,105.2898026999901,105.2898026999901,105.2898026999901,105.2898026999901,105.2898026999901,105.2898026999901,105.2898026999901,106.47143419997883,106.47143419997883,106.47143419997883,106.47143419997883,106.47143419997883,106.47143419997883,106.47143419997883,23,55,50,40,55,60,106.47143419997883,108.25533929999801,,,,,,,,,,,,,,,,,,,,３３１,f,２３,2023-05-21_09h00.32.824,RL,2022.2.5,59.91317382299069,
37,42,51,46,0,12,12,12,,,,,,,,,,,None,108.25533929999801,108.25533929999801,108.25533929999801,108.25533929999801,108.25533929999801,108.25533929999801,j,0.24581140000373125,108.52292819999275,108.52292819999275,108.52292819999275,108.52292819999275,108.52292819999275,108.52292819999275,108.80578699999023,109.82221509999363,109.83844130000216,109.83844130000216,109.83844130000216,109.83844130000216,109.83844130000216,109.83844130000216,109.83844130000216,109.83844130000216,109.83844130000216,109.83844130000216,109.83844130000216,109.83844130000216,109.83844130000216,111.15339569997741,111.15339569997741,111.15339569997741,111.15339569997741,111.15339569997741,111.15339569997741,111.15339569997741,37,51,42,46,46,60,111.15339569997741,113.10506889998214,,,,,,,,,,,,,,,,,,,,３３１,f,２３,2023-05-21_09h00.32.824,RL,2022.2.5,59.91317382299069,
26,58,48,47,0,13,13,13,,,,,,,,,,,None,113.10506889998214,113.10506889998214,113.10506889998214,113.10506889998214,113.10506889998214,113.10506889998214,r,0.2861990999954287,113.42427429999225,113.42427429999225,113.42427429999225,113.42427429999225,113.42427429999225,113.42427429999225,113.72148719997494,114.7877072999836,114.80453389999457,114.80453389999457,114.80453389999457,114.80453389999457,114.80453389999457,114.80453389999457,114.80453389999457,114.80453389999457,114.80453389999457,114.80453389999457,114.80453389999457,114.80453389999457,114.80453389999457,116.16939339999226,116.16939339999226,116.16939339999226,116.16939339999226,116.16939339999226,116.16939339999226,116.16939339999226,26,48,58,47,48,60,116.16939339999226,117.85374579997733,,,,,,,,,,,,,,,,,,,,３３１,f,２３,2023-05-21_09h00.32.824,RL,2022.2.5,59.91317382299069,
32,59,54,40,0,14,14,14,,,,,,,,,,,None,117.85374579997733,117.85374579997733,117.85374579997733,117.85374579997733,117.85374579997733,117.85374579997733,i,0.3762206000101287,118.25400349998381,118.25400349998381,118.25400349998381,118.25400349998381,118.25400349998381,118.25400349998381,118.53768749997835,119.75427899998613,119.77045270000235,119.77045270000235,119.77045270000235,119.77045270000235,119.77045270000235,119.77045270000235,119.77045270000235,119.77045270000235,119.77045270000235,119.77045270000235,119.77045270000235,119.77045270000235,119.77045270000235,121.2852555999998,121.2852555999998,121.2852555999998,121.2852555999998,121.2852555999998,121.2852555999998,121.2852555999998,32,54,59,40,59,60,121.2852555999998,123.06928339999286,,,,,,,,,,,,,,,,,,,,３３１,f,２３,2023-05-21_09h00.32.824,RL,2022.2.5,59.91317382299069,
34,54,53,36,0,15,15,15,,,,,,,,,,,None,123.06928339999286,123.06928339999286,123.06928339999286,123.06928339999286,123.06928339999286,123.06928339999286,i,0.3009180000226479,123.4075179999927,123.4075179999927,123.4075179999927,123.4075179999927,123.4075179999927,123.4075179999927,123.70344139999361,125.35296649998054,125.35296649998054,125.35296649998054,125.35296649998054,125.35296649998054,125.35296649998054,125.35296649998054,125.35296649998054,125.35296649998054,125.35296649998054,125.35296649998054,125.35296649998054,125.35296649998054,125.35296649998054,127.30086049999227,127.30086049999227,127.30086049999227,127.30086049999227,127.30086049999227,127.30086049999227,127.30086049999227,34,53,54,36,54,60,127.30086049999227,128.96861319997697,,,,,,,,,,,,,,,,,,,,３３１,f,２３,2023-05-21_09h00.32.824,RL,2022.2.5,59.91317382299069,
19,48,53,46,0,16,16,16,,,,,,,,,,,None,128.96861319997697,128.96861319997697,128.96861319997697,128.96861319997697,128.96861319997697,128.96861319997697,i,0.43873349999194033,129.43791329997475,129.43791329997475,129.43791329997475,129.43791329997475,129.43791329997475,129.43791329997475,129.73504469997715,131.4348798999854,131.4348798999854,131.4348798999854,131.4348798999854,131.4348798999854,131.4348798999854,131.4348798999854,131.4348798999854,131.4348798999854,131.4348798999854,131.4348798999854,131.4348798999854,131.4348798999854,131.4348798999854,133.4329673999746,133.4329673999746,133.4329673999746,133.4329673999746,133.4329673999746,133.4329673999746,133.4329673999746,19,53,48,46,48,60,133.4329673999746,135.21756739998818,,,,,,,,,,,,,,,,,,,,３３１,f,２３,2023-05-21_09h00.32.824,RL,2022.2.5,59.91317382299069,
30,49,56,34,0,17,17,17,,,,,,,,,,,None,135.21756739998818,135.21756739998818,135.21756739998818,135.21756739998818,135.21756739998818,135.21756739998818,f,0.4472263999923598,135.68568639998557,135.68568639998557,135.68568639998557,135.68568639998557,135.68568639998557,135.68568639998557,135.98468659998616,137.73360079998383,137.73360079998383,137.73360079998383,137.73360079998383,137.73360079998383,137.73360079998383,137.73360079998383,137.73360079998383,137.73360079998383,137.73360079998383,137.73360079998383,137.73360079998383,137.73360079998383,137.73360079998383,139.782320600003,139.782320600003,139.782320600003,139.782320600003,139.782320600003,139.782320600003,139.782320600003,30,56,49,34,30,60,139.782320600003,141.6998259999964,,,,,,,,,,,,,,,,,,,,３３１,f,２３,2023-05-21_09h00.32.824,RL,2022.2.5,59.91317382299069,
27,49,60,37,0,18,18,18,,,,,,,,,,,None,141.6998259999964,141.6998259999964,141.6998259999964,141.6998259999964,141.6998259999964,141.6998259999964,r,0.42062900000019,142.15320559998509,142.15320559998509,142.15320559998509,142.15320559998509,142.15320559998509,142.15320559998509,142.45038189998013,144.09944550000364,144.09944550000364,144.09944550000364,144.09944550000364,144.09944550000364,144.09944550000364,144.09944550000364,144.09944550000364,144.09944550000364,144.09944550000364,144.09944550000364,144.09944550000364,144.09944550000364,144.09944550000364,146.04763439999078,146.04763439999078,146.04763439999078,146.04763439999078,146.04763439999078,146.04763439999078,146.04763439999078,27,60,49,37,60,60,146.04763439999078,147.86556739997468,,,,,,,,,,,,,,,,,,,,３３１,f,２３,2023-05-21_09h00.32.824,RL,2022.2.5,59.91317382299069,
26,54,61,40,0,19,19,19,,,,,,,,,,,None,147.86556739997468,147.86556739997468,147.86556739997468,147.86556739997468,147.86556739997468,147.86556739997468,r,0.3649298000091221,148.25112459997763,148.25112459997763,148.25112459997763,148.25112459997763,148.25112459997763,148.25112459997763,148.53237410000293,150.4988452999969,150.5148491,150.5148491,150.5148491,150.5148491,150.5148491,150.5148491,150.5148491,150.5148491,150.5148491,150.5148491,150.5148491,150.5148491,150.5148491,152.77936009998666,152.77936009998666,152.77936009998666,152.77936009998666,152.77936009998666,152.77936009998666,152.77936009998666,26,61,54,40,61,60,152.77936009998666,154.49761289998423,,,,,,,,,,,,,,,,,,,,３３１,f,２３,2023-05-21_09h00.32.824,RL,2022.2.5,59.91317382299069,
22,52,56,40,0,20,20,20,,,,,,,,,,,None,154.49761289998423,154.49761289998423,154.49761289998423,154.49761289998423,154.49761289998423,154.49761289998423,r,0.2964075999916531,154.8169135999924,154.8169135999924,154.8169135999924,154.8169135999924,154.8169135999924,154.8169135999924,155.11461540000164,156.69717989998753,156.69717989998753,156.69717989998753,156.69717989998753,156.69717989998753,156.69717989998753,156.69717989998753,156.69717989998753,156.69717989998753,156.69717989998753,156.69717989998753,156.69717989998753,156.69717989998753,156.69717989998753,158.5785668999888,158.5785668999888,158.5785668999888,158.5785668999888,158.5785668999888,158.5785668999888,158.5785668999888,22,56,52,40,56,60,158.5785668999888,160.14634859998478,,,,,,,,,,,,,,,,,,,,３３１,f,２３,2023-05-21_09h00.32.824,RL,2022.2.5,59.91317382299069,
25,49,70,39,0,21,21,21,,,,,,,,,,,None,160.14634859998478,160.14634859998478,160.14634859998478,160.14634859998478,160.14634859998478,160.14634859998478,i,0.8808425000170246,161.04694089997793,161.04694089997793,161.04694089997793,161.04694089997793,161.04694089997793,161.04694089997793,161.32958799999324,163.19642609998118,163.22938659999636,163.22938659999636,163.22938659999636,163.22938659999636,163.22938659999636,163.22938659999636,163.22938659999636,163.22938659999636,163.22938659999636,163.22938659999636,163.22938659999636,163.22938659999636,163.22938659999636,165.41069849999622,165.41069849999622,165.41069849999622,165.41069849999622,165.41069849999622,165.41069849999622,165.41069849999622,25,70,49,39,49,60,165.41069849999622,167.11208209997858,,,,,,,,,,,,,,,,,,,,３３１,f,２３,2023-05-21_09h00.32.824,RL,2022.2.5,59.91317382299069,
23,51,51,37,0,22,22,22,,,,,,,,,,,None,167.11208209997858,167.11208209997858,167.11208209997858,167.11208209997858,167.11208209997858,167.11208209997858,r,0.4340853000176139,167.56564909999724,167.56564909999724,167.56564909999724,167.56564909999724,167.56564909999724,167.56564909999724,167.8621615000011,169.22855749999871,169.22855749999871,169.22855749999871,169.22855749999871,169.22855749999871,169.22855749999871,169.22855749999871,169.22855749999871,169.22855749999871,169.22855749999871,169.22855749999871,169.22855749999871,169.22855749999871,169.22855749999871,170.8934997000033,170.8934997000033,170.8934997000033,170.8934997000033,170.8934997000033,170.8934997000033,170.8934997000033,23,51,51,37,51,60,170.8934997000033,172.59427189998678,,,,,,,,,,,,,,,,,,,,３３１,f,２３,2023-05-21_09h00.32.824,RL,2022.2.5,59.91317382299069,
31,43,53,36,0,23,23,23,,,,,,,,,,,None,172.59427189998678,172.59427189998678,172.59427189998678,172.59427189998678,172.59427189998678,172.59427189998678,j,0.42492740001762286,173.04508119999082,173.04508119999082,173.04508119999082,173.04508119999082,173.04508119999082,173.04508119999082,173.344331899978,174.71103279999807,174.71103279999807,174.71103279999807,174.71103279999807,174.71103279999807,174.71103279999807,174.71103279999807,174.71103279999807,174.71103279999807,174.71103279999807,174.71103279999807,174.71103279999807,174.71103279999807,174.71103279999807,176.3753555000003,176.3753555000003,176.3753555000003,176.3753555000003,176.3753555000003,176.3753555000003,176.3753555000003,31,53,43,36,36,60,176.3753555000003,177.97666819998994,,,,,,,,,,,,,,,,,,,,３３１,f,２３,2023-05-21_09h00.32.824,RL,2022.2.5,59.91317382299069,
20,40,55,43,0,24,24,24,,,,,,,,,,,None,177.97666819998994,177.97666819998994,177.97666819998994,177.97666819998994,177.97666819998994,177.97666819998994,r,1.0197666000167374,179.03382229999988,179.03382229999988,179.03382229999988,179.03382229999988,179.03382229999988,179.03382229999988,179.310364999983,180.37628569998196,180.40980649998528,180.40980649998528,180.40980649998528,180.40980649998528,180.40980649998528,180.40980649998528,180.40980649998528,180.40980649998528,180.40980649998528,180.40980649998528,180.40980649998528,180.40980649998528,180.40980649998528,181.77459129999625,181.77459129999625,181.77459129999625,181.77459129999625,181.77459129999625,181.77459129999625,181.77459129999625,20,55,40,43,55,60,181.77459129999625,183.45887729999959,,,,,,,,,,,,,,,,,,,,３３１,f,２３,2023-05-21_09h00.32.824,RL,2022.2.5,59.91317382299069,
26,36,52,36,0,25,25,25,,,,,,,,,,,None,183.45887729999959,183.45887729999959,183.45887729999959,183.45887729999959,183.45887729999959,183.45887729999959,r,0.7497892999963369,184.24621319997823,184.24621319997823,184.24621319997823,184.24621319997823,184.24621319997823,184.24621319997823,184.52599619998364,185.6591223999858,185.675780199992,185.675780199992,185.675780199992,185.675780199992,185.675780199992,185.675780199992,185.675780199992,185.675780199992,185.675780199992,185.675780199992,185.675780199992,185.675780199992,185.675780199992,187.10744199997862,187.10744199997862,187.10744199997862,187.10744199997862,187.10744199997862,187.10744199997862,187.10744199997862,26,52,36,36,52,60,187.10744199997862,188.8411727999919,,,,,,,,,,,,,,,,,,,,３３１,f,２３,2023-05-21_09h00.32.824,RL,2022.2.5,59.91317382299069,
13,35,55,29,0,26,26,26,,,,,,,,,,,None,188.8411727999919,188.8411727999919,188.8411727999919,188.8411727999919,188.8411727999919,188.8411727999919,r,0.3630853000213392,189.2264030999795,189.2264030999795,189.2264030999795,189.2264030999795,189.2264030999795,189.2264030999795,189.5249965999974,190.99129320000065,190.99129320000065,190.99129320000065,190.99129320000065,190.99129320000065,190.99129320000065,190.99129320000065,190.99129320000065,190.99129320000065,190.99129320000065,190.99129320000065,190.99129320000065,190.99129320000065,190.99129320000065,192.75633859998197,192.75633859998197,192.75633859998197,192.75633859998197,192.75633859998197,192.75633859998197,192.75633859998197,13,55,35,29,55,60,192.75633859998197,194.35727589999442,,,,,,,,,,,,,,,,,,,,３３１,f,２３,2023-05-21_09h00.32.824,RL,2022.2.5,59.91317382299069,
8,42,45,32,0,27,27,27,,,,,,,,,,,None,194.35727589999442,194.35727589999442,194.35727589999442,194.35727589999442,194.35727589999442,194.35727589999442,f,0.38540549998288043,194.7748961999896,194.7748961999896,194.7748961999896,194.7748961999896,194.7748961999896,194.7748961999896,195.05735019998974,196.40696839999873,196.4239768999978,196.4239768999978,196.4239768999978,196.4239768999978,196.4239768999978,196.4239768999978,196.4239768999978,196.4239768999978,196.4239768999978,196.4239768999978,196.4239768999978,196.4239768999978,196.4239768999978,198.07159559999127,198.07159559999127,198.07159559999127,198.07159559999127,198.07159559999127,198.07159559999127,198.07159559999127,8,45,42,32,8,60,198.07159559999127,199.63961549999658,,,,,,,,,,,,,,,,,,,,３３１,f,２３,2023-05-21_09h00.32.824,RL,2022.2.5,59.91317382299069,
22,42,63,29,0,28,28,28,,,,,,,,,,,None,199.63961549999658,199.63961549999658,199.63961549999658,199.63961549999658,199.63961549999658,199.63961549999658,r,0.2959778000076767,199.95699959999183,199.95699959999183,199.95699959999183,199.95699959999183,199.95699959999183,199.95699959999183,200.23991219999152,201.37249129998963,201.38952379999682,201.38952379999682,201.38952379999682,201.38952379999682,201.38952379999682,201.38952379999682,201.38952379999682,201.38952379999682,201.38952379999682,201.38952379999682,201.38952379999682,201.38952379999682,201.38952379999682,202.82111189997522,202.82111189997522,202.82111189997522,202.82111189997522,202.82111189997522,202.82111189997522,202.82111189997522,22,63,42,29,63,60,202.82111189997522,204.52208389999578,,,,,,,,,,,,,,,,,,,,３３１,f,２３,2023-05-21_09h00.32.824,RL,2022.2.5,59.91317382299069,
25,39,57,33,0,29,29,29,,,,,,,,,,,None,204.52208389999578,204.52208389999578,204.52208389999578,204.52208389999578,204.52208389999578,204.52208389999578,r,0.34523480001371354,204.88940580000053,204.88940580000053,204.88940580000053,204.88940580000053,204.88940580000053,204.88940580000053,205.172579999984,206.22241089999443,206.23854829999618,206.23854829999618,206.23854829999618,206.23854829999618,206.23854829999618,206.23854829999618,206.23854829999618,206.23854829999618,206.23854829999618,206.23854829999618,206.23854829999618,206.23854829999618,206.23854829999618,207.58725839998806,207.58725839998806,207.58725839998806,207.58725839998806,207.58725839998806,207.58725839998806,207.58725839998806,25,57,39,33,57,60,207.58725839998806,209.27108779997798,,,,,,,,,,,,,,,,,,,,３３１,f,２３,2023-05-21_09h00.32.824,RL,2022.2.5,59.91317382299069,
27,48,55,25,0,30,30,30,,,,,,,,,,,None,209.27108779997798,209.27108779997798,209.27108779997798,209.27108779997798,209.27108779997798,209.27108779997798,r,0.46610879999934696,209.7566098999814,209.7566098999814,209.7566098999814,209.7566098999814,209.7566098999814,209.7566098999814,210.03795420000097,211.27121769997757,211.28781379997963,211.28781379997963,211.28781379997963,211.28781379997963,211.28781379997963,211.28781379997963,211.28781379997963,211.28781379997963,211.28781379997963,211.28781379997963,211.28781379997963,211.28781379997963,211.28781379997963,212.81907589998445,212.81907589998445,212.81907589998445,212.81907589998445,212.81907589998445,212.81907589998445,212.81907589998445,27,55,48,25,55,60,212.81907589998445,214.82024899998214,,,,,,,,,,,,,,,,,,,,３３１,f,２３,2023-05-21_09h00.32.824,RL,2022.2.5,59.91317382299069,
23,52,50,31,0,31,31,31,,,,,,,,,,,None,214.82024899998214,214.82024899998214,214.82024899998214,214.82024899998214,214.82024899998214,214.82024899998214,i,0.5492075000074692,215.38722799997777,215.38722799997777,215.38722799997777,215.38722799997777,215.38722799997777,215.38722799997777,215.6707880999893,217.35366689998773,217.37017479998758,217.37017479998758,217.37017479998758,217.37017479998758,217.37017479998758,217.37017479998758,217.37017479998758,217.37017479998758,217.37017479998758,217.37017479998758,217.37017479998758,217.37017479998758,217.37017479998758,219.35145259997807,219.35145259997807,219.35145259997807,219.35145259997807,219.35145259997807,219.35145259997807,219.35145259997807,23,50,52,31,52,60,219.35145259997807,220.9356818999804,,,,,,,,,,,,,,,,,,,,３３１,f,２３,2023-05-21_09h00.32.824,RL,2022.2.5,59.91317382299069,
23,55,49,42,0,32,32,32,,,,,,,,,,,None,220.9356818999804,220.9356818999804,220.9356818999804,220.9356818999804,220.9356818999804,220.9356818999804,r,0.3679122000175994,221.3414969999867,221.3414969999867,221.3414969999867,221.3414969999867,221.3414969999867,221.3414969999867,221.6358064999804,222.91926199998125,222.9358619999839,222.9358619999839,222.9358619999839,222.9358619999839,222.9358619999839,222.9358619999839,222.9358619999839,222.9358619999839,222.9358619999839,222.9358619999839,222.9358619999839,222.9358619999839,222.9358619999839,224.51719610000146,224.51719610000146,224.51719610000146,224.51719610000146,224.51719610000146,224.51719610000146,224.51719610000146,23,49,55,42,49,60,224.51719610000146,226.28501870000036,,,,,,,,,,,,,,,,,,,,３３１,f,２３,2023-05-21_09h00.32.824,RL,2022.2.5,59.91317382299069,
28,50,51,37,0,33,33,33,,,,,,,,,,,None,226.28501870000036,226.28501870000036,226.28501870000036,226.28501870000036,226.28501870000036,226.28501870000036,j,0.33307049999712035,226.65652409999166,226.65652409999166,226.65652409999166,226.65652409999166,226.65652409999166,226.65652409999166,226.9354017000005,228.0017771999992,228.03516359999776,228.03516359999776,228.03516359999776,228.03516359999776,228.03516359999776,228.03516359999776,228.03516359999776,228.03516359999776,228.03516359999776,228.03516359999776,228.03516359999776,228.03516359999776,228.03516359999776,229.4001150999975,229.4001150999975,229.4001150999975,229.4001150999975,229.4001150999975,229.4001150999975,229.4001150999975,28,51,50,37,37,60,229.4001150999975,230.933885299979,,,,,,,,,,,,,,,,,,,,３３１,f,２３,2023-05-21_09h00.32.824,RL,2022.2.5,59.91317382299069,
38,50,53,31,0,34,34,34,,,,,,,,,,,None,230.933885299979,230.933885299979,230.933885299979,230.933885299979,230.933885299979,230.933885299979,r,0.6151811000017915,231.57019639998907,231.57019639998907,231.57019639998907,231.57019639998907,231.57019639998907,231.57019639998907,231.86809029997676,233.13410840000142,233.13410840000142,233.13410840000142,233.13410840000142,233.13410840000142,233.13410840000142,233.13410840000142,233.13410840000142,233.13410840000142,233.13410840000142,233.13410840000142,233.13410840000142,233.13410840000142,233.13410840000142,234.69835520000197,234.69835520000197,234.69835520000197,234.69835520000197,234.69835520000197,234.69835520000197,234.69835520000197,38,53,50,31,53,60,234.69835520000197,236.69942849999643,,,,,,,,,,,,,,,,,,,,３３１,f,２３,2023-05-21_09h00.32.824,RL,2022.2.5,59.91317382299069,
26,42,52,27,0,35,35,35,,,,,,,,,,,None,236.69942849999643,236.69942849999643,236.69942849999643,236.69942849999643,236.69942849999643,236.69942849999643,i,0.3448515000054613,237.06678409999586,237.06678409999586,237.06678409999586,237.06678409999586,237.06678409999586,237.06678409999586,237.3670420999988,238.46625389999826,238.46625389999826,238.46625389999826,238.46625389999826,238.46625389999826,238.46625389999826,238.46625389999826,238.46625389999826,238.46625389999826,238.46625389999826,238.46625389999826,238.46625389999826,238.46625389999826,238.46625389999826,239.86464329998125,239.86464329998125,239.86464329998125,239.86464329998125,239.86464329998125,239.86464329998125,239.86464329998125,26,52,42,27,42,60,239.86464329998125,241.41570679997676,,,,,,,,,,,,,,,,,,,,３３１,f,２３,2023-05-21_09h00.32.824,RL,2022.2.5,59.91317382299069,
32,50,44,32,0,36,36,36,,,,,,,,,,,None,241.41570679997676,241.41570679997676,241.41570679997676,241.41570679997676,241.41570679997676,241.41570679997676,r,0.3910496000025887,241.83418109998456,241.83418109998456,241.83418109998456,241.83418109998456,241.83418109998456,241.83418109998456,242.13216939999256,243.31551549999858,243.31551549999858,243.31551549999858,243.31551549999858,243.31551549999858,243.31551549999858,243.31551549999858,243.31551549999858,243.31551549999858,243.31551549999858,243.31551549999858,243.31551549999858,243.31551549999858,243.31551549999858,244.79692589998012,244.79692589998012,244.79692589998012,244.79692589998012,244.79692589998012,244.79692589998012,244.79692589998012,32,44,50,32,44,60,244.79692589998012,246.33152690000134,,,,,,,,,,,,,,,,,,,,３３１,f,２３,2023-05-21_09h00.32.824,RL,2022.2.5,59.91317382299069,
24,47,33,30,0,37,37,37,,,,,,,,,,,None,246.33152690000134,246.33152690000134,246.33152690000134,246.33152690000134,246.33152690000134,246.33152690000134,r,0.3380683999857865,246.6984242000035,246.6984242000035,246.6984242000035,246.6984242000035,246.6984242000035,246.6984242000035,246.9816350999754,248.8820287999988,248.8980612999876,248.8980612999876,248.8980612999876,248.8980612999876,248.8980612999876,248.8980612999876,248.8980612999876,248.8980612999876,248.8980612999876,248.8980612999876,248.8980612999876,248.8980612999876,248.8980612999876,251.09561609997763,251.09561609997763,251.09561609997763,251.09561609997763,251.09561609997763,251.09561609997763,251.09561609997763,24,33,47,30,33,60,251.09561609997763,252.96382710000034,,,,,,,,,,,,,,,,,,,,３３１,f,２３,2023-05-21_09h00.32.824,RL,2022.2.5,59.91317382299069,
28,44,40,25,0,38,38,38,,,,,,,,,,,None,252.96382710000034,252.96382710000034,252.96382710000034,252.96382710000034,252.96382710000034,252.96382710000034,i,0.4384921999881044,253.432219099981,253.432219099981,253.432219099981,253.432219099981,253.432219099981,253.432219099981,253.73046779999277,255.33043519998319,255.34677829997963,255.34677829997963,255.34677829997963,255.34677829997963,255.34677829997963,255.34677829997963,255.34677829997963,255.34677829997963,255.34677829997963,255.34677829997963,255.34677829997963,255.34677829997963,255.34677829997963,257.2450689999969,257.2450689999969,257.2450689999969,257.2450689999969,257.2450689999969,257.2450689999969,257.2450689999969,28,40,44,25,44,60,257.2450689999969,258.77950599999167,,,,,,,,,,,,,,,,,,,,３３１,f,２３,2023-05-21_09h00.32.824,RL,2022.2.5,59.91317382299069,
41,44,40,28,0,39,39,39,,,,,,,,,,,None,258.77950599999167,258.77950599999167,258.77950599999167,258.77950599999167,258.77950599999167,258.77950599999167,j,0.3336079000146128,259.15047149997554,259.15047149997554,259.15047149997554,259.15047149997554,259.15047149997554,259.15047149997554,259.4294385999965,260.2961536999792,260.3126168999879,260.3126168999879,260.3126168999879,260.3126168999879,260.3126168999879,260.3126168999879,260.3126168999879,260.3126168999879,260.3126168999879,260.3126168999879,260.3126168999879,260.3126168999879,260.3126168999879,261.4776946999773,261.4776946999773,261.4776946999773,261.4776946999773,261.4776946999773,261.4776946999773,261.4776946999773,41,40,44,28,28,60,261.4776946999773,263.3449491999927,,,,,,,,,,,,,,,,,,,,３３１,f,２３,2023-05-21_09h00.32.824,RL,2022.2.5,59.91317382299069,
31,47,36,31,0,40,40,40,,,,,,,,,,,None,263.3449491999927,263.3449491999927,263.3449491999927,263.3449491999927,263.3449491999927,263.3449491999927,f,0.3182509000180289,263.7003218999889,263.7003218999889,263.7003218999889,263.7003218999889,263.7003218999889,263.7003218999889,263.979016199999,265.3448397000029,265.3617969999905,265.3617969999905,265.3617969999905,265.3617969999905,265.3617969999905,265.3617969999905,265.3617969999905,265.3617969999905,265.3617969999905,265.3617969999905,265.3617969999905,265.3617969999905,265.3617969999905,267.0265628999914,267.0265628999914,267.0265628999914,267.0265628999914,267.0265628999914,267.0265628999914,267.0265628999914,31,36,47,31,31,60,267.0265628999914,268.92763589997776,,,,,,,,,,,,,,,,,,,,３３１,f,２３,2023-05-21_09h00.32.824,RL,2022.2.5,59.91317382299069,
42,45,31,28,0,41,41,41,,,,,,,,,,,None,268.92763589997776,268.92763589997776,268.92763589997776,268.92763589997776,268.92763589997776,268.92763589997776,i,0.4231798999826424,269.3797747999779,269.3797747999779,269.3797747999779,269.3797747999779,269.3797747999779,269.3797747999779,269.6778800000029,271.11076270000194,271.11076270000194,271.11076270000194,271.11076270000194,271.11076270000194,271.11076270000194,271.11076270000194,271.11076270000194,271.11076270000194,271.11076270000194,271.11076270000194,271.11076270000194,271.11076270000194,271.11076270000194,272.84223629999906,272.84223629999906,272.84223629999906,272.84223629999906,272.84223629999906,272.84223629999906,272.84223629999906,42,31,45,28,45,60,272.84223629999906,274.84277079999447,,,,,,,,,,,,,,,,,,,,３３１,f,２３,2023-05-21_09h00.32.824,RL,2022.2.5,59.91317382299069,
41,48,39,30,0,42,42,42,,,,,,,,,,,None,274.84277079999447,274.84277079999447,274.84277079999447,274.84277079999447,274.84277079999447,274.84277079999447,i,0.369214699981967,275.2509921999881,275.2509921999881,275.2509921999881,275.2509921999881,275.2509921999881,275.2509921999881,275.5266675000021,277.0598083999939,277.09328829997685,277.09328829997685,277.09328829997685,277.09328829997685,277.09328829997685,277.09328829997685,277.09328829997685,277.09328829997685,277.09328829997685,277.09328829997685,277.09328829997685,277.09328829997685,277.09328829997685,278.92416299998877,278.92416299998877,278.92416299998877,278.92416299998877,278.92416299998877,278.92416299998877,278.92416299998877,41,39,48,30,48,60,278.92416299998877,280.825333899993,,,,,,,,,,,,,,,,,,,,３３１,f,２３,2023-05-21_09h00.32.824,RL,2022.2.5,59.91317382299069,
52,42,38,22,0,43,43,43,,,,,,,,,,,None,280.825333899993,280.825333899993,280.825333899993,280.825333899993,280.825333899993,280.825333899993,i,0.37942589999875054,281.2264457999845,281.2264457999845,281.2264457999845,281.2264457999845,281.2264457999845,281.2264457999845,281.5256842999952,283.12603679997846,283.12603679997846,283.12603679997846,283.12603679997846,283.12603679997846,283.12603679997846,283.12603679997846,283.12603679997846,283.12603679997846,283.12603679997846,283.12603679997846,283.12603679997846,283.12603679997846,283.12603679997846,285.02306399997906,285.02306399997906,285.02306399997906,285.02306399997906,285.02306399997906,285.02306399997906,285.02306399997906,52,38,42,22,42,60,285.02306399997906,287.00766129998374,,,,,,,,,,,,,,,,,,,,３３１,f,２３,2023-05-21_09h00.32.824,RL,2022.2.5,59.91317382299069,
47,43,42,38,0,44,44,44,,,,,,,,,,,None,287.00766129998374,287.00766129998374,287.00766129998374,287.00766129998374,287.00766129998374,287.00766129998374,r,0.7911232000042219,287.82477129998733,287.82477129998733,287.82477129998733,287.82477129998733,287.82477129998733,287.82477129998733,288.1242602999846,290.10745099998894,290.10745099998894,290.10745099998894,290.10745099998894,290.10745099998894,290.10745099998894,290.10745099998894,290.10745099998894,290.10745099998894,290.10745099998894,290.10745099998894,290.10745099998894,290.10745099998894,290.10745099998894,292.3886055999901,292.3886055999901,292.3886055999901,292.3886055999901,292.3886055999901,292.3886055999901,292.3886055999901,47,42,43,38,42,60,292.3886055999901,294.0563884000003,,,,,,,,,,,,,,,,,,,,３３１,f,２３,2023-05-21_09h00.32.824,RL,2022.2.5,59.91317382299069,
46,42,46,36,0,45,45,45,,,,,,,,,,,None,294.0563884000003,294.0563884000003,294.0563884000003,294.0563884000003,294.0563884000003,294.0563884000003,i,0.366182600002503,294.4403356999974,294.4403356999974,294.4403356999974,294.4403356999974,294.4403356999974,294.4403356999974,294.7233371999755,296.389508399996,296.4062633999856,296.4062633999856,296.4062633999856,296.4062633999856,296.4062633999856,296.4062633999856,296.4062633999856,296.4062633999856,296.4062633999856,296.4062633999856,296.4062633999856,296.4062633999856,296.4062633999856,298.370894599997,298.370894599997,298.370894599997,298.370894599997,298.370894599997,298.370894599997,298.370894599997,46,46,42,36,42,60,298.370894599997,300.0555484999786,,,,,,,,,,,,,,,,,,,,３３１,f,２３,2023-05-21_09h00.32.824,RL,2022.2.5,59.91317382299069,
44,44,44,32,0,46,46,46,,,,,,,,,,,None,300.0555484999786,300.0555484999786,300.0555484999786,300.0555484999786,300.0555484999786,300.0555484999786,j,0.8880914000037592,300.97577039999305,300.97577039999305,300.97577039999305,300.97577039999305,300.97577039999305,300.97577039999305,301.27212249999866,302.88837579998653,302.88837579998653,302.88837579998653,302.88837579998653,302.88837579998653,302.88837579998653,302.88837579998653,302.88837579998653,302.88837579998653,302.88837579998653,302.88837579998653,302.88837579998653,302.88837579998653,302.88837579998653,304.8034140999953,304.8034140999953,304.8034140999953,304.8034140999953,304.8034140999953,304.8034140999953,304.8034140999953,44,44,44,32,32,60,304.8034140999953,306.5042345999973,,,,,,,,,,,,,,,,,,,,３３１,f,２３,2023-05-21_09h00.32.824,RL,2022.2.5,59.91317382299069,
39,45,46,21,0,47,47,47,,,,,,,,,,,None,306.5042345999973,306.5042345999973,306.5042345999973,306.5042345999973,306.5042345999973,306.5042345999973,f,0.4294738999742549,306.95526399998926,306.95526399998926,306.95526399998926,306.95526399998926,306.95526399998926,306.95526399998926,307.25448539998615,308.1709182999912,308.1709182999912,308.1709182999912,308.1709182999912,308.1709182999912,308.1709182999912,308.1709182999912,308.1709182999912,308.1709182999912,308.1709182999912,308.1709182999912,308.1709182999912,308.1709182999912,308.1709182999912,309.38601639997796,309.38601639997796,309.38601639997796,309.38601639997796,309.38601639997796,309.38601639997796,309.38601639997796,39,46,45,21,39,60,309.38601639997796,310.9535445999936,,,,,,,,,,,,,,,,,,,,３３１,f,２３,2023-05-21_09h00.32.824,RL,2022.2.5,59.91317382299069,
43,52,53,32,0,48,48,48,,,,,,,,,,,None,310.9535445999936,310.9535445999936,310.9535445999936,310.9535445999936,310.9535445999936,310.9535445999936,r,0.4607576999987941,311.44160199997714,311.44160199997714,311.44160199997714,311.44160199997714,311.44160199997714,311.44160199997714,311.73689979998744,313.4366316999949,313.4366316999949,313.4366316999949,313.4366316999949,313.4366316999949,313.4366316999949,313.4366316999949,313.4366316999949,313.4366316999949,313.4366316999949,313.4366316999949,313.4366316999949,313.4366316999949,313.4366316999949,315.43455579999136,315.43455579999136,315.43455579999136,315.43455579999136,315.43455579999136,315.43455579999136,315.43455579999136,43,53,52,32,53,60,315.43455579999136,317.23569129998214,,,,,,,,,,,,,,,,,,,,３３１,f,２３,2023-05-21_09h00.32.824,RL,2022.2.5,59.91317382299069,
44,55,47,27,0,49,49,49,,,,,,,,,,,None,317.23569129998214,317.23569129998214,317.23569129998214,317.23569129998214,317.23569129998214,317.23569129998214,r,0.3829273000010289,317.6368167999899,317.6368167999899,317.6368167999899,317.6368167999899,317.6368167999899,317.6368167999899,317.919355799997,319.81915329999174,319.8356416999886,319.8356416999886,319.8356416999886,319.8356416999886,319.8356416999886,319.8356416999886,319.8356416999886,319.8356416999886,319.8356416999886,319.8356416999886,319.8356416999886,319.8356416999886,319.8356416999886,322.0337820999848,322.0337820999848,322.0337820999848,322.0337820999848,322.0337820999848,322.0337820999848,322.0337820999848,44,47,55,27,47,60,322.0337820999848,323.7677765999979,,,,,,,,,,,,,,,,,,,,３３１,f,２３,2023-05-21_09h00.32.824,RL,2022.2.5,59.91317382299069,
45,56,42,26,0,50,50,50,,,,,,,,,,,None,323.7677765999979,323.7677765999979,323.7677765999979,323.7677765999979,323.7677765999979,323.7677765999979,r,0.33303509998950176,324.1198627999984,324.1198627999984,324.1198627999984,324.1198627999984,324.1198627999984,324.1198627999984,324.4016847999883,325.88442289998056,325.901100499992,325.901100499992,325.901100499992,325.901100499992,325.901100499992,325.901100499992,325.901100499992,325.901100499992,325.901100499992,325.901100499992,325.901100499992,325.901100499992,325.901100499992,327.68228759997874,327.68228759997874,327.68228759997874,327.68228759997874,327.68228759997874,327.68228759997874,327.68228759997874,45,42,56,26,42,60,327.68228759997874,329.6171771999798,,,,,,,,,,,,,,,,,,,,３３１,f,２３,2023-05-21_09h00.32.824,RL,2022.2.5,59.91317382299069,
41,61,42,25,0,51,51,51,,,,,,,,,,,None,329.6171771999798,329.6171771999798,329.6171771999798,329.6171771999798,329.6171771999798,329.6171771999798,i,0.3728226000093855,330.0195317999751,330.0195317999751,330.0195317999751,330.0195317999751,330.0195317999751,330.0195317999751,330.317524699989,331.4835552999866,331.4835552999866,331.4835552999866,331.4835552999866,331.4835552999866,331.4835552999866,331.4835552999866,331.4835552999866,331.4835552999866,331.4835552999866,331.4835552999866,331.4835552999866,331.4835552999866,331.4835552999866,332.9484283999773,332.9484283999773,332.9484283999773,332.9484283999773,332.9484283999773,332.9484283999773,332.9484283999773,41,42,61,25,61,60,332.9484283999773,334.58249299999443,,,,,,,,,,,,,,,,,,,,３３１,f,２３,2023-05-21_09h00.32.824,RL,2022.2.5,59.91317382299069,
46,57,56,35,0,52,52,52,,,,,,,,,,,None,334.58249299999443,334.58249299999443,334.58249299999443,334.58249299999443,334.58249299999443,334.58249299999443,i,0.37421279997215606,334.9838994999882,334.9838994999882,334.9838994999882,334.9838994999882,334.9838994999882,334.9838994999882,335.26660099998116,336.51618189999135,336.5326768999803,336.5326768999803,336.5326768999803,336.5326768999803,336.5326768999803,336.5326768999803,336.5326768999803,336.5326768999803,336.5326768999803,336.5326768999803,336.5326768999803,336.5326768999803,336.5326768999803,338.08066789997974,338.08066789997974,338.08066789997974,338.08066789997974,338.08066789997974,338.08066789997974,338.08066789997974,46,56,57,35,57,60,338.08066789997974,339.7154554000008,,,,,,,,,,,,,,,,,,,,３３１,f,２３,2023-05-21_09h00.32.824,RL,2022.2.5,59.91317382299069,
44,53,52,28,0,53,53,53,,,,,,,,,,,None,339.7154554000008,339.7154554000008,339.7154554000008,339.7154554000008,339.7154554000008,339.7154554000008,None,,,,,,,,,,,,,,,,,,,,,,,,,,,,,,44,52,53,28,0,60,347.2123294999765,348.78025949999574,341.21384989999933,341.21384989999933,341.21384989999933,341.21384989999933,341.21384989999933,341.21384989999933,341.21384989999933,347.2123294999765,,,,,,,,,,,,３３１,f,２３,2023-05-21_09h00.32.824,RL,2022.2.5,59.91317382299069,
49,58,48,25,0,54,54,54,,,,,,,,,,,None,348.78025949999574,348.78025949999574,348.78025949999574,348.78025949999574,348.78025949999574,348.78025949999574,i,0.4856093999987934,349.3072623999906,349.3072623999906,349.3072623999906,349.3072623999906,349.3072623999906,349.3072623999906,349.58088059999864,350.89682159997756,350.9134802999906,350.9134802999906,350.9134802999906,350.9134802999906,350.9134802999906,350.9134802999906,350.9134802999906,350.9134802999906,350.9134802999906,350.9134802999906,350.9134802999906,350.9134802999906,350.9134802999906,352.5279490999819,352.5279490999819,352.5279490999819,352.5279490999819,352.5279490999819,352.5279490999819,352.5279490999819,49,48,58,25,58,60,352.5279490999819,354.27937379997456,,,,,,,,,,,,,,,,,,,,３３１,f,２３,2023-05-21_09h00.32.824,RL,2022.2.5,59.91317382299069,
40,51,56,27,0,55,55,55,,,,,,,,,,,None,354.27937379997456,354.27937379997456,354.27937379997456,354.27937379997456,354.27937379997456,354.27937379997456,i,0.6347673000127543,354.9497208999819,354.9497208999819,354.9497208999819,354.9497208999819,354.9497208999819,354.9497208999819,355.22934389999136,356.5958124999888,356.6123163999873,356.6123163999873,356.6123163999873,356.6123163999873,356.6123163999873,356.6123163999873,356.6123163999873,356.6123163999873,356.6123163999873,356.6123163999873,356.6123163999873,356.6123163999873,356.6123163999873,358.2771206999896,358.2771206999896,358.2771206999896,358.2771206999896,358.2771206999896,358.2771206999896,358.2771206999896,40,56,51,27,51,60,358.2771206999896,360.1777463000035,,,,,,,,,,,,,,,,,,,,３３１,f,２３,2023-05-21_09h00.32.824,RL,2022.2.5,59.91317382299069,
38,56,57,24,0,56,56,56,,,,,,,,,,,None,360.1777463000035,360.1777463000035,360.1777463000035,360.1777463000035,360.1777463000035,360.1777463000035,r,0.249669199984055,360.4456787999952,360.4456787999952,360.4456787999952,360.4456787999952,360.4456787999952,360.4456787999952,360.72816749999765,362.7116055999941,362.7280880000035,362.7280880000035,362.7280880000035,362.7280880000035,362.7280880000035,362.7280880000035,362.7280880000035,362.7280880000035,362.7280880000035,362.7280880000035,362.7280880000035,362.7280880000035,362.7280880000035,365.0093295999977,365.0093295999977,365.0093295999977,365.0093295999977,365.0093295999977,365.0093295999977,365.0093295999977,38,57,56,24,57,60,365.0093295999977,366.69393719997606,,,,,,,,,,,,,,,,,,,,３３１,f,２３,2023-05-21_09h00.32.824,RL,2022.2.5,59.91317382299069,
40,55,57,31,0,57,57,57,,,,,,,,,,,None,366.69393719997606,366.69393719997606,366.69393719997606,366.69393719997606,366.69393719997606,366.69393719997606,r,0.334466500004055,367.06633370000054,367.06633370000054,367.06633370000054,367.06633370000054,367.06633370000054,367.06633370000054,367.3440335999767,368.69376259998535,368.7101741999795,368.7101741999795,368.7101741999795,368.7101741999795,368.7101741999795,368.7101741999795,368.7101741999795,368.7101741999795,368.7101741999795,368.7101741999795,368.7101741999795,368.7101741999795,368.7101741999795,370.35855939998874,370.35855939998874,370.35855939998874,370.35855939998874,370.35855939998874,370.35855939998874,370.35855939998874,40,57,55,31,57,60,370.35855939998874,372.0096762999892,,,,,,,,,,,,,,,,,,,,３３１,f,２３,2023-05-21_09h00.32.824,RL,2022.2.5,59.91317382299069,
45,56,57,33,0,58,58,58,,,,,,,,,,,None,372.0096762999892,372.0096762999892,372.0096762999892,372.0096762999892,372.0096762999892,372.0096762999892,r,0.39139229999273084,372.4265967999818,372.4265967999818,372.4265967999818,372.4265967999818,372.4265967999818,372.4265967999818,372.70967809998547,373.8094361999829,373.86300659997505,373.86300659997505,373.86300659997505,373.86300659997505,373.86300659997505,373.86300659997505,373.86300659997505,373.86300659997505,373.86300659997505,373.86300659997505,373.86300659997505,373.86300659997505,373.86300659997505,375.2578421999933,375.2578421999933,375.2578421999933,375.2578421999933,375.2578421999933,375.2578421999933,375.2578421999933,45,57,56,33,57,60,375.2578421999933,377.1753764000023,,,,,,,,,,,,,,,,,,,,３３１,f,２３,2023-05-21_09h00.32.824,RL,2022.2.5,59.91317382299069,
42,49,62,38,0,59,59,59,,,,,,,,,,,None,377.1753764000023,377.1753764000023,377.1753764000023,377.1753764000023,377.1753764000023,377.1753764000023,r,0.30855220000375994,377.51047619999736,377.51047619999736,377.51047619999736,377.51047619999736,377.51047619999736,377.51047619999736,377.8090840999794,379.44150029998855,379.44150029998855,379.44150029998855,379.44150029998855,379.44150029998855,379.44150029998855,379.44150029998855,379.44150029998855,379.44150029998855,379.44150029998855,379.44150029998855,379.44150029998855,379.44150029998855,379.44150029998855,381.37369609999587,381.37369609999587,381.37369609999587,381.37369609999587,381.37369609999587,381.37369609999587,381.37369609999587,42,62,49,38,62,60,381.37369609999587,383.32430479998584,,,,,,,,,,,,,,,,,,,,３３１,f,２３,2023-05-21_09h00.32.824,RL,2022.2.5,59.91317382299069,
43,57,64,35,0,60,60,60,,,,,,,,,,,None,383.32430479998584,383.32430479998584,383.32430479998584,383.32430479998584,383.32430479998584,383.32430479998584,r,0.37380569998640567,383.7265503999952,383.7265503999952,383.7265503999952,383.7265503999952,383.7265503999952,383.7265503999952,384.0246669999906,385.1907329999958,385.1907329999958,385.1907329999958,385.1907329999958,385.1907329999958,385.1907329999958,385.1907329999958,385.1907329999958,385.1907329999958,385.1907329999958,385.1907329999958,385.1907329999958,385.1907329999958,385.1907329999958,386.6553663999948,386.6553663999948,386.6553663999948,386.6553663999948,386.6553663999948,386.6553663999948,386.6553663999948,43,64,57,35,64,60,386.6553663999948,388.2236952999956,,,,,,,,,,,,,,,,,,,,３３１,f,２３,2023-05-21_09h00.32.824,RL,2022.2.5,59.91317382299069,
41,58,63,36,0,61,61,61,,,,,,,,,,,None,388.2236952999956,388.2236952999956,388.2236952999956,388.2236952999956,388.2236952999956,388.2236952999956,r,0.35741070000221953,388.6083473000035,388.6083473000035,388.6083473000035,388.6083473000035,388.6083473000035,388.6083473000035,388.90696939997724,390.10674570000265,390.10674570000265,390.10674570000265,390.10674570000265,390.10674570000265,390.10674570000265,390.10674570000265,390.10674570000265,390.10674570000265,390.10674570000265,390.10674570000265,390.10674570000265,390.10674570000265,390.10674570000265,391.6048870999948,391.6048870999948,391.6048870999948,391.6048870999948,391.6048870999948,391.6048870999948,391.6048870999948,41,63,58,36,63,60,391.6048870999948,393.2059205999831,,,,,,,,,,,,,,,,,,,,３３１,f,２３,2023-05-21_09h00.32.824,RL,2022.2.5,59.91317382299069,
44,46,67,29,0,62,62,62,,,,,,,,,,,None,393.2059205999831,393.2059205999831,393.2059205999831,393.2059205999831,393.2059205999831,393.2059205999831,r,0.2794933999830391,393.50638939999044,393.50638939999044,393.50638939999044,393.50638939999044,393.50638939999044,393.50638939999044,393.806205699977,394.68926719998126,394.68926719998126,394.68926719998126,394.68926719998126,394.68926719998126,394.68926719998126,394.68926719998126,394.68926719998126,394.68926719998126,394.68926719998126,394.68926719998126,394.68926719998126,394.68926719998126,394.68926719998126,395.8708994999761,395.8708994999761,395.8708994999761,395.8708994999761,395.8708994999761,395.8708994999761,395.8708994999761,44,67,46,29,67,60,395.8708994999761,397.58828629998607,,,,,,,,,,,,,,,,,,,,３３１,f,２３,2023-05-21_09h00.32.824,RL,2022.2.5,59.91317382299069,
48,60,58,25,0,63,63,63,,,,,,,,,,,None,397.58828629998607,397.58828629998607,397.58828629998607,397.58828629998607,397.58828629998607,397.58828629998607,r,0.30870779999531806,397.9235093999887,397.9235093999887,397.9235093999887,397.9235093999887,397.9235093999887,397.9235093999887,398.2058657000016,400.08862039999804,400.1050451999763,400.1050451999763,400.1050451999763,400.1050451999763,400.1050451999763,400.1050451999763,400.1050451999763,400.1050451999763,400.1050451999763,400.1050451999763,400.1050451999763,400.1050451999763,400.1050451999763,402.2863391999854,402.2863391999854,402.2863391999854,402.2863391999854,402.2863391999854,402.2863391999854,402.2863391999854,48,58,60,25,58,60,402.2863391999854,404.2373999999836,,,,,,,,,,,,,,,,,,,,３３１,f,２３,2023-05-21_09h00.32.824,RL,2022.2.5,59.91317382299069,
30,66,55,37,0,64,64,64,,,,,,,,,,,None,404.2373999999836,404.2373999999836,404.2373999999836,404.2373999999836,404.2373999999836,404.2373999999836,r,0.30388600000878796,404.57287709999946,404.57287709999946,404.57287709999946,404.57287709999946,404.57287709999946,404.57287709999946,404.87068299998646,406.30378979997477,406.30378979997477,406.30378979997477,406.30378979997477,406.30378979997477,406.30378979997477,406.30378979997477,406.30378979997477,406.30378979997477,406.30378979997477,406.30378979997477,406.30378979997477,406.30378979997477,406.30378979997477,408.0350400999887,408.0350400999887,408.0350400999887,408.0350400999887,408.0350400999887,408.0350400999887,408.0350400999887,30,55,66,37,55,60,408.0350400999887,409.63607719997526,,,,,,,,,,,,,,,,,,,,３３１,f,２３,2023-05-21_09h00.32.824,RL,2022.2.5,59.91317382299069,
40,60,59,31,0,65,65,65,,,,,,,,,,,None,409.63607719997526,409.63607719997526,409.63607719997526,409.63607719997526,409.63607719997526,409.63607719997526,r,0.3284988999948837,409.98675079998793,409.98675079998793,409.98675079998793,409.98675079998793,409.98675079998793,409.98675079998793,410.26994839997496,411.6032208999968,411.6195030999952,411.6195030999952,411.6195030999952,411.6195030999952,411.6195030999952,411.6195030999952,411.6195030999952,411.6195030999952,411.6195030999952,411.6195030999952,411.6195030999952,411.6195030999952,411.6195030999952,413.25083059997996,413.25083059997996,413.25083059997996,413.25083059997996,413.25083059997996,413.25083059997996,413.25083059997996,40,59,60,31,59,60,413.25083059997996,414.8853862999822,,,,,,,,,,,,,,,,,,,,３３１,f,２３,2023-05-21_09h00.32.824,RL,2022.2.5,59.91317382299069,
42,68,64,40,0,66,66,66,,,,,,,,,,,None,414.8853862999822,414.8853862999822,414.8853862999822,414.8853862999822,414.8853862999822,414.8853862999822,r,0.3056460999941919,415.2206732999766,415.2206732999766,415.2206732999766,415.2206732999766,415.2206732999766,415.2206732999766,415.51903440000024,417.18535869999323,417.18535869999323,417.18535869999323,417.18535869999323,417.18535869999323,417.18535869999323,417.18535869999323,417.18535869999323,417.18535869999323,417.18535869999323,417.18535869999323,417.18535869999323,417.18535869999323,417.18535869999323,419.14980220000143,419.14980220000143,419.14980220000143,419.14980220000143,419.14980220000143,419.14980220000143,419.14980220000143,42,64,68,40,64,60,419.14980220000143,421.1007350999862,,,,,,,,,,,,,,,,,,,,３３１,f,２３,2023-05-21_09h00.32.824,RL,2022.2.5,59.91317382299069,
41,68,59,38,0,67,67,67,,,,,,,,,,,None,421.1007350999862,421.1007350999862,421.1007350999862,421.1007350999862,421.1007350999862,421.1007350999862,r,0.3225539999839384,421.45148689998314,421.45148689998314,421.45148689998314,421.45148689998314,421.45148689998314,421.45148689998314,421.7510537999915,422.91739289998077,422.91739289998077,422.91739289998077,422.91739289998077,422.91739289998077,422.91739289998077,422.91739289998077,422.91739289998077,422.91739289998077,422.91739289998077,422.91739289998077,422.91739289998077,422.91739289998077,422.91739289998077,424.38244369998574,424.38244369998574,424.38244369998574,424.38244369998574,424.38244369998574,424.38244369998574,424.38244369998574,41,59,68,38,59,60,424.38244369998574,426.2329974999884,,,,,,,,,,,,,,,,,,,,３３１,f,２３,2023-05-21_09h00.32.824,RL,2022.2.5,59.91317382299069,
39,61,54,36,0,68,68,68,,,,,,,,,,,None,426.2329974999884,426.2329974999884,426.2329974999884,426.2329974999884,426.2329974999884,426.2329974999884,r,0.3822025000117719,426.63388429998304,426.63388429998304,426.63388429998304,426.63388429998304,426.63388429998304,426.63388429998304,426.91712779999943,428.7001125999959,428.71670669998275,428.71670669998275,428.71670669998275,428.71670669998275,428.71670669998275,428.71670669998275,428.71670669998275,428.71670669998275,428.71670669998275,428.71670669998275,428.71670669998275,428.71670669998275,428.71670669998275,430.7980787999986,430.7980787999986,430.7980787999986,430.7980787999986,430.7980787999986,430.7980787999986,430.7980787999986,39,54,61,36,54,60,430.7980787999986,432.7156160000013,,,,,,,,,,,,,,,,,,,,３３１,f,２３,2023-05-21_09h00.32.824,RL,2022.2.5,59.91317382299069,
43,51,52,31,0,69,69,69,,,,,,,,,,,None,432.7156160000013,432.7156160000013,432.7156160000013,432.7156160000013,432.7156160000013,432.7156160000013,r,0.28439260000595823,433.0360273999977,433.0360273999977,433.0360273999977,433.0360273999977,433.0360273999977,433.0360273999977,433.31571659998735,434.51565249997657,434.54899879998993,434.54899879998993,434.54899879998993,434.54899879998993,434.54899879998993,434.54899879998993,434.54899879998993,434.54899879998993,434.54899879998993,434.54899879998993,434.54899879998993,434.54899879998993,434.54899879998993,436.04721249997965,436.04721249997965,436.04721249997965,436.04721249997965,436.04721249997965,436.04721249997965,436.04721249997965,43,52,51,31,52,60,436.04721249997965,438.0144462999888,,,,,,,,,,,,,,,,,,,,３３１,f,２３,2023-05-21_09h00.32.824,RL,2022.2.5,59.91317382299069,
29,63,67,36,0,70,70,70,,,,,,,,,,,None,438.0144462999888,438.0144462999888,438.0144462999888,438.0144462999888,438.0144462999888,438.0144462999888,i,0.31312269999762066,438.34834229998523,438.34834229998523,438.34834229998523,438.34834229998523,438.34834229998523,438.34834229998523,438.63158989997464,440.58167230000254,440.5979205999756,440.5979205999756,440.5979205999756,440.5979205999756,440.5979205999756,440.5979205999756,440.5979205999756,440.5979205999756,440.5979205999756,440.5979205999756,440.5979205999756,440.5979205999756,440.5979205999756,442.8462654000032,442.8462654000032,442.8462654000032,442.8462654000032,442.8462654000032,442.8462654000032,442.8462654000032,29,67,63,36,63,60,442.8462654000032,444.6972423999978,,,,,,,,,,,,,,,,,,,,３３１,f,２３,2023-05-21_09h00.32.824,RL,2022.2.5,59.91317382299069,
28,65,67,40,0,71,71,71,,,,,,,,,,,None,444.6972423999978,444.6972423999978,444.6972423999978,444.6972423999978,444.6972423999978,444.6972423999978,i,0.3096153999795206,445.03079839999555,445.03079839999555,445.03079839999555,445.03079839999555,445.03079839999555,445.03079839999555,445.3305954999814,447.1967551999842,447.1967551999842,447.1967551999842,447.1967551999842,447.1967551999842,447.1967551999842,447.1967551999842,447.1967551999842,447.1967551999842,447.1967551999842,447.1967551999842,447.1967551999842,447.1967551999842,447.1967551999842,449.3616375999991,449.3616375999991,449.3616375999991,449.3616375999991,449.3616375999991,449.3616375999991,449.3616375999991,28,67,65,40,65,60,449.3616375999991,451.36231479997514,,,,,,,,,,,,,,,,,,,,３３１,f,２３,2023-05-21_09h00.32.824,RL,2022.2.5,59.91317382299069,
38,64,59,39,0,72,72,72,,,,,,,,,,,None,451.36231479997514,451.36231479997514,451.36231479997514,451.36231479997514,451.36231479997514,451.36231479997514,i,0.28187740000430495,451.66270509999595,451.66270509999595,451.66270509999595,451.66270509999595,451.66270509999595,451.66270509999595,451.94595009999466,453.81273969999165,453.8289862999809,453.8289862999809,453.8289862999809,453.8289862999809,453.8289862999809,453.8289862999809,453.8289862999809,453.8289862999809,453.8289862999809,453.8289862999809,453.8289862999809,453.8289862999809,453.8289862999809,455.9935682999785,455.9935682999785,455.9935682999785,455.9935682999785,455.9935682999785,455.9935682999785,455.9935682999785,38,59,64,39,64,60,455.9935682999785,457.74447789997794,,,,,,,,,,,,,,,,,,,,３３１,f,２３,2023-05-21_09h00.32.824,RL,2022.2.5,59.91317382299069,
39,68,71,44,0,73,73,73,,,,,,,,,,,None,457.74447789997794,457.74447789997794,457.74447789997794,457.74447789997794,457.74447789997794,457.74447789997794,i,0.3893504000152461,458.1649305000028,458.1649305000028,458.1649305000028,458.1649305000028,458.1649305000028,458.1649305000028,458.46157129999483,460.34435089997714,460.34435089997714,460.34435089997714,460.34435089997714,460.34435089997714,460.34435089997714,460.34435089997714,460.34435089997714,460.34435089997714,460.34435089997714,460.34435089997714,460.34435089997714,460.34435089997714,460.34435089997714,462.52620729999035,462.52620729999035,462.52620729999035,462.52620729999035,462.52620729999035,462.52620729999035,462.52620729999035,39,71,68,44,68,60,462.52620729999035,464.4269542999973,,,,,,,,,,,,,,,,,,,,３３１,f,２３,2023-05-21_09h00.32.824,RL,2022.2.5,59.91317382299069,
40,64,62,39,0,74,74,74,,,,,,,,,,,None,464.4269542999973,464.4269542999973,464.4269542999973,464.4269542999973,464.4269542999973,464.4269542999973,i,0.39178430000902154,464.84668950000196,464.84668950000196,464.84668950000196,464.84668950000196,464.84668950000196,464.84668950000196,465.12737419997575,466.1939143999771,466.2267702999816,466.2267702999816,466.2267702999816,466.2267702999816,466.2267702999816,466.2267702999816,466.2267702999816,466.2267702999816,466.2267702999816,466.2267702999816,466.2267702999816,466.2267702999816,466.2267702999816,467.59147769998526,467.59147769998526,467.59147769998526,467.59147769998526,467.59147769998526,467.59147769998526,467.59147769998526,40,62,64,39,64,60,467.59147769998526,469.19190129998606,,,,,,,,,,,,,,,,,,,,３３１,f,２３,2023-05-21_09h00.32.824,RL,2022.2.5,59.91317382299069,
34,57,69,37,0,75,75,75,,,,,,,,,,,q,492.28893019998213,492.28893019998213,492.28893019998213,492.28893019998213,492.28893019998213,492.28893019998213,r,0.9678955999843311,493.29344049998326,493.29344049998326,493.29344049998326,493.29344049998326,493.29344049998326,493.29344049998326,493.5722104999877,494.9384200999921,494.95494659998803,494.95494659998803,494.95494659998803,494.95494659998803,494.95494659998803,494.95494659998803,494.95494659998803,494.95494659998803,494.95494659998803,494.95494659998803,494.95494659998803,494.95494659998803,494.95494659998803,496.6195146999962,496.6195146999962,496.6195146999962,496.6195146999962,496.6195146999962,496.6195146999962,496.6195146999962,34,69,57,37,69,60,496.6195146999962,498.22079999998095,,,,,,,,,469.19190129998606,469.19190129998606,18.052558299998054,487.27342749998206,487.27342749998206,492.28893019998213,492.28893019998213,,,,,３３１,f,２３,2023-05-21_09h00.32.824,RL,2022.2.5,59.91317382299069,
40,64,69,45,0,76,76,76,,,,,,,,,,,None,498.22079999998095,498.22079999998095,498.22079999998095,498.22079999998095,498.22079999998095,498.22079999998095,r,0.4150339000043459,498.6563022999908,498.6563022999908,498.6563022999908,498.6563022999908,498.6563022999908,498.6563022999908,498.95442439999897,500.02111659999355,500.02111659999355,500.02111659999355,500.02111659999355,500.02111659999355,500.02111659999355,500.02111659999355,500.02111659999355,500.02111659999355,500.02111659999355,500.02111659999355,500.02111659999355,500.02111659999355,500.02111659999355,501.38526199999615,501.38526199999615,501.38526199999615,501.38526199999615,501.38526199999615,501.38526199999615,501.38526199999615,40,69,64,45,69,60,501.38526199999615,503.27009149998776,,,,,,,,,,,,,,,,,,,,３３１,f,２３,2023-05-21_09h00.32.824,RL,2022.2.5,59.91317382299069,
33,61,67,50,0,77,77,77,,,,,,,,,,,None,503.27009149998776,503.27009149998776,503.27009149998776,503.27009149998776,503.27009149998776,503.27009149998776,r,0.26611990001401864,503.55374019997544,503.55374019997544,503.55374019997544,503.55374019997544,503.55374019997544,503.55374019997544,503.853549499996,505.0534879999759,505.0534879999759,505.0534879999759,505.0534879999759,505.0534879999759,505.0534879999759,505.0534879999759,505.0534879999759,505.0534879999759,505.0534879999759,505.0534879999759,505.0534879999759,505.0534879999759,505.0534879999759,506.55133319998276,506.55133319998276,506.55133319998276,506.55133319998276,506.55133319998276,506.55133319998276,506.55133319998276,33,67,61,50,67,60,506.55133319998276,508.20245240000077,,,,,,,,,,,,,,,,,,,,３３１,f,２３,2023-05-21_09h00.32.824,RL,2022.2.5,59.91317382299069,
34,74,75,58,0,78,78,78,,,,,,,,,,,None,508.20245240000077,508.20245240000077,508.20245240000077,508.20245240000077,508.20245240000077,508.20245240000077,r,0.287197700003162,508.51958979998017,508.51958979998017,508.51958979998017,508.51958979998017,508.51958979998017,508.51958979998017,508.81969199999,510.21894880000036,510.21894880000036,510.21894880000036,510.21894880000036,510.21894880000036,510.21894880000036,510.21894880000036,510.21894880000036,510.21894880000036,510.21894880000036,510.21894880000036,510.21894880000036,510.21894880000036,510.21894880000036,511.9171876999899,511.9171876999899,511.9171876999899,511.9171876999899,511.9171876999899,511.9171876999899,511.9171876999899,34,75,74,58,75,60,511.9171876999899,513.4354411999811,,,,,,,,,,,,,,,,,,,,３３１,f,２３,2023-05-21_09h00.32.824,RL,2022.2.5,59.91317382299069,
30,59,66,59,0,79,79,79,,,,,,,,,,,None,513.4354411999811,513.4354411999811,513.4354411999811,513.4354411999811,513.4354411999811,513.4354411999811,r,0.2983970000059344,513.7534094000002,513.7534094000002,513.7534094000002,513.7534094000002,513.7534094000002,513.7534094000002,514.0518178999773,515.8681356000016,515.8681356000016,515.8681356000016,515.8681356000016,515.8681356000016,515.8681356000016,515.8681356000016,515.8681356000016,515.8681356000016,515.8681356000016,515.8681356000016,515.8681356000016,515.8681356000016,515.8681356000016,517.9830989999755,517.9830989999755,517.9830989999755,517.9830989999755,517.9830989999755,517.9830989999755,517.9830989999755,30,66,59,59,66,60,517.9830989999755,519.6341791999876,,,,,,,,,,,,,,,,,,,,３３１,f,２３,2023-05-21_09h00.32.824,RL,2022.2.5,59.91317382299069,
40,74,68,70,0,80,80,80,,,,,,,,,,,None,519.6341791999876,519.6341791999876,519.6341791999876,519.6341791999876,519.6341791999876,519.6341791999876,r,0.45007729998906143,520.1007758999767,520.1007758999767,520.1007758999767,520.1007758999767,520.1007758999767,520.1007758999767,520.3842641999945,522.3834829999832,522.4003189999785,522.4003189999785,522.4003189999785,522.4003189999785,522.4003189999785,522.4003189999785,522.4003189999785,522.4003189999785,522.4003189999785,522.4003189999785,522.4003189999785,522.4003189999785,522.4003189999785,524.6986578999786,524.6986578999786,524.6986578999786,524.6986578999786,524.6986578999786,524.6986578999786,524.6986578999786,40,68,74,70,68,60,524.6986578999786,526.6322986999876,,,,,,,,,,,,,,,,,,,,３３１,f,２３,2023-05-21_09h00.32.824,RL,2022.2.5,59.91317382299069,
37,63,64,67,0,81,81,81,,,,,,,,,,,None,526.6322986999876,526.6322986999876,526.6322986999876,526.6322986999876,526.6322986999876,526.6322986999876,r,0.30860359998769127,526.9680126000021,526.9680126000021,526.9680126000021,526.9680126000021,526.9680126000021,526.9680126000021,527.2660472999851,528.3826733999886,528.3826733999886,528.3826733999886,528.3826733999886,528.3826733999886,528.3826733999886,528.3826733999886,528.3826733999886,528.3826733999886,528.3826733999886,528.3826733999886,528.3826733999886,528.3826733999886,528.3826733999886,529.7972487999941,529.7972487999941,529.7972487999941,529.7972487999941,529.7972487999941,529.7972487999941,529.7972487999941,37,64,63,67,64,60,529.7972487999941,531.6981645999767,,,,,,,,,,,,,,,,,,,,３３１,f,２３,2023-05-21_09h00.32.824,RL,2022.2.5,59.91317382299069,
35,63,70,70,0,82,82,82,,,,,,,,,,,None,531.6981645999767,531.6981645999767,531.6981645999767,531.6981645999767,531.6981645999767,531.6981645999767,r,0.32294300000648946,532.0488557999779,532.0488557999779,532.0488557999779,532.0488557999779,532.0488557999779,532.0488557999779,532.33195349999,534.1148335000034,534.1313647999777,534.1313647999777,534.1313647999777,534.1313647999777,534.1313647999777,534.1313647999777,534.1313647999777,534.1313647999777,534.1313647999777,534.1313647999777,534.1313647999777,534.1313647999777,534.1313647999777,536.2133605999989,536.2133605999989,536.2133605999989,536.2133605999989,536.2133605999989,536.2133605999989,536.2133605999989,35,70,63,70,70,60,536.2133605999989,538.0639453999756,,,,,,,,,,,,,,,,,,,,３３１,f,２３,2023-05-21_09h00.32.824,RL,2022.2.5,59.91317382299069,
39,61,71,79,0,83,83,83,,,,,,,,,,,None,538.0639453999756,538.0639453999756,538.0639453999756,538.0639453999756,538.0639453999756,538.0639453999756,r,0.20492499999818392,538.2993776999938,538.2993776999938,538.2993776999938,538.2993776999938,538.2993776999938,538.2993776999938,538.5813899999775,540.3974165999971,540.4139614999876,540.4139614999876,540.4139614999876,540.4139614999876,540.4139614999876,540.4139614999876,540.4139614999876,540.4139614999876,540.4139614999876,540.4139614999876,540.4139614999876,540.4139614999876,540.4139614999876,542.5284884999855,542.5284884999855,542.5284884999855,542.5284884999855,542.5284884999855,542.5284884999855,542.5284884999855,39,71,61,79,71,60,542.5284884999855,544.362777399976,,,,,,,,,,,,,,,,,,,,３３１,f,２３,2023-05-21_09h00.32.824,RL,2022.2.5,59.91317382299069,
40,64,76,78,0,84,84,84,,,,,,,,,,,None,544.362777399976,544.362777399976,544.362777399976,544.362777399976,544.362777399976,544.362777399976,r,0.5170804000226781,544.9211573999783,544.9211573999783,544.9211573999783,544.9211573999783,544.9211573999783,544.9211573999783,545.2131729999965,547.0959992999851,547.0959992999851,547.0959992999851,547.0959992999851,547.0959992999851,547.0959992999851,547.0959992999851,547.0959992999851,547.0959992999851,547.0959992999851,547.0959992999851,547.0959992999851,547.0959992999851,547.0959992999851,549.277174399991,549.277174399991,549.277174399991,549.277174399991,549.277174399991,549.277174399991,549.277174399991,40,76,64,78,76,60,549.277174399991,551.244844699977,,,,,,,,,,,,,,,,,,,,３３１,f,２３,2023-05-21_09h00.32.824,RL,2022.2.5,59.91317382299069,
39,71,79,85,0,85,85,85,,,,,,,,,,,None,551.244844699977,551.244844699977,551.244844699977,551.244844699977,551.244844699977,551.244844699977,r,0.3427981000277214,551.6120538999967,551.6120538999967,551.6120538999967,551.6120538999967,551.6120538999967,551.6120538999967,551.8950891999993,553.6119815999991,553.6285092999751,553.6285092999751,553.6285092999751,553.6285092999751,553.6285092999751,553.6285092999751,553.6285092999751,553.6285092999751,553.6285092999751,553.6285092999751,553.6285092999751,553.6285092999751,553.6285092999751,555.6428823999886,555.6428823999886,555.6428823999886,555.6428823999886,555.6428823999886,555.6428823999886,555.6428823999886,39,79,71,85,79,60,555.6428823999886,557.2940365999821,,,,,,,,,,,,,,,,,,,,３３１,f,２３,2023-05-21_09h00.32.824,RL,2022.2.5,59.91317382299069,
41,72,72,66,0,86,86,86,,,,,,,,,,,None,557.2940365999821,557.2940365999821,557.2940365999821,557.2940365999821,557.2940365999821,557.2940365999821,r,0.2798938000050839,557.597216299997,557.597216299997,557.597216299997,557.597216299997,557.597216299997,557.597216299997,557.8776628999913,559.1778636999952,559.1941212999809,559.1941212999809,559.1941212999809,559.1941212999809,559.1941212999809,559.1941212999809,559.1941212999809,559.1941212999809,559.1941212999809,559.1941212999809,559.1941212999809,559.1941212999809,559.1941212999809,560.7919048999902,560.7919048999902,560.7919048999902,560.7919048999902,560.7919048999902,560.7919048999902,560.7919048999902,41,72,72,66,72,60,560.7919048999902,562.6095302999893,,,,,,,,,,,,,,,,,,,,３３１,f,２３,2023-05-21_09h00.32.824,RL,2022.2.5,59.91317382299069,
45,66,74,83,0,87,87,87,,,,,,,,,,,None,562.6095302999893,562.6095302999893,562.6095302999893,562.6095302999893,562.6095302999893,562.6095302999893,r,0.36250160000054166,562.994813999976,562.994813999976,562.994813999976,562.994813999976,562.994813999976,562.994813999976,563.2936443999934,564.3097422999854,564.3097422999854,564.3097422999854,564.3097422999854,564.3097422999854,564.3097422999854,564.3097422999854,564.3097422999854,564.3097422999854,564.3097422999854,564.3097422999854,564.3097422999854,564.3097422999854,564.3097422999854,565.6245002999785,565.6245002999785,565.6245002999785,565.6245002999785,565.6245002999785,565.6245002999785,565.6245002999785,45,74,66,83,74,60,565.6245002999785,567.1758119000006,,,,,,,,,,,,,,,,,,,,３３１,f,２３,2023-05-21_09h00.32.824,RL,2022.2.5,59.91317382299069,
49,65,67,75,0,88,88,88,,,,,,,,,,,None,567.1758119000006,567.1758119000006,567.1758119000006,567.1758119000006,567.1758119000006,567.1758119000006,r,0.4117612999980338,567.6101621999987,567.6101621999987,567.6101621999987,567.6101621999987,567.6101621999987,567.6101621999987,567.8928145999962,569.1755377999798,569.1920839999802,569.1920839999802,569.1920839999802,569.1920839999802,569.1920839999802,569.1920839999802,569.1920839999802,569.1920839999802,569.1920839999802,569.1920839999802,569.1920839999802,569.1920839999802,569.1920839999802,570.7735195999849,570.7735195999849,570.7735195999849,570.7735195999849,570.7735195999849,570.7735195999849,570.7735195999849,49,67,65,75,67,60,570.7735195999849,572.6912381000002,,,,,,,,,,,,,,,,,,,,３３１,f,２３,2023-05-21_09h00.32.824,RL,2022.2.5,59.91317382299069,
39,70,77,75,0,89,89,89,,,,,,,,,,,None,572.6912381000002,572.6912381000002,572.6912381000002,572.6912381000002,572.6912381000002,572.6912381000002,r,0.12685840000631288,572.8422792999772,572.8422792999772,572.8422792999772,572.8422792999772,572.8422792999772,572.8422792999772,573.1248674999806,574.8580670999945,574.8745544999838,574.8745544999838,574.8745544999838,574.8745544999838,574.8745544999838,574.8745544999838,574.8745544999838,574.8745544999838,574.8745544999838,574.8745544999838,574.8745544999838,574.8745544999838,574.8745544999838,576.9059431999922,576.9059431999922,576.9059431999922,576.9059431999922,576.9059431999922,576.9059431999922,576.9059431999922,39,77,70,75,77,60,576.9059431999922,578.7566682999895,,,,,,,,,,,,,,,,,,,,３３１,f,２３,2023-05-21_09h00.32.824,RL,2022.2.5,59.91317382299069,
44,73,71,75,0,90,90,90,,,,,,,,,,,None,578.7566682999895,578.7566682999895,578.7566682999895,578.7566682999895,578.7566682999895,578.7566682999895,r,0.19041499999002554,578.9743085999798,578.9743085999798,578.9743085999798,578.9743085999798,578.9743085999798,578.9743085999798,579.2570472999942,580.7736741999979,580.7903644999897,580.7903644999897,580.7903644999897,580.7903644999897,580.7903644999897,580.7903644999897,580.7903644999897,580.7903644999897,580.7903644999897,580.7903644999897,580.7903644999897,580.7903644999897,580.7903644999897,582.6054558999895,582.6054558999895,582.6054558999895,582.6054558999895,582.6054558999895,582.6054558999895,582.6054558999895,44,71,73,75,71,60,582.6054558999895,584.3559309999982,,,,,,,,,,,,,,,,,,,,３３１,f,２３,2023-05-21_09h00.32.824,RL,2022.2.5,59.91317382299069,
42,71,76,72,0,91,91,91,,,,,,,,,,,None,584.3559309999982,584.3559309999982,584.3559309999982,584.3559309999982,584.3559309999982,584.3559309999982,r,0.22748800000408664,584.6070635999786,584.6070635999786,584.6070635999786,584.6070635999786,584.6070635999786,584.6070635999786,584.8899788999988,585.7393859000003,585.7557910000032,585.7557910000032,585.7557910000032,585.7557910000032,585.7557910000032,585.7557910000032,585.7557910000032,585.7557910000032,585.7557910000032,585.7557910000032,585.7557910000032,585.7557910000032,585.7557910000032,586.9045101999945,586.9045101999945,586.9045101999945,586.9045101999945,586.9045101999945,586.9045101999945,586.9045101999945,42,76,71,72,76,60,586.9045101999945,588.6884962999902,,,,,,,,,,,,,,,,,,,,３３１,f,２３,2023-05-21_09h00.32.824,RL,2022.2.5,59.91317382299069,
32,68,75,78,0,92,92,92,,,,,,,,,,,None,588.6884962999902,588.6884962999902,588.6884962999902,588.6884962999902,588.6884962999902,588.6884962999902,r,0.34993160000885837,589.0555356999976,589.0555356999976,589.0555356999976,589.0555356999976,589.0555356999976,589.0555356999976,589.3551672999747,591.2882572999806,591.2882572999806,591.2882572999806,591.2882572999806,591.2882572999806,591.2882572999806,591.2882572999806,591.2882572999806,591.2882572999806,591.2882572999806,591.2882572999806,591.2882572999806,591.2882572999806,591.2882572999806,593.5194621999981,593.5194621999981,593.5194621999981,593.5194621999981,593.5194621999981,593.5194621999981,593.5194621999981,32,75,68,78,75,60,593.5194621999981,595.4870782999787,,,,,,,,,,,,,,,,,,,,３３１,f,２３,2023-05-21_09h00.32.824,RL,2022.2.5,59.91317382299069,
41,69,75,67,0,93,93,93,,,,,,,,,,,None,595.4870782999787,595.4870782999787,595.4870782999787,595.4870782999787,595.4870782999787,595.4870782999787,r,0.5082782999961637,596.0209911999991,596.0209911999991,596.0209911999991,596.0209911999991,596.0209911999991,596.0209911999991,596.3041522999993,598.0706666999904,598.0873176000023,598.0873176000023,598.0873176000023,598.0873176000023,598.0873176000023,598.0873176000023,598.0873176000023,598.0873176000023,598.0873176000023,598.0873176000023,598.0873176000023,598.0873176000023,598.0873176000023,600.1520845999767,600.1520845999767,600.1520845999767,600.1520845999767,600.1520845999767,600.1520845999767,600.1520845999767,41,75,69,67,75,60,600.1520845999767,601.9530031000031,,,,,,,,,,,,,,,,,,,,３３１,f,２３,2023-05-21_09h00.32.824,RL,2022.2.5,59.91317382299069,
40,74,79,74,0,94,94,94,,,,,,,,,,,None,601.9530031000031,601.9530031000031,601.9530031000031,601.9530031000031,601.9530031000031,601.9530031000031,r,0.2733163999801036,602.2530847000016,602.2530847000016,602.2530847000016,602.2530847000016,602.2530847000016,602.2530847000016,602.5370726999827,604.4860436999879,604.5025404999906,604.5025404999906,604.5025404999906,604.5025404999906,604.5025404999906,604.5025404999906,604.5025404999906,604.5025404999906,604.5025404999906,604.5025404999906,604.5025404999906,604.5025404999906,604.5025404999906,606.7508481999976,606.7508481999976,606.7508481999976,606.7508481999976,606.7508481999976,606.7508481999976,606.7508481999976,40,79,74,74,79,60,606.7508481999976,608.6350117999827,,,,,,,,,,,,,,,,,,,,３３１,f,２３,2023-05-21_09h00.32.824,RL,2022.2.5,59.91317382299069,
40,74,81,61,0,95,95,95,,,,,,,,,,,None,608.6350117999827,608.6350117999827,608.6350117999827,608.6350117999827,608.6350117999827,608.6350117999827,r,0.28968560000066645,608.9546355999773,608.9546355999773,608.9546355999773,608.9546355999773,608.9546355999773,608.9546355999773,609.2356246999989,611.0183586999774,611.0351870000013,611.0351870000013,611.0351870000013,611.0351870000013,611.0351870000013,611.0351870000013,611.0351870000013,611.0351870000013,611.0351870000013,611.0351870000013,611.0351870000013,611.0351870000013,611.0351870000013,613.116234599991,613.116234599991,613.116234599991,613.116234599991,613.116234599991,613.116234599991,613.116234599991,40,81,74,61,81,60,613.116234599991,615.0505985999771,,,,,,,,,,,,,,,,,,,,３３１,f,２３,2023-05-21_09h00.32.824,RL,2022.2.5,59.91317382299069,
37,69,77,67,0,96,96,96,,,,,,,,,,,None,615.0505985999771,615.0505985999771,615.0505985999771,615.0505985999771,615.0505985999771,615.0505985999771,r,0.29816410000785254,615.3693268999923,615.3693268999923,615.3693268999923,615.3693268999923,615.3693268999923,615.3693268999923,615.6506323999783,617.3008064999885,617.3171109999821,617.3171109999821,617.3171109999821,617.3171109999821,617.3171109999821,617.3171109999821,617.3171109999821,617.3171109999821,617.3171109999821,617.3171109999821,617.3171109999821,617.3171109999821,617.3171109999821,619.2651709999773,619.2651709999773,619.2651709999773,619.2651709999773,619.2651709999773,619.2651709999773,619.2651709999773,37,77,69,67,77,60,619.2651709999773,621.1328408999834,,,,,,,,,,,,,,,,,,,,３３１,f,２３,2023-05-21_09h00.32.824,RL,2022.2.5,59.91317382299069,
29,71,73,71,0,97,97,97,,,,,,,,,,,None,621.1328408999834,621.1328408999834,621.1328408999834,621.1328408999834,621.1328408999834,621.1328408999834,r,0.27418649999890476,621.4352806999814,621.4352806999814,621.4352806999814,621.4352806999814,621.4352806999814,621.4352806999814,621.7167935000034,622.6832007999765,622.6997479999845,622.6997479999845,622.6997479999845,622.6997479999845,622.6997479999845,622.6997479999845,622.6997479999845,622.6997479999845,622.6997479999845,622.6997479999845,622.6997479999845,622.6997479999845,622.6997479999845,623.9642569999851,623.9642569999851,623.9642569999851,623.9642569999851,623.9642569999851,623.9642569999851,623.9642569999851,29,73,71,71,73,60,623.9642569999851,625.5156846999889,,,,,,,,,,,,,,,,,,,,３３１,f,２３,2023-05-21_09h00.32.824,RL,2022.2.5,59.91317382299069,
29,66,72,67,0,98,98,98,,,,,,,,,,,None,625.5156846999889,625.5156846999889,625.5156846999889,625.5156846999889,625.5156846999889,625.5156846999889,r,0.42442100000334904,625.9657898999867,625.9657898999867,625.9657898999867,625.9657898999867,625.9657898999867,625.9657898999867,626.2495241999859,627.8325037999894,627.8487030999968,627.8487030999968,627.8487030999968,627.8487030999968,627.8487030999968,627.8487030999968,627.8487030999968,627.8487030999968,627.8487030999968,627.8487030999968,627.8487030999968,627.8487030999968,627.8487030999968,629.7299583999848,629.7299583999848,629.7299583999848,629.7299583999848,629.7299583999848,629.7299583999848,629.7299583999848,29,72,66,67,72,60,629.7299583999848,631.6977807999938,,,,,,,,,,,,,,,,,,,,３３１,f,２３,2023-05-21_09h00.32.824,RL,2022.2.5,59.91317382299069,
29,69,76,75,0,99,99,99,,,,,,,,,,,None,631.6977807999938,631.6977807999938,631.6977807999938,631.6977807999938,631.6977807999938,631.6977807999938,r,0.340199099999154,632.0662789999915,632.0662789999915,632.0662789999915,632.0662789999915,632.0662789999915,632.0662789999915,632.3480498999998,633.2314294999815,633.2476269000035,633.2476269000035,633.2476269000035,633.2476269000035,633.2476269000035,633.2476269000035,633.2476269000035,633.2476269000035,633.2476269000035,633.2476269000035,633.2476269000035,633.2476269000035,633.2476269000035,634.4296450999973,634.4296450999973,634.4296450999973,634.4296450999973,634.4296450999973,634.4296450999973,634.4296450999973,29,76,69,75,76,60,634.4296450999973,636.0635699999984,,,,,,,,,,,,,,,,,,,,３３１,f,２３,2023-05-21_09h00.32.824,RL,2022.2.5,59.91317382299069,
32,74,73,76,0,100,100,100,,,,,,,,,,,None,636.0635699999984,636.0635699999984,636.0635699999984,636.0635699999984,636.0635699999984,636.0635699999984,r,0.33176520001143217,636.4158899000031,636.4158899000031,636.4158899000031,636.4158899000031,636.4158899000031,636.4158899000031,636.6974298999994,637.9803709999833,637.9966927999922,637.9966927999922,637.9966927999922,637.9966927999922,637.9966927999922,637.9966927999922,637.9966927999922,637.9966927999922,637.9966927999922,637.9966927999922,637.9966927999922,637.9966927999922,637.9966927999922,639.5784545999777,639.5784545999777,639.5784545999777,639.5784545999777,639.5784545999777,639.5784545999777,639.5784545999777,32,73,74,76,73,60,639.5784545999777,641.2959604999924,,,,,,,,,,,,,,,,,,,,３３１,f,２３,2023-05-21_09h00.32.824,RL,2022.2.5,59.91317382299069,
43,64,83,63,0,101,101,101,,,,,,,,,,,None,641.2959604999924,641.2959604999924,641.2959604999924,641.2959604999924,641.2959604999924,641.2959604999924,r,0.32751590001862496,641.6464934999822,641.6464934999822,641.6464934999822,641.6464934999822,641.6464934999822,641.6464934999822,641.9295868999907,642.8130808999995,642.8296094999823,642.8296094999823,642.8296094999823,642.8296094999823,642.8296094999823,642.8296094999823,642.8296094999823,642.8296094999823,642.8296094999823,642.8296094999823,642.8296094999823,642.8296094999823,642.8296094999823,644.0111007999803,644.0111007999803,644.0111007999803,644.0111007999803,644.0111007999803,644.0111007999803,644.0111007999803,43,83,64,63,83,60,644.0111007999803,645.7622198000026,,,,,,,,,,,,,,,,,,,,３３１,f,２３,2023-05-21_09h00.32.824,RL,2022.2.5,59.91317382299069,
40,75,74,56,0,102,102,102,,,,,,,,,,,None,645.7622198000026,645.7622198000026,645.7622198000026,645.7622198000026,645.7622198000026,645.7622198000026,r,0.3595455999893602,646.1468813999963,646.1468813999963,646.1468813999963,646.1468813999963,646.1468813999963,646.1468813999963,646.4456790999975,647.6118620999914,647.6118620999914,647.6118620999914,647.6118620999914,647.6118620999914,647.6118620999914,647.6118620999914,647.6118620999914,647.6118620999914,647.6118620999914,647.6118620999914,647.6118620999914,647.6118620999914,647.6118620999914,649.0768339999777,649.0768339999777,649.0768339999777,649.0768339999777,649.0768339999777,649.0768339999777,649.0768339999777,40,74,75,56,74,60,649.0768339999777,650.8113310999761,,,,,,,,,,,,,,,,,,,,３３１,f,２３,2023-05-21_09h00.32.824,RL,2022.2.5,59.91317382299069,
42,68,72,57,0,103,103,103,,,,,,,,,,,None,650.8113310999761,650.8113310999761,650.8113310999761,650.8113310999761,650.8113310999761,650.8113310999761,r,0.3258657999977004,651.1614963999891,651.1614963999891,651.1614963999891,651.1614963999891,651.1614963999891,651.1614963999891,651.4615567000001,653.2779725999862,653.2779725999862,653.2779725999862,653.2779725999862,653.2779725999862,653.2779725999862,653.2779725999862,653.2779725999862,653.2779725999862,653.2779725999862,653.2779725999862,653.2779725999862,653.2779725999862,653.2779725999862,655.3920776000014,655.3920776000014,655.3920776000014,655.3920776000014,655.3920776000014,655.3920776000014,655.3920776000014,42,72,68,57,72,60,655.3920776000014,657.3767685999919,,,,,,,,,,,,,,,,,,,,３３１,f,２３,2023-05-21_09h00.32.824,RL,2022.2.5,59.91317382299069,
40,69,66,56,0,104,104,104,,,,,,,,,,,None,657.3767685999919,657.3767685999919,657.3767685999919,657.3767685999919,657.3767685999919,657.3767685999919,r,0.33223759999964386,657.7271748999774,657.7271748999774,657.7271748999774,657.7271748999774,657.7271748999774,657.7271748999774,658.0271372999996,659.9432767999824,659.9432767999824,659.9432767999824,659.9432767999824,659.9432767999824,659.9432767999824,659.9432767999824,659.9432767999824,659.9432767999824,659.9432767999824,659.9432767999824,659.9432767999824,659.9432767999824,659.9432767999824,662.1574932999793,662.1574932999793,662.1574932999793,662.1574932999793,662.1574932999793,662.1574932999793,662.1574932999793,40,66,69,56,66,60,662.1574932999793,663.9251430000004,,,,,,,,,,,,,,,,,,,,３３１,f,２３,2023-05-21_09h00.32.824,RL,2022.2.5,59.91317382299069,
37,70,72,53,0,105,105,105,,,,,,,,,,,None,663.9251430000004,663.9251430000004,663.9251430000004,663.9251430000004,663.9251430000004,663.9251430000004,r,0.7012601000024006,664.6635844999983,664.6635844999983,664.6635844999983,664.6635844999983,664.6635844999983,664.6635844999983,664.9421940000029,666.4087372999929,666.4252615000005,666.4252615000005,666.4252615000005,666.4252615000005,666.4252615000005,666.4252615000005,666.4252615000005,666.4252615000005,666.4252615000005,666.4252615000005,666.4252615000005,666.4252615000005,666.4252615000005,668.1903614999901,668.1903614999901,668.1903614999901,668.1903614999901,668.1903614999901,668.1903614999901,668.1903614999901,37,72,70,53,72,60,668.1903614999901,669.8913913999859,,,,,,,,,,,,,,,,,,,,３３１,f,２３,2023-05-21_09h00.32.824,RL,2022.2.5,59.91317382299069,
41,66,66,53,0,106,106,106,,,,,,,,,,,None,669.8913913999859,669.8913913999859,669.8913913999859,669.8913913999859,669.8913913999859,669.8913913999859,r,0.31168549999711104,670.2263609999791,670.2263609999791,670.2263609999791,670.2263609999791,670.2263609999791,670.2263609999791,670.5081290999951,672.408156999998,672.4246375999937,672.4246375999937,672.4246375999937,672.4246375999937,672.4246375999937,672.4246375999937,672.4246375999937,672.4246375999937,672.4246375999937,672.4246375999937,672.4246375999937,672.4246375999937,672.4246375999937,674.6223336999828,674.6223336999828,674.6223336999828,674.6223336999828,674.6223336999828,674.6223336999828,674.6223336999828,41,66,66,53,66,60,674.6223336999828,676.2234745000023,,,,,,,,,,,,,,,,,,,,３３１,f,２３,2023-05-21_09h00.32.824,RL,2022.2.5,59.91317382299069,
47,69,75,57,0,107,107,107,,,,,,,,,,,None,676.2234745000023,676.2234745000023,676.2234745000023,676.2234745000023,676.2234745000023,676.2234745000023,r,0.31470960000297055,676.5615143999748,676.5615143999748,676.5615143999748,676.5615143999748,676.5615143999748,676.5615143999748,676.8405711999803,678.1900269999751,678.2066868999973,678.2066868999973,678.2066868999973,678.2066868999973,678.2066868999973,678.2066868999973,678.2066868999973,678.2066868999973,678.2066868999973,678.2066868999973,678.2066868999973,678.2066868999973,678.2066868999973,679.8545720999828,679.8545720999828,679.8545720999828,679.8545720999828,679.8545720999828,679.8545720999828,679.8545720999828,47,75,69,57,75,60,679.8545720999828,681.6555927000009,,,,,,,,,,,,,,,,,,,,３３１,f,２３,2023-05-21_09h00.32.824,RL,2022.2.5,59.91317382299069,
47,63,83,53,0,108,108,108,,,,,,,,,,,None,681.6555927000009,681.6555927000009,681.6555927000009,681.6555927000009,681.6555927000009,681.6555927000009,r,0.3630047000187915,682.0395074999833,682.0395074999833,682.0395074999833,682.0395074999833,682.0395074999833,682.0395074999833,682.3230775999837,683.255416400003,683.2722683000029,683.2722683000029,683.2722683000029,683.2722683000029,683.2722683000029,683.2722683000029,683.2722683000029,683.2722683000029,683.2722683000029,683.2722683000029,683.2722683000029,683.2722683000029,683.2722683000029,684.5036090999783,684.5036090999783,684.5036090999783,684.5036090999783,684.5036090999783,684.5036090999783,684.5036090999783,47,83,63,53,83,60,684.5036090999783,686.1716219999944,,,,,,,,,,,,,,,,,,,,３３１,f,２３,2023-05-21_09h00.32.824,RL,2022.2.5,59.91317382299069,
43,70,74,55,0,109,109,109,,,,,,,,,,,None,686.1716219999944,686.1716219999944,686.1716219999944,686.1716219999944,686.1716219999944,686.1716219999944,r,0.35077700001420453,686.556184999994,686.556184999994,686.556184999994,686.556184999994,686.556184999994,686.556184999994,686.8383184999984,688.6051179999777,688.6217026999802,688.6217026999802,688.6217026999802,688.6217026999802,688.6217026999802,688.6217026999802,688.6217026999802,688.6217026999802,688.6217026999802,688.6217026999802,688.6217026999802,688.6217026999802,688.6217026999802,690.6864108000009,690.6864108000009,690.6864108000009,690.6864108000009,690.6864108000009,690.6864108000009,690.6864108000009,43,74,70,55,74,60,690.6864108000009,692.5202897999843,,,,,,,,,,,,,,,,,,,,３３１,f,２３,2023-05-21_09h00.32.824,RL,2022.2.5,59.91317382299069,
52,76,73,59,0,110,110,110,,,,,,,,,,,None,692.5202897999843,692.5202897999843,692.5202897999843,692.5202897999843,692.5202897999843,692.5202897999843,r,0.29954079998424277,692.8393946999859,692.8393946999859,692.8393946999859,692.8393946999859,692.8393946999859,692.8393946999859,693.1211350999947,694.7541350999963,694.7705210999993,694.7705210999993,694.7705210999993,694.7705210999993,694.7705210999993,694.7705210999993,694.7705210999993,694.7705210999993,694.7705210999993,694.7705210999993,694.7705210999993,694.7705210999993,694.7705210999993,696.7018623999902,696.7018623999902,696.7018623999902,696.7018623999902,696.7018623999902,696.7018623999902,696.7018623999902,52,73,76,59,73,60,696.7018623999902,698.4530502999842,,,,,,,,,,,,,,,,,,,,３３１,f,２３,2023-05-21_09h00.32.824,RL,2022.2.5,59.91317382299069,
43,73,67,49,0,111,111,111,,,,,,,,,,,None,698.4530502999842,698.4530502999842,698.4530502999842,698.4530502999842,698.4530502999842,698.4530502999842,r,0.32811380000202917,698.8030152999854,698.8030152999854,698.8030152999854,698.8030152999854,698.8030152999854,698.8030152999854,699.0867848999915,700.6860064999782,700.7027796999901,700.7027796999901,700.7027796999901,700.7027796999901,700.7027796999901,700.7027796999901,700.7027796999901,700.7027796999901,700.7027796999901,700.7027796999901,700.7027796999901,700.7027796999901,700.7027796999901,702.6008891999954,702.6008891999954,702.6008891999954,702.6008891999954,702.6008891999954,702.6008891999954,702.6008891999954,43,67,73,49,67,60,702.6008891999954,704.5183113999956,,,,,,,,,,,,,,,,,,,,３３１,f,２３,2023-05-21_09h00.32.824,RL,2022.2.5,59.91317382299069,
45,74,72,62,0,112,112,112,,,,,,,,,,,None,704.5183113999956,704.5183113999956,704.5183113999956,704.5183113999956,704.5183113999956,704.5183113999956,r,0.3211379999993369,704.8695815999818,704.8695815999818,704.8695815999818,704.8695815999818,704.8695815999818,704.8695815999818,705.1685537000012,706.4348817999999,706.4348817999999,706.4348817999999,706.4348817999999,706.4348817999999,706.4348817999999,706.4348817999999,706.4348817999999,706.4348817999999,706.4348817999999,706.4348817999999,706.4348817999999,706.4348817999999,706.4348817999999,708.0002685999789,708.0002685999789,708.0002685999789,708.0002685999789,708.0002685999789,708.0002685999789,708.0002685999789,45,72,74,62,72,60,708.0002685999789,709.7340612999978,,,,,,,,,,,,,,,,,,,,３３１,f,２３,2023-05-21_09h00.32.824,RL,2022.2.5,59.91317382299069,
52,78,75,56,0,113,113,113,,,,,,,,,,,None,709.7340612999978,709.7340612999978,709.7340612999978,709.7340612999978,709.7340612999978,709.7340612999978,r,0.2938319999957457,710.0513105999853,710.0513105999853,710.0513105999853,710.0513105999853,710.0513105999853,710.0513105999853,710.3346393999818,711.3512648000033,711.3673123999906,711.3673123999906,711.3673123999906,711.3673123999906,711.3673123999906,711.3673123999906,711.3673123999906,711.3673123999906,711.3673123999906,711.3673123999906,711.3673123999906,711.3673123999906,711.3673123999906,712.6827534999757,712.6827534999757,712.6827534999757,712.6827534999757,712.6827534999757,712.6827534999757,712.6827534999757,52,75,78,56,75,60,712.6827534999757,714.5329983999836,,,,,,,,,,,,,,,,,,,,３３１,f,２３,2023-05-21_09h00.32.824,RL,2022.2.5,59.91317382299069,
53,79,86,58,0,114,114,114,,,,,,,,,,,None,714.5329983999836,714.5329983999836,714.5329983999836,714.5329983999836,714.5329983999836,714.5329983999836,r,0.315904999995837,714.8685699999915,714.8685699999915,714.8685699999915,714.8685699999915,714.8685699999915,714.8685699999915,715.1666429000034,716.2833671999979,716.2833671999979,716.2833671999979,716.2833671999979,716.2833671999979,716.2833671999979,716.2833671999979,716.2833671999979,716.2833671999979,716.2833671999979,716.2833671999979,716.2833671999979,716.2833671999979,716.2833671999979,717.6978017999791,717.6978017999791,717.6978017999791,717.6978017999791,717.6978017999791,717.6978017999791,717.6978017999791,53,86,79,58,86,60,717.6978017999791,719.2324551999918,,,,,,,,,,,,,,,,,,,,３３１,f,２３,2023-05-21_09h00.32.824,RL,2022.2.5,59.91317382299069,
47,80,78,55,0,115,115,115,,,,,,,,,,,None,719.2324551999918,719.2324551999918,719.2324551999918,719.2324551999918,719.2324551999918,719.2324551999918,r,0.30038060000515543,719.5755956999783,719.5755956999783,719.5755956999783,719.5755956999783,719.5755956999783,719.5755956999783,719.8496415999834,721.7488946999947,721.765619999991,721.765619999991,721.765619999991,721.765619999991,721.765619999991,721.765619999991,721.765619999991,721.765619999991,721.765619999991,721.765619999991,721.765619999991,721.765619999991,721.765619999991,723.9634407999984,723.9634407999984,723.9634407999984,723.9634407999984,723.9634407999984,723.9634407999984,723.9634407999984,47,78,80,55,78,60,723.9634407999984,725.664534999989,,,,,,,,,,,,,,,,,,,,３３１,f,２３,2023-05-21_09h00.32.824,RL,2022.2.5,59.91317382299069,
53,73,71,54,0,116,116,116,,,,,,,,,,,None,725.664534999989,725.664534999989,725.664534999989,725.664534999989,725.664534999989,725.664534999989,r,0.3333672000153456,726.0151130000013,726.0151130000013,726.0151130000013,726.0151130000013,726.0151130000013,726.0151130000013,726.3148337999883,727.8810262999905,727.8810262999905,727.8810262999905,727.8810262999905,727.8810262999905,727.8810262999905,727.8810262999905,727.8810262999905,727.8810262999905,727.8810262999905,727.8810262999905,727.8810262999905,727.8810262999905,727.8810262999905,729.7457625999814,729.7457625999814,729.7457625999814,729.7457625999814,729.7457625999814,729.7457625999814,729.7457625999814,53,71,73,54,71,60,729.7457625999814,731.2967839999765,,,,,,,,,,,,,,,,,,,,３３１,f,２３,2023-05-21_09h00.32.824,RL,2022.2.5,59.91317382299069,
47,71,77,60,0,117,117,117,,,,,,,,,,,None,731.2967839999765,731.2967839999765,731.2967839999765,731.2967839999765,731.2967839999765,731.2967839999765,r,0.4080542999727186,731.7323909999977,731.7323909999977,731.7323909999977,731.7323909999977,731.7323909999977,731.7323909999977,732.0306170999829,732.9469072999782,732.9469072999782,732.9469072999782,732.9469072999782,732.9469072999782,732.9469072999782,732.9469072999782,732.9469072999782,732.9469072999782,732.9469072999782,732.9469072999782,732.9469072999782,732.9469072999782,732.9469072999782,734.1616771999979,734.1616771999979,734.1616771999979,734.1616771999979,734.1616771999979,734.1616771999979,734.1616771999979,47,77,71,60,77,60,734.1616771999979,735.9298802999838,,,,,,,,,,,,,,,,,,,,３３１,f,２３,2023-05-21_09h00.32.824,RL,2022.2.5,59.91317382299069,
49,62,87,53,0,118,118,118,,,,,,,,,,,None,735.9298802999838,735.9298802999838,735.9298802999838,735.9298802999838,735.9298802999838,735.9298802999838,r,0.6020678000058979,736.5675118999789,736.5675118999789,736.5675118999789,736.5675118999789,736.5675118999789,736.5675118999789,736.8463962999813,738.4794237999886,738.4958708999911,738.4958708999911,738.4958708999911,738.4958708999911,738.4958708999911,738.4958708999911,738.4958708999911,738.4958708999911,738.4958708999911,738.4958708999911,738.4958708999911,738.4958708999911,738.4958708999911,740.4278938999923,740.4278938999923,740.4278938999923,740.4278938999923,740.4278938999923,740.4278938999923,740.4278938999923,49,87,62,53,87,60,740.4278938999923,742.361556799995,,,,,,,,,,,,,,,,,,,,３３１,f,２３,2023-05-21_09h00.32.824,RL,2022.2.5,59.91317382299069,
57,80,92,56,0,119,119,119,,,,,,,,,,,None,742.361556799995,742.361556799995,742.361556799995,742.361556799995,742.361556799995,742.361556799995,r,0.526024699996924,742.9131792999979,742.9131792999979,742.9131792999979,742.9131792999979,742.9131792999979,742.9131792999979,743.2119408999861,744.8787156999751,744.8787156999751,744.8787156999751,744.8787156999751,744.8787156999751,744.8787156999751,744.8787156999751,744.8787156999751,744.8787156999751,744.8787156999751,744.8787156999751,744.8787156999751,744.8787156999751,744.8787156999751,746.8429413999838,746.8429413999838,746.8429413999838,746.8429413999838,746.8429413999838,746.8429413999838,746.8429413999838,57,92,80,56,92,60,746.8429413999838,748.594417699991,,,,,,,,,,,,,,,,,,,,３３１,f,２３,2023-05-21_09h00.32.824,RL,2022.2.5,59.91317382299069,
