arm1,arm2,arm3,arm4,trials.thisRepN,trials.thisTrialN,trials.thisN,trials.thisIndex,instru_img1.started,instru_resp.started,instru_resp.keys,instru_resp.rt,image_2.started,text_2.started,image_2.stopped,text_2.stopped,fixbefore_2.started,fixbefore_2.stopped,rest_response.keys,red.started,green.started,yellow.started,blue.started,choose_bandit.started,Fixation.started,choose_bandit.keys,choose_bandit.rt,black.started,red_2.started,green_2.started,yellow_2.started,blue_2.started,fixation_2.started,docs.started,docs.stopped,black.stopped,red_2.stopped,green_2.stopped,yellow_2.stopped,blue_2.stopped,fixation_2.stopped,black_com.started,reward_sub.started,reward__sub.started,red_compare.started,green_com.started,yellow_com.started,blue_com.started,black_com.stopped,reward_sub.stopped,reward__sub.stopped,red_compare.stopped,green_com.stopped,yellow_com.stopped,blue_com.stopped,rewardred,rewardyellow,rewardblue,rewardgreen,subchoose,expectation,intertrialfix.started,intertrialfix.stopped,rest_image.started,rest_response.started,rest_response.rt,image_expect_after.started,text_exp_after.started,image_expect_after.stopped,text_exp_after.stopped,image.started,key_resp.started,key_resp.keys,key_resp.rt,participant,Gender,Age,date,expName,psychopyVersion,frameRate,
,,,,,,,,15.618813399982173,15.618813399982173,space,17.347122599981958,,,,,,,,,,,,,,,,,,,,,,,,,,,,,,,,,,,,,,,,,,,,,,,,,,,,,,,,,,,,,,,３３２,f,２２,2023-05-21_09h33.09.415,RL,2022.2.5,59.98976574834755,
30,40,56,63,0,0,0,0,,,,,32.981191999977455,32.981191999977455,37.98086559999501,37.98086559999501,37.98086559999501,38.98441029997775,None,38.98441029997775,38.98441029997775,38.98441029997775,38.98441029997775,38.98441029997775,38.98441029997775,r,0.6166006999847014,39.6384058999829,39.6384058999829,39.6384058999829,39.6384058999829,39.6384058999829,39.6384058999829,39.92327649999061,41.792826899996726,41.815938299987465,41.815938299987465,41.815938299987465,41.815938299987465,41.815938299987465,41.815938299987465,41.815938299987465,41.815938299987465,41.815938299987465,41.815938299987465,41.815938299987465,41.815938299987465,41.815938299987465,44.02562279999256,44.02562279999256,44.02562279999256,44.02562279999256,44.02562279999256,44.02562279999256,44.02562279999256,63,40,30,56,40,70,44.02562279999256,45.580485599988606,,,,,,,,,,,,３３２,f,２２,2023-05-21_09h33.09.415,RL,2022.2.5,59.98976574834755,
33,40,56,55,0,1,1,1,,,,,,,,,,,None,45.580485599988606,45.580485599988606,45.580485599988606,45.580485599988606,45.580485599988606,45.580485599988606,f,0.638495100021828,46.247868699982064,46.247868699982064,46.247868699982064,46.247868699982064,46.247868699982064,46.247868699982064,46.547779099986656,48.09808820000035,48.09808820000035,48.09808820000035,48.09808820000035,48.09808820000035,48.09808820000035,48.09808820000035,48.09808820000035,48.09808820000035,48.09808820000035,48.09808820000035,48.09808820000035,48.09808820000035,48.09808820000035,49.94541739998385,49.94541739998385,49.94541739998385,49.94541739998385,49.94541739998385,49.94541739998385,49.94541739998385,55,40,33,56,55,70,49.94541739998385,51.696102299989434,,,,,,,,,,,,３３２,f,２２,2023-05-21_09h33.09.415,RL,2022.2.5,59.98976574834755,
28,44,54,63,0,2,2,2,,,,,,,,,,,None,51.696102299989434,51.696102299989434,51.696102299989434,51.696102299989434,51.696102299989434,51.696102299989434,i,0.4893640999798663,52.214504899980966,52.214504899980966,52.214504899980966,52.214504899980966,52.214504899980966,52.214504899980966,52.49681579999742,53.362718299991684,53.379192099993816,53.379192099993816,53.379192099993816,53.379192099993816,53.379192099993816,53.379192099993816,53.379192099993816,53.379192099993816,53.379192099993816,53.379192099993816,53.379192099993816,53.379192099993816,53.379192099993816,54.54424509999808,54.54424509999808,54.54424509999808,54.54424509999808,54.54424509999808,54.54424509999808,54.54424509999808,63,44,28,54,28,70,54.54424509999808,56.262242500000866,,,,,,,,,,,,３３２,f,２２,2023-05-21_09h33.09.415,RL,2022.2.5,59.98976574834755,
22,38,54,53,0,3,3,3,,,,,,,,,,,None,56.262242500000866,56.262242500000866,56.262242500000866,56.262242500000866,56.262242500000866,56.262242500000866,j,0.8618472999951337,57.14664019999327,57.14664019999327,57.14664019999327,57.14664019999327,57.14664019999327,57.14664019999327,57.42919369999436,58.96253729998716,58.978267999977106,58.978267999977106,58.978267999977106,58.978267999977106,58.978267999977106,58.978267999977106,58.978267999977106,58.978267999977106,58.978267999977106,58.978267999977106,58.978267999977106,58.978267999977106,58.978267999977106,60.80967369998689,60.80967369998689,60.80967369998689,60.80967369998689,60.80967369998689,60.80967369998689,60.80967369998689,53,38,22,54,54,70,60.80967369998689,62.810548099980224,,,,,,,,,,,,３３２,f,２２,2023-05-21_09h33.09.415,RL,2022.2.5,59.98976574834755,
30,44,59,59,0,4,4,4,,,,,,,,,,,None,62.810548099980224,62.810548099980224,62.810548099980224,62.810548099980224,62.810548099980224,62.810548099980224,f,0.40545530000235885,63.24837449999177,63.24837449999177,63.24837449999177,63.24837449999177,63.24837449999177,63.24837449999177,63.54453069998999,65.47736239997903,65.47736239997903,65.47736239997903,65.47736239997903,65.47736239997903,65.47736239997903,65.47736239997903,65.47736239997903,65.47736239997903,65.47736239997903,65.47736239997903,65.47736239997903,65.47736239997903,65.47736239997903,67.70838430000003,67.70838430000003,67.70838430000003,67.70838430000003,67.70838430000003,67.70838430000003,67.70838430000003,59,44,30,59,59,70,67.70838430000003,69.59289199998602,,,,,,,,,,,,３３２,f,２２,2023-05-21_09h33.09.415,RL,2022.2.5,59.98976574834755,
33,44,64,55,0,5,5,5,,,,,,,,,,,None,69.59289199998602,69.59289199998602,69.59289199998602,69.59289199998602,69.59289199998602,69.59289199998602,j,0.4448567000217736,70.06017589999828,70.06017589999828,70.06017589999828,70.06017589999828,70.06017589999828,70.06017589999828,70.34355469999718,72.15980120000313,72.17654769998626,72.17654769998626,72.17654769998626,72.17654769998626,72.17654769998626,72.17654769998626,72.17654769998626,72.17654769998626,72.17654769998626,72.17654769998626,72.17654769998626,72.17654769998626,72.17654769998626,74.29075679997914,74.29075679997914,74.29075679997914,74.29075679997914,74.29075679997914,74.29075679997914,74.29075679997914,55,44,33,64,64,70,74.29075679997914,76.0919176999887,,,,,,,,,,,,３３２,f,２２,2023-05-21_09h33.09.415,RL,2022.2.5,59.98976574834755,
28,44,61,52,0,6,6,6,,,,,,,,,,,None,76.0919176999887,76.0919176999887,76.0919176999887,76.0919176999887,76.0919176999887,76.0919176999887,j,0.2985921000072267,76.40934499999275,76.40934499999275,76.40934499999275,76.40934499999275,76.40934499999275,76.40934499999275,76.6927003999881,77.94233239997993,77.95833969998057,77.95833969998057,77.95833969998057,77.95833969998057,77.95833969998057,77.95833969998057,77.95833969998057,77.95833969998057,77.95833969998057,77.95833969998057,77.95833969998057,77.95833969998057,77.95833969998057,79.50685179998982,79.50685179998982,79.50685179998982,79.50685179998982,79.50685179998982,79.50685179998982,79.50685179998982,52,44,28,61,61,70,79.50685179998982,81.1080660999869,,,,,,,,,,,,３３２,f,２２,2023-05-21_09h33.09.415,RL,2022.2.5,59.98976574834755,
26,46,68,44,0,7,7,7,,,,,,,,,,,None,81.1080660999869,81.1080660999869,81.1080660999869,81.1080660999869,81.1080660999869,81.1080660999869,f,0.32505449999007396,81.46052130000317,81.46052130000317,81.46052130000317,81.46052130000317,81.46052130000317,81.46052130000317,81.74142019997817,82.67459199999576,82.69106169999577,82.69106169999577,82.69106169999577,82.69106169999577,82.69106169999577,82.69106169999577,82.69106169999577,82.69106169999577,82.69106169999577,82.69106169999577,82.69106169999577,82.69106169999577,82.69106169999577,83.92249869997613,83.92249869997613,83.92249869997613,83.92249869997613,83.92249869997613,83.92249869997613,83.92249869997613,44,46,26,68,44,70,83.92249869997613,85.55729109997628,,,,,,,,,,,,３３２,f,２２,2023-05-21_09h33.09.415,RL,2022.2.5,59.98976574834755,
29,45,69,47,0,8,8,8,,,,,,,,,,,None,85.55729109997628,85.55729109997628,85.55729109997628,85.55729109997628,85.55729109997628,85.55729109997628,j,0.5117929999832995,86.09059569999226,86.09059569999226,86.09059569999226,86.09059569999226,86.09059569999226,86.09059569999226,86.37407560000429,87.77335669999593,87.79019199998584,87.79019199998584,87.79019199998584,87.79019199998584,87.79019199998584,87.79019199998584,87.79019199998584,87.79019199998584,87.79019199998584,87.79019199998584,87.79019199998584,87.79019199998584,87.79019199998584,89.48803899998893,89.48803899998893,89.48803899998893,89.48803899998893,89.48803899998893,89.48803899998893,89.48803899998893,47,45,29,69,69,70,89.48803899998893,91.27284239997971,,,,,,,,,,,,３３２,f,２２,2023-05-21_09h33.09.415,RL,2022.2.5,59.98976574834755,
24,50,63,37,0,9,9,9,,,,,,,,,,,None,91.27284239997971,91.27284239997971,91.27284239997971,91.27284239997971,91.27284239997971,91.27284239997971,j,0.4234664000105113,91.72402789999614,91.72402789999614,91.72402789999614,91.72402789999614,91.72402789999614,91.72402789999614,92.00612189999083,93.30604169997969,93.3222526999889,93.3222526999889,93.3222526999889,93.3222526999889,93.3222526999889,93.3222526999889,93.3222526999889,93.3222526999889,93.3222526999889,93.3222526999889,93.3222526999889,93.3222526999889,93.3222526999889,94.90377409997745,94.90377409997745,94.90377409997745,94.90377409997745,94.90377409997745,94.90377409997745,94.90377409997745,37,50,24,63,63,70,94.90377409997745,96.47147920000134,,,,,,,,,,,,３３２,f,２２,2023-05-21_09h33.09.415,RL,2022.2.5,59.98976574834755,
24,52,69,47,0,10,10,10,,,,,,,,,,,None,96.47147920000134,96.47147920000134,96.47147920000134,96.47147920000134,96.47147920000134,96.47147920000134,i,0.30838060000678524,96.80667900000117,96.80667900000117,96.80667900000117,96.80667900000117,96.80667900000117,96.80667900000117,97.08866310000303,98.50504829999409,98.52144899999257,98.52144899999257,98.52144899999257,98.52144899999257,98.52144899999257,98.52144899999257,98.52144899999257,98.52144899999257,98.52144899999257,98.52144899999257,98.52144899999257,98.52144899999257,98.52144899999257,100.23626279999735,100.23626279999735,100.23626279999735,100.23626279999735,100.23626279999735,100.23626279999735,100.23626279999735,47,52,24,69,24,70,100.23626279999735,102.12090159999207,,,,,,,,,,,,３３２,f,２２,2023-05-21_09h33.09.415,RL,2022.2.5,59.98976574834755,
23,50,55,40,0,11,11,11,,,,,,,,,,,None,102.12090159999207,102.12090159999207,102.12090159999207,102.12090159999207,102.12090159999207,102.12090159999207,j,0.25175740002305247,102.41020659997594,102.41020659997594,102.41020659997594,102.41020659997594,102.41020659997594,102.41020659997594,102.68770329997642,104.15425809999579,104.17024539998965,104.17024539998965,104.17024539998965,104.17024539998965,104.17024539998965,104.17024539998965,104.17024539998965,104.17024539998965,104.17024539998965,104.17024539998965,104.17024539998965,104.17024539998965,104.17024539998965,105.93506809999235,105.93506809999235,105.93506809999235,105.93506809999235,105.93506809999235,105.93506809999235,105.93506809999235,40,50,23,55,55,70,105.93506809999235,107.6865853999916,,,,,,,,,,,,３３２,f,２２,2023-05-21_09h33.09.415,RL,2022.2.5,59.98976574834755,
37,42,51,46,0,12,12,12,,,,,,,,,,,None,107.6865853999916,107.6865853999916,107.6865853999916,107.6865853999916,107.6865853999916,107.6865853999916,f,0.29369590000715107,108.00361339998199,108.00361339998199,108.00361339998199,108.00361339998199,108.00361339998199,108.00361339998199,108.28645029998734,109.65301389998058,109.68643059997703,109.68643059997703,109.68643059997703,109.68643059997703,109.68643059997703,109.68643059997703,109.68643059997703,109.68643059997703,109.68643059997703,109.68643059997703,109.68643059997703,109.68643059997703,109.68643059997703,111.35126809999929,111.35126809999929,111.35126809999929,111.35126809999929,111.35126809999929,111.35126809999929,111.35126809999929,46,42,37,51,46,70,111.35126809999929,113.10190009998041,,,,,,,,,,,,３３２,f,２２,2023-05-21_09h33.09.415,RL,2022.2.5,59.98976574834755,
26,58,48,47,0,13,13,13,,,,,,,,,,,None,113.10190009998041,113.10190009998041,113.10190009998041,113.10190009998041,113.10190009998041,113.10190009998041,r,0.3461335000174586,113.46911419997923,113.46911419997923,113.46911419997923,113.46911419997923,113.46911419997923,113.46911419997923,113.76907389998087,114.80210390000138,114.80210390000138,114.80210390000138,114.80210390000138,114.80210390000138,114.80210390000138,114.80210390000138,114.80210390000138,114.80210390000138,114.80210390000138,114.80210390000138,114.80210390000138,114.80210390000138,114.80210390000138,116.13385939999716,116.13385939999716,116.13385939999716,116.13385939999716,116.13385939999716,116.13385939999716,116.13385939999716,47,58,26,48,58,70,116.13385939999716,117.81807690000278,,,,,,,,,,,,３３２,f,２２,2023-05-21_09h33.09.415,RL,2022.2.5,59.98976574834755,
32,59,54,40,0,14,14,14,,,,,,,,,,,None,117.81807690000278,117.81807690000278,117.81807690000278,117.81807690000278,117.81807690000278,117.81807690000278,r,0.39826970000285655,118.23821739997948,118.23821739997948,118.23821739997948,118.23821739997948,118.23821739997948,118.23821739997948,118.53471690000151,119.38457269998617,119.38457269998617,119.38457269998617,119.38457269998617,119.38457269998617,119.38457269998617,119.38457269998617,119.38457269998617,119.38457269998617,119.38457269998617,119.38457269998617,119.38457269998617,119.38457269998617,119.38457269998617,120.53278719997616,120.53278719997616,120.53278719997616,120.53278719997616,120.53278719997616,120.53278719997616,120.53278719997616,40,59,32,54,59,70,120.53278719997616,122.36674659998971,,,,,,,,,,,,３３２,f,２２,2023-05-21_09h33.09.415,RL,2022.2.5,59.98976574834755,
34,54,53,36,0,15,15,15,,,,,,,,,,,None,122.36674659998971,122.36674659998971,122.36674659998971,122.36674659998971,122.36674659998971,122.36674659998971,j,0.431119699991541,122.82124089999706,122.82124089999706,122.82124089999706,122.82124089999706,122.82124089999706,122.82124089999706,123.10061309998855,124.80034439999145,124.83369869997841,124.83369869997841,124.83369869997841,124.83369869997841,124.83369869997841,124.83369869997841,124.83369869997841,124.83369869997841,124.83369869997841,124.83369869997841,124.83369869997841,124.83369869997841,124.83369869997841,126.83198349998565,126.83198349998565,126.83198349998565,126.83198349998565,126.83198349998565,126.83198349998565,126.83198349998565,36,54,34,53,53,70,126.83198349998565,128.79958019999322,,,,,,,,,,,,３３２,f,２２,2023-05-21_09h33.09.415,RL,2022.2.5,59.98976574834755,
19,48,53,46,0,16,16,16,,,,,,,,,,,None,128.79958019999322,128.79958019999322,128.79958019999322,128.79958019999322,128.79958019999322,128.79958019999322,f,0.3241985000204295,129.15527319998364,129.15527319998364,129.15527319998364,129.15527319998364,129.15527319998364,129.15527319998364,129.44988219998777,130.3493291999912,130.3493291999912,130.3493291999912,130.3493291999912,130.3493291999912,130.3493291999912,130.3493291999912,130.3493291999912,130.3493291999912,130.3493291999912,130.3493291999912,130.3493291999912,130.3493291999912,130.3493291999912,131.54727839998668,131.54727839998668,131.54727839998668,131.54727839998668,131.54727839998668,131.54727839998668,131.54727839998668,46,48,19,53,46,70,131.54727839998668,133.14882209998905,,,,,,,,,,,,３３２,f,２２,2023-05-21_09h33.09.415,RL,2022.2.5,59.98976574834755,
30,49,56,34,0,17,17,17,,,,,,,,,,,None,133.14882209998905,133.14882209998905,133.14882209998905,133.14882209998905,133.14882209998905,133.14882209998905,r,0.31728270000894554,133.48696039998322,133.48696039998322,133.48696039998322,133.48696039998322,133.48696039998322,133.48696039998322,133.78268350000144,135.665196499991,135.665196499991,135.665196499991,135.665196499991,135.665196499991,135.665196499991,135.665196499991,135.665196499991,135.665196499991,135.665196499991,135.665196499991,135.665196499991,135.665196499991,135.665196499991,137.84643979999237,137.84643979999237,137.84643979999237,137.84643979999237,137.84643979999237,137.84643979999237,137.84643979999237,34,49,30,56,49,70,137.84643979999237,139.69770900000003,,,,,,,,,,,,３３２,f,２２,2023-05-21_09h33.09.415,RL,2022.2.5,59.98976574834755,
27,49,60,37,0,18,18,18,,,,,,,,,,,None,139.69770900000003,139.69770900000003,139.69770900000003,139.69770900000003,139.69770900000003,139.69770900000003,i,0.5672905000101309,140.28644249998615,140.28644249998615,140.28644249998615,140.28644249998615,140.28644249998615,140.28644249998615,140.5810683000018,141.44740239999373,141.44740239999373,141.44740239999373,141.44740239999373,141.44740239999373,141.44740239999373,141.44740239999373,141.44740239999373,141.44740239999373,141.44740239999373,141.44740239999373,141.44740239999373,141.44740239999373,141.44740239999373,142.61251029997948,142.61251029997948,142.61251029997948,142.61251029997948,142.61251029997948,142.61251029997948,142.61251029997948,37,49,27,60,27,70,142.61251029997948,144.37992549999035,,,,,,,,,,,,３３２,f,２２,2023-05-21_09h33.09.415,RL,2022.2.5,59.98976574834755,
26,54,61,40,0,19,19,19,,,,,,,,,,,None,144.37992549999035,144.37992549999035,144.37992549999035,144.37992549999035,144.37992549999035,144.37992549999035,j,0.35127680000732653,144.7684546999808,144.7684546999808,144.7684546999808,144.7684546999808,144.7684546999808,144.7684546999808,145.04665649999515,147.01315419998718,147.02982239998528,147.02982239998528,147.02982239998528,147.02982239998528,147.02982239998528,147.02982239998528,147.02982239998528,147.02982239998528,147.02982239998528,147.02982239998528,147.02982239998528,147.02982239998528,147.02982239998528,149.29451059998246,149.29451059998246,149.29451059998246,149.29451059998246,149.29451059998246,149.29451059998246,149.29451059998246,40,54,26,61,61,70,149.29451059998246,151.0625216999906,,,,,,,,,,,,３３２,f,２２,2023-05-21_09h33.09.415,RL,2022.2.5,59.98976574834755,
22,52,56,40,0,20,20,20,,,,,,,,,,,None,151.0625216999906,151.0625216999906,151.0625216999906,151.0625216999906,151.0625216999906,151.0625216999906,f,0.2896846999938134,151.38108619998093,151.38108619998093,151.38108619998093,151.38108619998093,151.38108619998093,151.38108619998093,151.67924189998303,153.19556609998108,153.19556609998108,153.19556609998108,153.19556609998108,153.19556609998108,153.19556609998108,153.19556609998108,153.19556609998108,153.19556609998108,153.19556609998108,153.19556609998108,153.19556609998108,153.19556609998108,153.19556609998108,155.01039260000107,155.01039260000107,155.01039260000107,155.01039260000107,155.01039260000107,155.01039260000107,155.01039260000107,40,52,22,56,40,70,155.01039260000107,156.9774894999864,,,,,,,,,,,,３３２,f,２２,2023-05-21_09h33.09.415,RL,2022.2.5,59.98976574834755,
25,49,70,39,0,21,21,21,,,,,,,,,,,None,156.9774894999864,156.9774894999864,156.9774894999864,156.9774894999864,156.9774894999864,156.9774894999864,j,0.28553789999568835,157.30071569999564,157.30071569999564,157.30071569999564,157.30071569999564,157.30071569999564,157.30071569999564,157.5783862999815,158.81125430000247,158.82764909998514,158.82764909998514,158.82764909998514,158.82764909998514,158.82764909998514,158.82764909998514,158.82764909998514,158.82764909998514,158.82764909998514,158.82764909998514,158.82764909998514,158.82764909998514,158.82764909998514,160.35932180000236,160.35932180000236,160.35932180000236,160.35932180000236,160.35932180000236,160.35932180000236,160.35932180000236,39,49,25,70,70,70,160.35932180000236,161.9439414999797,,,,,,,,,,,,３３２,f,２２,2023-05-21_09h33.09.415,RL,2022.2.5,59.98976574834755,
23,51,51,37,0,22,22,22,,,,,,,,,,,None,161.9439414999797,161.9439414999797,161.9439414999797,161.9439414999797,161.9439414999797,161.9439414999797,j,0.29031419998500496,162.26070819998858,162.26070819998858,162.26070819998858,162.26070819998858,162.26070819998858,162.26070819998858,162.54393709998112,163.51072659998317,163.5272444000002,163.5272444000002,163.5272444000002,163.5272444000002,163.5272444000002,163.5272444000002,163.5272444000002,163.5272444000002,163.5272444000002,163.5272444000002,163.5272444000002,163.5272444000002,163.5272444000002,164.7919253,164.7919253,164.7919253,164.7919253,164.7919253,164.7919253,164.7919253,37,51,23,51,51,70,164.7919253,166.60986279998906,,,,,,,,,,,,３３２,f,２２,2023-05-21_09h33.09.415,RL,2022.2.5,59.98976574834755,
31,43,53,36,0,23,23,23,,,,,,,,,,,None,166.60986279998906,166.60986279998906,166.60986279998906,166.60986279998906,166.60986279998906,166.60986279998906,j,0.3239047000242863,166.95976589998463,166.95976589998463,166.95976589998463,166.95976589998463,166.95976589998463,166.95976589998463,167.24325919998228,168.15944219997618,168.17618569999468,168.17618569999468,168.17618569999468,168.17618569999468,168.17618569999468,168.17618569999468,168.17618569999468,168.17618569999468,168.17618569999468,168.17618569999468,168.17618569999468,168.17618569999468,168.17618569999468,169.3907554000034,169.3907554000034,169.3907554000034,169.3907554000034,169.3907554000034,169.3907554000034,169.3907554000034,36,43,31,53,53,70,169.3907554000034,171.1083858999773,,,,,,,,,,,,３３２,f,２２,2023-05-21_09h33.09.415,RL,2022.2.5,59.98976574834755,
20,40,55,43,0,24,24,24,,,,,,,,,,,None,171.1083858999773,171.1083858999773,171.1083858999773,171.1083858999773,171.1083858999773,171.1083858999773,j,0.3569571999832988,171.49364509998122,171.49364509998122,171.49364509998122,171.49364509998122,171.49364509998122,171.49364509998122,171.77596050000284,173.72541549999733,173.7420262999949,173.7420262999949,173.7420262999949,173.7420262999949,173.7420262999949,173.7420262999949,173.7420262999949,173.7420262999949,173.7420262999949,173.7420262999949,173.7420262999949,173.7420262999949,173.7420262999949,175.99016359998495,175.99016359998495,175.99016359998495,175.99016359998495,175.99016359998495,175.99016359998495,175.99016359998495,43,40,20,55,55,70,175.99016359998495,177.7241485999839,,,,,,,,,,,,３３２,f,２２,2023-05-21_09h33.09.415,RL,2022.2.5,59.98976574834755,
26,36,52,36,0,25,25,25,,,,,,,,,,,None,177.7241485999839,177.7241485999839,177.7241485999839,177.7241485999839,177.7241485999839,177.7241485999839,j,0.319429900002433,178.0744670999993,178.0744670999993,178.0744670999993,178.0744670999993,178.0744670999993,178.0744670999993,178.35760129999835,180.1243329999852,180.14092929998878,180.14092929998878,180.14092929998878,180.14092929998878,180.14092929998878,180.14092929998878,180.14092929998878,180.14092929998878,180.14092929998878,180.14092929998878,180.14092929998878,180.14092929998878,180.14092929998878,182.20572689999244,182.20572689999244,182.20572689999244,182.20572689999244,182.20572689999244,182.20572689999244,182.20572689999244,36,36,26,52,52,70,182.20572689999244,183.98951799998758,,,,,,,,,,,,３３２,f,２２,2023-05-21_09h33.09.415,RL,2022.2.5,59.98976574834755,
13,35,55,29,0,26,26,26,,,,,,,,,,,None,183.98951799998758,183.98951799998758,183.98951799998758,183.98951799998758,183.98951799998758,183.98951799998758,j,0.389660000015283,184.40764419999323,184.40764419999323,184.40764419999323,184.40764419999323,184.40764419999323,184.40764419999323,184.69031330000143,186.08993729998474,186.10651699997834,186.10651699997834,186.10651699997834,186.10651699997834,186.10651699997834,186.10651699997834,186.10651699997834,186.10651699997834,186.10651699997834,186.10651699997834,186.10651699997834,186.10651699997834,186.10651699997834,187.80443560000276,187.80443560000276,187.80443560000276,187.80443560000276,187.80443560000276,187.80443560000276,187.80443560000276,29,35,13,55,55,70,187.80443560000276,189.75519499997608,,,,,,,,,,,,３３２,f,２２,2023-05-21_09h33.09.415,RL,2022.2.5,59.98976574834755,
8,42,45,32,0,27,27,27,,,,,,,,,,,None,189.75519499997608,189.75519499997608,189.75519499997608,189.75519499997608,189.75519499997608,189.75519499997608,f,0.33719819999532774,190.1238121999777,190.1238121999777,190.1238121999777,190.1238121999777,190.1238121999777,190.1238121999777,190.42228759999853,192.40521619998617,192.40521619998617,192.40521619998617,192.40521619998617,192.40521619998617,192.40521619998617,192.40521619998617,192.40521619998617,192.40521619998617,192.40521619998617,192.40521619998617,192.40521619998617,192.40521619998617,192.40521619998617,194.6863007999782,194.6863007999782,194.6863007999782,194.6863007999782,194.6863007999782,194.6863007999782,194.6863007999782,32,42,8,45,32,70,194.6863007999782,196.40475549999974,,,,,,,,,,,,３３２,f,２２,2023-05-21_09h33.09.415,RL,2022.2.5,59.98976574834755,
22,42,63,29,0,28,28,28,,,,,,,,,,,None,196.40475549999974,196.40475549999974,196.40475549999974,196.40475549999974,196.40475549999974,196.40475549999974,j,0.3210333999886643,196.75605539997923,196.75605539997923,196.75605539997923,196.75605539997923,196.75605539997923,196.75605539997923,197.03788019999047,198.10401089998777,198.12076319998596,198.12076319998596,198.12076319998596,198.12076319998596,198.12076319998596,198.12076319998596,198.12076319998596,198.12076319998596,198.12076319998596,198.12076319998596,198.12076319998596,198.12076319998596,198.12076319998596,199.4853759999969,199.4853759999969,199.4853759999969,199.4853759999969,199.4853759999969,199.4853759999969,199.4853759999969,29,42,22,63,63,70,199.4853759999969,201.3865358000039,,,,,,,,,,,,３３２,f,２２,2023-05-21_09h33.09.415,RL,2022.2.5,59.98976574834755,
25,39,57,33,0,29,29,29,,,,,,,,,,,None,201.3865358000039,201.3865358000039,201.3865358000039,201.3865358000039,201.3865358000039,201.3865358000039,i,0.4641155000135768,201.8751691999787,201.8751691999787,201.8751691999787,201.8751691999787,201.8751691999787,201.8751691999787,202.17037059998256,204.13667999999598,204.13667999999598,204.13667999999598,204.13667999999598,204.13667999999598,204.13667999999598,204.13667999999598,204.13667999999598,204.13667999999598,204.13667999999598,204.13667999999598,204.13667999999598,204.13667999999598,204.13667999999598,206.4012051000027,206.4012051000027,206.4012051000027,206.4012051000027,206.4012051000027,206.4012051000027,206.4012051000027,33,39,25,57,25,70,206.4012051000027,207.93519439999363,,,,,,,,,,,,３３２,f,２２,2023-05-21_09h33.09.415,RL,2022.2.5,59.98976574834755,
27,48,55,25,0,30,30,30,,,,,,,,,,,None,207.93519439999363,207.93519439999363,207.93519439999363,207.93519439999363,207.93519439999363,207.93519439999363,j,0.3380276999960188,208.30622239998775,208.30622239998775,208.30622239998775,208.30622239998775,208.30622239998775,208.30622239998775,208.5860225999786,210.41859839999233,210.452011699992,210.452011699992,210.452011699992,210.452011699992,210.452011699992,210.452011699992,210.452011699992,210.452011699992,210.452011699992,210.452011699992,210.452011699992,210.452011699992,210.452011699992,212.58347509999294,212.58347509999294,212.58347509999294,212.58347509999294,212.58347509999294,212.58347509999294,212.58347509999294,25,48,27,55,55,70,212.58347509999294,214.31775429999107,,,,,,,,,,,,３３２,f,２２,2023-05-21_09h33.09.415,RL,2022.2.5,59.98976574834755,
23,52,50,31,0,31,31,31,,,,,,,,,,,None,214.31775429999107,214.31775429999107,214.31775429999107,214.31775429999107,214.31775429999107,214.31775429999107,r,0.40407250000862405,214.7540355999954,214.7540355999954,214.7540355999954,214.7540355999954,214.7540355999954,214.7540355999954,215.03500119998353,216.21775819998584,216.23476339998888,216.23476339998888,216.23476339998888,216.23476339998888,216.23476339998888,216.23476339998888,216.23476339998888,216.23476339998888,216.23476339998888,216.23476339998888,216.23476339998888,216.23476339998888,216.23476339998888,217.71563140000217,217.71563140000217,217.71563140000217,217.71563140000217,217.71563140000217,217.71563140000217,217.71563140000217,31,52,23,50,52,70,217.71563140000217,219.48354169999948,,,,,,,,,,,,３３２,f,２２,2023-05-21_09h33.09.415,RL,2022.2.5,59.98976574834755,
23,55,49,42,0,32,32,32,,,,,,,,,,,None,219.48354169999948,219.48354169999948,219.48354169999948,219.48354169999948,219.48354169999948,219.48354169999948,f,0.3309418999997433,219.83514569999534,219.83514569999534,219.83514569999534,219.83514569999534,219.83514569999534,219.83514569999534,220.1335958999989,221.18375969998306,221.18375969998306,221.18375969998306,221.18375969998306,221.18375969998306,221.18375969998306,221.18375969998306,221.18375969998306,221.18375969998306,221.18375969998306,221.18375969998306,221.18375969998306,221.18375969998306,221.18375969998306,222.53199129999848,222.53199129999848,222.53199129999848,222.53199129999848,222.53199129999848,222.53199129999848,222.53199129999848,42,55,23,49,42,70,222.53199129999848,224.1994629999972,,,,,,,,,,,,３３２,f,２２,2023-05-21_09h33.09.415,RL,2022.2.5,59.98976574834755,
28,50,51,37,0,33,33,33,,,,,,,,,,,None,224.1994629999972,224.1994629999972,224.1994629999972,224.1994629999972,224.1994629999972,224.1994629999972,j,0.7041846000065561,224.93379899999127,224.93379899999127,224.93379899999127,224.93379899999127,224.93379899999127,224.93379899999127,225.21640839998145,226.249516699987,226.26600139998482,226.26600139998482,226.26600139998482,226.26600139998482,226.26600139998482,226.26600139998482,226.26600139998482,226.26600139998482,226.26600139998482,226.26600139998482,226.26600139998482,226.26600139998482,226.26600139998482,227.59816369999317,227.59816369999317,227.59816369999317,227.59816369999317,227.59816369999317,227.59816369999317,227.59816369999317,37,50,28,51,51,70,227.59816369999317,229.41493999998784,,,,,,,,,,,,３３２,f,２２,2023-05-21_09h33.09.415,RL,2022.2.5,59.98976574834755,
38,50,53,31,0,34,34,34,,,,,,,,,,,None,229.41493999998784,229.41493999998784,229.41493999998784,229.41493999998784,229.41493999998784,229.41493999998784,j,0.4481960999837611,229.88323259999743,229.88323259999743,229.88323259999743,229.88323259999743,229.88323259999743,229.88323259999743,230.18203769999673,231.2321968000033,231.24856229999568,231.24856229999568,231.24856229999568,231.24856229999568,231.24856229999568,231.24856229999568,231.24856229999568,231.24856229999568,231.24856229999568,231.24856229999568,231.24856229999568,231.24856229999568,231.24856229999568,232.59692849998828,232.59692849998828,232.59692849998828,232.59692849998828,232.59692849998828,232.59692849998828,232.59692849998828,31,50,38,53,53,70,232.59692849998828,234.43112749999273,,,,,,,,,,,,３３２,f,２２,2023-05-21_09h33.09.415,RL,2022.2.5,59.98976574834755,
26,42,52,27,0,35,35,35,,,,,,,,,,,None,234.43112749999273,234.43112749999273,234.43112749999273,234.43112749999273,234.43112749999273,234.43112749999273,i,0.33960039998055436,234.80063829998835,234.80063829998835,234.80063829998835,234.80063829998835,234.80063829998835,234.80063829998835,235.09772940000403,236.54753749998054,236.54753749998054,236.54753749998054,236.54753749998054,236.54753749998054,236.54753749998054,236.54753749998054,236.54753749998054,236.54753749998054,236.54753749998054,236.54753749998054,236.54753749998054,236.54753749998054,236.54753749998054,238.29606809999677,238.29606809999677,238.29606809999677,238.29606809999677,238.29606809999677,238.29606809999677,238.29606809999677,27,42,26,52,26,70,238.29606809999677,240.2298496000003,,,,,,,,,,,,３３２,f,２２,2023-05-21_09h33.09.415,RL,2022.2.5,59.98976574834755,
32,50,44,32,0,36,36,36,,,,,,,,,,,None,240.2298496000003,240.2298496000003,240.2298496000003,240.2298496000003,240.2298496000003,240.2298496000003,j,0.3375571000215132,240.59732189998613,240.59732189998613,240.59732189998613,240.59732189998613,240.59732189998613,240.59732189998613,240.89689309999812,242.14638520000153,242.14638520000153,242.14638520000153,242.14638520000153,242.14638520000153,242.14638520000153,242.14638520000153,242.14638520000153,242.14638520000153,242.14638520000153,242.14638520000153,242.14638520000153,242.14638520000153,242.14638520000153,243.69449639998493,243.69449639998493,243.69449639998493,243.69449639998493,243.69449639998493,243.69449639998493,243.69449639998493,32,50,32,44,44,70,243.69449639998493,245.5785329999926,,,,,,,,,,,,３３２,f,２２,2023-05-21_09h33.09.415,RL,2022.2.5,59.98976574834755,
24,47,33,30,0,37,37,37,,,,,,,,,,,None,245.5785329999926,245.5785329999926,245.5785329999926,245.5785329999926,245.5785329999926,245.5785329999926,f,0.360913900018204,245.96259889999055,245.96259889999055,245.96259889999055,245.96259889999055,245.96259889999055,245.96259889999055,246.24569369998062,247.42920309997862,247.4457487000036,247.4457487000036,247.4457487000036,247.4457487000036,247.4457487000036,247.4457487000036,247.4457487000036,247.4457487000036,247.4457487000036,247.4457487000036,247.4457487000036,247.4457487000036,247.4457487000036,248.92703849999816,248.92703849999816,248.92703849999816,248.92703849999816,248.92703849999816,248.92703849999816,248.92703849999816,30,47,24,33,30,70,248.92703849999816,250.77807689999463,,,,,,,,,,,,３３２,f,２２,2023-05-21_09h33.09.415,RL,2022.2.5,59.98976574834755,
28,44,40,25,0,38,38,38,,,,,,,,,,,None,250.77807689999463,250.77807689999463,250.77807689999463,250.77807689999463,250.77807689999463,250.77807689999463,r,0.3332947999879252,251.130677499983,251.130677499983,251.130677499983,251.130677499983,251.130677499983,251.130677499983,251.42876249999972,253.41117469998426,253.41117469998426,253.41117469998426,253.41117469998426,253.41117469998426,253.41117469998426,253.41117469998426,253.41117469998426,253.41117469998426,253.41117469998426,253.41117469998426,253.41117469998426,253.41117469998426,253.41117469998426,255.6921214000031,255.6921214000031,255.6921214000031,255.6921214000031,255.6921214000031,255.6921214000031,255.6921214000031,25,44,28,40,44,70,255.6921214000031,257.34393949998775,,,,,,,,,,,,３３２,f,２２,2023-05-21_09h33.09.415,RL,2022.2.5,59.98976574834755,
41,44,40,28,0,39,39,39,,,,,,,,,,,None,257.34393949998775,257.34393949998775,257.34393949998775,257.34393949998775,257.34393949998775,257.34393949998775,j,0.352309999987483,257.7352661000041,257.7352661000041,257.7352661000041,257.7352661000041,257.7352661000041,257.7352661000041,258.0106070000038,259.6767874999787,259.6933305999846,259.6933305999846,259.6933305999846,259.6933305999846,259.6933305999846,259.6933305999846,259.6933305999846,259.6933305999846,259.6933305999846,259.6933305999846,259.6933305999846,259.6933305999846,259.6933305999846,261.6583965999889,261.6583965999889,261.6583965999889,261.6583965999889,261.6583965999889,261.6583965999889,261.6583965999889,28,44,41,40,40,70,261.6583965999889,263.1757793999859,,,,,,,,,,,,３３２,f,２２,2023-05-21_09h33.09.415,RL,2022.2.5,59.98976574834755,
31,47,36,31,0,40,40,40,,,,,,,,,,,None,263.1757793999859,263.1757793999859,263.1757793999859,263.1757793999859,263.1757793999859,263.1757793999859,j,0.5646521000016946,263.76329400000395,263.76329400000395,263.76329400000395,263.76329400000395,263.76329400000395,263.76329400000395,264.05951619998086,265.1926610999799,265.1926610999799,265.1926610999799,265.1926610999799,265.1926610999799,265.1926610999799,265.1926610999799,265.1926610999799,265.1926610999799,265.1926610999799,265.1926610999799,265.1926610999799,265.1926610999799,265.1926610999799,266.6237790999876,266.6237790999876,266.6237790999876,266.6237790999876,266.6237790999876,266.6237790999876,266.6237790999876,31,47,31,36,36,70,266.6237790999876,268.3081214999838,,,,,,,,,,,,３３２,f,２２,2023-05-21_09h33.09.415,RL,2022.2.5,59.98976574834755,
42,45,31,28,0,41,41,41,,,,,,,,,,,None,268.3081214999838,268.3081214999838,268.3081214999838,268.3081214999838,268.3081214999838,268.3081214999838,i,0.2966417999996338,268.62748989998363,268.62748989998363,268.62748989998363,268.62748989998363,268.62748989998363,268.62748989998363,268.92515480000293,270.0916597000032,270.0916597000032,270.0916597000032,270.0916597000032,270.0916597000032,270.0916597000032,270.0916597000032,270.0916597000032,270.0916597000032,270.0916597000032,270.0916597000032,270.0916597000032,270.0916597000032,270.0916597000032,271.55687770000077,271.55687770000077,271.55687770000077,271.55687770000077,271.55687770000077,271.55687770000077,271.55687770000077,28,45,42,31,42,70,271.55687770000077,273.1239684000029,,,,,,,,,,,,３３２,f,２２,2023-05-21_09h33.09.415,RL,2022.2.5,59.98976574834755,
41,48,39,30,0,42,42,42,,,,,,,,,,,None,273.1239684000029,273.1239684000029,273.1239684000029,273.1239684000029,273.1239684000029,273.1239684000029,f,0.3514476999989711,273.51379979998455,273.51379979998455,273.51379979998455,273.51379979998455,273.51379979998455,273.51379979998455,273.7912882999808,275.77427130000433,275.79052619999857,275.79052619999857,275.79052619999857,275.79052619999857,275.79052619999857,275.79052619999857,275.79052619999857,275.79052619999857,275.79052619999857,275.79052619999857,275.79052619999857,275.79052619999857,275.79052619999857,278.07189419999486,278.07189419999486,278.07189419999486,278.07189419999486,278.07189419999486,278.07189419999486,278.07189419999486,30,48,41,39,30,70,278.07189419999486,279.8060659999901,,,,,,,,,,,,３３２,f,２２,2023-05-21_09h33.09.415,RL,2022.2.5,59.98976574834755,
52,42,38,22,0,43,43,43,,,,,,,,,,,None,279.8060659999901,279.8060659999901,279.8060659999901,279.8060659999901,279.8060659999901,279.8060659999901,i,0.3241766999999527,280.16137990000425,280.16137990000425,280.16137990000425,280.16137990000425,280.16137990000425,280.16137990000425,280.45652889998746,282.1232066999946,282.1232066999946,282.1232066999946,282.1232066999946,282.1232066999946,282.1232066999946,282.1232066999946,282.1232066999946,282.1232066999946,282.1232066999946,282.1232066999946,282.1232066999946,282.1232066999946,282.1232066999946,284.0874393999984,284.0874393999984,284.0874393999984,284.0874393999984,284.0874393999984,284.0874393999984,284.0874393999984,22,42,52,38,52,70,284.0874393999984,285.8054403999995,,,,,,,,,,,,３３２,f,２２,2023-05-21_09h33.09.415,RL,2022.2.5,59.98976574834755,
47,43,42,38,0,44,44,44,,,,,,,,,,,None,285.8054403999995,285.8054403999995,285.8054403999995,285.8054403999995,285.8054403999995,285.8054403999995,i,0.3084484999999404,286.139963900001,286.139963900001,286.139963900001,286.139963900001,286.139963900001,286.139963900001,286.43894949997775,288.3549152999767,288.3549152999767,288.3549152999767,288.3549152999767,288.3549152999767,288.3549152999767,288.3549152999767,288.3549152999767,288.3549152999767,288.3549152999767,288.3549152999767,288.3549152999767,288.3549152999767,288.3549152999767,290.5694676999992,290.5694676999992,290.5694676999992,290.5694676999992,290.5694676999992,290.5694676999992,290.5694676999992,38,43,47,42,47,70,290.5694676999992,292.27106559998356,,,,,,,,,,,,３３２,f,２２,2023-05-21_09h33.09.415,RL,2022.2.5,59.98976574834755,
46,42,46,36,0,45,45,45,,,,,,,,,,,None,292.27106559998356,292.27106559998356,292.27106559998356,292.27106559998356,292.27106559998356,292.27106559998356,j,0.29791049999766983,292.5878579999844,292.5878579999844,292.5878579999844,292.5878579999844,292.5878579999844,292.5878579999844,292.88778719998663,294.0374700999819,294.0374700999819,294.0374700999819,294.0374700999819,294.0374700999819,294.0374700999819,294.0374700999819,294.0374700999819,294.0374700999819,294.0374700999819,294.0374700999819,294.0374700999819,294.0374700999819,294.0374700999819,295.48562169997604,295.48562169997604,295.48562169997604,295.48562169997604,295.48562169997604,295.48562169997604,295.48562169997604,36,42,46,46,46,70,295.48562169997604,297.16998690000037,,,,,,,,,,,,３３２,f,２２,2023-05-21_09h33.09.415,RL,2022.2.5,59.98976574834755,
44,44,44,32,0,46,46,46,,,,,,,,,,,None,297.16998690000037,297.16998690000037,297.16998690000037,297.16998690000037,297.16998690000037,297.16998690000037,r,0.3202051999978721,297.5203785999911,297.5203785999911,297.5203785999911,297.5203785999911,297.5203785999911,297.5203785999911,297.8033508999797,298.8866369999887,298.90341139998054,298.90341139998054,298.90341139998054,298.90341139998054,298.90341139998054,298.90341139998054,298.90341139998054,298.90341139998054,298.90341139998054,298.90341139998054,298.90341139998054,298.90341139998054,298.90341139998054,300.2849419999984,300.2849419999984,300.2849419999984,300.2849419999984,300.2849419999984,300.2849419999984,300.2849419999984,32,44,44,44,44,70,300.2849419999984,301.9860537999775,,,,,,,,,,,,３３２,f,２２,2023-05-21_09h33.09.415,RL,2022.2.5,59.98976574834755,
39,45,46,21,0,47,47,47,,,,,,,,,,,None,301.9860537999775,301.9860537999775,301.9860537999775,301.9860537999775,301.9860537999775,301.9860537999775,f,0.2658895999775268,302.27302289998624,302.27302289998624,302.27302289998624,302.27302289998624,302.27302289998624,302.27302289998624,302.56929640000453,303.71954520000145,303.71954520000145,303.71954520000145,303.71954520000145,303.71954520000145,303.71954520000145,303.71954520000145,303.71954520000145,303.71954520000145,303.71954520000145,303.71954520000145,303.71954520000145,303.71954520000145,303.71954520000145,305.16709129998344,305.16709129998344,305.16709129998344,305.16709129998344,305.16709129998344,305.16709129998344,305.16709129998344,21,45,39,46,21,70,305.16709129998344,306.9179521999904,,,,,,,,,,,,３３２,f,２２,2023-05-21_09h33.09.415,RL,2022.2.5,59.98976574834755,
43,52,53,32,0,48,48,48,,,,,,,,,,,None,306.9179521999904,306.9179521999904,306.9179521999904,306.9179521999904,306.9179521999904,306.9179521999904,j,0.2901562000042759,307.2354320999875,307.2354320999875,307.2354320999875,307.2354320999875,307.2354320999875,307.2354320999875,307.5187218999781,308.86858349997783,308.88519699999597,308.88519699999597,308.88519699999597,308.88519699999597,308.88519699999597,308.88519699999597,308.88519699999597,308.88519699999597,308.88519699999597,308.88519699999597,308.88519699999597,308.88519699999597,308.88519699999597,310.53321049999795,310.53321049999795,310.53321049999795,310.53321049999795,310.53321049999795,310.53321049999795,310.53321049999795,32,52,43,53,53,70,310.53321049999795,312.2344950999832,,,,,,,,,,,,３３２,f,２２,2023-05-21_09h33.09.415,RL,2022.2.5,59.98976574834755,
44,55,47,27,0,49,49,49,,,,,,,,,,,None,312.2344950999832,312.2344950999832,312.2344950999832,312.2344950999832,312.2344950999832,312.2344950999832,j,0.32480289999512024,312.5857992999954,312.5857992999954,312.5857992999954,312.5857992999954,312.5857992999954,312.5857992999954,312.86777230000007,314.2173133000033,314.25066089999746,314.25066089999746,314.25066089999746,314.25066089999746,314.25066089999746,314.25066089999746,314.25066089999746,314.25066089999746,314.25066089999746,314.25066089999746,314.25066089999746,314.25066089999746,314.25066089999746,315.89846070000203,315.89846070000203,315.89846070000203,315.89846070000203,315.89846070000203,315.89846070000203,315.89846070000203,27,55,44,47,47,70,315.89846070000203,317.59966979999444,,,,,,,,,,,,３３２,f,２２,2023-05-21_09h33.09.415,RL,2022.2.5,59.98976574834755,
45,56,42,26,0,50,50,50,,,,,,,,,,,None,317.59966979999444,317.59966979999444,317.59966979999444,317.59966979999444,317.59966979999444,317.59966979999444,j,0.2957087999966461,317.9168737999862,317.9168737999862,317.9168737999862,317.9168737999862,317.9168737999862,317.9168737999862,318.2167533999891,320.1997999000014,320.1997999000014,320.1997999000014,320.1997999000014,320.1997999000014,320.1997999000014,320.1997999000014,320.1997999000014,320.1997999000014,320.1997999000014,320.1997999000014,320.1997999000014,320.1997999000014,320.1997999000014,322.48102330000256,322.48102330000256,322.48102330000256,322.48102330000256,322.48102330000256,322.48102330000256,322.48102330000256,26,56,45,42,42,70,322.48102330000256,324.33174159997725,,,,,,,,,,,,３３２,f,２２,2023-05-21_09h33.09.415,RL,2022.2.5,59.98976574834755,
41,61,42,25,0,51,51,51,,,,,,,,,,,None,324.33174159997725,324.33174159997725,324.33174159997725,324.33174159997725,324.33174159997725,324.33174159997725,i,0.5372245000035036,324.90031599998474,324.90031599998474,324.90031599998474,324.90031599998474,324.90031599998474,324.90031599998474,325.1825673999847,326.91517490000115,326.9317272999906,326.9317272999906,326.9317272999906,326.9317272999906,326.9317272999906,326.9317272999906,326.9317272999906,326.9317272999906,326.9317272999906,326.9317272999906,326.9317272999906,326.9317272999906,326.9317272999906,328.9634890999878,328.9634890999878,328.9634890999878,328.9634890999878,328.9634890999878,328.9634890999878,328.9634890999878,25,61,41,42,41,70,328.9634890999878,330.56409649999114,,,,,,,,,,,,３３２,f,２２,2023-05-21_09h33.09.415,RL,2022.2.5,59.98976574834755,
46,57,56,35,0,52,52,52,,,,,,,,,,,None,330.56409649999114,330.56409649999114,330.56409649999114,330.56409649999114,330.56409649999114,330.56409649999114,j,0.28133619998698123,330.8659289999923,330.8659289999923,330.8659289999923,330.8659289999923,330.8659289999923,330.8659289999923,331.1643325999903,332.3812002999766,332.3812002999766,332.3812002999766,332.3812002999766,332.3812002999766,332.3812002999766,332.3812002999766,332.3812002999766,332.3812002999766,332.3812002999766,332.3812002999766,332.3812002999766,332.3812002999766,332.3812002999766,333.8958220999921,333.8958220999921,333.8958220999921,333.8958220999921,333.8958220999921,333.8958220999921,333.8958220999921,35,57,46,56,56,70,333.8958220999921,335.4465344999917,,,,,,,,,,,,３３２,f,２２,2023-05-21_09h33.09.415,RL,2022.2.5,59.98976574834755,
44,53,52,28,0,53,53,53,,,,,,,,,,,None,335.4465344999917,335.4465344999917,335.4465344999917,335.4465344999917,335.4465344999917,335.4465344999917,j,0.43570240002009086,335.91722370000207,335.91722370000207,335.91722370000207,335.91722370000207,335.91722370000207,335.91722370000207,336.1968901999935,337.3636179000023,337.3802158999897,337.3802158999897,337.3802158999897,337.3802158999897,337.3802158999897,337.3802158999897,337.3802158999897,337.3802158999897,337.3802158999897,337.3802158999897,337.3802158999897,337.3802158999897,337.3802158999897,338.8445873000019,338.8445873000019,338.8445873000019,338.8445873000019,338.8445873000019,338.8445873000019,338.8445873000019,28,53,44,52,52,70,338.8445873000019,340.72879490000196,,,,,,,,,,,,３３２,f,２２,2023-05-21_09h33.09.415,RL,2022.2.5,59.98976574834755,
49,58,48,25,0,54,54,54,,,,,,,,,,,None,340.72879490000196,340.72879490000196,340.72879490000196,340.72879490000196,340.72879490000196,340.72879490000196,i,0.29867570000351407,341.04698610000196,341.04698610000196,341.04698610000196,341.04698610000196,341.04698610000196,341.04698610000196,341.346072299988,343.14558899999247,343.14558899999247,343.14558899999247,343.14558899999247,343.14558899999247,343.14558899999247,343.14558899999247,343.14558899999247,343.14558899999247,343.14558899999247,343.14558899999247,343.14558899999247,343.14558899999247,343.14558899999247,345.24367319999146,345.24367319999146,345.24367319999146,345.24367319999146,345.24367319999146,345.24367319999146,345.24367319999146,25,58,49,48,49,70,345.24367319999146,346.7613444000017,,,,,,,,,,,,３３２,f,２２,2023-05-21_09h33.09.415,RL,2022.2.5,59.98976574834755,
40,51,56,27,0,55,55,55,,,,,,,,,,,None,346.7613444000017,346.7613444000017,346.7613444000017,346.7613444000017,346.7613444000017,346.7613444000017,j,0.3205585000105202,347.1135208999913,347.1135208999913,347.1135208999913,347.1135208999913,347.1135208999913,347.1135208999913,347.39542549999896,349.2944436999969,349.31120489997556,349.31120489997556,349.31120489997556,349.31120489997556,349.31120489997556,349.31120489997556,349.31120489997556,349.31120489997556,349.31120489997556,349.31120489997556,349.31120489997556,349.31120489997556,349.31120489997556,351.50936339999316,351.50936339999316,351.50936339999316,351.50936339999316,351.50936339999316,351.50936339999316,351.50936339999316,27,51,40,56,56,70,351.50936339999316,353.376826599997,,,,,,,,,,,,３３２,f,２２,2023-05-21_09h33.09.415,RL,2022.2.5,59.98976574834755,
38,56,57,24,0,56,56,56,,,,,,,,,,,None,353.376826599997,353.376826599997,353.376826599997,353.376826599997,353.376826599997,353.376826599997,j,0.26078029998461716,353.6625654999807,353.6625654999807,353.6625654999807,353.6625654999807,353.6625654999807,353.6625654999807,353.9441654999973,355.14347159999306,355.16048079999746,355.16048079999746,355.16048079999746,355.16048079999746,355.16048079999746,355.16048079999746,355.16048079999746,355.16048079999746,355.16048079999746,355.16048079999746,355.16048079999746,355.16048079999746,355.16048079999746,356.65830159999314,356.65830159999314,356.65830159999314,356.65830159999314,356.65830159999314,356.65830159999314,356.65830159999314,24,56,38,57,57,70,356.65830159999314,358.3428294000041,,,,,,,,,,,,３３２,f,２２,2023-05-21_09h33.09.415,RL,2022.2.5,59.98976574834755,
40,55,57,31,0,57,57,57,,,,,,,,,,,None,358.3428294000041,358.3428294000041,358.3428294000041,358.3428294000041,358.3428294000041,358.3428294000041,j,0.4073915999906603,358.77816069999244,358.77816069999244,358.77816069999244,358.77816069999244,358.77816069999244,358.77816069999244,359.0765790999867,360.5082385999849,360.5082385999849,360.5082385999849,360.5082385999849,360.5082385999849,360.5082385999849,360.5082385999849,360.5082385999849,360.5082385999849,360.5082385999849,360.5082385999849,360.5082385999849,360.5082385999849,360.5082385999849,362.20712889998686,362.20712889998686,362.20712889998686,362.20712889998686,362.20712889998686,362.20712889998686,362.20712889998686,31,55,40,57,57,70,362.20712889998686,363.84142989999964,,,,,,,,,,,,３３２,f,２２,2023-05-21_09h33.09.415,RL,2022.2.5,59.98976574834755,
45,56,57,33,0,58,58,58,,,,,,,,,,,None,363.84142989999964,363.84142989999964,363.84142989999964,363.84142989999964,363.84142989999964,363.84142989999964,j,0.46426680000149645,364.3270264999883,364.3270264999883,364.3270264999883,364.3270264999883,364.3270264999883,364.3270264999883,364.6089912999887,365.95866189998924,365.9751999999862,365.9751999999862,365.9751999999862,365.9751999999862,365.9751999999862,365.9751999999862,365.9751999999862,365.9751999999862,365.9751999999862,365.9751999999862,365.9751999999862,365.9751999999862,365.9751999999862,367.62341469997773,367.62341469997773,367.62341469997773,367.62341469997773,367.62341469997773,367.62341469997773,367.62341469997773,33,56,45,57,57,70,367.62341469997773,369.32423879997805,,,,,,,,,,,,３３２,f,２２,2023-05-21_09h33.09.415,RL,2022.2.5,59.98976574834755,
42,49,62,38,0,59,59,59,,,,,,,,,,,None,369.32423879997805,369.32423879997805,369.32423879997805,369.32423879997805,369.32423879997805,369.32423879997805,j,0.31220780001604,369.65780119999545,369.65780119999545,369.65780119999545,369.65780119999545,369.65780119999545,369.65780119999545,369.94096959999297,371.3410812999937,371.35779280000133,371.35779280000133,371.35779280000133,371.35779280000133,371.35779280000133,371.35779280000133,371.35779280000133,371.35779280000133,371.35779280000133,371.35779280000133,371.35779280000133,371.35779280000133,371.35779280000133,373.0551578000013,373.0551578000013,373.0551578000013,373.0551578000013,373.0551578000013,373.0551578000013,373.0551578000013,38,49,42,62,62,70,373.0551578000013,374.9400378999999,,,,,,,,,,,,３３２,f,２２,2023-05-21_09h33.09.415,RL,2022.2.5,59.98976574834755,
43,57,64,35,0,60,60,60,,,,,,,,,,,None,374.9400378999999,374.9400378999999,374.9400378999999,374.9400378999999,374.9400378999999,374.9400378999999,j,0.3356377999880351,375.3101150000002,375.3101150000002,375.3101150000002,375.3101150000002,375.3101150000002,375.3101150000002,375.606395699986,376.7065306000004,376.7065306000004,376.7065306000004,376.7065306000004,376.7065306000004,376.7065306000004,376.7065306000004,376.7065306000004,376.7065306000004,376.7065306000004,376.7065306000004,376.7065306000004,376.7065306000004,376.7065306000004,378.1043284999905,378.1043284999905,378.1043284999905,378.1043284999905,378.1043284999905,378.1043284999905,378.1043284999905,35,57,43,64,64,70,378.1043284999905,379.67197729999316,,,,,,,,,,,,３３２,f,２２,2023-05-21_09h33.09.415,RL,2022.2.5,59.98976574834755,
41,58,63,36,0,61,61,61,,,,,,,,,,,None,379.67197729999316,379.67197729999316,379.67197729999316,379.67197729999316,379.67197729999316,379.67197729999316,j,0.35583869999391027,380.05629589999444,380.05629589999444,380.05629589999444,380.05629589999444,380.05629589999444,380.05629589999444,380.33911869997974,381.15550809999695,381.1727114999958,381.1727114999958,381.1727114999958,381.1727114999958,381.1727114999958,381.1727114999958,381.1727114999958,381.1727114999958,381.1727114999958,381.1727114999958,381.1727114999958,381.1727114999958,381.1727114999958,382.28693689999636,382.28693689999636,382.28693689999636,382.28693689999636,382.28693689999636,382.28693689999636,382.28693689999636,36,58,41,63,63,70,382.28693689999636,384.23800119999214,,,,,,,,,,,,３３２,f,２２,2023-05-21_09h33.09.415,RL,2022.2.5,59.98976574834755,
44,46,67,29,0,62,62,62,,,,,,,,,,,None,384.23800119999214,384.23800119999214,384.23800119999214,384.23800119999214,384.23800119999214,384.23800119999214,j,0.491826100012986,384.755425499985,384.755425499985,384.755425499985,384.755425499985,384.755425499985,384.755425499985,385.038146899984,386.0046950999822,386.02152849998674,386.02152849998674,386.02152849998674,386.02152849998674,386.02152849998674,386.02152849998674,386.02152849998674,386.02152849998674,386.02152849998674,386.02152849998674,386.02152849998674,386.02152849998674,386.02152849998674,387.28633750000154,387.28633750000154,387.28633750000154,387.28633750000154,387.28633750000154,387.28633750000154,387.28633750000154,29,46,44,67,67,70,387.28633750000154,388.95407489998615,,,,,,,,,,,,３３２,f,２２,2023-05-21_09h33.09.415,RL,2022.2.5,59.98976574834755,
48,60,58,25,0,63,63,63,,,,,,,,,,,None,388.95407489998615,388.95407489998615,388.95407489998615,388.95407489998615,388.95407489998615,388.95407489998615,j,0.35587490000762045,389.3375792999868,389.3375792999868,389.3375792999868,389.3375792999868,389.3375792999868,389.3375792999868,389.62130079997587,391.4205399999919,391.4371486000018,391.4371486000018,391.4371486000018,391.4371486000018,391.4371486000018,391.4371486000018,391.4371486000018,391.4371486000018,391.4371486000018,391.4371486000018,391.4371486000018,391.4371486000018,391.4371486000018,393.5356029999966,393.5356029999966,393.5356029999966,393.5356029999966,393.5356029999966,393.5356029999966,393.5356029999966,25,60,48,58,58,70,393.5356029999966,395.3698295999784,,,,,,,,,,,,３３２,f,２２,2023-05-21_09h33.09.415,RL,2022.2.5,59.98976574834755,
30,66,55,37,0,64,64,64,,,,,,,,,,,None,395.3698295999784,395.3698295999784,395.3698295999784,395.3698295999784,395.3698295999784,395.3698295999784,i,0.31746070002554916,395.71987770000123,395.71987770000123,395.71987770000123,395.71987770000123,395.71987770000123,395.71987770000123,396.01988169999095,397.836269499996,397.836269499996,397.836269499996,397.836269499996,397.836269499996,397.836269499996,397.836269499996,397.836269499996,397.836269499996,397.836269499996,397.836269499996,397.836269499996,397.836269499996,397.836269499996,399.9506404999993,399.9506404999993,399.9506404999993,399.9506404999993,399.9506404999993,399.9506404999993,399.9506404999993,37,66,30,55,30,70,399.9506404999993,401.78507559999707,,,,,,,,,,,,３３２,f,２２,2023-05-21_09h33.09.415,RL,2022.2.5,59.98976574834755,
40,60,59,31,0,65,65,65,,,,,,,,,,,None,401.78507559999707,401.78507559999707,401.78507559999707,401.78507559999707,401.78507559999707,401.78507559999707,j,0.2807667000161018,402.0853894999891,402.0853894999891,402.0853894999891,402.0853894999891,402.0853894999891,402.0853894999891,402.3854449999926,403.3688207999803,403.3688207999803,403.3688207999803,403.3688207999803,403.3688207999803,403.3688207999803,403.3688207999803,403.3688207999803,403.3688207999803,403.3688207999803,403.3688207999803,403.3688207999803,403.3688207999803,403.3688207999803,404.6496770999802,404.6496770999802,404.6496770999802,404.6496770999802,404.6496770999802,404.6496770999802,404.6496770999802,31,60,40,59,59,70,404.6496770999802,406.20135829999344,,,,,,,,,,,,３３２,f,２２,2023-05-21_09h33.09.415,RL,2022.2.5,59.98976574834755,
42,68,64,40,0,66,66,66,,,,,,,,,,,None,406.20135829999344,406.20135829999344,406.20135829999344,406.20135829999344,406.20135829999344,406.20135829999344,i,0.6464730000006966,406.8696675999963,406.8696675999963,406.8696675999963,406.8696675999963,406.8696675999963,406.8696675999963,407.16803329999675,408.98437879999983,408.98437879999983,408.98437879999983,408.98437879999983,408.98437879999983,408.98437879999983,408.98437879999983,408.98437879999983,408.98437879999983,408.98437879999983,408.98437879999983,408.98437879999983,408.98437879999983,408.98437879999983,411.0990109999839,411.0990109999839,411.0990109999839,411.0990109999839,411.0990109999839,411.0990109999839,411.0990109999839,40,68,42,64,42,70,411.0990109999839,412.89992379999603,,,,,,,,,,,,３３２,f,２２,2023-05-21_09h33.09.415,RL,2022.2.5,59.98976574834755,
41,68,59,38,0,67,67,67,,,,,,,,,,,None,412.89992379999603,412.89992379999603,412.89992379999603,412.89992379999603,412.89992379999603,412.89992379999603,f,0.3463134000194259,413.2697469999839,413.2697469999839,413.2697469999839,413.2697469999839,413.2697469999839,413.2697469999839,413.5666858999757,414.51639249999425,414.51639249999425,414.51639249999425,414.51639249999425,414.51639249999425,414.51639249999425,414.51639249999425,414.51639249999425,414.51639249999425,414.51639249999425,414.51639249999425,414.51639249999425,414.51639249999425,414.51639249999425,415.7647509999806,415.7647509999806,415.7647509999806,415.7647509999806,415.7647509999806,415.7647509999806,415.7647509999806,38,68,41,59,38,70,415.7647509999806,417.465684099996,,,,,,,,,,,,３３２,f,２２,2023-05-21_09h33.09.415,RL,2022.2.5,59.98976574834755,
39,61,54,36,0,68,68,68,,,,,,,,,,,None,417.465684099996,417.465684099996,417.465684099996,417.465684099996,417.465684099996,417.465684099996,r,0.4427959999884479,417.937429099984,417.937429099984,417.937429099984,417.937429099984,417.937429099984,417.937429099984,418.2325751000026,419.8326808999991,419.8326808999991,419.8326808999991,419.8326808999991,419.8326808999991,419.8326808999991,419.8326808999991,419.8326808999991,419.8326808999991,419.8326808999991,419.8326808999991,419.8326808999991,419.8326808999991,419.8326808999991,421.73021509998944,421.73021509998944,421.73021509998944,421.73021509998944,421.73021509998944,421.73021509998944,421.73021509998944,36,61,39,54,61,70,421.73021509998944,423.66483649998554,,,,,,,,,,,,３３２,f,２２,2023-05-21_09h33.09.415,RL,2022.2.5,59.98976574834755,
43,51,52,31,0,69,69,69,,,,,,,,,,,None,423.66483649998554,423.66483649998554,423.66483649998554,423.66483649998554,423.66483649998554,423.66483649998554,r,0.33920930000022054,424.03170859999955,424.03170859999955,424.03170859999955,424.03170859999955,424.03170859999955,424.03170859999955,424.31506949997856,425.2151679999952,425.231432999979,425.231432999979,425.231432999979,425.231432999979,425.231432999979,425.231432999979,425.231432999979,425.231432999979,425.231432999979,425.231432999979,425.231432999979,425.231432999979,425.231432999979,426.429747999995,426.429747999995,426.429747999995,426.429747999995,426.429747999995,426.429747999995,426.429747999995,31,51,43,52,51,70,426.429747999995,428.09766359999776,,,,,,,,,,,,３３２,f,２２,2023-05-21_09h33.09.415,RL,2022.2.5,59.98976574834755,
29,63,67,36,0,70,70,70,,,,,,,,,,,None,428.09766359999776,428.09766359999776,428.09766359999776,428.09766359999776,428.09766359999776,428.09766359999776,f,0.5107487000059336,428.6310556999815,428.6310556999815,428.6310556999815,428.6310556999815,428.6310556999815,428.6310556999815,428.9142348000023,430.5308939999959,430.54737059999024,430.54737059999024,430.54737059999024,430.54737059999024,430.54737059999024,430.54737059999024,430.54737059999024,430.54737059999024,430.54737059999024,430.54737059999024,430.54737059999024,430.54737059999024,430.54737059999024,432.4621620999824,432.4621620999824,432.4621620999824,432.4621620999824,432.4621620999824,432.4621620999824,432.4621620999824,36,63,29,67,36,70,432.4621620999824,434.39633699998376,,,,,,,,,,,,３３２,f,２２,2023-05-21_09h33.09.415,RL,2022.2.5,59.98976574834755,
28,65,67,40,0,71,71,71,,,,,,,,,,,None,434.39633699998376,434.39633699998376,434.39633699998376,434.39633699998376,434.39633699998376,434.39633699998376,r,0.4393280000076629,434.8638931000023,434.8638931000023,434.8638931000023,434.8638931000023,434.8638931000023,434.8638931000023,435.1467168999952,436.96287029999075,436.9793493000034,436.9793493000034,436.9793493000034,436.9793493000034,436.9793493000034,436.9793493000034,436.9793493000034,436.9793493000034,436.9793493000034,436.9793493000034,436.9793493000034,436.9793493000034,436.9793493000034,439.0943346999993,439.0943346999993,439.0943346999993,439.0943346999993,439.0943346999993,439.0943346999993,439.0943346999993,40,65,28,67,65,70,439.0943346999993,440.96188970000367,,,,,,,,,,,,３３２,f,２２,2023-05-21_09h33.09.415,RL,2022.2.5,59.98976574834755,
38,64,59,39,0,72,72,72,,,,,,,,,,,None,440.96188970000367,440.96188970000367,440.96188970000367,440.96188970000367,440.96188970000367,440.96188970000367,r,0.35053560000960715,441.35246219998226,441.35246219998226,441.35246219998226,441.35246219998226,441.35246219998226,441.35246219998226,441.62871699998504,443.07852300000377,443.11189949998516,443.11189949998516,443.11189949998516,443.11189949998516,443.11189949998516,443.11189949998516,443.11189949998516,443.11189949998516,443.11189949998516,443.11189949998516,443.11189949998516,443.11189949998516,443.11189949998516,444.85973629998625,444.85973629998625,444.85973629998625,444.85973629998625,444.85973629998625,444.85973629998625,444.85973629998625,39,64,38,59,64,70,444.85973629998625,446.6109332999913,,,,,,,,,,,,３３２,f,２２,2023-05-21_09h33.09.415,RL,2022.2.5,59.98976574834755,
39,68,71,44,0,73,73,73,,,,,,,,,,,None,446.6109332999913,446.6109332999913,446.6109332999913,446.6109332999913,446.6109332999913,446.6109332999913,r,0.4052318000176456,447.04559799999697,447.04559799999697,447.04559799999697,447.04559799999697,447.04559799999697,447.04559799999697,447.3443385999999,448.24412960000336,448.24412960000336,448.24412960000336,448.24412960000336,448.24412960000336,448.24412960000336,448.24412960000336,448.24412960000336,448.24412960000336,448.24412960000336,448.24412960000336,448.24412960000336,448.24412960000336,448.24412960000336,449.44208660000004,449.44208660000004,449.44208660000004,449.44208660000004,449.44208660000004,449.44208660000004,449.44208660000004,44,68,39,71,68,70,449.44208660000004,451.142952299997,,,,,,,,,,,,３３２,f,２２,2023-05-21_09h33.09.415,RL,2022.2.5,59.98976574834755,
40,64,62,39,0,74,74,74,,,,,,,,,,,None,451.142952299997,451.142952299997,451.142952299997,451.142952299997,451.142952299997,451.142952299997,r,0.7151979000191204,451.8785083999974,451.8785083999974,451.8785083999974,451.8785083999974,451.8785083999974,451.8785083999974,452.1767757999769,453.3765531999816,453.3765531999816,453.3765531999816,453.3765531999816,453.3765531999816,453.3765531999816,453.3765531999816,453.3765531999816,453.3765531999816,453.3765531999816,453.3765531999816,453.3765531999816,453.3765531999816,453.3765531999816,454.87493879999965,454.87493879999965,454.87493879999965,454.87493879999965,454.87493879999965,454.87493879999965,454.87493879999965,39,64,40,62,64,70,454.87493879999965,456.85779149999144,,,,,,,,,,,,３３２,f,２２,2023-05-21_09h33.09.415,RL,2022.2.5,59.98976574834755,
34,57,69,37,0,75,75,75,,,,,,,,,,,q,474.05585089998203,474.05585089998203,474.05585089998203,474.05585089998203,474.05585089998203,474.05585089998203,f,1.2479919000179507,475.3273760000011,475.3273760000011,475.3273760000011,475.3273760000011,475.3273760000011,475.3273760000011,475.60614930000156,476.9725293999945,476.9889453999931,476.9889453999931,476.9889453999931,476.9889453999931,476.9889453999931,476.9889453999931,476.9889453999931,476.9889453999931,476.9889453999931,476.9889453999931,476.9889453999931,476.9889453999931,476.9889453999931,478.6543214999838,478.6543214999838,478.6543214999838,478.6543214999838,478.6543214999838,478.6543214999838,478.6543214999838,37,57,34,69,37,70,478.6543214999838,480.38810979999835,456.85779149999144,456.85779149999144,12.150350299983984,469.04070969999884,469.04070969999884,474.05585089998203,474.05585089998203,,,,,３３２,f,２２,2023-05-21_09h33.09.415,RL,2022.2.5,59.98976574834755,
40,64,69,45,0,76,76,76,,,,,,,,,,,None,480.38810979999835,480.38810979999835,480.38810979999835,480.38810979999835,480.38810979999835,480.38810979999835,r,0.5494571000162978,480.95871279999847,480.95871279999847,480.95871279999847,480.95871279999847,480.95871279999847,480.95871279999847,481.2387072999845,483.05505349999294,483.0716945999884,483.0716945999884,483.0716945999884,483.0716945999884,483.0716945999884,483.0716945999884,483.0716945999884,483.0716945999884,483.0716945999884,483.0716945999884,483.0716945999884,483.0716945999884,483.0716945999884,485.18621419998817,485.18621419998817,485.18621419998817,485.18621419998817,485.18621419998817,485.18621419998817,485.18621419998817,45,64,40,69,64,70,485.18621419998817,486.9706852999807,,,,,,,,,,,,３３２,f,２２,2023-05-21_09h33.09.415,RL,2022.2.5,59.98976574834755,
33,61,67,50,0,77,77,77,,,,,,,,,,,None,486.9706852999807,486.9706852999807,486.9706852999807,486.9706852999807,486.9706852999807,486.9706852999807,r,0.2961131999909412,487.2917946999951,487.2917946999951,487.2917946999951,487.2917946999951,487.2917946999951,487.2917946999951,487.58772829998634,489.17033880000236,489.17033880000236,489.17033880000236,489.17033880000236,489.17033880000236,489.17033880000236,489.17033880000236,489.17033880000236,489.17033880000236,489.17033880000236,489.17033880000236,489.17033880000236,489.17033880000236,489.17033880000236,491.0518999999913,491.0518999999913,491.0518999999913,491.0518999999913,491.0518999999913,491.0518999999913,491.0518999999913,50,61,33,67,61,70,491.0518999999913,492.75271489997976,,,,,,,,,,,,３３２,f,２２,2023-05-21_09h33.09.415,RL,2022.2.5,59.98976574834755,
34,74,75,58,0,78,78,78,,,,,,,,,,,None,492.75271489997976,492.75271489997976,492.75271489997976,492.75271489997976,492.75271489997976,492.75271489997976,r,0.34727680002106354,493.12384980000206,493.12384980000206,493.12384980000206,493.12384980000206,493.12384980000206,493.12384980000206,493.4193862999964,494.90296039998066,494.90296039998066,494.90296039998066,494.90296039998066,494.90296039998066,494.90296039998066,494.90296039998066,494.90296039998066,494.90296039998066,494.90296039998066,494.90296039998066,494.90296039998066,494.90296039998066,494.90296039998066,496.6841179000039,496.6841179000039,496.6841179000039,496.6841179000039,496.6841179000039,496.6841179000039,496.6841179000039,58,74,34,75,74,70,496.6841179000039,498.60177399998065,,,,,,,,,,,,３３２,f,２２,2023-05-21_09h33.09.415,RL,2022.2.5,59.98976574834755,
30,59,66,59,0,79,79,79,,,,,,,,,,,None,498.60177399998065,498.60177399998065,498.60177399998065,498.60177399998065,498.60177399998065,498.60177399998065,r,0.32746139998198487,498.9556183999812,498.9556183999812,498.9556183999812,498.9556183999812,498.9556183999812,498.9556183999812,499.23562089999905,500.7182613000041,500.7348126999859,500.7348126999859,500.7348126999859,500.7348126999859,500.7348126999859,500.7348126999859,500.7348126999859,500.7348126999859,500.7348126999859,500.7348126999859,500.7348126999859,500.7348126999859,500.7348126999859,502.5165778999799,502.5165778999799,502.5165778999799,502.5165778999799,502.5165778999799,502.5165778999799,502.5165778999799,59,59,30,66,59,70,502.5165778999799,504.4176698999945,,,,,,,,,,,,３３２,f,２２,2023-05-21_09h33.09.415,RL,2022.2.5,59.98976574834755,
40,74,68,70,0,80,80,80,,,,,,,,,,,None,504.4176698999945,504.4176698999945,504.4176698999945,504.4176698999945,504.4176698999945,504.4176698999945,r,0.36566370000946335,504.8065272999811,504.8065272999811,504.8065272999811,504.8065272999811,504.8065272999811,504.8065272999811,505.1008987999812,506.36739899998065,506.36739899998065,506.36739899998065,506.36739899998065,506.36739899998065,506.36739899998065,506.36739899998065,506.36739899998065,506.36739899998065,506.36739899998065,506.36739899998065,506.36739899998065,506.36739899998065,506.36739899998065,507.93236489998526,507.93236489998526,507.93236489998526,507.93236489998526,507.93236489998526,507.93236489998526,507.93236489998526,70,74,40,68,74,70,507.93236489998526,509.4501146999828,,,,,,,,,,,,３３２,f,２２,2023-05-21_09h33.09.415,RL,2022.2.5,59.98976574834755,
37,63,64,67,0,81,81,81,,,,,,,,,,,None,509.4501146999828,509.4501146999828,509.4501146999828,509.4501146999828,509.4501146999828,509.4501146999828,r,0.31649189998279326,509.7866061999812,509.7866061999812,509.7866061999812,509.7866061999812,509.7866061999812,509.7866061999812,510.0834634999919,511.9166440999834,511.9166440999834,511.9166440999834,511.9166440999834,511.9166440999834,511.9166440999834,511.9166440999834,511.9166440999834,511.9166440999834,511.9166440999834,511.9166440999834,511.9166440999834,511.9166440999834,511.9166440999834,514.0477408999868,514.0477408999868,514.0477408999868,514.0477408999868,514.0477408999868,514.0477408999868,514.0477408999868,67,63,37,64,63,70,514.0477408999868,515.9823661999835,,,,,,,,,,,,３３２,f,２２,2023-05-21_09h33.09.415,RL,2022.2.5,59.98976574834755,
35,63,70,70,0,82,82,82,,,,,,,,,,,None,515.9823661999835,515.9823661999835,515.9823661999835,515.9823661999835,515.9823661999835,515.9823661999835,r,0.5855589000275359,516.6025011999882,516.6025011999882,516.6025011999882,516.6025011999882,516.6025011999882,516.6025011999882,516.8824249999889,517.7157708999875,517.7486527999863,517.7486527999863,517.7486527999863,517.7486527999863,517.7486527999863,517.7486527999863,517.7486527999863,517.7486527999863,517.7486527999863,517.7486527999863,517.7486527999863,517.7486527999863,517.7486527999863,518.8801343999803,518.8801343999803,518.8801343999803,518.8801343999803,518.8801343999803,518.8801343999803,518.8801343999803,70,63,35,70,63,70,518.8801343999803,520.4815297999885,,,,,,,,,,,,３３２,f,２２,2023-05-21_09h33.09.415,RL,2022.2.5,59.98976574834755,
39,61,71,79,0,83,83,83,,,,,,,,,,,None,520.4815297999885,520.4815297999885,520.4815297999885,520.4815297999885,520.4815297999885,520.4815297999885,r,0.6524328999803402,521.1698462999775,521.1698462999775,521.1698462999775,521.1698462999775,521.1698462999775,521.1698462999775,521.4483619999955,522.4144231999817,522.4478599999857,522.4478599999857,522.4478599999857,522.4478599999857,522.4478599999857,522.4478599999857,522.4478599999857,522.4478599999857,522.4478599999857,522.4478599999857,522.4478599999857,522.4478599999857,522.4478599999857,523.71300779999,523.71300779999,523.71300779999,523.71300779999,523.71300779999,523.71300779999,523.71300779999,79,61,39,71,61,70,523.71300779999,525.5800810999935,,,,,,,,,,,,３３２,f,２２,2023-05-21_09h33.09.415,RL,2022.2.5,59.98976574834755,
40,64,76,78,0,84,84,84,,,,,,,,,,,None,525.5800810999935,525.5800810999935,525.5800810999935,525.5800810999935,525.5800810999935,525.5800810999935,i,0.35489699998288415,525.9648755999806,525.9648755999806,525.9648755999806,525.9648755999806,525.9648755999806,525.9648755999806,526.2475743999821,527.7301996999886,527.7471130999911,527.7471130999911,527.7471130999911,527.7471130999911,527.7471130999911,527.7471130999911,527.7471130999911,527.7471130999911,527.7471130999911,527.7471130999911,527.7471130999911,527.7471130999911,527.7471130999911,529.5285091999976,529.5285091999976,529.5285091999976,529.5285091999976,529.5285091999976,529.5285091999976,529.5285091999976,78,64,40,76,40,70,529.5285091999976,531.0792263999756,,,,,,,,,,,,３３２,f,２２,2023-05-21_09h33.09.415,RL,2022.2.5,59.98976574834755,
39,71,79,85,0,85,85,85,,,,,,,,,,,None,531.0792263999756,531.0792263999756,531.0792263999756,531.0792263999756,531.0792263999756,531.0792263999756,j,0.8968011999968439,531.9963489999936,531.9963489999936,531.9963489999936,531.9963489999936,531.9963489999936,531.9963489999936,532.2798176999786,533.6793333999813,533.6959657999978,533.6959657999978,533.6959657999978,533.6959657999978,533.6959657999978,533.6959657999978,533.6959657999978,533.6959657999978,533.6959657999978,533.6959657999978,533.6959657999978,533.6959657999978,533.6959657999978,535.3939717999892,535.3939717999892,535.3939717999892,535.3939717999892,535.3939717999892,535.3939717999892,535.3939717999892,85,71,39,79,79,70,535.3939717999892,537.1453285999887,,,,,,,,,,,,３３２,f,２２,2023-05-21_09h33.09.415,RL,2022.2.5,59.98976574834755,
41,72,72,66,0,86,86,86,,,,,,,,,,,None,537.1453285999887,537.1453285999887,537.1453285999887,537.1453285999887,537.1453285999887,537.1453285999887,j,0.600675699999556,537.7830122000014,537.7830122000014,537.7830122000014,537.7830122000014,537.7830122000014,537.7830122000014,538.0621635999996,539.3949863000016,539.4118701999832,539.4118701999832,539.4118701999832,539.4118701999832,539.4118701999832,539.4118701999832,539.4118701999832,539.4118701999832,539.4118701999832,539.4118701999832,539.4118701999832,539.4118701999832,539.4118701999832,541.0430595999933,541.0430595999933,541.0430595999933,541.0430595999933,541.0430595999933,541.0430595999933,541.0430595999933,66,72,41,72,72,70,541.0430595999933,542.6607916999783,,,,,,,,,,,,３３２,f,２２,2023-05-21_09h33.09.415,RL,2022.2.5,59.98976574834755,
45,66,74,83,0,87,87,87,,,,,,,,,,,None,542.6607916999783,542.6607916999783,542.6607916999783,542.6607916999783,542.6607916999783,542.6607916999783,j,0.6867685000179335,543.3778197999927,543.3778197999927,543.3778197999927,543.3778197999927,543.3778197999927,543.3778197999927,543.6611596999865,545.3770396999898,545.3936587999924,545.3936587999924,545.3936587999924,545.3936587999924,545.3936587999924,545.3936587999924,545.3936587999924,545.3936587999924,545.3936587999924,545.3936587999924,545.3936587999924,545.3936587999924,545.3936587999924,547.408538299991,547.408538299991,547.408538299991,547.408538299991,547.408538299991,547.408538299991,547.408538299991,83,66,45,74,74,70,547.408538299991,549.0759484999871,,,,,,,,,,,,３３２,f,２２,2023-05-21_09h33.09.415,RL,2022.2.5,59.98976574834755,
49,65,67,75,0,88,88,88,,,,,,,,,,,None,549.0759484999871,549.0759484999871,549.0759484999871,549.0759484999871,549.0759484999871,549.0759484999871,j,0.3409741999930702,549.4434735999967,549.4434735999967,549.4434735999967,549.4434735999967,549.4434735999967,549.4434735999967,549.7263325999957,550.7763694000023,550.7928410999884,550.7928410999884,550.7928410999884,550.7928410999884,550.7928410999884,550.7928410999884,550.7928410999884,550.7928410999884,550.7928410999884,550.7928410999884,550.7928410999884,550.7928410999884,550.7928410999884,552.1407096000039,552.1407096000039,552.1407096000039,552.1407096000039,552.1407096000039,552.1407096000039,552.1407096000039,75,65,49,67,67,70,552.1407096000039,553.8919955999881,,,,,,,,,,,,３３２,f,２２,2023-05-21_09h33.09.415,RL,2022.2.5,59.98976574834755,
39,70,77,75,0,89,89,89,,,,,,,,,,,None,553.8919955999881,553.8919955999881,553.8919955999881,553.8919955999881,553.8919955999881,553.8919955999881,j,0.7361904999997932,554.6652941999782,554.6652941999782,554.6652941999782,554.6652941999782,554.6652941999782,554.6652941999782,554.9590013999841,556.8417947999842,556.8417947999842,556.8417947999842,556.8417947999842,556.8417947999842,556.8417947999842,556.8417947999842,556.8417947999842,556.8417947999842,556.8417947999842,556.8417947999842,556.8417947999842,556.8417947999842,556.8417947999842,559.0234164999856,559.0234164999856,559.0234164999856,559.0234164999856,559.0234164999856,559.0234164999856,559.0234164999856,75,70,39,77,77,70,559.0234164999856,560.7905710999912,,,,,,,,,,,,３３２,f,２２,2023-05-21_09h33.09.415,RL,2022.2.5,59.98976574834755,
44,73,71,75,0,90,90,90,,,,,,,,,,,None,560.7905710999912,560.7905710999912,560.7905710999912,560.7905710999912,560.7905710999912,560.7905710999912,j,0.5531620999972802,561.3747232999885,561.3747232999885,561.3747232999885,561.3747232999885,561.3747232999885,561.3747232999885,561.6580237000016,562.507687299978,562.5241848999867,562.5241848999867,562.5241848999867,562.5241848999867,562.5241848999867,562.5241848999867,562.5241848999867,562.5241848999867,562.5241848999867,562.5241848999867,562.5241848999867,562.5241848999867,562.5241848999867,563.6721759999928,563.6721759999928,563.6721759999928,563.6721759999928,563.6721759999928,563.6721759999928,563.6721759999928,75,73,44,71,71,70,563.6721759999928,565.4901115999965,,,,,,,,,,,,３３２,f,２２,2023-05-21_09h33.09.415,RL,2022.2.5,59.98976574834755,
42,71,76,72,0,91,91,91,,,,,,,,,,,None,565.4901115999965,565.4901115999965,565.4901115999965,565.4901115999965,565.4901115999965,565.4901115999965,j,0.3381152999936603,565.8570835999853,565.8570835999853,565.8570835999853,565.8570835999853,565.8570835999853,565.8570835999853,566.1401247000031,567.3901215999795,567.4065202999918,567.4065202999918,567.4065202999918,567.4065202999918,567.4065202999918,567.4065202999918,567.4065202999918,567.4065202999918,567.4065202999918,567.4065202999918,567.4065202999918,567.4065202999918,567.4065202999918,568.9546807000006,568.9546807000006,568.9546807000006,568.9546807000006,568.9546807000006,568.9546807000006,568.9546807000006,72,71,42,76,76,70,568.9546807000006,570.7224275000044,,,,,,,,,,,,３３２,f,２２,2023-05-21_09h33.09.415,RL,2022.2.5,59.98976574834755,
32,68,75,78,0,92,92,92,,,,,,,,,,,None,570.7224275000044,570.7224275000044,570.7224275000044,570.7224275000044,570.7224275000044,570.7224275000044,j,0.3592058999929577,571.1061717999983,571.1061717999983,571.1061717999983,571.1061717999983,571.1061717999983,571.1061717999983,571.389643499977,572.6392518999928,572.6556685999967,572.6556685999967,572.6556685999967,572.6556685999967,572.6556685999967,572.6556685999967,572.6556685999967,572.6556685999967,572.6556685999967,572.6556685999967,572.6556685999967,572.6556685999967,572.6556685999967,574.203932000004,574.203932000004,574.203932000004,574.203932000004,574.203932000004,574.203932000004,574.203932000004,78,68,32,75,75,70,574.203932000004,576.0379654999997,,,,,,,,,,,,３３２,f,２２,2023-05-21_09h33.09.415,RL,2022.2.5,59.98976574834755,
41,69,75,67,0,93,93,93,,,,,,,,,,,None,576.0379654999997,576.0379654999997,576.0379654999997,576.0379654999997,576.0379654999997,576.0379654999997,j,0.42545790001167916,576.4884928999818,576.4884928999818,576.4884928999818,576.4884928999818,576.4884928999818,576.4884928999818,576.7718258999812,578.4050132999837,578.4212929999921,578.4212929999921,578.4212929999921,578.4212929999921,578.4212929999921,578.4212929999921,578.4212929999921,578.4212929999921,578.4212929999921,578.4212929999921,578.4212929999921,578.4212929999921,578.4212929999921,580.3527578999929,580.3527578999929,580.3527578999929,580.3527578999929,580.3527578999929,580.3527578999929,580.3527578999929,67,69,41,75,75,70,580.3527578999929,582.2371073999966,,,,,,,,,,,,３３２,f,２２,2023-05-21_09h33.09.415,RL,2022.2.5,59.98976574834755,
40,74,79,74,0,94,94,94,,,,,,,,,,,None,582.2371073999966,582.2371073999966,582.2371073999966,582.2371073999966,582.2371073999966,582.2371073999966,j,0.2977037999953609,582.5557334999903,582.5557334999903,582.5557334999903,582.5557334999903,582.5557334999903,582.5557334999903,582.8540841999929,584.2205780999793,584.2205780999793,584.2205780999793,584.2205780999793,584.2205780999793,584.2205780999793,584.2205780999793,584.2205780999793,584.2205780999793,584.2205780999793,584.2205780999793,584.2205780999793,584.2205780999793,584.2205780999793,585.8849760000012,585.8849760000012,585.8849760000012,585.8849760000012,585.8849760000012,585.8849760000012,585.8849760000012,74,74,40,79,79,70,585.8849760000012,587.6027267999889,,,,,,,,,,,,３３２,f,２２,2023-05-21_09h33.09.415,RL,2022.2.5,59.98976574834755,
40,74,81,61,0,95,95,95,,,,,,,,,,,None,587.6027267999889,587.6027267999889,587.6027267999889,587.6027267999889,587.6027267999889,587.6027267999889,j,0.4526379000162706,588.0887367999821,588.0887367999821,588.0887367999821,588.0887367999821,588.0887367999821,588.0887367999821,588.3696510999871,589.5196913999971,589.536205899989,589.536205899989,589.536205899989,589.536205899989,589.536205899989,589.536205899989,589.536205899989,589.536205899989,589.536205899989,589.536205899989,589.536205899989,589.536205899989,589.536205899989,590.9846471999772,590.9846471999772,590.9846471999772,590.9846471999772,590.9846471999772,590.9846471999772,590.9846471999772,61,74,40,81,81,70,590.9846471999772,592.5187521000043,,,,,,,,,,,,３３２,f,２２,2023-05-21_09h33.09.415,RL,2022.2.5,59.98976574834755,
37,69,77,67,0,96,96,96,,,,,,,,,,,None,592.5187521000043,592.5187521000043,592.5187521000043,592.5187521000043,592.5187521000043,592.5187521000043,j,0.36979920000885613,592.9190825999831,592.9190825999831,592.9190825999831,592.9190825999831,592.9190825999831,592.9190825999831,593.2026038999902,594.9024940999807,594.918342399993,594.918342399993,594.918342399993,594.918342399993,594.918342399993,594.918342399993,594.918342399993,594.918342399993,594.918342399993,594.918342399993,594.918342399993,594.918342399993,594.918342399993,596.9169164999912,596.9169164999912,596.9169164999912,596.9169164999912,596.9169164999912,596.9169164999912,596.9169164999912,67,69,37,77,77,70,596.9169164999912,598.5340981000045,,,,,,,,,,,,３３２,f,２２,2023-05-21_09h33.09.415,RL,2022.2.5,59.98976574834755,
29,71,73,71,0,97,97,97,,,,,,,,,,,None,598.5340981000045,598.5340981000045,598.5340981000045,598.5340981000045,598.5340981000045,598.5340981000045,j,0.6246993000095244,599.1846978999965,599.1846978999965,599.1846978999965,599.1846978999965,599.1846978999965,599.1846978999965,599.4681162999768,600.6177390999801,600.6342766000016,600.6342766000016,600.6342766000016,600.6342766000016,600.6342766000016,600.6342766000016,600.6342766000016,600.6342766000016,600.6342766000016,600.6342766000016,600.6342766000016,600.6342766000016,600.6342766000016,602.0824717999785,602.0824717999785,602.0824717999785,602.0824717999785,602.0824717999785,602.0824717999785,602.0824717999785,71,71,29,73,73,70,602.0824717999785,603.8833231999888,,,,,,,,,,,,３３２,f,２２,2023-05-21_09h33.09.415,RL,2022.2.5,59.98976574834755,
29,66,72,67,0,98,98,98,,,,,,,,,,,None,603.8833231999888,603.8833231999888,603.8833231999888,603.8833231999888,603.8833231999888,603.8833231999888,j,1.0733690000197385,604.9839159999974,604.9839159999974,604.9839159999974,604.9839159999974,604.9839159999974,604.9839159999974,605.2670956999937,606.349859799986,606.366571999999,606.366571999999,606.366571999999,606.366571999999,606.366571999999,606.366571999999,606.366571999999,606.366571999999,606.366571999999,606.366571999999,606.366571999999,606.366571999999,606.366571999999,607.7480210999784,607.7480210999784,607.7480210999784,607.7480210999784,607.7480210999784,607.7480210999784,607.7480210999784,67,66,29,72,72,70,607.7480210999784,609.4990335000039,,,,,,,,,,,,３３２,f,２２,2023-05-21_09h33.09.415,RL,2022.2.5,59.98976574834755,
29,69,76,75,0,99,99,99,,,,,,,,,,,None,609.4990335000039,609.4990335000039,609.4990335000039,609.4990335000039,609.4990335000039,609.4990335000039,j,0.5043253999901935,610.0326980999962,610.0326980999962,610.0326980999962,610.0326980999962,610.0326980999962,610.0326980999962,610.3162263999984,612.0488895000017,612.065509899985,612.065509899985,612.065509899985,612.065509899985,612.065509899985,612.065509899985,612.065509899985,612.065509899985,612.065509899985,612.065509899985,612.065509899985,612.065509899985,612.065509899985,614.096827100002,614.096827100002,614.096827100002,614.096827100002,614.096827100002,614.096827100002,614.096827100002,75,69,29,76,76,70,614.096827100002,615.9476359999971,,,,,,,,,,,,３３２,f,２２,2023-05-21_09h33.09.415,RL,2022.2.5,59.98976574834755,
32,74,73,76,0,100,100,100,,,,,,,,,,,None,615.9476359999971,615.9476359999971,615.9476359999971,615.9476359999971,615.9476359999971,615.9476359999971,j,0.26785770000424236,616.2316969999811,616.2316969999811,616.2316969999811,616.2316969999811,616.2316969999811,616.2316969999811,616.5314740999893,617.5645425999828,617.5645425999828,617.5645425999828,617.5645425999828,617.5645425999828,617.5645425999828,617.5645425999828,617.5645425999828,617.5645425999828,617.5645425999828,617.5645425999828,617.5645425999828,617.5645425999828,617.5645425999828,618.8962886999943,618.8962886999943,618.8962886999943,618.8962886999943,618.8962886999943,618.8962886999943,618.8962886999943,76,74,32,73,73,70,618.8962886999943,620.596540700004,,,,,,,,,,,,３３２,f,２２,2023-05-21_09h33.09.415,RL,2022.2.5,59.98976574834755,
43,64,83,63,0,101,101,101,,,,,,,,,,,None,620.596540700004,620.596540700004,620.596540700004,620.596540700004,620.596540700004,620.596540700004,j,0.5759648000239395,621.2019420999859,621.2019420999859,621.2019420999859,621.2019420999859,621.2019420999859,621.2019420999859,621.497541299992,622.9302047999809,622.9302047999809,622.9302047999809,622.9302047999809,622.9302047999809,622.9302047999809,622.9302047999809,622.9302047999809,622.9302047999809,622.9302047999809,622.9302047999809,622.9302047999809,622.9302047999809,622.9302047999809,624.6616956999933,624.6616956999933,624.6616956999933,624.6616956999933,624.6616956999933,624.6616956999933,624.6616956999933,63,64,43,83,83,70,624.6616956999933,626.3795568999776,,,,,,,,,,,,３３２,f,２２,2023-05-21_09h33.09.415,RL,2022.2.5,59.98976574834755,
40,75,74,56,0,102,102,102,,,,,,,,,,,None,626.3795568999776,626.3795568999776,626.3795568999776,626.3795568999776,626.3795568999776,626.3795568999776,j,0.7880930999817792,627.198653200001,627.198653200001,627.198653200001,627.198653200001,627.198653200001,627.198653200001,627.4963222999941,628.6955885999778,628.6955885999778,628.6955885999778,628.6955885999778,628.6955885999778,628.6955885999778,628.6955885999778,628.6955885999778,628.6955885999778,628.6955885999778,628.6955885999778,628.6955885999778,628.6955885999778,628.6955885999778,630.1940700999985,630.1940700999985,630.1940700999985,630.1940700999985,630.1940700999985,630.1940700999985,630.1940700999985,56,75,40,74,74,70,630.1940700999985,631.9453890000004,,,,,,,,,,,,３３２,f,２２,2023-05-21_09h33.09.415,RL,2022.2.5,59.98976574834755,
42,68,72,57,0,103,103,103,,,,,,,,,,,None,631.9453890000004,631.9453890000004,631.9453890000004,631.9453890000004,631.9453890000004,631.9453890000004,j,0.5340038000140339,632.5187582999934,632.5187582999934,632.5187582999934,632.5187582999934,632.5187582999934,632.5187582999934,632.7952014999755,634.0952186999784,634.1116055999883,634.1116055999883,634.1116055999883,634.1116055999883,634.1116055999883,634.1116055999883,634.1116055999883,634.1116055999883,634.1116055999883,634.1116055999883,634.1116055999883,634.1116055999883,634.1116055999883,635.7098777999927,635.7098777999927,635.7098777999927,635.7098777999927,635.7098777999927,635.7098777999927,635.7098777999927,57,68,42,72,72,70,635.7098777999927,637.2278381999931,,,,,,,,,,,,３３２,f,２２,2023-05-21_09h33.09.415,RL,2022.2.5,59.98976574834755,
40,69,66,56,0,104,104,104,,,,,,,,,,,None,637.2278381999931,637.2278381999931,637.2278381999931,637.2278381999931,637.2278381999931,637.2278381999931,j,0.7724839000147767,638.0293907999876,638.0293907999876,638.0293907999876,638.0293907999876,638.0293907999876,638.0293907999876,638.3275461999874,639.4444282999902,639.4444282999902,639.4444282999902,639.4444282999902,639.4444282999902,639.4444282999902,639.4444282999902,639.4444282999902,639.4444282999902,639.4444282999902,639.4444282999902,639.4444282999902,639.4444282999902,639.4444282999902,640.8588745000015,640.8588745000015,640.8588745000015,640.8588745000015,640.8588745000015,640.8588745000015,640.8588745000015,56,69,40,66,66,70,640.8588745000015,642.4432576999825,,,,,,,,,,,,３３２,f,２２,2023-05-21_09h33.09.415,RL,2022.2.5,59.98976574834755,
37,70,72,53,0,105,105,105,,,,,,,,,,,None,642.4432576999825,642.4432576999825,642.4432576999825,642.4432576999825,642.4432576999825,642.4432576999825,j,0.2786907000117935,642.7447815999913,642.7447815999913,642.7447815999913,642.7447815999913,642.7447815999913,642.7447815999913,643.0435485999915,644.2434454000031,644.2434454000031,644.2434454000031,644.2434454000031,644.2434454000031,644.2434454000031,644.2434454000031,644.2434454000031,644.2434454000031,644.2434454000031,644.2434454000031,644.2434454000031,644.2434454000031,644.2434454000031,645.7413729999971,645.7413729999971,645.7413729999971,645.7413729999971,645.7413729999971,645.7413729999971,645.7413729999971,53,70,37,72,72,70,645.7413729999971,647.6761627999949,,,,,,,,,,,,３３２,f,２２,2023-05-21_09h33.09.415,RL,2022.2.5,59.98976574834755,
41,66,66,53,0,106,106,106,,,,,,,,,,,None,647.6761627999949,647.6761627999949,647.6761627999949,647.6761627999949,647.6761627999949,647.6761627999949,j,0.3728877000103239,648.0766464000044,648.0766464000044,648.0766464000044,648.0766464000044,648.0766464000044,648.0766464000044,648.3592044999823,650.0591573999845,650.0757986999815,650.0757986999815,650.0757986999815,650.0757986999815,650.0757986999815,650.0757986999815,650.0757986999815,650.0757986999815,650.0757986999815,650.0757986999815,650.0757986999815,650.0757986999815,650.0757986999815,652.0739868999808,652.0739868999808,652.0739868999808,652.0739868999808,652.0739868999808,652.0739868999808,652.0739868999808,53,66,41,66,66,70,652.0739868999808,653.8084174999967,,,,,,,,,,,,３３２,f,２２,2023-05-21_09h33.09.415,RL,2022.2.5,59.98976574834755,
47,69,75,57,0,107,107,107,,,,,,,,,,,None,653.8084174999967,653.8084174999967,653.8084174999967,653.8084174999967,653.8084174999967,653.8084174999967,j,0.4718286999850534,654.310576399992,654.310576399992,654.310576399992,654.310576399992,654.310576399992,654.310576399992,654.5919170999841,656.5243952999881,656.5576759999967,656.5576759999967,656.5576759999967,656.5576759999967,656.5576759999967,656.5576759999967,656.5576759999967,656.5576759999967,656.5576759999967,656.5576759999967,656.5576759999967,656.5576759999967,656.5576759999967,658.7888555999962,658.7888555999962,658.7888555999962,658.7888555999962,658.7888555999962,658.7888555999962,658.7888555999962,57,69,47,75,75,70,658.7888555999962,660.7732506000029,,,,,,,,,,,,３３２,f,２２,2023-05-21_09h33.09.415,RL,2022.2.5,59.98976574834755,
47,63,83,53,0,108,108,108,,,,,,,,,,,None,660.7732506000029,660.7732506000029,660.7732506000029,660.7732506000029,660.7732506000029,660.7732506000029,j,0.5161719000025187,661.3082976999867,661.3082976999867,661.3082976999867,661.3082976999867,661.3082976999867,661.3082976999867,661.5907185999968,663.539956099994,663.5566829000018,663.5566829000018,663.5566829000018,663.5566829000018,663.5566829000018,663.5566829000018,663.5566829000018,663.5566829000018,663.5566829000018,663.5566829000018,663.5566829000018,663.5566829000018,663.5566829000018,665.8043928999978,665.8043928999978,665.8043928999978,665.8043928999978,665.8043928999978,665.8043928999978,665.8043928999978,53,63,47,83,83,70,665.8043928999978,667.3219979999994,,,,,,,,,,,,３３２,f,２２,2023-05-21_09h33.09.415,RL,2022.2.5,59.98976574834755,
43,70,74,55,0,109,109,109,,,,,,,,,,,None,667.3219979999994,667.3219979999994,667.3219979999994,667.3219979999994,667.3219979999994,667.3219979999994,j,0.6653242999745999,668.0082213999995,668.0082213999995,668.0082213999995,668.0082213999995,668.0082213999995,668.0082213999995,668.3057923000015,670.0721490999858,670.0721490999858,670.0721490999858,670.0721490999858,670.0721490999858,670.0721490999858,670.0721490999858,670.0721490999858,670.0721490999858,670.0721490999858,670.0721490999858,670.0721490999858,670.0721490999858,670.0721490999858,672.1367014999851,672.1367014999851,672.1367014999851,672.1367014999851,672.1367014999851,672.1367014999851,672.1367014999851,55,70,43,74,74,70,672.1367014999851,673.904717700003,,,,,,,,,,,,３３２,f,２２,2023-05-21_09h33.09.415,RL,2022.2.5,59.98976574834755,
52,76,73,59,0,110,110,110,,,,,,,,,,,None,673.904717700003,673.904717700003,673.904717700003,673.904717700003,673.904717700003,673.904717700003,j,0.5566837000078522,674.4894324999768,674.4894324999768,674.4894324999768,674.4894324999768,674.4894324999768,674.4894324999768,674.7877913999837,675.7710568000039,675.7710568000039,675.7710568000039,675.7710568000039,675.7710568000039,675.7710568000039,675.7710568000039,675.7710568000039,675.7710568000039,675.7710568000039,675.7710568000039,675.7710568000039,675.7710568000039,675.7710568000039,677.0529653999838,677.0529653999838,677.0529653999838,677.0529653999838,677.0529653999838,677.0529653999838,677.0529653999838,59,76,52,73,73,70,677.0529653999838,678.7034713999892,,,,,,,,,,,,３３２,f,２２,2023-05-21_09h33.09.415,RL,2022.2.5,59.98976574834755,
43,73,67,49,0,111,111,111,,,,,,,,,,,None,678.7034713999892,678.7034713999892,678.7034713999892,678.7034713999892,678.7034713999892,678.7034713999892,j,1.0943899000121746,679.8206885999825,679.8206885999825,679.8206885999825,679.8206885999825,679.8206885999825,679.8206885999825,680.1041663999786,681.9533354000014,681.970463399979,681.970463399979,681.970463399979,681.970463399979,681.970463399979,681.970463399979,681.970463399979,681.970463399979,681.970463399979,681.970463399979,681.970463399979,681.970463399979,681.970463399979,684.1015414999856,684.1015414999856,684.1015414999856,684.1015414999856,684.1015414999856,684.1015414999856,684.1015414999856,49,73,43,67,67,70,684.1015414999856,686.0527795999951,,,,,,,,,,,,３３２,f,２２,2023-05-21_09h33.09.415,RL,2022.2.5,59.98976574834755,
45,74,72,62,0,112,112,112,,,,,,,,,,,None,686.0527795999951,686.0527795999951,686.0527795999951,686.0527795999951,686.0527795999951,686.0527795999951,j,0.3574060999962967,686.4360975000018,686.4360975000018,686.4360975000018,686.4360975000018,686.4360975000018,686.4360975000018,686.7190726999834,687.6193520999805,687.635618899978,687.635618899978,687.635618899978,687.635618899978,687.635618899978,687.635618899978,687.635618899978,687.635618899978,687.635618899978,687.635618899978,687.635618899978,687.635618899978,687.635618899978,688.8338433000026,688.8338433000026,688.8338433000026,688.8338433000026,688.8338433000026,688.8338433000026,688.8338433000026,62,74,45,72,72,70,688.8338433000026,690.5513362999773,,,,,,,,,,,,３３２,f,２２,2023-05-21_09h33.09.415,RL,2022.2.5,59.98976574834755,
52,78,75,56,0,113,113,113,,,,,,,,,,,None,690.5513362999773,690.5513362999773,690.5513362999773,690.5513362999773,690.5513362999773,690.5513362999773,j,0.3352964000077918,690.9252341999963,690.9252341999963,690.9252341999963,690.9252341999963,690.9252341999963,690.9252341999963,691.2184376999794,692.6687279999896,692.6687279999896,692.6687279999896,692.6687279999896,692.6687279999896,692.6687279999896,692.6687279999896,692.6687279999896,692.6687279999896,692.6687279999896,692.6687279999896,692.6687279999896,692.6687279999896,692.6687279999896,694.4160387000011,694.4160387000011,694.4160387000011,694.4160387000011,694.4160387000011,694.4160387000011,694.4160387000011,56,78,52,75,75,70,694.4160387000011,696.1005311000044,,,,,,,,,,,,３３２,f,２２,2023-05-21_09h33.09.415,RL,2022.2.5,59.98976574834755,
53,79,86,58,0,114,114,114,,,,,,,,,,,None,696.1005311000044,696.1005311000044,696.1005311000044,696.1005311000044,696.1005311000044,696.1005311000044,j,0.9739424000144936,697.1010407999856,697.1010407999856,697.1010407999856,697.1010407999856,697.1010407999856,697.1010407999856,697.400501600001,698.6836909999838,698.6836909999838,698.6836909999838,698.6836909999838,698.6836909999838,698.6836909999838,698.6836909999838,698.6836909999838,698.6836909999838,698.6836909999838,698.6836909999838,698.6836909999838,698.6836909999838,698.6836909999838,700.2652744999796,700.2652744999796,700.2652744999796,700.2652744999796,700.2652744999796,700.2652744999796,700.2652744999796,58,79,53,86,86,70,700.2652744999796,702.0496791999904,,,,,,,,,,,,３３２,f,２２,2023-05-21_09h33.09.415,RL,2022.2.5,59.98976574834755,
47,80,78,55,0,115,115,115,,,,,,,,,,,None,702.0496791999904,702.0496791999904,702.0496791999904,702.0496791999904,702.0496791999904,702.0496791999904,j,0.4169069000054151,702.5031530999986,702.5031530999986,702.5031530999986,702.5031530999986,702.5031530999986,702.5031530999986,702.7833665999933,704.2994041999918,704.3163462999801,704.3163462999801,704.3163462999801,704.3163462999801,704.3163462999801,704.3163462999801,704.3163462999801,704.3163462999801,704.3163462999801,704.3163462999801,704.3163462999801,704.3163462999801,704.3163462999801,706.1307680000027,706.1307680000027,706.1307680000027,706.1307680000027,706.1307680000027,706.1307680000027,706.1307680000027,55,80,47,78,78,70,706.1307680000027,707.8318659999932,,,,,,,,,,,,３３２,f,２２,2023-05-21_09h33.09.415,RL,2022.2.5,59.98976574834755,
53,73,71,54,0,116,116,116,,,,,,,,,,,None,707.8318659999932,707.8318659999932,707.8318659999932,707.8318659999932,707.8318659999932,707.8318659999932,j,0.3310541000100784,708.1829271999886,708.1829271999886,708.1829271999886,708.1829271999886,708.1829271999886,708.1829271999886,708.4659746999969,710.3319807999942,710.3488001999795,710.3488001999795,710.3488001999795,710.3488001999795,710.3488001999795,710.3488001999795,710.3488001999795,710.3488001999795,710.3488001999795,710.3488001999795,710.3488001999795,710.3488001999795,710.3488001999795,712.5133350999968,712.5133350999968,712.5133350999968,712.5133350999968,712.5133350999968,712.5133350999968,712.5133350999968,54,73,53,71,71,70,712.5133350999968,714.1144768999948,,,,,,,,,,,,３３２,f,２２,2023-05-21_09h33.09.415,RL,2022.2.5,59.98976574834755,
47,71,77,60,0,117,117,117,,,,,,,,,,,None,714.1144768999948,714.1144768999948,714.1144768999948,714.1144768999948,714.1144768999948,714.1144768999948,j,0.5743888999859337,714.7144466000027,714.7144466000027,714.7144466000027,714.7144466000027,714.7144466000027,714.7144466000027,714.9978099,716.4639733999793,716.4805687000044,716.4805687000044,716.4805687000044,716.4805687000044,716.4805687000044,716.4805687000044,716.4805687000044,716.4805687000044,716.4805687000044,716.4805687000044,716.4805687000044,716.4805687000044,716.4805687000044,718.2453248999955,718.2453248999955,718.2453248999955,718.2453248999955,718.2453248999955,718.2453248999955,718.2453248999955,60,71,47,77,77,70,718.2453248999955,720.0965229999856,,,,,,,,,,,,３３２,f,２２,2023-05-21_09h33.09.415,RL,2022.2.5,59.98976574834755,
49,62,87,53,0,118,118,118,,,,,,,,,,,None,720.0965229999856,720.0965229999856,720.0965229999856,720.0965229999856,720.0965229999856,720.0965229999856,j,0.7734459000057541,720.9010027999757,720.9010027999757,720.9010027999757,720.9010027999757,720.9010027999757,720.9010027999757,721.1964363000006,722.2131270999962,722.229791699996,722.229791699996,722.229791699996,722.229791699996,722.229791699996,722.229791699996,722.229791699996,722.229791699996,722.229791699996,722.229791699996,722.229791699996,722.229791699996,722.229791699996,723.5448207999871,723.5448207999871,723.5448207999871,723.5448207999871,723.5448207999871,723.5448207999871,723.5448207999871,53,62,49,87,87,70,723.5448207999871,725.5288786999881,,,,,,,,,,,,３３２,f,２２,2023-05-21_09h33.09.415,RL,2022.2.5,59.98976574834755,
57,80,92,56,0,119,119,119,,,,,,,,,,,None,725.5288786999881,725.5288786999881,725.5288786999881,725.5288786999881,725.5288786999881,725.5288786999881,j,0.49740260001271963,726.0483907999878,726.0483907999878,726.0483907999878,726.0483907999878,726.0483907999878,726.0483907999878,726.345553799998,727.1957184999774,727.1957184999774,727.1957184999774,727.1957184999774,727.1957184999774,727.1957184999774,727.1957184999774,727.1957184999774,727.1957184999774,727.1957184999774,727.1957184999774,727.1957184999774,727.1957184999774,727.1957184999774,728.3436172999791,728.3436172999791,728.3436172999791,728.3436172999791,728.3436172999791,728.3436172999791,728.3436172999791,56,80,57,92,92,70,728.3436172999791,730.1278391999949,,,,,,,,,,,,３３２,f,２２,2023-05-21_09h33.09.415,RL,2022.2.5,59.98976574834755,
43,74,87,53,0,120,120,120,,,,,,,,,,,None,730.1278391999949,730.1278391999949,730.1278391999949,730.1278391999949,730.1278391999949,730.1278391999949,j,0.34197469998616725,730.4958669999905,730.4958669999905,730.4958669999905,730.4958669999905,730.4958669999905,730.4958669999905,730.7785597000038,732.0111997999775,732.0284424999845,732.0284424999845,732.0284424999845,732.0284424999845,732.0284424999845,732.0284424999845,732.0284424999845,732.0284424999845,732.0284424999845,732.0284424999845,732.0284424999845,732.0284424999845,732.0284424999845,733.5594531999959,733.5594531999959,733.5594531999959,733.5594531999959,733.5594531999959,733.5594531999959,733.5594531999959,53,74,43,87,87,70,733.5594531999959,735.2441547999915,,,,,,,,,,,,３３２,f,２２,2023-05-21_09h33.09.415,RL,2022.2.5,59.98976574834755,
