arm1,arm2,arm3,arm4,trials.thisRepN,trials.thisTrialN,trials.thisN,trials.thisIndex,instru_img1.started,instru_resp.started,instru_resp.keys,instru_resp.rt,image_2.started,text_2.started,image_2.stopped,text_2.stopped,fixbefore_2.started,fixbefore_2.stopped,rest_response.keys,red.started,green.started,yellow.started,blue.started,choose_bandit.started,Fixation.started,choose_bandit.keys,choose_bandit.rt,black.started,red_2.started,green_2.started,yellow_2.started,blue_2.started,fixation_2.started,docs.started,docs.stopped,black.stopped,red_2.stopped,green_2.stopped,yellow_2.stopped,blue_2.stopped,fixation_2.stopped,black_com.started,reward_sub.started,reward__sub.started,red_compare.started,green_com.started,yellow_com.started,blue_com.started,black_com.stopped,reward_sub.stopped,reward__sub.stopped,red_compare.stopped,green_com.stopped,yellow_com.stopped,blue_com.stopped,rewardred,rewardyellow,rewardblue,rewardgreen,subchoose,expectation,intertrialfix.started,intertrialfix.stopped,rest_image.started,rest_response.started,rest_response.rt,image_expect_after.started,text_exp_after.started,image_expect_after.stopped,text_exp_after.stopped,bigx.started,bigx.stopped,image.started,key_resp.started,key_resp.keys,key_resp.rt,participant,Gender,Age,date,expName,psychopyVersion,frameRate,
,,,,,,,,27.90746630000649,27.90746630000649,space,8.248485899996012,,,,,,,,,,,,,,,,,,,,,,,,,,,,,,,,,,,,,,,,,,,,,,,,,,,,,,,,,,,,,,,,,３３３,f,２３,2023-05-21_10h08.46.307,RL,2022.2.5,60.09474536940874,
42,47,48,76,0,0,0,0,,,,,36.171970199997304,36.171970199997304,41.171248300001025,41.171248300001025,41.171248300001025,42.17297030001646,None,42.17297030001646,42.17297030001646,42.17297030001646,42.17297030001646,42.17297030001646,42.17297030001646,f,0.6148833000042941,42.80664570000954,42.80664570000954,42.80664570000954,42.80664570000954,42.80664570000954,42.80664570000954,43.09059150001849,44.009344000020064,44.03070120001212,44.03070120001212,44.03070120001212,44.03070120001212,44.03070120001212,44.03070120001212,44.03070120001212,44.03070120001212,44.03070120001212,44.03070120001212,44.03070120001212,44.03070120001212,44.03070120001212,45.30284910000046,45.30284910000046,45.30284910000046,45.30284910000046,45.30284910000046,45.30284910000046,45.30284910000046,42,47,48,76,42,60,45.30284910000046,46.858207800018135,,,,,,,,,,,,,,３３３,f,２３,2023-05-21_10h08.46.307,RL,2022.2.5,60.09474536940874,
45,36,49,58,0,1,1,1,,,,,,,,,,,None,46.858207800018135,46.858207800018135,46.858207800018135,46.858207800018135,46.858207800018135,46.858207800018135,i,0.34575420001056045,47.23254980001366,47.23254980001366,47.23254980001366,47.23254980001366,47.23254980001366,47.23254980001366,47.526250199996866,48.39365740001085,48.39365740001085,48.39365740001085,48.39365740001085,48.39365740001085,48.39365740001085,48.39365740001085,48.39365740001085,48.39365740001085,48.39365740001085,48.39365740001085,48.39365740001085,48.39365740001085,48.39365740001085,49.55747390000033,49.55747390000033,49.55747390000033,49.55747390000033,49.55747390000033,49.55747390000033,49.55747390000033,45,36,49,58,49,60,49.55747390000033,51.307286600000225,,,,,,,,,,,,,,３３３,f,２３,2023-05-21_10h08.46.307,RL,2022.2.5,60.09474536940874,
45,41,52,65,0,2,2,2,,,,,,,,,,,None,51.307286600000225,51.307286600000225,51.307286600000225,51.307286600000225,51.307286600000225,51.307286600000225,r,0.5855724000139162,51.93958800000837,51.93958800000837,51.93958800000837,51.93958800000837,51.93958800000837,51.93958800000837,52.20737790002022,53.62342420002096,53.65822310000658,53.65822310000658,53.65822310000658,53.65822310000658,53.65822310000658,53.65822310000658,53.65822310000658,53.65822310000658,53.65822310000658,53.65822310000658,53.65822310000658,53.65822310000658,53.65822310000658,55.38546180000412,55.38546180000412,55.38546180000412,55.38546180000412,55.38546180000412,55.38546180000412,55.38546180000412,45,41,52,65,41,60,55.38546180000412,57.136493700003484,,,,,,,,,,,,,,３３３,f,２３,2023-05-21_10h08.46.307,RL,2022.2.5,60.09474536940874,
50,46,50,62,0,3,3,3,,,,,,,,,,,None,57.136493700003484,57.136493700003484,57.136493700003484,57.136493700003484,57.136493700003484,57.136493700003484,j,0.2583572000148706,57.42253199999686,57.42253199999686,57.42253199999686,57.42253199999686,57.42253199999686,57.42253199999686,57.72015969999484,59.169671600015135,59.169671600015135,59.169671600015135,59.169671600015135,59.169671600015135,59.169671600015135,59.169671600015135,59.169671600015135,59.169671600015135,59.169671600015135,59.169671600015135,59.169671600015135,59.169671600015135,59.169671600015135,60.91766279999865,60.91766279999865,60.91766279999865,60.91766279999865,60.91766279999865,60.91766279999865,60.91766279999865,50,46,50,62,62,60,60.91766279999865,62.552448600006755,,,,,,,,,,,,,,３３３,f,２３,2023-05-21_10h08.46.307,RL,2022.2.5,60.09474536940874,
54,44,60,64,0,4,4,4,,,,,,,,,,,None,62.552448600006755,62.552448600006755,62.552448600006755,62.552448600006755,62.552448600006755,62.552448600006755,j,0.42434399999910966,63.00285509999958,63.00285509999958,63.00285509999958,63.00285509999958,63.00285509999958,63.00285509999958,63.28590869999607,64.83555000001797,64.85215710001648,64.85215710001648,64.85215710001648,64.85215710001648,64.85215710001648,64.85215710001648,64.85215710001648,64.85215710001648,64.85215710001648,64.85215710001648,64.85215710001648,64.85215710001648,64.85215710001648,66.70050200002152,66.70050200002152,66.70050200002152,66.70050200002152,66.70050200002152,66.70050200002152,66.70050200002152,54,44,60,64,64,60,66.70050200002152,68.63459630002035,,,,,,,,,,,,,,３３３,f,２３,2023-05-21_10h08.46.307,RL,2022.2.5,60.09474536940874,
49,34,59,61,0,5,5,5,,,,,,,,,,,None,68.63459630002035,68.63459630002035,68.63459630002035,68.63459630002035,68.63459630002035,68.63459630002035,f,0.3086335999832954,68.96848599999794,68.96848599999794,68.96848599999794,68.96848599999794,68.96848599999794,68.96848599999794,69.2516103000089,70.75137760001235,70.76790700000129,70.76790700000129,70.76790700000129,70.76790700000129,70.76790700000129,70.76790700000129,70.76790700000129,70.76790700000129,70.76790700000129,70.76790700000129,70.76790700000129,70.76790700000129,70.76790700000129,72.56610759999603,72.56610759999603,72.56610759999603,72.56610759999603,72.56610759999603,72.56610759999603,72.56610759999603,49,34,59,61,49,60,72.56610759999603,74.31689670000924,,,,,,,,,,,,,,３３３,f,２３,2023-05-21_10h08.46.307,RL,2022.2.5,60.09474536940874,
45,38,66,64,0,6,6,6,,,,,,,,,,,None,74.31689670000924,74.31689670000924,74.31689670000924,74.31689670000924,74.31689670000924,74.31689670000924,j,0.3201911000069231,74.6703184999933,74.6703184999933,74.6703184999933,74.6703184999933,74.6703184999933,74.6703184999933,74.95042660000036,76.15044100000523,76.16698100001668,76.16698100001668,76.16698100001668,76.16698100001668,76.16698100001668,76.16698100001668,76.16698100001668,76.16698100001668,76.16698100001668,76.16698100001668,76.16698100001668,76.16698100001668,76.16698100001668,77.66516550001688,77.66516550001688,77.66516550001688,77.66516550001688,77.66516550001688,77.66516550001688,77.66516550001688,45,38,66,64,64,60,77.66516550001688,79.36608959999285,,,,,,,,,,,,,,３３３,f,２３,2023-05-21_10h08.46.307,RL,2022.2.5,60.09474536940874,
46,32,66,69,0,7,7,7,,,,,,,,,,,None,79.36608959999285,79.36608959999285,79.36608959999285,79.36608959999285,79.36608959999285,79.36608959999285,j,0.41107720002764836,79.8002369000169,79.8002369000169,79.8002369000169,79.8002369000169,79.8002369000169,79.8002369000169,80.08293750000303,81.38306700001704,81.39932950001094,81.39932950001094,81.39932950001094,81.39932950001094,81.39932950001094,81.39932950001094,81.39932950001094,81.39932950001094,81.39932950001094,81.39932950001094,81.39932950001094,81.39932950001094,81.39932950001094,82.9973358999996,82.9973358999996,82.9973358999996,82.9973358999996,82.9973358999996,82.9973358999996,82.9973358999996,46,32,66,69,69,60,82.9973358999996,84.83167080002022,,,,,,,,,,,,,,３３３,f,２３,2023-05-21_10h08.46.307,RL,2022.2.5,60.09474536940874,
40,30,68,74,0,8,8,8,,,,,,,,,,,None,84.83167080002022,84.83167080002022,84.83167080002022,84.83167080002022,84.83167080002022,84.83167080002022,j,0.92096109999693,85.78276080000796,85.78276080000796,85.78276080000796,85.78276080000796,85.78276080000796,85.78276080000796,86.06553610000992,87.11497330002021,87.13149400000111,87.13149400000111,87.13149400000111,87.13149400000111,87.13149400000111,87.13149400000111,87.13149400000111,87.13149400000111,87.13149400000111,87.13149400000111,87.13149400000111,87.13149400000111,87.13149400000111,88.47977740000351,88.47977740000351,88.47977740000351,88.47977740000351,88.47977740000351,88.47977740000351,88.47977740000351,40,30,68,74,74,60,88.47977740000351,90.41408440002124,,,,,,,,,,,,,,３３３,f,２３,2023-05-21_10h08.46.307,RL,2022.2.5,60.09474536940874,
53,29,70,64,0,9,9,9,,,,,,,,,,,None,90.41408440002124,90.41408440002124,90.41408440002124,90.41408440002124,90.41408440002124,90.41408440002124,j,0.41744290001224726,90.86477030001697,90.86477030001697,90.86477030001697,90.86477030001697,90.86477030001697,90.86477030001697,91.14776240001083,93.06402970000636,93.08063110001967,93.08063110001967,93.08063110001967,93.08063110001967,93.08063110001967,93.08063110001967,93.08063110001967,93.08063110001967,93.08063110001967,93.08063110001967,93.08063110001967,93.08063110001967,93.08063110001967,95.29550989999552,95.29550989999552,95.29550989999552,95.29550989999552,95.29550989999552,95.29550989999552,95.29550989999552,53,29,70,64,64,60,95.29550989999552,96.91302290000021,,,,,,,,,,,,,,３３３,f,２３,2023-05-21_10h08.46.307,RL,2022.2.5,60.09474536940874,
55,29,61,62,0,10,10,10,,,,,,,,,,,None,96.91302290000021,96.91302290000021,96.91302290000021,96.91302290000021,96.91302290000021,96.91302290000021,i,0.43436640000436455,97.38661830002093,97.38661830002093,97.38661830002093,97.38661830002093,97.38661830002093,97.38661830002093,97.66312939999625,98.56314350001048,98.5965766000154,98.5965766000154,98.5965766000154,98.5965766000154,98.5965766000154,98.5965766000154,98.5965766000154,98.5965766000154,98.5965766000154,98.5965766000154,98.5965766000154,98.5965766000154,98.5965766000154,99.7943959000113,99.7943959000113,99.7943959000113,99.7943959000113,99.7943959000113,99.7943959000113,99.7943959000113,55,29,61,62,61,60,99.7943959000113,101.46214920000057,,,,,,,,,,,,,,３３３,f,２３,2023-05-21_10h08.46.307,RL,2022.2.5,60.09474536940874,
53,29,68,62,0,11,11,11,,,,,,,,,,,None,101.46214920000057,101.46214920000057,101.46214920000057,101.46214920000057,101.46214920000057,101.46214920000057,j,0.6550032999948598,102.14911749999737,102.14911749999737,102.14911749999737,102.14911749999737,102.14911749999737,102.14911749999737,102.44584130001022,103.47881920001237,103.47881920001237,103.47881920001237,103.47881920001237,103.47881920001237,103.47881920001237,103.47881920001237,103.47881920001237,103.47881920001237,103.47881920001237,103.47881920001237,103.47881920001237,103.47881920001237,103.47881920001237,104.81005800000275,104.81005800000275,104.81005800000275,104.81005800000275,104.81005800000275,104.81005800000275,104.81005800000275,53,29,68,62,62,60,104.81005800000275,106.32806180001353,,,,,,,,,,,,,,３３３,f,２３,2023-05-21_10h08.46.307,RL,2022.2.5,60.09474536940874,
52,32,57,67,0,12,12,12,,,,,,,,,,,None,106.32806180001353,106.32806180001353,106.32806180001353,106.32806180001353,106.32806180001353,106.32806180001353,r,0.8124960000277497,107.16171310000937,107.16171310000937,107.16171310000937,107.16171310000937,107.16171310000937,107.16171310000937,107.44515139999567,108.52825480001047,108.54437010001857,108.54437010001857,108.54437010001857,108.54437010001857,108.54437010001857,108.54437010001857,108.54437010001857,108.54437010001857,108.54437010001857,108.54437010001857,108.54437010001857,108.54437010001857,108.54437010001857,109.92641300000832,109.92641300000832,109.92641300000832,109.92641300000832,109.92641300000832,109.92641300000832,109.92641300000832,52,32,57,67,32,60,109.92641300000832,111.81032940000296,,,,,,,,,,,,,,３３３,f,２３,2023-05-21_10h08.46.307,RL,2022.2.5,60.09474536940874,
63,34,42,70,0,13,13,13,,,,,,,,,,,None,111.81032940000296,111.81032940000296,111.81032940000296,111.81032940000296,111.81032940000296,111.81032940000296,j,0.4034049999900162,112.24416550001479,112.24416550001479,112.24416550001479,112.24416550001479,112.24416550001479,112.24416550001479,112.52728850001586,114.14403210001183,114.16032620001351,114.16032620001351,114.16032620001351,114.16032620001351,114.16032620001351,114.16032620001351,114.16032620001351,114.16032620001351,114.16032620001351,114.16032620001351,114.16032620001351,114.16032620001351,114.16032620001351,116.07489580000401,116.07489580000401,116.07489580000401,116.07489580000401,116.07489580000401,116.07489580000401,116.07489580000401,63,34,42,70,70,60,116.07489580000401,117.7260021000111,,,,,,,,,,,,,,３３３,f,２３,2023-05-21_10h08.46.307,RL,2022.2.5,60.09474536940874,
59,30,45,70,0,14,14,14,,,,,,,,,,,None,117.7260021000111,117.7260021000111,117.7260021000111,117.7260021000111,117.7260021000111,117.7260021000111,j,0.5232880000257865,118.27757299999939,118.27757299999939,118.27757299999939,118.27757299999939,118.27757299999939,118.27757299999939,118.55965860001743,120.35934049999923,120.37603119999403,120.37603119999403,120.37603119999403,120.37603119999403,120.37603119999403,120.37603119999403,120.37603119999403,120.37603119999403,120.37603119999403,120.37603119999403,120.37603119999403,120.37603119999403,120.37603119999403,122.47387270000763,122.47387270000763,122.47387270000763,122.47387270000763,122.47387270000763,122.47387270000763,122.47387270000763,59,30,45,70,70,60,122.47387270000763,124.47489000001224,,,,,,,,,,,,,,３３３,f,２３,2023-05-21_10h08.46.307,RL,2022.2.5,60.09474536940874,
51,30,41,69,0,15,15,15,,,,,,,,,,,None,124.47489000001224,124.47489000001224,124.47489000001224,124.47489000001224,124.47489000001224,124.47489000001224,j,0.35648349998518825,124.86096910000197,124.86096910000197,124.86096910000197,124.86096910000197,124.86096910000197,124.86096910000197,125.15857800000231,126.74137910001446,126.74137910001446,126.74137910001446,126.74137910001446,126.74137910001446,126.74137910001446,126.74137910001446,126.74137910001446,126.74137910001446,126.74137910001446,126.74137910001446,126.74137910001446,126.74137910001446,126.74137910001446,128.6228125000198,128.6228125000198,128.6228125000198,128.6228125000198,128.6228125000198,128.6228125000198,128.6228125000198,51,30,41,69,69,60,128.6228125000198,130.44057219999377,,,,,,,,,,,,,,３３３,f,２３,2023-05-21_10h08.46.307,RL,2022.2.5,60.09474536940874,
63,26,41,64,0,16,16,16,,,,,,,,,,,None,130.44057219999377,130.44057219999377,130.44057219999377,130.44057219999377,130.44057219999377,130.44057219999377,j,0.36291320002055727,130.82467480000923,130.82467480000923,130.82467480000923,130.82467480000923,130.82467480000923,130.82467480000923,131.10769580001943,132.12399789999472,132.14071989999502,132.14071989999502,132.14071989999502,132.14071989999502,132.14071989999502,132.14071989999502,132.14071989999502,132.14071989999502,132.14071989999502,132.14071989999502,132.14071989999502,132.14071989999502,132.14071989999502,133.45524199999636,133.45524199999636,133.45524199999636,133.45524199999636,133.45524199999636,133.45524199999636,133.45524199999636,63,26,41,64,64,60,133.45524199999636,135.38959390000673,,,,,,,,,,,,,,３３３,f,２３,2023-05-21_10h08.46.307,RL,2022.2.5,60.09474536940874,
58,23,36,62,0,17,17,17,,,,,,,,,,,None,135.38959390000673,135.38959390000673,135.38959390000673,135.38959390000673,135.38959390000673,135.38959390000673,i,0.5234250999928918,135.9403086999955,135.9403086999955,135.9403086999955,135.9403086999955,135.9403086999955,135.9403086999955,136.22325629999978,138.18958390000626,138.20611990001635,138.20611990001635,138.20611990001635,138.20611990001635,138.20611990001635,138.20611990001635,138.20611990001635,138.20611990001635,138.20611990001635,138.20611990001635,138.20611990001635,138.20611990001635,138.20611990001635,140.4707577000081,140.4707577000081,140.4707577000081,140.4707577000081,140.4707577000081,140.4707577000081,140.4707577000081,58,23,36,62,36,60,140.4707577000081,142.45510570000624,,,,,,,,,,,,,,３３３,f,２３,2023-05-21_10h08.46.307,RL,2022.2.5,60.09474536940874,
65,25,41,71,0,18,18,18,,,,,,,,,,,None,142.45510570000624,142.45510570000624,142.45510570000624,142.45510570000624,142.45510570000624,142.45510570000624,j,0.26972479998948984,142.75946620001923,142.75946620001923,142.75946620001923,142.75946620001923,142.75946620001923,142.75946620001923,143.03899010000168,144.4050552000117,144.4220305000199,144.4220305000199,144.4220305000199,144.4220305000199,144.4220305000199,144.4220305000199,144.4220305000199,144.4220305000199,144.4220305000199,144.4220305000199,144.4220305000199,144.4220305000199,144.4220305000199,146.08621300000232,146.08621300000232,146.08621300000232,146.08621300000232,146.08621300000232,146.08621300000232,146.08621300000232,65,25,41,71,71,60,146.08621300000232,147.88749419999658,,,,,,,,,,,,,,３３３,f,２３,2023-05-21_10h08.46.307,RL,2022.2.5,60.09474536940874,
57,28,38,71,0,19,19,19,,,,,,,,,,,None,147.88749419999658,147.88749419999658,147.88749419999658,147.88749419999658,147.88749419999658,147.88749419999658,j,0.48281270000734366,148.3899857000215,148.3899857000215,148.3899857000215,148.3899857000215,148.3899857000215,148.3899857000215,148.68817599999602,150.6212107000174,150.6212107000174,150.6212107000174,150.6212107000174,150.6212107000174,150.6212107000174,150.6212107000174,150.6212107000174,150.6212107000174,150.6212107000174,150.6212107000174,150.6212107000174,150.6212107000174,150.6212107000174,152.85184099999606,152.85184099999606,152.85184099999606,152.85184099999606,152.85184099999606,152.85184099999606,152.85184099999606,57,28,38,71,71,60,152.85184099999606,154.40325840000878,,,,,,,,,,,,,,３３３,f,２３,2023-05-21_10h08.46.307,RL,2022.2.5,60.09474536940874,
55,29,32,66,0,20,20,20,,,,,,,,,,,None,154.40325840000878,154.40325840000878,154.40325840000878,154.40325840000878,154.40325840000878,154.40325840000878,j,0.494637399999192,154.92037810001057,154.92037810001057,154.92037810001057,154.92037810001057,154.92037810001057,154.92037810001057,155.20340450000367,156.1865373000037,156.2033009000006,156.2033009000006,156.2033009000006,156.2033009000006,156.2033009000006,156.2033009000006,156.2033009000006,156.2033009000006,156.2033009000006,156.2033009000006,156.2033009000006,156.2033009000006,156.2033009000006,157.48442740002065,157.48442740002065,157.48442740002065,157.48442740002065,157.48442740002065,157.48442740002065,157.48442740002065,55,29,32,66,66,60,157.48442740002065,159.13559419999365,,,,,,,,,,,,,,３３３,f,２３,2023-05-21_10h08.46.307,RL,2022.2.5,60.09474536940874,
60,11,41,70,0,21,21,21,,,,,,,,,,,None,159.13559419999365,159.13559419999365,159.13559419999365,159.13559419999365,159.13559419999365,159.13559419999365,j,0.5151429000252392,159.66927280000527,159.66927280000527,159.66927280000527,159.66927280000527,159.66927280000527,159.66927280000527,159.96910040001967,161.60199439999997,161.60199439999997,161.60199439999997,161.60199439999997,161.60199439999997,161.60199439999997,161.60199439999997,161.60199439999997,161.60199439999997,161.60199439999997,161.60199439999997,161.60199439999997,161.60199439999997,161.60199439999997,163.53332079999382,163.53332079999382,163.53332079999382,163.53332079999382,163.53332079999382,163.53332079999382,163.53332079999382,60,11,41,70,70,60,163.53332079999382,165.50104870001087,,,,,,,,,,,,,,３３３,f,２３,2023-05-21_10h08.46.307,RL,2022.2.5,60.09474536940874,
52,19,35,72,0,22,22,22,,,,,,,,,,,None,165.50104870001087,165.50104870001087,165.50104870001087,165.50104870001087,165.50104870001087,165.50104870001087,j,0.6035865000158083,166.13565310000558,166.13565310000558,166.13565310000558,166.13565310000558,166.13565310000558,166.13565310000558,166.41795910001383,168.23433350000414,168.25145209999755,168.25145209999755,168.25145209999755,168.25145209999755,168.25145209999755,168.25145209999755,168.25145209999755,168.25145209999755,168.25145209999755,168.25145209999755,168.25145209999755,168.25145209999755,168.25145209999755,170.36575739999535,170.36575739999535,170.36575739999535,170.36575739999535,170.36575739999535,170.36575739999535,170.36575739999535,52,19,35,72,72,60,170.36575739999535,172.24978700000793,,,,,,,,,,,,,,３３３,f,２３,2023-05-21_10h08.46.307,RL,2022.2.5,60.09474536940874,
55,19,37,63,0,23,23,23,,,,,,,,,,,None,172.24978700000793,172.24978700000793,172.24978700000793,172.24978700000793,172.24978700000793,172.24978700000793,j,0.3526988999801688,172.6341650999966,172.6341650999966,172.6341650999966,172.6341650999966,172.6341650999966,172.6341650999966,172.91687780001666,173.81647160000284,173.8335334000003,173.8335334000003,173.8335334000003,173.8335334000003,173.8335334000003,173.8335334000003,173.8335334000003,173.8335334000003,173.8335334000003,173.8335334000003,173.8335334000003,173.8335334000003,173.8335334000003,175.03121149999788,175.03121149999788,175.03121149999788,175.03121149999788,175.03121149999788,175.03121149999788,175.03121149999788,55,19,37,63,63,60,175.03121149999788,176.58264840001357,,,,,,,,,,,,,,３３３,f,２３,2023-05-21_10h08.46.307,RL,2022.2.5,60.09474536940874,
51,31,34,63,0,24,24,24,,,,,,,,,,,None,176.58264840001357,176.58264840001357,176.58264840001357,176.58264840001357,176.58264840001357,176.58264840001357,j,0.5256255000131205,177.13326880001114,177.13326880001114,177.13326880001114,177.13326880001114,177.13326880001114,177.13326880001114,177.41604780001217,178.2658775000018,178.2825421000016,178.2825421000016,178.2825421000016,178.2825421000016,178.2825421000016,178.2825421000016,178.2825421000016,178.2825421000016,178.2825421000016,178.2825421000016,178.2825421000016,178.2825421000016,178.2825421000016,179.4307395000069,179.4307395000069,179.4307395000069,179.4307395000069,179.4307395000069,179.4307395000069,179.4307395000069,51,31,34,63,63,60,179.4307395000069,180.9983610000054,,,,,,,,,,,,,,３３３,f,２３,2023-05-21_10h08.46.307,RL,2022.2.5,60.09474536940874,
59,30,32,65,0,25,25,25,,,,,,,,,,,None,180.9983610000054,180.9983610000054,180.9983610000054,180.9983610000054,180.9983610000054,180.9983610000054,j,0.36949250000179745,181.39895350000006,181.39895350000006,181.39895350000006,181.39895350000006,181.39895350000006,181.39895350000006,181.68203660001745,183.24832030001562,183.26483970001573,183.26483970001573,183.26483970001573,183.26483970001573,183.26483970001573,183.26483970001573,183.26483970001573,183.26483970001573,183.26483970001573,183.26483970001573,183.26483970001573,183.26483970001573,183.26483970001573,185.12986099999398,185.12986099999398,185.12986099999398,185.12986099999398,185.12986099999398,185.12986099999398,185.12986099999398,59,30,32,65,65,60,185.12986099999398,186.98070820001885,,,,,,,,,,,,,,３３３,f,２３,2023-05-21_10h08.46.307,RL,2022.2.5,60.09474536940874,
44,16,30,70,0,26,26,26,,,,,,,,,,,None,186.98070820001885,186.98070820001885,186.98070820001885,186.98070820001885,186.98070820001885,186.98070820001885,j,0.4986919999937527,187.4981175000139,187.4981175000139,187.4981175000139,187.4981175000139,187.4981175000139,187.4981175000139,187.7975701999967,189.3807672999974,189.3973798000079,189.3973798000079,189.3973798000079,189.3973798000079,189.3973798000079,189.3973798000079,189.3973798000079,189.3973798000079,189.3973798000079,189.3973798000079,189.3973798000079,189.3973798000079,189.3973798000079,191.29520449999836,191.29520449999836,191.29520449999836,191.29520449999836,191.29520449999836,191.29520449999836,191.29520449999836,44,16,30,70,70,60,191.29520449999836,193.1793389999948,,,,,,,,,,,,,,３３３,f,２３,2023-05-21_10h08.46.307,RL,2022.2.5,60.09474536940874,
57,8,32,67,0,27,27,27,,,,,,,,,,,None,193.1793389999948,193.1793389999948,193.1793389999948,193.1793389999948,193.1793389999948,193.1793389999948,j,0.40761739999288693,193.61354170000413,193.61354170000413,193.61354170000413,193.61354170000413,193.61354170000413,193.61354170000413,193.89643590000924,195.4129394000047,195.42947240002104,195.42947240002104,195.42947240002104,195.42947240002104,195.42947240002104,195.42947240002104,195.42947240002104,195.42947240002104,195.42947240002104,195.42947240002104,195.42947240002104,195.42947240002104,195.42947240002104,197.24433430001955,197.24433430001955,197.24433430001955,197.24433430001955,197.24433430001955,197.24433430001955,197.24433430001955,57,8,32,67,67,60,197.24433430001955,198.761963500001,,,,,,,,,,,,,,３３３,f,２３,2023-05-21_10h08.46.307,RL,2022.2.5,60.09474536940874,
50,6,33,53,0,28,28,28,,,,,,,,,,,None,198.761963500001,198.761963500001,198.761963500001,198.761963500001,198.761963500001,198.761963500001,j,0.39055759998154826,199.1806964999996,199.1806964999996,199.1806964999996,199.1806964999996,199.1806964999996,199.1806964999996,199.46280969999498,200.67858550001984,200.69518750000861,200.69518750000861,200.69518750000861,200.69518750000861,200.69518750000861,200.69518750000861,200.69518750000861,200.69518750000861,200.69518750000861,200.69518750000861,200.69518750000861,200.69518750000861,200.69518750000861,202.21043070001178,202.21043070001178,202.21043070001178,202.21043070001178,202.21043070001178,202.21043070001178,202.21043070001178,50,6,33,53,53,60,202.21043070001178,204.0612902000139,,,,,,,,,,,,,,３３３,f,２３,2023-05-21_10h08.46.307,RL,2022.2.5,60.09474536940874,
50,12,30,57,0,29,29,29,,,,,,,,,,,None,204.0612902000139,204.0612902000139,204.0612902000139,204.0612902000139,204.0612902000139,204.0612902000139,f,0.32336720000603236,204.4128092000028,204.4128092000028,204.4128092000028,204.4128092000028,204.4128092000028,204.4128092000028,204.71132639999269,206.6944485999993,206.6944485999993,206.6944485999993,206.6944485999993,206.6944485999993,206.6944485999993,206.6944485999993,206.6944485999993,206.6944485999993,206.6944485999993,206.6944485999993,206.6944485999993,206.6944485999993,206.6944485999993,208.97539340000367,208.97539340000367,208.97539340000367,208.97539340000367,208.97539340000367,208.97539340000367,208.97539340000367,50,12,30,57,50,60,208.97539340000367,210.70978269999614,,,,,,,,,,,,,,３３３,f,２３,2023-05-21_10h08.46.307,RL,2022.2.5,60.09474536940874,
51,3,29,62,0,30,30,30,,,,,,,,,,,None,210.70978269999614,210.70978269999614,210.70978269999614,210.70978269999614,210.70978269999614,210.70978269999614,r,0.7856116000039037,211.5268805999949,211.5268805999949,211.5268805999949,211.5268805999949,211.5268805999949,211.5268805999949,211.8103362999973,213.44362140001613,213.45977620000485,213.45977620000485,213.45977620000485,213.45977620000485,213.45977620000485,213.45977620000485,213.45977620000485,213.45977620000485,213.45977620000485,213.45977620000485,213.45977620000485,213.45977620000485,213.45977620000485,215.39116689999355,215.39116689999355,215.39116689999355,215.39116689999355,215.39116689999355,215.39116689999355,215.39116689999355,51,3,29,62,3,60,215.39116689999355,217.2752376999997,,,,,,,,,,,,,,３３３,f,２３,2023-05-21_10h08.46.307,RL,2022.2.5,60.09474536940874,
65,8,31,52,0,31,31,31,,,,,,,,,,,None,217.2752376999997,217.2752376999997,217.2752376999997,217.2752376999997,217.2752376999997,217.2752376999997,j,0.4975237000035122,217.79297440001392,217.79297440001392,217.79297440001392,217.79297440001392,217.79297440001392,217.79297440001392,218.07567580000614,219.4419108000002,219.45915939999395,219.45915939999395,219.45915939999395,219.45915939999395,219.45915939999395,219.45915939999395,219.45915939999395,219.45915939999395,219.45915939999395,219.45915939999395,219.45915939999395,219.45915939999395,219.45915939999395,221.12365470000077,221.12365470000077,221.12365470000077,221.12365470000077,221.12365470000077,221.12365470000077,221.12365470000077,65,8,31,52,52,60,221.12365470000077,222.82424479999463,,,,,,,,,,,,,,３３３,f,２３,2023-05-21_10h08.46.307,RL,2022.2.5,60.09474536940874,
52,4,25,62,0,32,32,32,,,,,,,,,,,None,222.82424479999463,222.82424479999463,222.82424479999463,222.82424479999463,222.82424479999463,222.82424479999463,i,0.27771409999695607,223.12497460001032,223.12497460001032,223.12497460001032,223.12497460001032,223.12497460001032,223.12497460001032,223.42486480000662,225.30761270000949,225.30761270000949,225.30761270000949,225.30761270000949,225.30761270000949,225.30761270000949,225.30761270000949,225.30761270000949,225.30761270000949,225.30761270000949,225.30761270000949,225.30761270000949,225.30761270000949,225.30761270000949,227.48880009999266,227.48880009999266,227.48880009999266,227.48880009999266,227.48880009999266,227.48880009999266,227.48880009999266,52,4,25,62,25,60,227.48880009999266,229.30657590000192,,,,,,,,,,,,,,３３３,f,２３,2023-05-21_10h08.46.307,RL,2022.2.5,60.09474536940874,
54,9,27,54,0,33,33,33,,,,,,,,,,,None,229.30657590000192,229.30657590000192,229.30657590000192,229.30657590000192,229.30657590000192,229.30657590000192,f,0.58495510002831,229.92391810001573,229.92391810001573,229.92391810001573,229.92391810001573,229.92391810001573,229.92391810001573,230.20672529999865,231.30665870002122,231.3232863000012,231.3232863000012,231.3232863000012,231.3232863000012,231.3232863000012,231.3232863000012,231.3232863000012,231.3232863000012,231.3232863000012,231.3232863000012,231.3232863000012,231.3232863000012,231.3232863000012,232.7217004999984,232.7217004999984,232.7217004999984,232.7217004999984,232.7217004999984,232.7217004999984,232.7217004999984,54,9,27,54,54,60,232.7217004999984,234.488974900014,,,,,,,,,,,,,,３３３,f,２３,2023-05-21_10h08.46.307,RL,2022.2.5,60.09474536940874,
58,5,38,57,0,34,34,34,,,,,,,,,,,None,234.488974900014,234.488974900014,234.488974900014,234.488974900014,234.488974900014,234.488974900014,j,0.4783310999919195,234.98960840000655,234.98960840000655,234.98960840000655,234.98960840000655,234.98960840000655,234.98960840000655,235.2728822999925,236.45585550001124,236.47249099999317,236.47249099999317,236.47249099999317,236.47249099999317,236.47249099999317,236.47249099999317,236.47249099999317,236.47249099999317,236.47249099999317,236.47249099999317,236.47249099999317,236.47249099999317,236.47249099999317,237.9541092000145,237.9541092000145,237.9541092000145,237.9541092000145,237.9541092000145,237.9541092000145,237.9541092000145,58,5,38,57,57,60,237.9541092000145,239.6547507000214,,,,,,,,,,,,,,３３３,f,２３,2023-05-21_10h08.46.307,RL,2022.2.5,60.09474536940874,
51,12,35,64,0,35,35,35,,,,,,,,,,,None,239.6547507000214,239.6547507000214,239.6547507000214,239.6547507000214,239.6547507000214,239.6547507000214,f,0.3209912999882363,240.00548049999634,240.00548049999634,240.00548049999634,240.00548049999634,240.00548049999634,240.00548049999634,240.2884774999984,241.82191180001246,241.83822400000645,241.83822400000645,241.83822400000645,241.83822400000645,241.83822400000645,241.83822400000645,241.83822400000645,241.83822400000645,241.83822400000645,241.83822400000645,241.83822400000645,241.83822400000645,241.83822400000645,243.6694921000162,243.6694921000162,243.6694921000162,243.6694921000162,243.6694921000162,243.6694921000162,243.6694921000162,51,12,35,64,51,60,243.6694921000162,245.28728380001849,,,,,,,,,,,,,,３３３,f,２３,2023-05-21_10h08.46.307,RL,2022.2.5,60.09474536940874,
53,5,33,63,0,36,36,36,,,,,,,,,,,None,245.28728380001849,245.28728380001849,245.28728380001849,245.28728380001849,245.28728380001849,245.28728380001849,j,0.341040500003146,245.6544485000195,245.6544485000195,245.6544485000195,245.6544485000195,245.6544485000195,245.6544485000195,245.9540582000045,247.67055900002015,247.67055900002015,247.67055900002015,247.67055900002015,247.67055900002015,247.67055900002015,247.67055900002015,247.67055900002015,247.67055900002015,247.67055900002015,247.67055900002015,247.67055900002015,247.67055900002015,247.67055900002015,249.68503130000317,249.68503130000317,249.68503130000317,249.68503130000317,249.68503130000317,249.68503130000317,249.68503130000317,53,5,33,63,63,60,249.68503130000317,251.35262099999818,,,,,,,,,,,,,,３３３,f,２３,2023-05-21_10h08.46.307,RL,2022.2.5,60.09474536940874,
53,14,38,67,0,37,37,37,,,,,,,,,,,None,251.35262099999818,251.35262099999818,251.35262099999818,251.35262099999818,251.35262099999818,251.35262099999818,j,0.3221775999991223,251.70480380000663,251.70480380000663,251.70480380000663,251.70480380000663,251.70480380000663,251.70480380000663,252.00320060001104,253.5860420000099,253.5860420000099,253.5860420000099,253.5860420000099,253.5860420000099,253.5860420000099,253.5860420000099,253.5860420000099,253.5860420000099,253.5860420000099,253.5860420000099,253.5860420000099,253.5860420000099,253.5860420000099,255.46748930000467,255.46748930000467,255.46748930000467,255.46748930000467,255.46748930000467,255.46748930000467,255.46748930000467,53,14,38,67,67,60,255.46748930000467,257.26867650001077,,,,,,,,,,,,,,３３３,f,２３,2023-05-21_10h08.46.307,RL,2022.2.5,60.09474536940874,
57,20,32,65,0,38,38,38,,,,,,,,,,,None,257.26867650001077,257.26867650001077,257.26867650001077,257.26867650001077,257.26867650001077,257.26867650001077,j,0.5186945000023115,257.818986600003,257.818986600003,257.818986600003,257.818986600003,257.818986600003,257.818986600003,258.10225860000355,260.0686403000145,260.0850826000096,260.0850826000096,260.0850826000096,260.0850826000096,260.0850826000096,260.0850826000096,260.0850826000096,260.0850826000096,260.0850826000096,260.0850826000096,260.0850826000096,260.0850826000096,260.0850826000096,262.3497222000151,262.3497222000151,262.3497222000151,262.3497222000151,262.3497222000151,262.3497222000151,262.3497222000151,57,20,32,65,65,60,262.3497222000151,264.0173460000078,,,,,,,,,,,,,,３３３,f,２３,2023-05-21_10h08.46.307,RL,2022.2.5,60.09474536940874,
51,19,32,70,0,39,39,39,,,,,,,,,,,None,264.0173460000078,264.0173460000078,264.0173460000078,264.0173460000078,264.0173460000078,264.0173460000078,j,0.41397059999872,264.45108970001456,264.45108970001456,264.45108970001456,264.45108970001456,264.45108970001456,264.45108970001456,264.7342086000135,265.8839481000032,265.90065900000627,265.90065900000627,265.90065900000627,265.90065900000627,265.90065900000627,265.90065900000627,265.90065900000627,265.90065900000627,265.90065900000627,265.90065900000627,265.90065900000627,265.90065900000627,265.90065900000627,267.3485942000116,267.3485942000116,267.3485942000116,267.3485942000116,267.3485942000116,267.3485942000116,267.3485942000116,51,19,32,70,70,60,267.3485942000116,269.1829994000145,,,,,,,,,,,,,,３３３,f,２３,2023-05-21_10h08.46.307,RL,2022.2.5,60.09474536940874,
62,9,32,66,0,40,40,40,,,,,,,,,,,None,269.1829994000145,269.1829994000145,269.1829994000145,269.1829994000145,269.1829994000145,269.1829994000145,j,0.3204359000083059,269.5338461000065,269.5338461000065,269.5338461000065,269.5338461000065,269.5338461000065,269.5338461000065,269.8166276999982,270.85005269999965,270.8666934000212,270.8666934000212,270.8666934000212,270.8666934000212,270.8666934000212,270.8666934000212,270.8666934000212,270.8666934000212,270.8666934000212,270.8666934000212,270.8666934000212,270.8666934000212,270.8666934000212,272.1978955999948,272.1978955999948,272.1978955999948,272.1978955999948,272.1978955999948,272.1978955999948,272.1978955999948,62,9,32,66,66,60,272.1978955999948,273.9658633999934,,,,,,,,,,,,,,３３３,f,２３,2023-05-21_10h08.46.307,RL,2022.2.5,60.09474536940874,
72,6,32,53,0,41,41,41,,,,,,,,,,,None,273.9658633999934,273.9658633999934,273.9658633999934,273.9658633999934,273.9658633999934,273.9658633999934,j,0.3210868999885861,274.3216506000026,274.3216506000026,274.3216506000026,274.3216506000026,274.3216506000026,274.3216506000026,274.61586270001135,276.48211899999296,276.48211899999296,276.48211899999296,276.48211899999296,276.48211899999296,276.48211899999296,276.48211899999296,276.48211899999296,276.48211899999296,276.48211899999296,276.48211899999296,276.48211899999296,276.48211899999296,276.48211899999296,278.6467665999953,278.6467665999953,278.6467665999953,278.6467665999953,278.6467665999953,278.6467665999953,278.6467665999953,72,6,32,53,53,60,278.6467665999953,280.5479747999925,,,,,,,,,,,,,,３３３,f,２３,2023-05-21_10h08.46.307,RL,2022.2.5,60.09474536940874,
67,13,31,63,0,42,42,42,,,,,,,,,,,None,280.5479747999925,280.5479747999925,280.5479747999925,280.5479747999925,280.5479747999925,280.5479747999925,j,0.3890166000055615,280.96499370000674,280.96499370000674,280.96499370000674,280.96499370000674,280.96499370000674,280.96499370000674,281.24796470001456,282.1485937999969,282.16444059999776,282.16444059999776,282.16444059999776,282.16444059999776,282.16444059999776,282.16444059999776,282.16444059999776,282.16444059999776,282.16444059999776,282.16444059999776,282.16444059999776,282.16444059999776,282.16444059999776,283.36260009999387,283.36260009999387,283.36260009999387,283.36260009999387,283.36260009999387,283.36260009999387,283.36260009999387,67,13,31,63,63,60,283.36260009999387,285.2634035999945,,,,,,,,,,,,,,３３３,f,２３,2023-05-21_10h08.46.307,RL,2022.2.5,60.09474536940874,
57,13,29,64,0,43,43,43,,,,,,,,,,,None,285.2634035999945,285.2634035999945,285.2634035999945,285.2634035999945,285.2634035999945,285.2634035999945,j,0.37209750001784414,285.6684765999962,285.6684765999962,285.6684765999962,285.6684765999962,285.6684765999962,285.6684765999962,285.9473927000072,287.69686680001905,287.71359270001994,287.71359270001994,287.71359270001994,287.71359270001994,287.71359270001994,287.71359270001994,287.71359270001994,287.71359270001994,287.71359270001994,287.71359270001994,287.71359270001994,287.71359270001994,287.71359270001994,289.7614253000065,289.7614253000065,289.7614253000065,289.7614253000065,289.7614253000065,289.7614253000065,289.7614253000065,57,13,29,64,64,60,289.7614253000065,291.5955927000032,,,,,,,,,,,,,,３３３,f,２３,2023-05-21_10h08.46.307,RL,2022.2.5,60.09474536940874,
56,12,27,64,0,44,44,44,,,,,,,,,,,None,291.5955927000032,291.5955927000032,291.5955927000032,291.5955927000032,291.5955927000032,291.5955927000032,j,0.4045250999915879,292.03102739999304,292.03102739999304,292.03102739999304,292.03102739999304,292.03102739999304,292.03102739999304,292.32945499999914,293.42912360001355,293.42912360001355,293.42912360001355,293.42912360001355,293.42912360001355,293.42912360001355,293.42912360001355,293.42912360001355,293.42912360001355,293.42912360001355,293.42912360001355,293.42912360001355,293.42912360001355,293.42912360001355,294.8272978000168,294.8272978000168,294.8272978000168,294.8272978000168,294.8272978000168,294.8272978000168,294.8272978000168,56,12,27,64,64,60,294.8272978000168,296.6948357000074,,,,,,,,,,,,,,３３３,f,２３,2023-05-21_10h08.46.307,RL,2022.2.5,60.09474536940874,
58,8,18,62,0,45,45,45,,,,,,,,,,,None,296.6948357000074,296.6948357000074,296.6948357000074,296.6948357000074,296.6948357000074,296.6948357000074,j,0.622593699983554,297.34557360000326,297.34557360000326,297.34557360000326,297.34557360000326,297.34557360000326,297.34557360000326,297.6288679999998,299.07830680001643,299.09488930000225,299.09488930000225,299.09488930000225,299.09488930000225,299.09488930000225,299.09488930000225,299.09488930000225,299.09488930000225,299.09488930000225,299.09488930000225,299.09488930000225,299.09488930000225,299.09488930000225,300.8427699000167,300.8427699000167,300.8427699000167,300.8427699000167,300.8427699000167,300.8427699000167,300.8427699000167,58,8,18,62,62,60,300.8427699000167,302.54399239999475,,,,,,,,,,,,,,３３３,f,２３,2023-05-21_10h08.46.307,RL,2022.2.5,60.09474536940874,
50,11,23,62,0,46,46,46,,,,,,,,,,,None,302.54399239999475,302.54399239999475,302.54399239999475,302.54399239999475,302.54399239999475,302.54399239999475,j,0.6299236999766435,303.1944263000041,303.1944263000041,303.1944263000041,303.1944263000041,303.1944263000041,303.1944263000041,303.477512100013,304.79396400001133,304.81053849999444,304.81053849999444,304.81053849999444,304.81053849999444,304.81053849999444,304.81053849999444,304.81053849999444,304.81053849999444,304.81053849999444,304.81053849999444,304.81053849999444,304.81053849999444,304.81053849999444,306.4252904000168,306.4252904000168,306.4252904000168,306.4252904000168,306.4252904000168,306.4252904000168,306.4252904000168,50,11,23,62,62,60,306.4252904000168,308.17647890001535,,,,,,,,,,,,,,３３３,f,２３,2023-05-21_10h08.46.307,RL,2022.2.5,60.09474536940874,
52,17,32,62,0,47,47,47,,,,,,,,,,,None,308.17647890001535,308.17647890001535,308.17647890001535,308.17647890001535,308.17647890001535,308.17647890001535,j,0.30777970000053756,308.5114964999957,308.5114964999957,308.5114964999957,308.5114964999957,308.5114964999957,308.5114964999957,308.7936166000145,310.7262882000068,310.74322850001045,310.74322850001045,310.74322850001045,310.74322850001045,310.74322850001045,310.74322850001045,310.74322850001045,310.74322850001045,310.74322850001045,310.74322850001045,310.74322850001045,310.74322850001045,310.74322850001045,312.9741778000025,312.9741778000025,312.9741778000025,312.9741778000025,312.9741778000025,312.9741778000025,312.9741778000025,52,17,32,62,62,60,312.9741778000025,314.50843200000236,,,,,,,,,,,,,,３３３,f,２３,2023-05-21_10h08.46.307,RL,2022.2.5,60.09474536940874,
49,12,27,60,0,48,48,48,,,,,,,,,,,None,314.50843200000236,314.50843200000236,314.50843200000236,314.50843200000236,314.50843200000236,314.50843200000236,j,0.3327591000124812,314.85900590001256,314.85900590001256,314.85900590001256,314.85900590001256,314.85900590001256,314.85900590001256,315.14230760000646,316.92550169999595,316.94185170001583,316.94185170001583,316.94185170001583,316.94185170001583,316.94185170001583,316.94185170001583,316.94185170001583,316.94185170001583,316.94185170001583,316.94185170001583,316.94185170001583,316.94185170001583,316.94185170001583,319.02305390001857,319.02305390001857,319.02305390001857,319.02305390001857,319.02305390001857,319.02305390001857,319.02305390001857,49,12,27,60,60,60,319.02305390001857,320.8237797000038,,,,,,,,,,,,,,３３３,f,２３,2023-05-21_10h08.46.307,RL,2022.2.5,60.09474536940874,
44,20,26,58,0,49,49,49,,,,,,,,,,,None,320.8237797000038,320.8237797000038,320.8237797000038,320.8237797000038,320.8237797000038,320.8237797000038,f,0.5550372000143398,321.4111974000116,321.4111974000116,321.4111974000116,321.4111974000116,321.4111974000116,321.4111974000116,321.6910153000208,322.8909275000042,322.90735640001367,322.90735640001367,322.90735640001367,322.90735640001367,322.90735640001367,322.90735640001367,322.90735640001367,322.90735640001367,322.90735640001367,322.90735640001367,322.90735640001367,322.90735640001367,322.90735640001367,324.40522710001096,324.40522710001096,324.40522710001096,324.40522710001096,324.40522710001096,324.40522710001096,324.40522710001096,44,20,26,58,44,60,324.40522710001096,326.05663870001445,,,,,,,,,,,,,,３３３,f,２３,2023-05-21_10h08.46.307,RL,2022.2.5,60.09474536940874,
37,11,33,62,0,50,50,50,,,,,,,,,,,None,326.05663870001445,326.05663870001445,326.05663870001445,326.05663870001445,326.05663870001445,326.05663870001445,j,0.31791379998321645,326.4120739999926,326.4120739999926,326.4120739999926,326.4120739999926,326.4120739999926,326.4120739999926,326.6901198000123,327.5066029000154,327.5400105000008,327.5400105000008,327.5400105000008,327.5400105000008,327.5400105000008,327.5400105000008,327.5400105000008,327.5400105000008,327.5400105000008,327.5400105000008,327.5400105000008,327.5400105000008,327.5400105000008,328.65472489999956,328.65472489999956,328.65472489999956,328.65472489999956,328.65472489999956,328.65472489999956,328.65472489999956,37,11,33,62,62,60,328.65472489999956,330.322270500008,,,,,,,,,,,,,,３３３,f,２３,2023-05-21_10h08.46.307,RL,2022.2.5,60.09474536940874,
43,19,22,58,0,51,51,51,,,,,,,,,,,None,330.322270500008,330.322270500008,330.322270500008,330.322270500008,330.322270500008,330.322270500008,j,1.1722920999745838,331.5227606999979,331.5227606999979,331.5227606999979,331.5227606999979,331.5227606999979,331.5227606999979,331.80577740000444,332.8895196999947,332.9056883000012,332.9056883000012,332.9056883000012,332.9056883000012,332.9056883000012,332.9056883000012,332.9056883000012,332.9056883000012,332.9056883000012,332.9056883000012,332.9056883000012,332.9056883000012,332.9056883000012,334.28717320002033,334.28717320002033,334.28717320002033,334.28717320002033,334.28717320002033,334.28717320002033,334.28717320002033,43,19,22,58,58,60,334.28717320002033,335.8379392000206,,,,,,,,,,,,,,３３３,f,２３,2023-05-21_10h08.46.307,RL,2022.2.5,60.09474536940874,
50,21,39,52,0,52,52,52,,,,,,,,,,,None,335.8379392000206,335.8379392000206,335.8379392000206,335.8379392000206,335.8379392000206,335.8379392000206,j,0.41629999998258427,336.271979800018,336.271979800018,336.271979800018,336.271979800018,336.271979800018,336.271979800018,336.5549635000061,338.1547059000004,338.17159340000944,338.17159340000944,338.17159340000944,338.17159340000944,338.17159340000944,338.17159340000944,338.17159340000944,338.17159340000944,338.17159340000944,338.17159340000944,338.17159340000944,338.17159340000944,338.17159340000944,340.06936310001765,340.06936310001765,340.06936310001765,340.06936310001765,340.06936310001765,340.06936310001765,340.06936310001765,50,21,39,52,52,60,340.06936310001765,342.0370222000056,,,,,,,,,,,,,,３３３,f,２３,2023-05-21_10h08.46.307,RL,2022.2.5,60.09474536940874,
55,25,31,59,0,53,53,53,,,,,,,,,,,None,342.0370222000056,342.0370222000056,342.0370222000056,342.0370222000056,342.0370222000056,342.0370222000056,f,0.32046649997937493,342.38773230000515,342.38773230000515,342.38773230000515,342.38773230000515,342.38773230000515,342.38773230000515,342.67070849999436,344.4543169999961,344.4703925999929,344.4703925999929,344.4703925999929,344.4703925999929,344.4703925999929,344.4703925999929,344.4703925999929,344.4703925999929,344.4703925999929,344.4703925999929,344.4703925999929,344.4703925999929,344.4703925999929,346.55154850002145,346.55154850002145,346.55154850002145,346.55154850002145,346.55154850002145,346.55154850002145,346.55154850002145,55,25,31,59,55,60,346.55154850002145,348.2192286000063,,,,,,,,,,,,,,３３３,f,２３,2023-05-21_10h08.46.307,RL,2022.2.5,60.09474536940874,
58,22,36,48,0,54,54,54,,,,,,,,,,,None,348.2192286000063,348.2192286000063,348.2192286000063,348.2192286000063,348.2192286000063,348.2192286000063,i,0.35209639999084175,348.6077319000033,348.6077319000033,348.6077319000033,348.6077319000033,348.6077319000033,348.6077319000033,348.88617380001233,350.8191177000117,350.8524685000011,350.8524685000011,350.8524685000011,350.8524685000011,350.8524685000011,350.8524685000011,350.8524685000011,350.8524685000011,350.8524685000011,350.8524685000011,350.8524685000011,350.8524685000011,350.8524685000011,353.08398580001085,353.08398580001085,353.08398580001085,353.08398580001085,353.08398580001085,353.08398580001085,353.08398580001085,58,22,36,48,36,60,353.08398580001085,354.8179972000071,,,,,,,,,,,,,,３３３,f,２３,2023-05-21_10h08.46.307,RL,2022.2.5,60.09474536940874,
59,21,28,46,0,55,55,55,,,,,,,,,,,None,354.8179972000071,354.8179972000071,354.8179972000071,354.8179972000071,354.8179972000071,354.8179972000071,j,0.27942459998303093,355.1191252999997,355.1191252999997,355.1191252999997,355.1191252999997,355.1191252999997,355.1191252999997,355.40192289999686,357.00163220000104,357.0181511999981,357.0181511999981,357.0181511999981,357.0181511999981,357.0181511999981,357.0181511999981,357.0181511999981,357.0181511999981,357.0181511999981,357.0181511999981,357.0181511999981,357.0181511999981,357.0181511999981,358.9158937000029,358.9158937000029,358.9158937000029,358.9158937000029,358.9158937000029,358.9158937000029,358.9158937000029,59,21,28,46,46,60,358.9158937000029,360.73387530000764,,,,,,,,,,,,,,３３３,f,２３,2023-05-21_10h08.46.307,RL,2022.2.5,60.09474536940874,
66,28,23,47,0,56,56,56,,,,,,,,,,,None,360.73387530000764,360.73387530000764,360.73387530000764,360.73387530000764,360.73387530000764,360.73387530000764,r,0.5185504000110086,361.28901189999306,361.28901189999306,361.28901189999306,361.28901189999306,361.28901189999306,361.28901189999306,361.56749430001946,362.60056059999624,362.61756690000766,362.61756690000766,362.61756690000766,362.61756690000766,362.61756690000766,362.61756690000766,362.61756690000766,362.61756690000766,362.61756690000766,362.61756690000766,362.61756690000766,362.61756690000766,362.61756690000766,363.9485879999993,363.9485879999993,363.9485879999993,363.9485879999993,363.9485879999993,363.9485879999993,363.9485879999993,66,28,23,47,28,60,363.9485879999993,365.69941110000946,,,,,,,,,,,,,,３３３,f,２３,2023-05-21_10h08.46.307,RL,2022.2.5,60.09474536940874,
65,24,30,54,0,57,57,57,,,,,,,,,,,None,365.69941110000946,365.69941110000946,365.69941110000946,365.69941110000946,365.69941110000946,365.69941110000946,j,0.2877736999944318,366.01681940001436,366.01681940001436,366.01681940001436,366.01681940001436,366.01681940001436,366.01681940001436,366.3164908000035,367.92162470001495,367.92162470001495,367.92162470001495,367.92162470001495,367.92162470001495,367.92162470001495,367.92162470001495,367.92162470001495,367.92162470001495,367.92162470001495,367.92162470001495,367.92162470001495,367.92162470001495,367.92162470001495,369.79774730000645,369.79774730000645,369.79774730000645,369.79774730000645,369.79774730000645,369.79774730000645,369.79774730000645,65,24,30,54,54,60,369.79774730000645,371.3485551000049,,,,,,,,,,,,,,３３３,f,２３,2023-05-21_10h08.46.307,RL,2022.2.5,60.09474536940874,
48,23,22,51,0,58,58,58,,,,,,,,,,,None,371.3485551000049,371.3485551000049,371.3485551000049,371.3485551000049,371.3485551000049,371.3485551000049,j,0.3417292000085581,371.71587569999974,371.71587569999974,371.71587569999974,371.71587569999974,371.71587569999974,371.71587569999974,371.998980400007,373.36520550001296,373.3818977000192,373.3818977000192,373.3818977000192,373.3818977000192,373.3818977000192,373.3818977000192,373.3818977000192,373.3818977000192,373.3818977000192,373.3818977000192,373.3818977000192,373.3818977000192,373.3818977000192,375.04654159999336,375.04654159999336,375.04654159999336,375.04654159999336,375.04654159999336,375.04654159999336,375.04654159999336,48,23,22,51,51,60,375.04654159999336,376.8477786000003,,,,,,,,,,,,,,３３３,f,２３,2023-05-21_10h08.46.307,RL,2022.2.5,60.09474536940874,
52,30,31,59,0,59,59,59,,,,,,,,,,,None,376.8477786000003,376.8477786000003,376.8477786000003,376.8477786000003,376.8477786000003,376.8477786000003,f,0.34827210000366904,377.2153493000078,377.2153493000078,377.2153493000078,377.2153493000078,377.2153493000078,377.2153493000078,377.51486220001243,378.39784130000044,378.39784130000044,378.39784130000044,378.39784130000044,378.39784130000044,378.39784130000044,378.39784130000044,378.39784130000044,378.39784130000044,378.39784130000044,378.39784130000044,378.39784130000044,378.39784130000044,378.39784130000044,379.57908450000104,379.57908450000104,379.57908450000104,379.57908450000104,379.57908450000104,379.57908450000104,379.57908450000104,52,30,31,59,52,60,379.57908450000104,381.1969228000089,,,,,,,,,,,,,,３３３,f,２３,2023-05-21_10h08.46.307,RL,2022.2.5,60.09474536940874,
46,15,23,55,0,60,60,60,,,,,,,,,,,None,381.1969228000089,381.1969228000089,381.1969228000089,381.1969228000089,381.1969228000089,381.1969228000089,j,0.314059999975143,381.5307594000187,381.5307594000187,381.5307594000187,381.5307594000187,381.5307594000187,381.5307594000187,381.81385170001886,382.8969669000071,382.91356099999393,382.91356099999393,382.91356099999393,382.91356099999393,382.91356099999393,382.91356099999393,382.91356099999393,382.91356099999393,382.91356099999393,382.91356099999393,382.91356099999393,382.91356099999393,382.91356099999393,384.29517870000564,384.29517870000564,384.29517870000564,384.29517870000564,384.29517870000564,384.29517870000564,384.29517870000564,46,15,23,55,55,60,384.29517870000564,385.9795145000098,,,,,,,,,,,,,,３３３,f,２３,2023-05-21_10h08.46.307,RL,2022.2.5,60.09474536940874,
48,17,23,52,0,61,61,61,,,,,,,,,,,None,385.9795145000098,385.9795145000098,385.9795145000098,385.9795145000098,385.9795145000098,385.9795145000098,f,0.4620772000052966,386.46324209999875,386.46324209999875,386.46324209999875,386.46324209999875,386.46324209999875,386.46324209999875,386.74638749999576,388.42940459999954,388.44589550001547,388.44589550001547,388.44589550001547,388.44589550001547,388.44589550001547,388.44589550001547,388.44589550001547,388.44589550001547,388.44589550001547,388.44589550001547,388.44589550001547,388.44589550001547,388.44589550001547,390.42726180001046,390.42726180001046,390.42726180001046,390.42726180001046,390.42726180001046,390.42726180001046,390.42726180001046,48,17,23,52,48,60,390.42726180001046,392.1784630000184,,,,,,,,,,,,,,３３３,f,２３,2023-05-21_10h08.46.307,RL,2022.2.5,60.09474536940874,
51,22,36,50,0,62,62,62,,,,,,,,,,,None,392.1784630000184,392.1784630000184,392.1784630000184,392.1784630000184,392.1784630000184,392.1784630000184,j,0.33118520001880825,392.52952670000377,392.52952670000377,392.52952670000377,392.52952670000377,392.52952670000377,392.52952670000377,392.8285159000079,394.3283698000014,394.3283698000014,394.3283698000014,394.3283698000014,394.3283698000014,394.3283698000014,394.3283698000014,394.3283698000014,394.3283698000014,394.3283698000014,394.3283698000014,394.3283698000014,394.3283698000014,394.3283698000014,396.1262673000165,396.1262673000165,396.1262673000165,396.1262673000165,396.1262673000165,396.1262673000165,396.1262673000165,51,22,36,50,50,60,396.1262673000165,397.6773324999958,,,,,,,,,,,,,,３３３,f,２３,2023-05-21_10h08.46.307,RL,2022.2.5,60.09474536940874,
58,21,38,52,0,63,63,63,,,,,,,,,,,None,397.6773324999958,397.6773324999958,397.6773324999958,397.6773324999958,397.6773324999958,397.6773324999958,j,0.3359710999939125,398.04826969999704,398.04826969999704,398.04826969999704,398.04826969999704,398.04826969999704,398.04826969999704,398.3276557000063,399.5942563000135,399.611204899993,399.611204899993,399.611204899993,399.611204899993,399.611204899993,399.611204899993,399.611204899993,399.611204899993,399.611204899993,399.611204899993,399.611204899993,399.611204899993,399.611204899993,401.17541039999924,401.17541039999924,401.17541039999924,401.17541039999924,401.17541039999924,401.17541039999924,401.17541039999924,58,21,38,52,52,60,401.17541039999924,402.9596229000017,,,,,,,,,,,,,,３３３,f,２３,2023-05-21_10h08.46.307,RL,2022.2.5,60.09474536940874,
54,20,31,51,0,64,64,64,,,,,,,,,,,None,402.9596229000017,402.9596229000017,402.9596229000017,402.9596229000017,402.9596229000017,402.9596229000017,j,0.8395190000010189,403.82936390000395,403.82936390000395,403.82936390000395,403.82936390000395,403.82936390000395,403.82936390000395,404.12661639999715,405.9430835999956,405.9595199000032,405.9595199000032,405.9595199000032,405.9595199000032,405.9595199000032,405.9595199000032,405.9595199000032,405.9595199000032,405.9595199000032,405.9595199000032,405.9595199000032,405.9595199000032,405.9595199000032,408.074242600007,408.074242600007,408.074242600007,408.074242600007,408.074242600007,408.074242600007,408.074242600007,54,20,31,51,51,60,408.074242600007,409.80855660000816,,,,,,,,,,,,,,３３３,f,２３,2023-05-21_10h08.46.307,RL,2022.2.5,60.09474536940874,
48,32,33,49,0,65,65,65,,,,,,,,,,,None,409.80855660000816,409.80855660000816,409.80855660000816,409.80855660000816,409.80855660000816,409.80855660000816,f,0.3030242999957409,410.1424301000079,410.1424301000079,410.1424301000079,410.1424301000079,410.1424301000079,410.1424301000079,410.4255605000071,411.891915300017,411.9086094000086,411.9086094000086,411.9086094000086,411.9086094000086,411.9086094000086,411.9086094000086,411.9086094000086,411.9086094000086,411.9086094000086,411.9086094000086,411.9086094000086,411.9086094000086,411.9086094000086,413.6734310000029,413.6734310000029,413.6734310000029,413.6734310000029,413.6734310000029,413.6734310000029,413.6734310000029,48,32,33,49,48,60,413.6734310000029,415.32469810001203,,,,,,,,,,,,,,３３３,f,２３,2023-05-21_10h08.46.307,RL,2022.2.5,60.09474536940874,
56,34,34,46,0,66,66,66,,,,,,,,,,,None,415.32469810001203,415.32469810001203,415.32469810001203,415.32469810001203,415.32469810001203,415.32469810001203,j,0.43772610000451095,415.7914684000134,415.7914684000134,415.7914684000134,415.7914684000134,415.7914684000134,415.7914684000134,416.0746008999995,417.7243809000065,417.74087690000306,417.74087690000306,417.74087690000306,417.74087690000306,417.74087690000306,417.74087690000306,417.74087690000306,417.74087690000306,417.74087690000306,417.74087690000306,417.74087690000306,417.74087690000306,417.74087690000306,419.68925610001315,419.68925610001315,419.68925610001315,419.68925610001315,419.68925610001315,419.68925610001315,419.68925610001315,56,34,34,46,46,60,419.68925610001315,421.5898901000037,,,,,,,,,,,,,,３３３,f,２３,2023-05-21_10h08.46.307,RL,2022.2.5,60.09474536940874,
62,30,42,44,0,67,67,67,,,,,,,,,,,None,421.5898901000037,421.5898901000037,421.5898901000037,421.5898901000037,421.5898901000037,421.5898901000037,j,0.49417439999524504,422.1071479000093,422.1071479000093,422.1071479000093,422.1071479000093,422.1071479000093,422.1071479000093,422.4070345000073,423.58983770001214,423.58983770001214,423.58983770001214,423.58983770001214,423.58983770001214,423.58983770001214,423.58983770001214,423.58983770001214,423.58983770001214,423.58983770001214,423.58983770001214,423.58983770001214,423.58983770001214,423.58983770001214,425.07137910000165,425.07137910000165,425.07137910000165,425.07137910000165,425.07137910000165,425.07137910000165,425.07137910000165,62,30,42,44,44,60,425.07137910000165,426.72260639999877,,,,,,,,,,,,,,３３３,f,２３,2023-05-21_10h08.46.307,RL,2022.2.5,60.09474536940874,
59,31,43,39,0,68,68,68,,,,,,,,,,,None,426.72260639999877,426.72260639999877,426.72260639999877,426.72260639999877,426.72260639999877,426.72260639999877,r,0.8926989999890793,427.64123700000346,427.64123700000346,427.64123700000346,427.64123700000346,427.64123700000346,427.64123700000346,427.92242540000007,429.0727378000156,429.10550960002,429.10550960002,429.10550960002,429.10550960002,429.10550960002,429.10550960002,429.10550960002,429.10550960002,429.10550960002,429.10550960002,429.10550960002,429.10550960002,429.10550960002,430.5536938000005,430.5536938000005,430.5536938000005,430.5536938000005,430.5536938000005,430.5536938000005,430.5536938000005,59,31,43,39,31,60,430.5536938000005,432.55462890001945,,,,,,,,,,,,,,３３３,f,２３,2023-05-21_10h08.46.307,RL,2022.2.5,60.09474536940874,
62,31,43,53,0,69,69,69,,,,,,,,,,,None,432.55462890001945,432.55462890001945,432.55462890001945,432.55462890001945,432.55462890001945,432.55462890001945,f,0.3255014000169467,432.9071736000187,432.9071736000187,432.9071736000187,432.9071736000187,432.9071736000187,432.9071736000187,433.20498460001545,435.0877439000178,435.0877439000178,435.0877439000178,435.0877439000178,435.0877439000178,435.0877439000178,435.0877439000178,435.0877439000178,435.0877439000178,435.0877439000178,435.0877439000178,435.0877439000178,435.0877439000178,435.0877439000178,437.2689625000057,437.2689625000057,437.2689625000057,437.2689625000057,437.2689625000057,437.2689625000057,437.2689625000057,62,31,43,53,62,60,437.2689625000057,438.970115300006,,,,,,,,,,,,,,３３３,f,２３,2023-05-21_10h08.46.307,RL,2022.2.5,60.09474536940874,
54,30,48,51,0,70,70,70,,,,,,,,,,,None,438.970115300006,438.970115300006,438.970115300006,438.970115300006,438.970115300006,438.970115300006,f,0.28325429998221807,439.27073940000264,439.27073940000264,439.27073940000264,439.27073940000264,439.27073940000264,439.27073940000264,439.57055629999377,440.85387869999977,440.85387869999977,440.85387869999977,440.85387869999977,440.85387869999977,440.85387869999977,440.85387869999977,440.85387869999977,440.85387869999977,440.85387869999977,440.85387869999977,440.85387869999977,440.85387869999977,440.85387869999977,442.43473920002,442.43473920002,442.43473920002,442.43473920002,442.43473920002,442.43473920002,442.43473920002,54,30,48,51,54,60,442.43473920002,444.36925899999915,,,,,,,,,,,,,,３３３,f,２３,2023-05-21_10h08.46.307,RL,2022.2.5,60.09474536940874,
56,29,49,53,0,71,71,71,,,,,,,,,,,None,444.36925899999915,444.36925899999915,444.36925899999915,444.36925899999915,444.36925899999915,444.36925899999915,f,0.8400860000110697,445.23641470001894,445.23641470001894,445.23641470001894,445.23641470001894,445.23641470001894,445.23641470001894,445.51977169999736,446.55261600000085,446.5691395000031,446.5691395000031,446.5691395000031,446.5691395000031,446.5691395000031,446.5691395000031,446.5691395000031,446.5691395000031,446.5691395000031,446.5691395000031,446.5691395000031,446.5691395000031,446.5691395000031,447.9006030000164,447.9006030000164,447.9006030000164,447.9006030000164,447.9006030000164,447.9006030000164,447.9006030000164,56,29,49,53,56,60,447.9006030000164,449.50174259999767,,,,,,,,,,,,,,３３３,f,２３,2023-05-21_10h08.46.307,RL,2022.2.5,60.09474536940874,
44,32,50,53,0,72,72,72,,,,,,,,,,,None,449.50174259999767,449.50174259999767,449.50174259999767,449.50174259999767,449.50174259999767,449.50174259999767,f,0.4917706999985967,450.0187722000119,450.0187722000119,450.0187722000119,450.0187722000119,450.0187722000119,450.0187722000119,450.3025129000016,452.1349085000111,452.151554400014,452.151554400014,452.151554400014,452.151554400014,452.151554400014,452.151554400014,452.151554400014,452.151554400014,452.151554400014,452.151554400014,452.151554400014,452.151554400014,452.151554400014,454.2829534000193,454.2829534000193,454.2829534000193,454.2829534000193,454.2829534000193,454.2829534000193,454.2829534000193,44,32,50,53,44,60,454.2829534000193,456.034240900015,,,,,,,,,,,,,,３３３,f,２３,2023-05-21_10h08.46.307,RL,2022.2.5,60.09474536940874,
59,21,41,64,0,73,73,73,,,,,,,,,,,None,456.034240900015,456.034240900015,456.034240900015,456.034240900015,456.034240900015,456.034240900015,j,0.3302483999868855,456.3843806000077,456.3843806000077,456.3843806000077,456.3843806000077,456.3843806000077,456.3843806000077,456.66751299999305,458.66712180001196,458.683657400019,458.683657400019,458.683657400019,458.683657400019,458.683657400019,458.683657400019,458.683657400019,458.683657400019,458.683657400019,458.683657400019,458.683657400019,458.683657400019,458.683657400019,460.9815759000194,460.9815759000194,460.9815759000194,460.9815759000194,460.9815759000194,460.9815759000194,460.9815759000194,59,21,41,64,64,60,460.9815759000194,462.54933999999776,,,,,,,,,,,,,,３３３,f,２３,2023-05-21_10h08.46.307,RL,2022.2.5,60.09474536940874,
55,30,41,50,0,74,74,74,,,,,,,,,,,None,462.54933999999776,462.54933999999776,462.54933999999776,462.54933999999776,462.54933999999776,462.54933999999776,j,0.2640817000064999,462.83316949999426,462.83316949999426,462.83316949999426,462.83316949999426,462.83316949999426,462.83316949999426,463.1162230000191,465.0825458000181,465.0992460999987,465.0992460999987,465.0992460999987,465.0992460999987,465.0992460999987,465.0992460999987,465.0992460999987,465.0992460999987,465.0992460999987,465.0992460999987,465.0992460999987,465.0992460999987,465.0992460999987,467.3638764000207,467.3638764000207,467.3638764000207,467.3638764000207,467.3638764000207,467.3638764000207,467.3638764000207,55,30,41,50,50,60,467.3638764000207,469.3472197999945,,,,,,,,,,,,,,３３３,f,２３,2023-05-21_10h08.46.307,RL,2022.2.5,60.09474536940874,
51,22,44,55,0,75,75,75,,,,,,,,,,,q,490.8449565000192,490.8449565000192,490.8449565000192,490.8449565000192,490.8449565000192,490.8449565000192,r,0.786664599989308,491.6628206000023,491.6628206000023,491.6628206000023,491.6628206000023,491.6628206000023,491.6628206000023,491.96140020000166,493.46121830001357,493.46121830001357,493.46121830001357,493.46121830001357,493.46121830001357,493.46121830001357,493.46121830001357,493.46121830001357,493.46121830001357,493.46121830001357,493.46121830001357,493.46121830001357,493.46121830001357,493.46121830001357,495.25891249999404,495.25891249999404,495.25891249999404,495.25891249999404,495.25891249999404,495.25891249999404,495.25891249999404,51,22,44,55,22,60,495.25891249999404,497.11042250000173,469.3472197999945,469.3472197999945,16.44991639998625,485.8293692000152,485.8293692000152,490.8449565000192,490.8449565000192,,,,,,,３３３,f,２３,2023-05-21_10h08.46.307,RL,2022.2.5,60.09474536940874,
44,22,40,63,0,76,76,76,,,,,,,,,,,None,497.11042250000173,497.11042250000173,497.11042250000173,497.11042250000173,497.11042250000173,497.11042250000173,f,0.30703160000848584,497.4441288000089,497.4441288000089,497.4441288000089,497.4441288000089,497.4441288000089,497.4441288000089,497.7271849999961,499.7272926000005,499.7437168000033,499.7437168000033,499.7437168000033,499.7437168000033,499.7437168000033,499.7437168000033,499.7437168000033,499.7437168000033,499.7437168000033,499.7437168000033,499.7437168000033,499.7437168000033,499.7437168000033,502.0418314000126,502.0418314000126,502.0418314000126,502.0418314000126,502.0418314000126,502.0418314000126,502.0418314000126,44,22,40,63,44,60,502.0418314000126,503.62556420001783,,,,,,,,,,,,,,３３３,f,２３,2023-05-21_10h08.46.307,RL,2022.2.5,60.09474536940874,
54,18,41,62,0,77,77,77,,,,,,,,,,,None,503.62556420001783,503.62556420001783,503.62556420001783,503.62556420001783,503.62556420001783,503.62556420001783,i,0.2869148000027053,503.95041390002007,503.95041390002007,503.95041390002007,503.95041390002007,503.95041390002007,503.95041390002007,504.225938699994,505.9257908000145,505.9423611999955,505.9423611999955,505.9423611999955,505.9423611999955,505.9423611999955,505.9423611999955,505.9423611999955,505.9423611999955,505.9423611999955,505.9423611999955,505.9423611999955,505.9423611999955,505.9423611999955,507.9407865999965,507.9407865999965,507.9407865999965,507.9407865999965,507.9407865999965,507.9407865999965,507.9407865999965,54,18,41,62,41,60,507.9407865999965,509.4748233999999,,,,,,,,,,,,,,３３３,f,２３,2023-05-21_10h08.46.307,RL,2022.2.5,60.09474536940874,
48,24,40,57,0,78,78,78,,,,,,,,,,,None,509.4748233999999,509.4748233999999,509.4748233999999,509.4748233999999,509.4748233999999,509.4748233999999,j,0.30507760000182316,509.8087227999931,509.8087227999931,509.8087227999931,509.8087227999931,509.8087227999931,509.8087227999931,510.1082549999992,510.9417902000132,510.9417902000132,510.9417902000132,510.9417902000132,510.9417902000132,510.9417902000132,510.9417902000132,510.9417902000132,510.9417902000132,510.9417902000132,510.9417902000132,510.9417902000132,510.9417902000132,510.9417902000132,512.0730175000208,512.0730175000208,512.0730175000208,512.0730175000208,512.0730175000208,512.0730175000208,512.0730175000208,48,24,40,57,57,60,512.0730175000208,513.923758399993,,,,,,,,,,,,,,３３３,f,２３,2023-05-21_10h08.46.307,RL,2022.2.5,60.09474536940874,
53,30,36,49,0,79,79,79,,,,,,,,,,,None,513.923758399993,513.923758399993,513.923758399993,513.923758399993,513.923758399993,513.923758399993,j,0.3356521999812685,514.2910053000087,514.2910053000087,514.2910053000087,514.2910053000087,514.2910053000087,514.2910053000087,514.5741672000149,515.7736651000159,515.7903033000184,515.7903033000184,515.7903033000184,515.7903033000184,515.7903033000184,515.7903033000184,515.7903033000184,515.7903033000184,515.7903033000184,515.7903033000184,515.7903033000184,515.7903033000184,515.7903033000184,517.2885259000177,517.2885259000177,517.2885259000177,517.2885259000177,517.2885259000177,517.2885259000177,517.2885259000177,53,30,36,49,49,60,517.2885259000177,519.0727856000012,,,,,,,,,,,,,,３３３,f,２３,2023-05-21_10h08.46.307,RL,2022.2.5,60.09474536940874,
56,30,35,49,0,80,80,80,,,,,,,,,,,None,519.0727856000012,519.0727856000012,519.0727856000012,519.0727856000012,519.0727856000012,519.0727856000012,f,0.39386219999869354,519.4907191999955,519.4907191999955,519.4907191999955,519.4907191999955,519.4907191999955,519.4907191999955,519.7732528000197,520.7565728000191,520.7730064000061,520.7730064000061,520.7730064000061,520.7730064000061,520.7730064000061,520.7730064000061,520.7730064000061,520.7730064000061,520.7730064000061,520.7730064000061,520.7730064000061,520.7730064000061,520.7730064000061,522.0543637000083,522.0543637000083,522.0543637000083,522.0543637000083,522.0543637000083,522.0543637000083,522.0543637000083,56,30,35,49,56,60,522.0543637000083,523.938919600012,,,,,,,,,,,,,,３３３,f,２３,2023-05-21_10h08.46.307,RL,2022.2.5,60.09474536940874,
59,25,33,53,0,81,81,81,,,,,,,,,,,None,523.938919600012,523.938919600012,523.938919600012,523.938919600012,523.938919600012,523.938919600012,j,0.3902020000095945,524.3576050999982,524.3576050999982,524.3576050999982,524.3576050999982,524.3576050999982,524.3576050999982,524.6389922999952,526.4053571000113,526.4224673999997,526.4224673999997,526.4224673999997,526.4224673999997,526.4224673999997,526.4224673999997,526.4224673999997,526.4224673999997,526.4224673999997,526.4224673999997,526.4224673999997,526.4224673999997,526.4224673999997,528.4865036999981,528.4865036999981,528.4865036999981,528.4865036999981,528.4865036999981,528.4865036999981,528.4865036999981,59,25,33,53,53,60,528.4865036999981,530.4543849000183,,,,,,,,,,,,,,３３３,f,２３,2023-05-21_10h08.46.307,RL,2022.2.5,60.09474536940874,
59,27,48,43,0,82,82,82,,,,,,,,,,,None,530.4543849000183,530.4543849000183,530.4543849000183,530.4543849000183,530.4543849000183,530.4543849000183,j,0.3086204999999609,530.7881364000204,530.7881364000204,530.7881364000204,530.7881364000204,530.7881364000204,530.7881364000204,531.0883650000033,532.8379624999943,532.8379624999943,532.8379624999943,532.8379624999943,532.8379624999943,532.8379624999943,532.8379624999943,532.8379624999943,532.8379624999943,532.8379624999943,532.8379624999943,532.8379624999943,532.8379624999943,532.8379624999943,534.8853489000176,534.8853489000176,534.8853489000176,534.8853489000176,534.8853489000176,534.8853489000176,534.8853489000176,59,27,48,43,43,60,534.8853489000176,536.669802599994,,,,,,,,,,,,,,３３３,f,２３,2023-05-21_10h08.46.307,RL,2022.2.5,60.09474536940874,
65,27,33,53,0,83,83,83,,,,,,,,,,,None,536.669802599994,536.669802599994,536.669802599994,536.669802599994,536.669802599994,536.669802599994,j,0.40549159998772666,537.1052213000075,537.1052213000075,537.1052213000075,537.1052213000075,537.1052213000075,537.1052213000075,537.4036108000146,538.4866201000114,538.4866201000114,538.4866201000114,538.4866201000114,538.4866201000114,538.4866201000114,538.4866201000114,538.4866201000114,538.4866201000114,538.4866201000114,538.4866201000114,538.4866201000114,538.4866201000114,538.4866201000114,539.8677279000112,539.8677279000112,539.8677279000112,539.8677279000112,539.8677279000112,539.8677279000112,539.8677279000112,65,27,33,53,53,60,539.8677279000112,541.5856620999984,,,,,,,,,,,,,,３３３,f,２３,2023-05-21_10h08.46.307,RL,2022.2.5,60.09474536940874,
61,28,37,52,0,84,84,84,,,,,,,,,,,None,541.5856620999984,541.5856620999984,541.5856620999984,541.5856620999984,541.5856620999984,541.5856620999984,f,0.31019439999363385,541.9196009000007,541.9196009000007,541.9196009000007,541.9196009000007,541.9196009000007,541.9196009000007,542.2027548000042,543.5025773000089,543.5193733000197,543.5193733000197,543.5193733000197,543.5193733000197,543.5193733000197,543.5193733000197,543.5193733000197,543.5193733000197,543.5193733000197,543.5193733000197,543.5193733000197,543.5193733000197,543.5193733000197,545.1174801000161,545.1174801000161,545.1174801000161,545.1174801000161,545.1174801000161,545.1174801000161,545.1174801000161,61,28,37,52,61,60,545.1174801000161,546.9846140000154,,,,,,,,,,,,,,３３３,f,２３,2023-05-21_10h08.46.307,RL,2022.2.5,60.09474536940874,
59,39,34,56,0,85,85,85,,,,,,,,,,,None,546.9846140000154,546.9846140000154,546.9846140000154,546.9846140000154,546.9846140000154,546.9846140000154,j,0.3319177000084892,547.3380608000152,547.3380608000152,547.3380608000152,547.3380608000152,547.3380608000152,547.3380608000152,547.6187270999944,549.4016773000185,549.4345648000017,549.4345648000017,549.4345648000017,549.4345648000017,549.4345648000017,549.4345648000017,549.4345648000017,549.4345648000017,549.4345648000017,549.4345648000017,549.4345648000017,549.4345648000017,549.4345648000017,551.5158615999972,551.5158615999972,551.5158615999972,551.5158615999972,551.5158615999972,551.5158615999972,551.5158615999972,59,39,34,56,56,60,551.5158615999972,553.3169893000158,,,,,,,,,,,,,,３３３,f,２３,2023-05-21_10h08.46.307,RL,2022.2.5,60.09474536940874,
68,36,36,54,0,86,86,86,,,,,,,,,,,None,553.3169893000158,553.3169893000158,553.3169893000158,553.3169893000158,553.3169893000158,553.3169893000158,f,0.32574279999244027,553.6677917000197,553.6677917000197,553.6677917000197,553.6677917000197,553.6677917000197,553.6677917000197,553.9672310000169,554.9504787000187,554.9504787000187,554.9504787000187,554.9504787000187,554.9504787000187,554.9504787000187,554.9504787000187,554.9504787000187,554.9504787000187,554.9504787000187,554.9504787000187,554.9504787000187,554.9504787000187,554.9504787000187,556.2316887000052,556.2316887000052,556.2316887000052,556.2316887000052,556.2316887000052,556.2316887000052,556.2316887000052,68,36,36,54,68,60,556.2316887000052,557.7661321000196,,,,,,,,,,,,,,３３３,f,２３,2023-05-21_10h08.46.307,RL,2022.2.5,60.09474536940874,
68,27,33,57,0,87,87,87,,,,,,,,,,,None,557.7661321000196,557.7661321000196,557.7661321000196,557.7661321000196,557.7661321000196,557.7661321000196,f,0.3201427000167314,558.1204716000066,558.1204716000066,558.1204716000066,558.1204716000066,558.1204716000066,558.1204716000066,558.3997445999994,559.4497256000177,559.4661751000094,559.4661751000094,559.4661751000094,559.4661751000094,559.4661751000094,559.4661751000094,559.4661751000094,559.4661751000094,559.4661751000094,559.4661751000094,559.4661751000094,559.4661751000094,559.4661751000094,560.8140871000069,560.8140871000069,560.8140871000069,560.8140871000069,560.8140871000069,560.8140871000069,560.8140871000069,68,27,33,57,68,60,560.8140871000069,562.7153097999981,,,,,,,,,,,,,,３３３,f,２３,2023-05-21_10h08.46.307,RL,2022.2.5,60.09474536940874,
67,35,40,59,0,88,88,88,,,,,,,,,,,None,562.7153097999981,562.7153097999981,562.7153097999981,562.7153097999981,562.7153097999981,562.7153097999981,f,0.44161030001123436,563.1825139000139,563.1825139000139,563.1825139000139,563.1825139000139,563.1825139000139,563.1825139000139,563.4654531000124,564.282070700021,564.2986554999952,564.2986554999952,564.2986554999952,564.2986554999952,564.2986554999952,564.2986554999952,564.2986554999952,564.2986554999952,564.2986554999952,564.2986554999952,564.2986554999952,564.2986554999952,564.2986554999952,565.4134168000019,565.4134168000019,565.4134168000019,565.4134168000019,565.4134168000019,565.4134168000019,565.4134168000019,67,35,40,59,67,60,565.4134168000019,567.3644496000197,,,,,,,,,,,,,,３３３,f,２３,2023-05-21_10h08.46.307,RL,2022.2.5,60.09474536940874,
53,28,34,57,0,89,89,89,,,,,,,,,,,None,567.3644496000197,567.3644496000197,567.3644496000197,567.3644496000197,567.3644496000197,567.3644496000197,f,0.023401600017677993,567.4151429000194,567.4151429000194,567.4151429000194,567.4151429000194,567.4151429000194,567.4151429000194,567.6981504000141,569.064790400007,569.081353000016,569.081353000016,569.081353000016,569.081353000016,569.081353000016,569.081353000016,569.081353000016,569.081353000016,569.081353000016,569.081353000016,569.081353000016,569.081353000016,569.081353000016,570.7457589000114,570.7457589000114,570.7457589000114,570.7457589000114,570.7457589000114,570.7457589000114,570.7457589000114,53,28,34,57,53,60,570.7457589000114,572.2969245999993,,,,,,,,,,,,,,３３３,f,２３,2023-05-21_10h08.46.307,RL,2022.2.5,60.09474536940874,
63,38,37,61,0,90,90,90,,,,,,,,,,,None,572.2969245999993,572.2969245999993,572.2969245999993,572.2969245999993,572.2969245999993,572.2969245999993,j,0.30259680000017397,572.635334599996,572.635334599996,572.635334599996,572.635334599996,572.635334599996,572.635334599996,572.9138910000038,574.2969363000011,574.3303958000033,574.3303958000033,574.3303958000033,574.3303958000033,574.3303958000033,574.3303958000033,574.3303958000033,574.3303958000033,574.3303958000033,574.3303958000033,574.3303958000033,574.3303958000033,574.3303958000033,576.0119272000156,576.0119272000156,576.0119272000156,576.0119272000156,576.0119272000156,576.0119272000156,576.0119272000156,63,38,37,61,61,60,576.0119272000156,577.5793074000103,,,,,,,,,,,,,,３３３,f,２３,2023-05-21_10h08.46.307,RL,2022.2.5,60.09474536940874,
66,37,40,64,0,91,91,91,,,,,,,,,,,None,577.5793074000103,577.5793074000103,577.5793074000103,577.5793074000103,577.5793074000103,577.5793074000103,j,0.4530914000060875,578.0672628000029,578.0672628000029,578.0672628000029,578.0672628000029,578.0672628000029,578.0672628000029,578.3463286000188,579.4126310000138,579.4293696999957,579.4293696999957,579.4293696999957,579.4293696999957,579.4293696999957,579.4293696999957,579.4293696999957,579.4293696999957,579.4293696999957,579.4293696999957,579.4293696999957,579.4293696999957,579.4293696999957,580.7938561000046,580.7938561000046,580.7938561000046,580.7938561000046,580.7938561000046,580.7938561000046,580.7938561000046,66,37,40,64,64,60,580.7938561000046,582.4284707000188,,,,,,,,,,,,,,３３３,f,２３,2023-05-21_10h08.46.307,RL,2022.2.5,60.09474536940874,
56,37,31,50,0,92,92,92,,,,,,,,,,,None,582.4284707000188,582.4284707000188,582.4284707000188,582.4284707000188,582.4284707000188,582.4284707000188,j,0.38658019999274984,582.8489869000041,582.8489869000041,582.8489869000041,582.8489869000041,582.8489869000041,582.8489869000041,583.1294146,584.6289141000016,584.6452447000192,584.6452447000192,584.6452447000192,584.6452447000192,584.6452447000192,584.6452447000192,584.6452447000192,584.6452447000192,584.6452447000192,584.6452447000192,584.6452447000192,584.6452447000192,584.6452447000192,586.4432112000068,586.4432112000068,586.4432112000068,586.4432112000068,586.4432112000068,586.4432112000068,586.4432112000068,56,37,31,50,50,60,586.4432112000068,588.3441734999942,,,,,,,,,,,,,,３３３,f,２３,2023-05-21_10h08.46.307,RL,2022.2.5,60.09474536940874,
61,32,36,61,0,93,93,93,,,,,,,,,,,None,588.3441734999942,588.3441734999942,588.3441734999942,588.3441734999942,588.3441734999942,588.3441734999942,f,0.2638955000147689,588.6284530000121,588.6284530000121,588.6284530000121,588.6284530000121,588.6284530000121,588.6284530000121,588.9113578000106,589.7942816000141,589.810807300004,589.810807300004,589.810807300004,589.810807300004,589.810807300004,589.810807300004,589.810807300004,589.810807300004,589.810807300004,589.810807300004,589.810807300004,589.810807300004,589.810807300004,590.9922232000099,590.9922232000099,590.9922232000099,590.9922232000099,590.9922232000099,590.9922232000099,590.9922232000099,61,32,36,61,61,60,590.9922232000099,592.8100220000197,,,,,,,,,,,,,,３３３,f,２３,2023-05-21_10h08.46.307,RL,2022.2.5,60.09474536940874,
68,39,40,55,0,94,94,94,,,,,,,,,,,None,592.8100220000197,592.8100220000197,592.8100220000197,592.8100220000197,592.8100220000197,592.8100220000197,f,0.30986920002033,593.1438548000006,593.1438548000006,593.1438548000006,593.1438548000006,593.1438548000006,593.1438548000006,593.4273143000028,594.3435380000155,594.3600346000167,594.3600346000167,594.3600346000167,594.3600346000167,594.3600346000167,594.3600346000167,594.3600346000167,594.3600346000167,594.3600346000167,594.3600346000167,594.3600346000167,594.3600346000167,594.3600346000167,595.5750307000126,595.5750307000126,595.5750307000126,595.5750307000126,595.5750307000126,595.5750307000126,595.5750307000126,68,39,40,55,68,60,595.5750307000126,597.3093570000201,,,,,,,,,,,,,,３３３,f,２３,2023-05-21_10h08.46.307,RL,2022.2.5,60.09474536940874,
66,34,43,56,0,95,95,95,,,,,,,,,,,None,597.3093570000201,597.3093570000201,597.3093570000201,597.3093570000201,597.3093570000201,597.3093570000201,f,0.31858189997728914,597.6600990000006,597.6600990000006,597.6600990000006,597.6600990000006,597.6600990000006,597.6600990000006,597.9429403000104,599.5258432000119,599.542821400013,599.542821400013,599.542821400013,599.542821400013,599.542821400013,599.542821400013,599.542821400013,599.542821400013,599.542821400013,599.542821400013,599.542821400013,599.542821400013,599.542821400013,601.4238721000147,601.4238721000147,601.4238721000147,601.4238721000147,601.4238721000147,601.4238721000147,601.4238721000147,66,34,43,56,66,60,601.4238721000147,603.1915925000212,,,,,,,,,,,,,,３３３,f,２３,2023-05-21_10h08.46.307,RL,2022.2.5,60.09474536940874,
60,37,33,49,0,96,96,96,,,,,,,,,,,None,603.1915925000212,603.1915925000212,603.1915925000212,603.1915925000212,603.1915925000212,603.1915925000212,f,0.32052850001491606,603.5456317000207,603.5456317000207,603.5456317000207,603.5456317000207,603.5456317000207,603.5456317000207,603.8252547000011,604.7750650999951,604.7916001999984,604.7916001999984,604.7916001999984,604.7916001999984,604.7916001999984,604.7916001999984,604.7916001999984,604.7916001999984,604.7916001999984,604.7916001999984,604.7916001999984,604.7916001999984,604.7916001999984,606.0397706000076,606.0397706000076,606.0397706000076,606.0397706000076,606.0397706000076,606.0397706000076,606.0397706000076,60,37,33,49,60,60,606.0397706000076,607.8074904000096,,,,,,,,,,,,,,３３３,f,２３,2023-05-21_10h08.46.307,RL,2022.2.5,60.09474536940874,
60,36,34,51,0,97,97,97,,,,,,,,,,,None,607.8074904000096,607.8074904000096,607.8074904000096,607.8074904000096,607.8074904000096,607.8074904000096,j,0.271207100013271,608.1086569000036,608.1086569000036,608.1086569000036,608.1086569000036,608.1086569000036,608.1086569000036,608.3915503000026,610.124123400019,610.1407094000024,610.1407094000024,610.1407094000024,610.1407094000024,610.1407094000024,610.1407094000024,610.1407094000024,610.1407094000024,610.1407094000024,610.1407094000024,610.1407094000024,610.1407094000024,610.1407094000024,612.1723021999933,612.1723021999933,612.1723021999933,612.1723021999933,612.1723021999933,612.1723021999933,612.1723021999933,60,36,34,51,51,60,612.1723021999933,613.7903190999932,,,,,,,,,,,,,,３３３,f,２３,2023-05-21_10h08.46.307,RL,2022.2.5,60.09474536940874,
65,35,38,53,0,98,98,98,,,,,,,,,,,None,613.7903190999932,613.7903190999932,613.7903190999932,613.7903190999932,613.7903190999932,613.7903190999932,f,0.24204869999084622,614.0570063000196,614.0570063000196,614.0570063000196,614.0570063000196,614.0570063000196,614.0570063000196,614.3402601999987,616.0231615999946,616.039537100005,616.039537100005,616.039537100005,616.039537100005,616.039537100005,616.039537100005,616.039537100005,616.039537100005,616.039537100005,616.039537100005,616.039537100005,616.039537100005,616.039537100005,618.0211240999924,618.0211240999924,618.0211240999924,618.0211240999924,618.0211240999924,618.0211240999924,618.0211240999924,65,35,38,53,65,60,618.0211240999924,620.0058029000065,,,,,,,,,,,,,,３３３,f,２３,2023-05-21_10h08.46.307,RL,2022.2.5,60.09474536940874,
71,34,27,49,0,99,99,99,,,,,,,,,,,None,620.0058029000065,620.0058029000065,620.0058029000065,620.0058029000065,620.0058029000065,620.0058029000065,f,0.38825509999878705,620.4233000999957,620.4233000999957,620.4233000999957,620.4233000999957,620.4233000999957,620.4233000999957,620.7222069000127,622.2886158000038,622.2886158000038,622.2886158000038,622.2886158000038,622.2886158000038,622.2886158000038,622.2886158000038,622.2886158000038,622.2886158000038,622.2886158000038,622.2886158000038,622.2886158000038,622.2886158000038,622.2886158000038,624.1538594000158,624.1538594000158,624.1538594000158,624.1538594000158,624.1538594000158,624.1538594000158,624.1538594000158,71,34,27,49,71,60,624.1538594000158,626.0540515000175,,,,,,,,,,,,,,３３３,f,２３,2023-05-21_10h08.46.307,RL,2022.2.5,60.09474536940874,
76,35,25,44,0,100,100,100,,,,,,,,,,,None,626.0540515000175,626.0540515000175,626.0540515000175,626.0540515000175,626.0540515000175,626.0540515000175,f,0.28581950001535006,626.3741662999964,626.3741662999964,626.3741662999964,626.3741662999964,626.3741662999964,626.3741662999964,626.6548559000075,627.7377490999934,627.7543693000043,627.7543693000043,627.7543693000043,627.7543693000043,627.7543693000043,627.7543693000043,627.7543693000043,627.7543693000043,627.7543693000043,627.7543693000043,627.7543693000043,627.7543693000043,627.7543693000043,629.1356975999952,629.1356975999952,629.1356975999952,629.1356975999952,629.1356975999952,629.1356975999952,629.1356975999952,76,35,25,44,76,60,629.1356975999952,630.8368956000195,,,,,,,,,,,,,,３３３,f,２３,2023-05-21_10h08.46.307,RL,2022.2.5,60.09474536940874,
82,37,36,49,0,101,101,101,,,,,,,,,,,None,630.8368956000195,630.8368956000195,630.8368956000195,630.8368956000195,630.8368956000195,630.8368956000195,f,0.35156340000685304,631.2264583000215,631.2264583000215,631.2264583000215,631.2264583000215,631.2264583000215,631.2264583000215,631.5039380000089,632.536869500007,632.5536449000065,632.5536449000065,632.5536449000065,632.5536449000065,632.5536449000065,632.5536449000065,632.5536449000065,632.5536449000065,632.5536449000065,632.5536449000065,632.5536449000065,632.5536449000065,632.5536449000065,633.8847572999948,633.8847572999948,633.8847572999948,633.8847572999948,633.8847572999948,633.8847572999948,633.8847572999948,82,37,36,49,82,60,633.8847572999948,635.8192441000137,,,,,,,,,,,,,,３３３,f,２３,2023-05-21_10h08.46.307,RL,2022.2.5,60.09474536940874,
68,31,29,39,0,102,102,102,,,,,,,,,,,None,635.8192441000137,635.8192441000137,635.8192441000137,635.8192441000137,635.8192441000137,635.8192441000137,f,0.28678220001165755,636.1378124000039,636.1378124000039,636.1378124000039,636.1378124000039,636.1378124000039,636.1378124000039,636.4362203000055,638.4357369999925,638.4357369999925,638.4357369999925,638.4357369999925,638.4357369999925,638.4357369999925,638.4357369999925,638.4357369999925,638.4357369999925,638.4357369999925,638.4357369999925,638.4357369999925,638.4357369999925,638.4357369999925,640.7338783000014,640.7338783000014,640.7338783000014,640.7338783000014,640.7338783000014,640.7338783000014,640.7338783000014,68,31,29,39,68,60,640.7338783000014,642.5179831999994,,,,,,,,,,,,,,３３３,f,２３,2023-05-21_10h08.46.307,RL,2022.2.5,60.09474536940874,
66,39,36,40,0,103,103,103,,,,,,,,,,,None,642.5179831999994,642.5179831999994,642.5179831999994,642.5179831999994,642.5179831999994,642.5179831999994,f,0.46239020000211895,643.0037853000103,643.0037853000103,643.0037853000103,643.0037853000103,643.0037853000103,643.0037853000103,643.2850535000034,644.8348685000092,644.851358600019,644.851358600019,644.851358600019,644.851358600019,644.851358600019,644.851358600019,644.851358600019,644.851358600019,644.851358600019,644.851358600019,644.851358600019,644.851358600019,644.851358600019,646.6994547000213,646.6994547000213,646.6994547000213,646.6994547000213,646.6994547000213,646.6994547000213,646.6994547000213,66,39,36,40,66,60,646.6994547000213,648.533717400016,,,,,,,,,,,,,,３３３,f,２３,2023-05-21_10h08.46.307,RL,2022.2.5,60.09474536940874,
66,40,34,35,0,104,104,104,,,,,,,,,,,None,648.533717400016,648.533717400016,648.533717400016,648.533717400016,648.533717400016,648.533717400016,f,0.42660850001266226,648.9875493000145,648.9875493000145,648.9875493000145,648.9875493000145,648.9875493000145,648.9875493000145,649.2671826000151,650.4672456000117,650.483625199995,650.483625199995,650.483625199995,650.483625199995,650.483625199995,650.483625199995,650.483625199995,650.483625199995,650.483625199995,650.483625199995,650.483625199995,650.483625199995,650.483625199995,651.9819186000095,651.9819186000095,651.9819186000095,651.9819186000095,651.9819186000095,651.9819186000095,651.9819186000095,66,40,34,35,66,60,651.9819186000095,653.6494676000148,,,,,,,,,,,,,,３３３,f,２３,2023-05-21_10h08.46.307,RL,2022.2.5,60.09474536940874,
68,41,32,40,0,105,105,105,,,,,,,,,,,None,653.6494676000148,653.6494676000148,653.6494676000148,653.6494676000148,653.6494676000148,653.6494676000148,f,0.7059593999874778,654.3844705999945,654.3844705999945,654.3844705999945,654.3844705999945,654.3844705999945,654.3844705999945,654.6666519000137,656.3496897000005,656.3659343000036,656.3659343000036,656.3659343000036,656.3659343000036,656.3659343000036,656.3659343000036,656.3659343000036,656.3659343000036,656.3659343000036,656.3659343000036,656.3659343000036,656.3659343000036,656.3659343000036,658.3472700999992,658.3472700999992,658.3472700999992,658.3472700999992,658.3472700999992,658.3472700999992,658.3472700999992,68,41,32,40,68,60,658.3472700999992,659.9151576000149,,,,,,,,,,,,,,３３３,f,２３,2023-05-21_10h08.46.307,RL,2022.2.5,60.09474536940874,
84,42,27,41,0,106,106,106,,,,,,,,,,,None,659.9151576000149,659.9151576000149,659.9151576000149,659.9151576000149,659.9151576000149,659.9151576000149,f,0.2556821000180207,660.2001885000209,660.2001885000209,660.2001885000209,660.2001885000209,660.2001885000209,660.2001885000209,660.4987690999988,661.5650737000105,661.5650737000105,661.5650737000105,661.5650737000105,661.5650737000105,661.5650737000105,661.5650737000105,661.5650737000105,661.5650737000105,661.5650737000105,661.5650737000105,661.5650737000105,661.5650737000105,661.5650737000105,662.9300588000042,662.9300588000042,662.9300588000042,662.9300588000042,662.9300588000042,662.9300588000042,662.9300588000042,84,42,27,41,84,60,662.9300588000042,664.4477424999932,,,,,,,,,,,,,,３３３,f,２３,2023-05-21_10h08.46.307,RL,2022.2.5,60.09474536940874,
71,34,33,48,0,107,107,107,,,,,,,,,,,None,664.4477424999932,664.4477424999932,664.4477424999932,664.4477424999932,664.4477424999932,664.4477424999932,f,0.9245615999971051,665.3984961000097,665.3984961000097,665.3984961000097,665.3984961000097,665.3984961000097,665.3984961000097,665.681106700009,667.1642687999993,667.180758500006,667.180758500006,667.180758500006,667.180758500006,667.180758500006,667.180758500006,667.180758500006,667.180758500006,667.180758500006,667.180758500006,667.180758500006,667.180758500006,667.180758500006,668.9622971000208,668.9622971000208,668.9622971000208,668.9622971000208,668.9622971000208,668.9622971000208,668.9622971000208,71,34,33,48,71,60,668.9622971000208,670.8967747999995,,,,,,,,,,,,,,３３３,f,２３,2023-05-21_10h08.46.307,RL,2022.2.5,60.09474536940874,
73,37,35,47,0,108,108,108,,,,,,,,,,,None,670.8967747999995,670.8967747999995,670.8967747999995,670.8967747999995,670.8967747999995,670.8967747999995,f,0.3376589999825228,671.2638303000131,671.2638303000131,671.2638303000131,671.2638303000131,671.2638303000131,671.2638303000131,671.5470397000026,672.9468379000027,672.9630312999943,672.9630312999943,672.9630312999943,672.9630312999943,672.9630312999943,672.9630312999943,672.9630312999943,672.9630312999943,672.9630312999943,672.9630312999943,672.9630312999943,672.9630312999943,672.9630312999943,674.6613906999992,674.6613906999992,674.6613906999992,674.6613906999992,674.6613906999992,674.6613906999992,674.6613906999992,73,37,35,47,73,60,674.6613906999992,676.1955293999927,,,,,,,,,,,,,,３３３,f,２３,2023-05-21_10h08.46.307,RL,2022.2.5,60.09474536940874,
72,51,31,44,0,109,109,109,,,,,,,,,,,None,676.1955293999927,676.1955293999927,676.1955293999927,676.1955293999927,676.1955293999927,676.1955293999927,f,0.4386011000024155,676.6628077000205,676.6628077000205,676.6628077000205,676.6628077000205,676.6628077000205,676.6628077000205,676.9458573000156,678.4791515000106,678.4957152999996,678.4957152999996,678.4957152999996,678.4957152999996,678.4957152999996,678.4957152999996,678.4957152999996,678.4957152999996,678.4957152999996,678.4957152999996,678.4957152999996,678.4957152999996,678.4957152999996,680.32695040002,680.32695040002,680.32695040002,680.32695040002,680.32695040002,680.32695040002,680.32695040002,72,51,31,44,72,60,680.32695040002,681.8948085000156,,,,,,,,,,,,,,３３３,f,２３,2023-05-21_10h08.46.307,RL,2022.2.5,60.09474536940874,
72,43,35,48,0,110,110,110,,,,,,,,,,,None,681.8948085000156,681.8948085000156,681.8948085000156,681.8948085000156,681.8948085000156,681.8948085000156,f,0.4733657000178937,682.395070300001,682.395070300001,682.395070300001,682.395070300001,682.395070300001,682.395070300001,682.6782661000034,683.8113672000181,683.82801930001,683.82801930001,683.82801930001,683.82801930001,683.82801930001,683.82801930001,683.82801930001,683.82801930001,683.82801930001,683.82801930001,683.82801930001,683.82801930001,683.82801930001,685.2592967000091,685.2592967000091,685.2592967000091,685.2592967000091,685.2592967000091,685.2592967000091,685.2592967000091,72,43,35,48,72,60,685.2592967000091,686.860751500004,,,,,,,,,,,,,,３３３,f,２３,2023-05-21_10h08.46.307,RL,2022.2.5,60.09474536940874,
78,43,28,52,0,111,111,111,,,,,,,,,,,None,686.860751500004,686.860751500004,686.860751500004,686.860751500004,686.860751500004,686.860751500004,f,0.33458169997902587,687.2317307000048,687.2317307000048,687.2317307000048,687.2317307000048,687.2317307000048,687.2317307000048,687.5106577000115,689.19377480002,689.210353500006,689.210353500006,689.210353500006,689.210353500006,689.210353500006,689.210353500006,689.210353500006,689.210353500006,689.210353500006,689.210353500006,689.210353500006,689.210353500006,689.210353500006,691.1915283999988,691.1915283999988,691.1915283999988,691.1915283999988,691.1915283999988,691.1915283999988,691.1915283999988,78,43,28,52,78,60,691.1915283999988,692.7929158000043,,,,,,,,,,,,,,３３３,f,２３,2023-05-21_10h08.46.307,RL,2022.2.5,60.09474536940874,
69,41,40,56,0,112,112,112,,,,,,,,,,,None,692.7929158000043,692.7929158000043,692.7929158000043,692.7929158000043,692.7929158000043,692.7929158000043,f,0.31621769999037497,693.1273745000071,693.1273745000071,693.1273745000071,693.1273745000071,693.1273745000071,693.1273745000071,693.4262974000012,694.4264528000203,694.4264528000203,694.4264528000203,694.4264528000203,694.4264528000203,694.4264528000203,694.4264528000203,694.4264528000203,694.4264528000203,694.4264528000203,694.4264528000203,694.4264528000203,694.4264528000203,694.4264528000203,695.7245311000152,695.7245311000152,695.7245311000152,695.7245311000152,695.7245311000152,695.7245311000152,695.7245311000152,69,41,40,56,69,60,695.7245311000152,697.2923718999955,,,,,,,,,,,,,,３３３,f,２３,2023-05-21_10h08.46.307,RL,2022.2.5,60.09474536940874,
70,41,46,51,0,113,113,113,,,,,,,,,,,None,697.2923718999955,697.2923718999955,697.2923718999955,697.2923718999955,697.2923718999955,697.2923718999955,f,0.3911550999910105,697.7090671000187,697.7090671000187,697.7090671000187,697.7090671000187,697.7090671000187,697.7090671000187,697.9923623000213,698.892720600008,698.9084666999988,698.9084666999988,698.9084666999988,698.9084666999988,698.9084666999988,698.9084666999988,698.9084666999988,698.9084666999988,698.9084666999988,698.9084666999988,698.9084666999988,698.9084666999988,698.9084666999988,700.1066522000183,700.1066522000183,700.1066522000183,700.1066522000183,700.1066522000183,700.1066522000183,700.1066522000183,70,41,46,51,70,60,700.1066522000183,701.7578895000042,,,,,,,,,,,,,,３３３,f,２３,2023-05-21_10h08.46.307,RL,2022.2.5,60.09474536940874,
74,48,37,58,0,114,114,114,,,,,,,,,,,None,701.7578895000042,701.7578895000042,701.7578895000042,701.7578895000042,701.7578895000042,701.7578895000042,f,0.4051529999997001,702.1933703999966,702.1933703999966,702.1933703999966,702.1933703999966,702.1933703999966,702.1933703999966,702.4749410999939,704.0745632000035,704.0913208000129,704.0913208000129,704.0913208000129,704.0913208000129,704.0913208000129,704.0913208000129,704.0913208000129,704.0913208000129,704.0913208000129,704.0913208000129,704.0913208000129,704.0913208000129,704.0913208000129,705.9891621000133,705.9891621000133,705.9891621000133,705.9891621000133,705.9891621000133,705.9891621000133,705.9891621000133,74,48,37,58,74,60,705.9891621000133,707.5738271000155,,,,,,,,,,,,,,３３３,f,２３,2023-05-21_10h08.46.307,RL,2022.2.5,60.09474536940874,
65,50,48,56,0,115,115,115,,,,,,,,,,,None,707.5738271000155,707.5738271000155,707.5738271000155,707.5738271000155,707.5738271000155,707.5738271000155,f,0.3528317000018433,707.9591511000181,707.9591511000181,707.9591511000181,707.9591511000181,707.9591511000181,707.9591511000181,708.2570882000146,709.8401323000144,709.8401323000144,709.8401323000144,709.8401323000144,709.8401323000144,709.8401323000144,709.8401323000144,709.8401323000144,709.8401323000144,709.8401323000144,709.8401323000144,709.8401323000144,709.8401323000144,709.8401323000144,711.7214636999997,711.7214636999997,711.7214636999997,711.7214636999997,711.7214636999997,711.7214636999997,711.7214636999997,65,50,48,56,65,60,711.7214636999997,713.5730191000039,,,,,,,,,,,,,,３３３,f,２３,2023-05-21_10h08.46.307,RL,2022.2.5,60.09474536940874,
68,50,35,55,0,116,116,116,,,,,,,,,,,None,713.5730191000039,713.5730191000039,713.5730191000039,713.5730191000039,713.5730191000039,713.5730191000039,f,0.3027236000052653,713.9064739000169,713.9064739000169,713.9064739000169,713.9064739000169,713.9064739000169,713.9064739000169,714.1893626000092,715.6058811999974,715.6225047000044,715.6225047000044,715.6225047000044,715.6225047000044,715.6225047000044,715.6225047000044,715.6225047000044,715.6225047000044,715.6225047000044,715.6225047000044,715.6225047000044,715.6225047000044,715.6225047000044,717.3371596999932,717.3371596999932,717.3371596999932,717.3371596999932,717.3371596999932,717.3371596999932,717.3371596999932,68,50,35,55,68,60,717.3371596999932,719.3047063999984,,,,,,,,,,,,,,３３３,f,２３,2023-05-21_10h08.46.307,RL,2022.2.5,60.09474536940874,
73,47,43,59,0,117,117,117,,,,,,,,,,,None,719.3047063999984,719.3047063999984,719.3047063999984,719.3047063999984,719.3047063999984,719.3047063999984,j,0.2664630000072066,719.588625400007,719.588625400007,719.588625400007,719.588625400007,719.588625400007,719.588625400007,719.8884039999975,720.9381717000215,720.9381717000215,720.9381717000215,720.9381717000215,720.9381717000215,720.9381717000215,720.9381717000215,720.9381717000215,720.9381717000215,720.9381717000215,720.9381717000215,720.9381717000215,720.9381717000215,720.9381717000215,722.2865755000093,722.2865755000093,722.2865755000093,722.2865755000093,722.2865755000093,722.2865755000093,722.2865755000093,73,47,43,59,59,60,722.2865755000093,723.9871453999949,,,,,,,,,,,,,,３３３,f,２３,2023-05-21_10h08.46.307,RL,2022.2.5,60.09474536940874,
73,55,46,47,0,118,118,118,,,,,,,,,,,None,723.9871453999949,723.9871453999949,723.9871453999949,723.9871453999949,723.9871453999949,723.9871453999949,f,0.3876596000045538,724.4074613999983,724.4074613999983,724.4074613999983,724.4074613999983,724.4074613999983,724.4074613999983,724.687600300007,725.8706803999958,725.8873924000072,725.8873924000072,725.8873924000072,725.8873924000072,725.8873924000072,725.8873924000072,725.8873924000072,725.8873924000072,725.8873924000072,725.8873924000072,725.8873924000072,725.8873924000072,725.8873924000072,727.368770800007,727.368770800007,727.368770800007,727.368770800007,727.368770800007,727.368770800007,727.368770800007,73,55,46,47,73,60,727.368770800007,729.0530471999955,,,,,,,,,,,,,,３３３,f,２３,2023-05-21_10h08.46.307,RL,2022.2.5,60.09474536940874,
76,49,53,49,0,119,119,119,,,,,,,,,,,None,729.0530471999955,729.0530471999955,729.0530471999955,729.0530471999955,729.0530471999955,729.0530471999955,f,0.3730914999905508,729.4556520000042,729.4556520000042,729.4556520000042,729.4556520000042,729.4556520000042,729.4556520000042,729.753441000008,731.2196559000004,731.2196559000004,731.2196559000004,731.2196559000004,731.2196559000004,731.2196559000004,731.2196559000004,731.2196559000004,731.2196559000004,731.2196559000004,731.2196559000004,731.2196559000004,731.2196559000004,731.2196559000004,732.9848313000111,732.9848313000111,732.9848313000111,732.9848313000111,732.9848313000111,732.9848313000111,732.9848313000111,76,49,53,49,76,60,732.9848313000111,734.9353374000057,,,,,,,,,,,,,,３３３,f,２３,2023-05-21_10h08.46.307,RL,2022.2.5,60.09474536940874,
74,53,55,51,0,120,120,120,,,,,,,,,,,None,734.9353374000057,734.9353374000057,734.9353374000057,734.9353374000057,734.9353374000057,734.9353374000057,f,0.4015343000064604,735.3696440000203,735.3696440000203,735.3696440000203,735.3696440000203,735.3696440000203,735.3696440000203,735.6529957000166,737.102055299998,737.1359216000128,737.1359216000128,737.1359216000128,737.1359216000128,737.1359216000128,737.1359216000128,737.1359216000128,737.1359216000128,737.1359216000128,737.1359216000128,737.1359216000128,737.1359216000128,737.1359216000128,738.8837895000179,738.8837895000179,738.8837895000179,738.8837895000179,738.8837895000179,738.8837895000179,738.8837895000179,74,53,55,51,74,60,738.8837895000179,740.8677057000168,,,,,,,,,,,,,,３３３,f,２３,2023-05-21_10h08.46.307,RL,2022.2.5,60.09474536940874,
