arm1,arm2,arm3,arm4,trials.thisRepN,trials.thisTrialN,trials.thisN,trials.thisIndex,instru_img1.started,instru_resp.started,instru_resp.keys,instru_resp.rt,image_2.started,text_2.started,image_2.stopped,text_2.stopped,fixbefore_2.started,fixbefore_2.stopped,rest_response.keys,red.started,green.started,yellow.started,blue.started,choose_bandit.started,Fixation.started,choose_bandit.keys,choose_bandit.rt,black.started,red_2.started,green_2.started,yellow_2.started,blue_2.started,fixation_2.started,docs.started,docs.stopped,black.stopped,red_2.stopped,green_2.stopped,yellow_2.stopped,blue_2.stopped,fixation_2.stopped,black_com.started,reward_sub.started,reward__sub.started,red_compare.started,green_com.started,yellow_com.started,blue_com.started,black_com.stopped,reward_sub.stopped,reward__sub.stopped,red_compare.stopped,green_com.stopped,yellow_com.stopped,blue_com.stopped,rewardred,rewardyellow,rewardblue,rewardgreen,subchoose,expectation,intertrialfix.started,intertrialfix.stopped,red.stopped,green.stopped,yellow.stopped,blue.stopped,choose_bandit.stopped,Fixation.stopped,bigx.started,bigx.stopped,rest_image.started,rest_response.started,rest_response.rt,image_expect_after.started,text_exp_after.started,image_expect_after.stopped,text_exp_after.stopped,image.started,key_resp.started,key_resp.keys,key_resp.rt,participant,Gender,Age,date,expName,psychopyVersion,frameRate,
,,,,,,,,10.165466100006597,10.165466100006597,space,22.67756250000093,,,,,,,,,,,,,,,,,,,,,,,,,,,,,,,,,,,,,,,,,,,,,,,,,,,,,,,,,,,,,,,,,,,,,,,３３４,f,1,2023-05-21_10h38.57.123,RL,2022.2.5,60.01158223623611,
42,47,48,76,0,0,0,0,,,,,32.86402880001697,32.86402880001697,37.863562300015474,37.863562300015474,37.863562300015474,38.86646020002081,None,38.86646020002081,38.86646020002081,38.86646020002081,38.86646020002081,38.86646020002081,38.86646020002081,j,0.7567068999924231,39.65354610001668,39.65354610001668,39.65354610001668,39.65354610001668,39.65354610001668,39.65354610001668,39.93314080001437,41.76814800000284,41.797346700011985,41.797346700011985,41.797346700011985,41.797346700011985,41.797346700011985,41.797346700011985,41.797346700011985,41.797346700011985,41.797346700011985,41.797346700011985,41.797346700011985,41.797346700011985,41.797346700011985,43.97316430002684,43.97316430002684,43.97316430002684,43.97316430002684,43.97316430002684,43.97316430002684,43.97316430002684,47,42,76,48,48,70,43.97316430002684,45.546625300019514,,,,,,,,,,,,,,,,,,,,３３４,f,1,2023-05-21_10h38.57.123,RL,2022.2.5,60.01158223623611,
45,36,49,58,0,1,1,1,,,,,,,,,,,None,45.546625300019514,45.546625300019514,45.546625300019514,45.546625300019514,45.546625300019514,45.546625300019514,f,0.7457541000039782,46.314634300011676,46.314634300011676,46.314634300011676,46.314634300011676,46.314634300011676,46.314634300011676,46.59750040000654,48.063505400001304,48.08122460002778,48.08122460002778,48.08122460002778,48.08122460002778,48.08122460002778,48.08122460002778,48.08122460002778,48.08122460002778,48.08122460002778,48.08122460002778,48.08122460002778,48.08122460002778,48.08122460002778,49.845133300026646,49.845133300026646,49.845133300026646,49.845133300026646,49.845133300026646,49.845133300026646,49.845133300026646,36,45,58,49,36,70,49.845133300026646,51.67928910002229,,,,,,,,,,,,,,,,,,,,３３４,f,1,2023-05-21_10h38.57.123,RL,2022.2.5,60.01158223623611,
45,41,52,65,0,2,2,2,,,,,,,,,,,None,51.67928910002229,51.67928910002229,51.67928910002229,51.67928910002229,51.67928910002229,51.67928910002229,i,0.4369871999952011,52.14759010000853,52.14759010000853,52.14759010000853,52.14759010000853,52.14759010000853,52.14759010000853,52.445984800026054,53.562517200014554,53.562517200014554,53.562517200014554,53.562517200014554,53.562517200014554,53.562517200014554,53.562517200014554,53.562517200014554,53.562517200014554,53.562517200014554,53.562517200014554,53.562517200014554,53.562517200014554,53.562517200014554,54.97715010002139,54.97715010002139,54.97715010002139,54.97715010002139,54.97715010002139,54.97715010002139,54.97715010002139,41,45,65,52,65,70,54.97715010002139,56.91176070002257,,,,,,,,,,,,,,,,,,,,３３４,f,1,2023-05-21_10h38.57.123,RL,2022.2.5,60.01158223623611,
50,46,50,62,0,3,3,3,,,,,,,,,,,None,56.91176070002257,56.91176070002257,56.91176070002257,56.91176070002257,56.91176070002257,56.91176070002257,r,0.508021399989957,57.44552760000806,57.44552760000806,57.44552760000806,57.44552760000806,57.44552760000806,57.44552760000806,57.72832970001036,58.661814500024775,58.67802610000945,58.67802610000945,58.67802610000945,58.67802610000945,58.67802610000945,58.67802610000945,58.67802610000945,58.67802610000945,58.67802610000945,58.67802610000945,58.67802610000945,58.67802610000945,58.67802610000945,59.90951820000191,59.90951820000191,59.90951820000191,59.90951820000191,59.90951820000191,59.90951820000191,59.90951820000191,46,50,62,50,50,70,59.90951820000191,61.811055600002874,,,,,,,,,,,,,,,,,,,,３３４,f,1,2023-05-21_10h38.57.123,RL,2022.2.5,60.01158223623611,
54,44,60,64,0,4,4,4,,,,,,,,,,,None,61.811055600002874,61.811055600002874,61.811055600002874,61.811055600002874,61.811055600002874,61.811055600002874,f,0.41344080000999384,62.245242300006794,62.245242300006794,62.245242300006794,62.245242300006794,62.245242300006794,62.245242300006794,62.52793820001534,64.0271603000001,64.04361210000934,64.04361210000934,64.04361210000934,64.04361210000934,64.04361210000934,64.04361210000934,64.04361210000934,64.04361210000934,64.04361210000934,64.04361210000934,64.04361210000934,64.04361210000934,64.04361210000934,65.8421715000004,65.8421715000004,65.8421715000004,65.8421715000004,65.8421715000004,65.8421715000004,65.8421715000004,44,54,64,60,44,70,65.8421715000004,67.59307560001616,,,,,,,,,,,,,,,,,,,,３３４,f,1,2023-05-21_10h38.57.123,RL,2022.2.5,60.01158223623611,
49,34,59,61,0,5,5,5,,,,,,,,,,,None,67.59307560001616,67.59307560001616,67.59307560001616,67.59307560001616,67.59307560001616,67.59307560001616,j,0.7677020000119228,68.39737460002652,68.39737460002652,68.39737460002652,68.39737460002652,68.39737460002652,68.39737460002652,68.67678940002224,70.39275340002496,70.4257779000036,70.4257779000036,70.4257779000036,70.4257779000036,70.4257779000036,70.4257779000036,70.4257779000036,70.4257779000036,70.4257779000036,70.4257779000036,70.4257779000036,70.4257779000036,70.4257779000036,72.44078110001283,72.44078110001283,72.44078110001283,72.44078110001283,72.44078110001283,72.44078110001283,72.44078110001283,34,49,61,59,59,70,72.44078110001283,73.9916571000067,,,,,,,,,,,,,,,,,,,,３３４,f,1,2023-05-21_10h38.57.123,RL,2022.2.5,60.01158223623611,
45,38,66,64,0,6,6,6,,,,,,,,,,,None,73.9916571000067,73.9916571000067,73.9916571000067,73.9916571000067,73.9916571000067,73.9916571000067,j,0.6719241999962833,74.69351960002678,74.69351960002678,74.69351960002678,74.69351960002678,74.69351960002678,74.69351960002678,74.97587290001684,75.84228110002005,75.85856050002621,75.85856050002621,75.85856050002621,75.85856050002621,75.85856050002621,75.85856050002621,75.85856050002621,75.85856050002621,75.85856050002621,75.85856050002621,75.85856050002621,75.85856050002621,75.85856050002621,77.0231798000168,77.0231798000168,77.0231798000168,77.0231798000168,77.0231798000168,77.0231798000168,77.0231798000168,38,45,64,66,66,70,77.0231798000168,78.85767150000902,,,,,,,,,,,,,,,,,,,,３３４,f,1,2023-05-21_10h38.57.123,RL,2022.2.5,60.01158223623611,
46,32,66,69,0,7,7,7,,,,,,,,,,,None,78.85767150000902,78.85767150000902,78.85767150000902,78.85767150000902,78.85767150000902,78.85767150000902,r,0.8072558999992907,79.6940062000067,79.6940062000067,79.6940062000067,79.6940062000067,79.6940062000067,79.6940062000067,79.974379900028,81.15803820002475,81.17429439999978,81.17429439999978,81.17429439999978,81.17429439999978,81.17429439999978,81.17429439999978,81.17429439999978,81.17429439999978,81.17429439999978,81.17429439999978,81.17429439999978,81.17429439999978,81.17429439999978,82.65574490002473,82.65574490002473,82.65574490002473,82.65574490002473,82.65574490002473,82.65574490002473,82.65574490002473,32,46,69,66,46,70,82.65574490002473,84.53988950001076,,,,,,,,,,,,,,,,,,,,３３４,f,1,2023-05-21_10h38.57.123,RL,2022.2.5,60.01158223623611,
40,30,68,74,0,8,8,8,,,,,,,,,,,None,84.53988950001076,84.53988950001076,84.53988950001076,84.53988950001076,84.53988950001076,84.53988950001076,j,0.8290324000117835,85.39382870000554,85.39382870000554,85.39382870000554,85.39382870000554,85.39382870000554,85.39382870000554,85.67358770000283,87.57351980000385,87.59017120001954,87.59017120001954,87.59017120001954,87.59017120001954,87.59017120001954,87.59017120001954,87.59017120001954,87.59017120001954,87.59017120001954,87.59017120001954,87.59017120001954,87.59017120001954,87.59017120001954,89.78784160001669,89.78784160001669,89.78784160001669,89.78784160001669,89.78784160001669,89.78784160001669,89.78784160001669,30,40,74,68,68,70,89.78784160001669,91.43892110002344,,,,,,,,,,,,,,,,,,,,３３４,f,1,2023-05-21_10h38.57.123,RL,2022.2.5,60.01158223623611,
53,29,70,64,0,9,9,9,,,,,,,,,,,None,91.43892110002344,91.43892110002344,91.43892110002344,91.43892110002344,91.43892110002344,91.43892110002344,i,0.7287600999989081,92.19058020002558,92.19058020002558,92.19058020002558,92.19058020002558,92.19058020002558,92.19058020002558,92.47248090000357,94.08864270002232,94.10529040000984,94.10529040000984,94.10529040000984,94.10529040000984,94.10529040000984,94.10529040000984,94.10529040000984,94.10529040000984,94.10529040000984,94.10529040000984,94.10529040000984,94.10529040000984,94.10529040000984,96.0199804000149,96.0199804000149,96.0199804000149,96.0199804000149,96.0199804000149,96.0199804000149,96.0199804000149,29,53,64,70,64,70,96.0199804000149,97.85455600000569,,,,,,,,,,,,,,,,,,,,３３４,f,1,2023-05-21_10h38.57.123,RL,2022.2.5,60.01158223623611,
55,29,61,62,0,10,10,10,,,,,,,,,,,None,97.85455600000569,97.85455600000569,97.85455600000569,97.85455600000569,97.85455600000569,97.85455600000569,i,0.40819389998796396,98.28962980001234,98.28962980001234,98.28962980001234,98.28962980001234,98.28962980001234,98.28962980001234,98.58801669999957,99.78733160000411,99.78733160000411,99.78733160000411,99.78733160000411,99.78733160000411,99.78733160000411,99.78733160000411,99.78733160000411,99.78733160000411,99.78733160000411,99.78733160000411,99.78733160000411,99.78733160000411,99.78733160000411,101.28597980001359,101.28597980001359,101.28597980001359,101.28597980001359,101.28597980001359,101.28597980001359,101.28597980001359,29,55,62,61,62,70,101.28597980001359,102.95316000000457,,,,,,,,,,,,,,,,,,,,３３４,f,1,2023-05-21_10h38.57.123,RL,2022.2.5,60.01158223623611,
53,29,68,62,0,11,11,11,,,,,,,,,,,None,102.95316000000457,102.95316000000457,102.95316000000457,102.95316000000457,102.95316000000457,102.95316000000457,f,0.7866989000176545,103.77186330000404,103.77186330000404,103.77186330000404,103.77186330000404,103.77186330000404,103.77186330000404,104.05376610002713,104.98702970001614,105.00365040000179,105.00365040000179,105.00365040000179,105.00365040000179,105.00365040000179,105.00365040000179,105.00365040000179,105.00365040000179,105.00365040000179,105.00365040000179,105.00365040000179,105.00365040000179,105.00365040000179,106.23494610001217,106.23494610001217,106.23494610001217,106.23494610001217,106.23494610001217,106.23494610001217,106.23494610001217,29,53,62,68,29,70,106.23494610001217,108.15238740001223,,,,,,,,,,,,,,,,,,,,３３４,f,1,2023-05-21_10h38.57.123,RL,2022.2.5,60.01158223623611,
52,32,57,67,0,12,12,12,,,,,,,,,,,None,108.15238740001223,108.15238740001223,108.15238740001223,108.15238740001223,108.15238740001223,108.15238740001223,i,0.8047223000030499,108.98803030001,108.98803030001,108.98803030001,108.98803030001,108.98803030001,108.98803030001,109.26964460001909,110.46928940000362,110.4854407000239,110.4854407000239,110.4854407000239,110.4854407000239,110.4854407000239,110.4854407000239,110.4854407000239,110.4854407000239,110.4854407000239,110.4854407000239,110.4854407000239,110.4854407000239,110.4854407000239,111.98408380002365,111.98408380002365,111.98408380002365,111.98408380002365,111.98408380002365,111.98408380002365,111.98408380002365,32,52,67,57,67,70,111.98408380002365,113.60213590000058,,,,,,,,,,,,,,,,,,,,３３４,f,1,2023-05-21_10h38.57.123,RL,2022.2.5,60.01158223623611,
63,34,42,70,0,13,13,13,,,,,,,,,,,None,113.60213590000058,113.60213590000058,113.60213590000058,113.60213590000058,113.60213590000058,113.60213590000058,i,0.5749698000145145,114.20190630000434,114.20190630000434,114.20190630000434,114.20190630000434,114.20190630000434,114.20190630000434,114.50180430000182,116.25133110000752,116.25133110000752,116.25133110000752,116.25133110000752,116.25133110000752,116.25133110000752,116.25133110000752,116.25133110000752,116.25133110000752,116.25133110000752,116.25133110000752,116.25133110000752,116.25133110000752,116.25133110000752,118.29945310001494,118.29945310001494,118.29945310001494,118.29945310001494,118.29945310001494,118.29945310001494,118.29945310001494,34,63,70,42,70,70,118.29945310001494,120.10088900002302,,,,,,,,,,,,,,,,,,,,３３４,f,1,2023-05-21_10h38.57.123,RL,2022.2.5,60.01158223623611,
59,30,45,70,0,14,14,14,,,,,,,,,,,None,120.10088900002302,120.10088900002302,120.10088900002302,120.10088900002302,120.10088900002302,120.10088900002302,i,0.3417961999948602,120.46895940002287,120.46895940002287,120.46895940002287,120.46895940002287,120.46895940002287,120.46895940002287,120.75055720002274,122.45083410001826,122.46722640001099,122.46722640001099,122.46722640001099,122.46722640001099,122.46722640001099,122.46722640001099,122.46722640001099,122.46722640001099,122.46722640001099,122.46722640001099,122.46722640001099,122.46722640001099,122.46722640001099,124.46536150001339,124.46536150001339,124.46536150001339,124.46536150001339,124.46536150001339,124.46536150001339,124.46536150001339,30,59,70,45,70,70,124.46536150001339,126.13276740000583,,,,,,,,,,,,,,,,,,,,３３４,f,1,2023-05-21_10h38.57.123,RL,2022.2.5,60.01158223623611,
51,30,41,69,0,15,15,15,,,,,,,,,,,None,126.13276740000583,126.13276740000583,126.13276740000583,126.13276740000583,126.13276740000583,126.13276740000583,i,0.5859105999988969,126.76193580002291,126.76193580002291,126.76193580002291,126.76193580002291,126.76193580002291,126.76193580002291,127.05012750002788,128.13306160000502,128.15025650002644,128.15025650002644,128.15025650002644,128.15025650002644,128.15025650002644,128.15025650002644,128.15025650002644,128.15025650002644,128.15025650002644,128.15025650002644,128.15025650002644,128.15025650002644,128.15025650002644,129.53079640000942,129.53079640000942,129.53079640000942,129.53079640000942,129.53079640000942,129.53079640000942,129.53079640000942,30,51,69,41,69,70,129.53079640000942,131.49854270002106,,,,,,,,,,,,,,,,,,,,３３４,f,1,2023-05-21_10h38.57.123,RL,2022.2.5,60.01158223623611,
63,26,41,64,0,16,16,16,,,,,,,,,,,None,131.49854270002106,131.49854270002106,131.49854270002106,131.49854270002106,131.49854270002106,131.49854270002106,i,0.38332019999506883,131.92262620001566,131.92262620001566,131.92262620001566,131.92262620001566,131.92262620001566,131.92262620001566,132.19918920000782,133.69871380002587,133.7153074000089,133.7153074000089,133.7153074000089,133.7153074000089,133.7153074000089,133.7153074000089,133.7153074000089,133.7153074000089,133.7153074000089,133.7153074000089,133.7153074000089,133.7153074000089,133.7153074000089,135.51298980001593,135.51298980001593,135.51298980001593,135.51298980001593,135.51298980001593,135.51298980001593,135.51298980001593,26,63,64,41,64,70,135.51298980001593,137.26399930001935,,,,,,,,,,,,,,,,,,,,３３４,f,1,2023-05-21_10h38.57.123,RL,2022.2.5,60.01158223623611,
58,23,36,62,0,17,17,17,,,,,,,,,,,None,137.26399930001935,137.26399930001935,137.26399930001935,137.26399930001935,137.26399930001935,137.26399930001935,r,0.8296032999933232,138.11590480001178,138.11590480001178,138.11590480001178,138.11590480001178,138.11590480001178,138.11590480001178,138.4146785000048,140.0144082000188,140.03064860001905,140.03064860001905,140.03064860001905,140.03064860001905,140.03064860001905,140.03064860001905,140.03064860001905,140.03064860001905,140.03064860001905,140.03064860001905,140.03064860001905,140.03064860001905,140.03064860001905,141.92854310001712,141.92854310001712,141.92854310001712,141.92854310001712,141.92854310001712,141.92854310001712,141.92854310001712,23,58,62,36,58,70,141.92854310001712,143.83003640000243,,,,,,,,,,,,,,,,,,,,３３４,f,1,2023-05-21_10h38.57.123,RL,2022.2.5,60.01158223623611,
65,25,41,71,0,18,18,18,,,,,,,,,,,None,143.83003640000243,143.83003640000243,143.83003640000243,143.83003640000243,143.83003640000243,143.83003640000243,i,0.3844190000090748,144.25584240001626,144.25584240001626,144.25584240001626,144.25584240001626,144.25584240001626,144.25584240001626,144.5467749000236,145.57939000002807,145.57939000002807,145.57939000002807,145.57939000002807,145.57939000002807,145.57939000002807,145.57939000002807,145.57939000002807,145.57939000002807,145.57939000002807,145.57939000002807,145.57939000002807,145.57939000002807,145.57939000002807,146.89483920001658,146.89483920001658,146.89483920001658,146.89483920001658,146.89483920001658,146.89483920001658,146.89483920001658,25,65,71,41,71,70,146.89483920001658,148.59584770002402,,,,,,,,,,,,,,,,,,,,３３４,f,1,2023-05-21_10h38.57.123,RL,2022.2.5,60.01158223623611,
57,28,38,71,0,19,19,19,,,,,,,,,,,None,148.59584770002402,148.59584770002402,148.59584770002402,148.59584770002402,148.59584770002402,148.59584770002402,j,0.4619137999834493,149.08043920001364,149.08043920001364,149.08043920001364,149.08043920001364,149.08043920001364,149.08043920001364,149.36297420001938,151.27927710002405,151.29574340002728,151.29574340002728,151.29574340002728,151.29574340002728,151.29574340002728,151.29574340002728,151.29574340002728,151.29574340002728,151.29574340002728,151.29574340002728,151.29574340002728,151.29574340002728,151.29574340002728,153.51029520001612,153.51029520001612,153.51029520001612,153.51029520001612,153.51029520001612,153.51029520001612,153.51029520001612,28,57,71,38,38,70,153.51029520001612,155.1113933000015,,,,,,,,,,,,,,,,,,,,３３４,f,1,2023-05-21_10h38.57.123,RL,2022.2.5,60.01158223623611,
55,29,32,66,0,20,20,20,,,,,,,,,,,None,155.1113933000015,155.1113933000015,155.1113933000015,155.1113933000015,155.1113933000015,155.1113933000015,f,0.6312282000144478,155.76530720002484,155.76530720002484,155.76530720002484,155.76530720002484,155.76530720002484,155.76530720002484,156.04520940000657,157.01132150000194,157.02803830002085,157.02803830002085,157.02803830002085,157.02803830002085,157.02803830002085,157.02803830002085,157.02803830002085,157.02803830002085,157.02803830002085,157.02803830002085,157.02803830002085,157.02803830002085,157.02803830002085,158.27622510000947,158.27622510000947,158.27622510000947,158.27622510000947,158.27622510000947,158.27622510000947,158.27622510000947,29,55,66,32,29,70,158.27622510000947,160.1600846000074,,,,,,,,,,,,,,,,,,,,３３４,f,1,2023-05-21_10h38.57.123,RL,2022.2.5,60.01158223623611,
60,11,41,70,0,21,21,21,,,,,,,,,,,None,160.1600846000074,160.1600846000074,160.1600846000074,160.1600846000074,160.1600846000074,160.1600846000074,i,0.3412587000057101,160.53167930000927,160.53167930000927,160.53167930000927,160.53167930000927,160.53167930000927,160.53167930000927,160.82703510002466,161.69380990002537,161.69380990002537,161.69380990002537,161.69380990002537,161.69380990002537,161.69380990002537,161.69380990002537,161.69380990002537,161.69380990002537,161.69380990002537,161.69380990002537,161.69380990002537,161.69380990002537,161.69380990002537,162.8582177000062,162.8582177000062,162.8582177000062,162.8582177000062,162.8582177000062,162.8582177000062,162.8582177000062,11,60,70,41,70,70,162.8582177000062,164.57591310000862,,,,,,,,,,,,,,,,,,,,３３４,f,1,2023-05-21_10h38.57.123,RL,2022.2.5,60.01158223623611,
52,19,35,72,0,22,22,22,,,,,,,,,,,None,164.57591310000862,164.57591310000862,164.57591310000862,164.57591310000862,164.57591310000862,164.57591310000862,i,0.30311420001089573,164.91412790000322,164.91412790000322,164.91412790000322,164.91412790000322,164.91412790000322,164.91412790000322,165.19289820000995,166.15952440002002,166.1760382000066,166.1760382000066,166.1760382000066,166.1760382000066,166.1760382000066,166.1760382000066,166.1760382000066,166.1760382000066,166.1760382000066,166.1760382000066,166.1760382000066,166.1760382000066,166.1760382000066,167.44130800000858,167.44130800000858,167.44130800000858,167.44130800000858,167.44130800000858,167.44130800000858,167.44130800000858,19,52,72,35,72,70,167.44130800000858,169.25873440000578,,,,,,,,,,,,,,,,,,,,３３４,f,1,2023-05-21_10h38.57.123,RL,2022.2.5,60.01158223623611,
55,19,37,63,0,23,23,23,,,,,,,,,,,None,169.25873440000578,169.25873440000578,169.25873440000578,169.25873440000578,169.25873440000578,169.25873440000578,i,0.3525124000152573,169.64774220000254,169.64774220000254,169.64774220000254,169.64774220000254,169.64774220000254,169.64774220000254,169.9255626000231,171.80826160000288,171.82527250002022,171.82527250002022,171.82527250002022,171.82527250002022,171.82527250002022,171.82527250002022,171.82527250002022,171.82527250002022,171.82527250002022,171.82527250002022,171.82527250002022,171.82527250002022,171.82527250002022,174.00634740001988,174.00634740001988,174.00634740001988,174.00634740001988,174.00634740001988,174.00634740001988,174.00634740001988,19,55,63,37,63,70,174.00634740001988,176.00738160000765,,,,,,,,,,,,,,,,,,,,３３４,f,1,2023-05-21_10h38.57.123,RL,2022.2.5,60.01158223623611,
51,31,34,63,0,24,24,24,,,,,,,,,,,None,176.00738160000765,176.00738160000765,176.00738160000765,176.00738160000765,176.00738160000765,176.00738160000765,i,0.2760615000152029,176.30844260001322,176.30844260001322,176.30844260001322,176.30844260001322,176.30844260001322,176.30844260001322,176.59130160001223,178.42438400001265,178.44114430001355,178.44114430001355,178.44114430001355,178.44114430001355,178.44114430001355,178.44114430001355,178.44114430001355,178.44114430001355,178.44114430001355,178.44114430001355,178.44114430001355,178.44114430001355,178.44114430001355,180.57207630001358,180.57207630001358,180.57207630001358,180.57207630001358,180.57207630001358,180.57207630001358,180.57207630001358,31,51,63,34,63,70,180.57207630001358,182.25611510002636,,,,,,,,,,,,,,,,,,,,３３４,f,1,2023-05-21_10h38.57.123,RL,2022.2.5,60.01158223623611,
59,30,32,65,0,25,25,25,,,,,,,,,,,None,182.25611510002636,182.25611510002636,182.25611510002636,182.25611510002636,182.25611510002636,182.25611510002636,r,0.4014847000071313,182.6965593000059,182.6965593000059,182.6965593000059,182.6965593000059,182.6965593000059,182.6965593000059,182.97367790000862,184.65617270002258,184.6726838000177,184.6726838000177,184.6726838000177,184.6726838000177,184.6726838000177,184.6726838000177,184.6726838000177,184.6726838000177,184.6726838000177,184.6726838000177,184.6726838000177,184.6726838000177,184.6726838000177,186.6545057000185,186.6545057000185,186.6545057000185,186.6545057000185,186.6545057000185,186.6545057000185,186.6545057000185,30,59,65,32,59,70,186.6545057000185,188.355727200018,,,,,,,,,,,,,,,,,,,,３３４,f,1,2023-05-21_10h38.57.123,RL,2022.2.5,60.01158223623611,
44,16,30,70,0,26,26,26,,,,,,,,,,,None,188.355727200018,188.355727200018,188.355727200018,188.355727200018,188.355727200018,188.355727200018,None,,,,,,,,,,,,,,,,,,,,,,,,,,,,,,16,44,70,30,0,70,195.86956150000333,197.55356990001746,189.8559562000155,189.8559562000155,189.8559562000155,189.8559562000155,189.8559562000155,189.8559562000155,189.8559562000155,195.86956150000333,,,,,,,,,,,,３３４,f,1,2023-05-21_10h38.57.123,RL,2022.2.5,60.01158223623611,
57,8,32,67,0,27,27,27,,,,,,,,,,,None,197.55356990001746,197.55356990001746,197.55356990001746,197.55356990001746,197.55356990001746,197.55356990001746,i,0.2726498999982141,197.8570087000262,197.8570087000262,197.8570087000262,197.8570087000262,197.8570087000262,197.8570087000262,198.1374543000129,200.02069900001516,200.03699280001456,200.03699280001456,200.03699280001456,200.03699280001456,200.03699280001456,200.03699280001456,200.03699280001456,200.03699280001456,200.03699280001456,200.03699280001456,200.03699280001456,200.03699280001456,200.03699280001456,202.21844980001333,202.21844980001333,202.21844980001333,202.21844980001333,202.21844980001333,202.21844980001333,202.21844980001333,8,57,67,32,67,70,202.21844980001333,203.85290990001522,,,,,,,,,,,,,,,,,,,,３３４,f,1,2023-05-21_10h38.57.123,RL,2022.2.5,60.01158223623611,
50,6,33,53,0,28,28,28,,,,,,,,,,,None,203.85290990001522,203.85290990001522,203.85290990001522,203.85290990001522,203.85290990001522,203.85290990001522,f,0.3522489999886602,204.2405456000124,204.2405456000124,204.2405456000124,204.2405456000124,204.2405456000124,204.2405456000124,204.51950860000215,206.26909500002512,206.28569450002396,206.28569450002396,206.28569450002396,206.28569450002396,206.28569450002396,206.28569450002396,206.28569450002396,206.28569450002396,206.28569450002396,206.28569450002396,206.28569450002396,206.28569450002396,206.28569450002396,208.3336281000229,208.3336281000229,208.3336281000229,208.3336281000229,208.3336281000229,208.3336281000229,208.3336281000229,6,50,53,33,6,70,208.3336281000229,210.31842940000934,,,,,,,,,,,,,,,,,,,,３３４,f,1,2023-05-21_10h38.57.123,RL,2022.2.5,60.01158223623611,
50,12,30,57,0,29,29,29,,,,,,,,,,,None,210.31842940000934,210.31842940000934,210.31842940000934,210.31842940000934,210.31842940000934,210.31842940000934,i,0.3064083000062965,210.65200180001557,210.65200180001557,210.65200180001557,210.65200180001557,210.65200180001557,210.65200180001557,210.93528060000972,212.4014700000116,212.41820000001462,212.41820000001462,212.41820000001462,212.41820000001462,212.41820000001462,212.41820000001462,212.41820000001462,212.41820000001462,212.41820000001462,212.41820000001462,212.41820000001462,212.41820000001462,212.41820000001462,214.18272090001847,214.18272090001847,214.18272090001847,214.18272090001847,214.18272090001847,214.18272090001847,214.18272090001847,12,50,57,30,57,70,214.18272090001847,216.0669206000166,,,,,,,,,,,,,,,,,,,,３３４,f,1,2023-05-21_10h38.57.123,RL,2022.2.5,60.01158223623611,
51,3,29,62,0,30,30,30,,,,,,,,,,,None,216.0669206000166,216.0669206000166,216.0669206000166,216.0669206000166,216.0669206000166,216.0669206000166,j,0.3056595000089146,216.40092320000986,216.40092320000986,216.40092320000986,216.40092320000986,216.40092320000986,216.40092320000986,216.70082980001462,217.80050580002717,217.80050580002717,217.80050580002717,217.80050580002717,217.80050580002717,217.80050580002717,217.80050580002717,217.80050580002717,217.80050580002717,217.80050580002717,217.80050580002717,217.80050580002717,217.80050580002717,217.80050580002717,219.18180460002623,219.18180460002623,219.18180460002623,219.18180460002623,219.18180460002623,219.18180460002623,219.18180460002623,3,51,62,29,29,70,219.18180460002623,221.08323910000036,,,,,,,,,,,,,,,,,,,,３３４,f,1,2023-05-21_10h38.57.123,RL,2022.2.5,60.01158223623611,
65,8,31,52,0,31,31,31,,,,,,,,,,,None,221.08323910000036,221.08323910000036,221.08323910000036,221.08323910000036,221.08323910000036,221.08323910000036,r,0.16841670000576414,221.28362660002313,221.28362660002313,221.28362660002313,221.28362660002313,221.28362660002313,221.28362660002313,221.5667444000137,222.53273490001447,222.54954070001259,222.54954070001259,222.54954070001259,222.54954070001259,222.54954070001259,222.54954070001259,222.54954070001259,222.54954070001259,222.54954070001259,222.54954070001259,222.54954070001259,222.54954070001259,222.54954070001259,223.81439020001562,223.81439020001562,223.81439020001562,223.81439020001562,223.81439020001562,223.81439020001562,223.81439020001562,8,65,52,31,65,70,223.81439020001562,225.33193430001847,,,,,,,,,,,,,,,,,,,,３３４,f,1,2023-05-21_10h38.57.123,RL,2022.2.5,60.01158223623611,
52,4,25,62,0,32,32,32,,,,,,,,,,,None,225.33193430001847,225.33193430001847,225.33193430001847,225.33193430001847,225.33193430001847,225.33193430001847,r,0.29691130001447164,225.6510085000191,225.6510085000191,225.6510085000191,225.6510085000191,225.6510085000191,225.6510085000191,225.93254680000246,226.8825566000014,226.89896489999956,226.89896489999956,226.89896489999956,226.89896489999956,226.89896489999956,226.89896489999956,226.89896489999956,226.89896489999956,226.89896489999956,226.89896489999956,226.89896489999956,226.89896489999956,226.89896489999956,228.14715260002413,228.14715260002413,228.14715260002413,228.14715260002413,228.14715260002413,228.14715260002413,228.14715260002413,4,52,62,25,52,70,228.14715260002413,229.93188420002116,,,,,,,,,,,,,,,,,,,,３３４,f,1,2023-05-21_10h38.57.123,RL,2022.2.5,60.01158223623611,
54,9,27,54,0,33,33,33,,,,,,,,,,,None,229.93188420002116,229.93188420002116,229.93188420002116,229.93188420002116,229.93188420002116,229.93188420002116,i,0.7179119000211358,230.67063920001965,230.67063920001965,230.67063920001965,230.67063920001965,230.67063920001965,230.67063920001965,230.96479790000012,232.0146848000004,232.0146848000004,232.0146848000004,232.0146848000004,232.0146848000004,232.0146848000004,232.0146848000004,232.0146848000004,232.0146848000004,232.0146848000004,232.0146848000004,232.0146848000004,232.0146848000004,232.0146848000004,233.3627022000146,233.3627022000146,233.3627022000146,233.3627022000146,233.3627022000146,233.3627022000146,233.3627022000146,9,54,54,27,54,70,233.3627022000146,234.9306559000106,,,,,,,,,,,,,,,,,,,,３３４,f,1,2023-05-21_10h38.57.123,RL,2022.2.5,60.01158223623611,
58,5,38,57,0,34,34,34,,,,,,,,,,,None,234.9306559000106,234.9306559000106,234.9306559000106,234.9306559000106,234.9306559000106,234.9306559000106,j,0.34173939999891445,235.297510400007,235.297510400007,235.297510400007,235.297510400007,235.297510400007,235.297510400007,235.58074000000488,236.44811420000042,236.46379390000948,236.46379390000948,236.46379390000948,236.46379390000948,236.46379390000948,236.46379390000948,236.46379390000948,236.46379390000948,236.46379390000948,236.46379390000948,236.46379390000948,236.46379390000948,236.46379390000948,237.6287200000079,237.6287200000079,237.6287200000079,237.6287200000079,237.6287200000079,237.6287200000079,237.6287200000079,5,58,57,38,38,70,237.6287200000079,239.61312820002786,,,,,,,,,,,,,,,,,,,,３３４,f,1,2023-05-21_10h38.57.123,RL,2022.2.5,60.01158223623611,
51,12,35,64,0,35,35,35,,,,,,,,,,,None,239.61312820002786,239.61312820002786,239.61312820002786,239.61312820002786,239.61312820002786,239.61312820002786,r,0.2376974000071641,239.88013140001567,239.88013140001567,239.88013140001567,239.88013140001567,239.88013140001567,239.88013140001567,240.1800831000146,241.64667550000013,241.64667550000013,241.64667550000013,241.64667550000013,241.64667550000013,241.64667550000013,241.64667550000013,241.64667550000013,241.64667550000013,241.64667550000013,241.64667550000013,241.64667550000013,241.64667550000013,241.64667550000013,243.4113830999995,243.4113830999995,243.4113830999995,243.4113830999995,243.4113830999995,243.4113830999995,243.4113830999995,12,51,64,35,51,70,243.4113830999995,245.0787105000054,,,,,,,,,,,,,,,,,,,,３３４,f,1,2023-05-21_10h38.57.123,RL,2022.2.5,60.01158223623611,
53,5,33,63,0,36,36,36,,,,,,,,,,,None,245.0787105000054,245.0787105000054,245.0787105000054,245.0787105000054,245.0787105000054,245.0787105000054,i,0.2826360999897588,245.37913970000227,245.37913970000227,245.37913970000227,245.37913970000227,245.37913970000227,245.37913970000227,245.67929960001493,246.79541900000186,246.79541900000186,246.79541900000186,246.79541900000186,246.79541900000186,246.79541900000186,246.79541900000186,246.79541900000186,246.79541900000186,246.79541900000186,246.79541900000186,246.79541900000186,246.79541900000186,246.79541900000186,248.21029550000094,248.21029550000094,248.21029550000094,248.21029550000094,248.21029550000094,248.21029550000094,248.21029550000094,5,53,63,33,63,70,248.21029550000094,249.94459310002276,,,,,,,,,,,,,,,,,,,,３３４,f,1,2023-05-21_10h38.57.123,RL,2022.2.5,60.01158223623611,
53,14,38,67,0,37,37,37,,,,,,,,,,,None,249.94459310002276,249.94459310002276,249.94459310002276,249.94459310002276,249.94459310002276,249.94459310002276,i,0.24780680000549182,250.21169160000863,250.21169160000863,250.21169160000863,250.21169160000863,250.21169160000863,250.21169160000863,250.4946814000141,251.44482720000087,251.46109460000298,251.46109460000298,251.46109460000298,251.46109460000298,251.46109460000298,251.46109460000298,251.46109460000298,251.46109460000298,251.46109460000298,251.46109460000298,251.46109460000298,251.46109460000298,251.46109460000298,252.70930800001952,252.70930800001952,252.70930800001952,252.70930800001952,252.70930800001952,252.70930800001952,252.70930800001952,14,53,67,38,67,70,252.70930800001952,254.47756710002432,,,,,,,,,,,,,,,,,,,,３３４,f,1,2023-05-21_10h38.57.123,RL,2022.2.5,60.01158223623611,
57,20,32,65,0,38,38,38,,,,,,,,,,,None,254.47756710002432,254.47756710002432,254.47756710002432,254.47756710002432,254.47756710002432,254.47756710002432,i,0.268456400022842,254.78059030001168,254.78059030001168,254.78059030001168,254.78059030001168,254.78059030001168,254.78059030001168,255.06080710000242,255.8936301000067,255.91085670000757,255.91085670000757,255.91085670000757,255.91085670000757,255.91085670000757,255.91085670000757,255.91085670000757,255.91085670000757,255.91085670000757,255.91085670000757,255.91085670000757,255.91085670000757,255.91085670000757,257.0420166000258,257.0420166000258,257.0420166000258,257.0420166000258,257.0420166000258,257.0420166000258,257.0420166000258,20,57,65,32,65,70,257.0420166000258,258.6929136000108,,,,,,,,,,,,,,,,,,,,３３４,f,1,2023-05-21_10h38.57.123,RL,2022.2.5,60.01158223623611,
51,19,32,70,0,39,39,39,,,,,,,,,,,None,258.6929136000108,258.6929136000108,258.6929136000108,258.6929136000108,258.6929136000108,258.6929136000108,i,0.23643260000972077,258.96025620002183,258.96025620002183,258.96025620002183,258.96025620002183,258.96025620002183,258.96025620002183,259.2436881000176,260.85975390000385,260.87631570000667,260.87631570000667,260.87631570000667,260.87631570000667,260.87631570000667,260.87631570000667,260.87631570000667,260.87631570000667,260.87631570000667,260.87631570000667,260.87631570000667,260.87631570000667,260.87631570000667,262.790816200024,262.790816200024,262.790816200024,262.790816200024,262.790816200024,262.790816200024,262.790816200024,19,51,70,32,70,70,262.790816200024,264.4253852000111,,,,,,,,,,,,,,,,,,,,３３４,f,1,2023-05-21_10h38.57.123,RL,2022.2.5,60.01158223623611,
62,9,32,66,0,40,40,40,,,,,,,,,,,None,264.4253852000111,264.4253852000111,264.4253852000111,264.4253852000111,264.4253852000111,264.4253852000111,i,0.28644850000273436,264.742438700021,264.742438700021,264.742438700021,264.742438700021,264.742438700021,264.742438700021,265.025853500003,266.8923442000232,266.90848220000044,266.90848220000044,266.90848220000044,266.90848220000044,266.90848220000044,266.90848220000044,266.90848220000044,266.90848220000044,266.90848220000044,266.90848220000044,266.90848220000044,266.90848220000044,266.90848220000044,269.0738203000219,269.0738203000219,269.0738203000219,269.0738203000219,269.0738203000219,269.0738203000219,269.0738203000219,9,62,66,32,66,70,269.0738203000219,270.89128460001666,,,,,,,,,,,,,,,,,,,,３３４,f,1,2023-05-21_10h38.57.123,RL,2022.2.5,60.01158223623611,
72,6,32,53,0,41,41,41,,,,,,,,,,,None,270.89128460001666,270.89128460001666,270.89128460001666,270.89128460001666,270.89128460001666,270.89128460001666,i,0.42322289998992346,271.3416409000056,271.3416409000056,271.3416409000056,271.3416409000056,271.3416409000056,271.3416409000056,271.6410514000163,273.10763600000064,273.10763600000064,273.10763600000064,273.10763600000064,273.10763600000064,273.10763600000064,273.10763600000064,273.10763600000064,273.10763600000064,273.10763600000064,273.10763600000064,273.10763600000064,273.10763600000064,273.10763600000064,274.87214220000897,274.87214220000897,274.87214220000897,274.87214220000897,274.87214220000897,274.87214220000897,274.87214220000897,6,72,53,32,53,70,274.87214220000897,276.440075600025,,,,,,,,,,,,,,,,,,,,３３４,f,1,2023-05-21_10h38.57.123,RL,2022.2.5,60.01158223623611,
67,13,31,63,0,42,42,42,,,,,,,,,,,None,276.440075600025,276.440075600025,276.440075600025,276.440075600025,276.440075600025,276.440075600025,j,0.35973749999538995,276.8240346000239,276.8240346000239,276.8240346000239,276.8240346000239,276.8240346000239,276.8240346000239,277.1070566000126,278.2900589000201,278.30685390002327,278.30685390002327,278.30685390002327,278.30685390002327,278.30685390002327,278.30685390002327,278.30685390002327,278.30685390002327,278.30685390002327,278.30685390002327,278.30685390002327,278.30685390002327,278.30685390002327,279.78822100002435,279.78822100002435,279.78822100002435,279.78822100002435,279.78822100002435,279.78822100002435,279.78822100002435,13,67,63,31,31,70,279.78822100002435,281.48934550001286,,,,,,,,,,,,,,,,,,,,３３４,f,1,2023-05-21_10h38.57.123,RL,2022.2.5,60.01158223623611,
57,13,29,64,0,43,43,43,,,,,,,,,,,None,281.48934550001286,281.48934550001286,281.48934550001286,281.48934550001286,281.48934550001286,281.48934550001286,r,0.4982810999790672,282.0132639000076,282.0132639000076,282.0132639000076,282.0132639000076,282.0132639000076,282.0132639000076,282.3057760000229,284.22241370001575,284.22241370001575,284.22241370001575,284.22241370001575,284.22241370001575,284.22241370001575,284.22241370001575,284.22241370001575,284.22241370001575,284.22241370001575,284.22241370001575,284.22241370001575,284.22241370001575,284.22241370001575,286.43684920002124,286.43684920002124,286.43684920002124,286.43684920002124,286.43684920002124,286.43684920002124,286.43684920002124,13,57,64,29,57,70,286.43684920002124,288.3213498000114,,,,,,,,,,,,,,,,,,,,３３４,f,1,2023-05-21_10h38.57.123,RL,2022.2.5,60.01158223623611,
56,12,27,64,0,44,44,44,,,,,,,,,,,None,288.3213498000114,288.3213498000114,288.3213498000114,288.3213498000114,288.3213498000114,288.3213498000114,i,0.22253560001263395,288.5758547000005,288.5758547000005,288.5758547000005,288.5758547000005,288.5758547000005,288.5758547000005,288.8546473000024,290.45439030000125,290.48819470001035,290.48819470001035,290.48819470001035,290.48819470001035,290.48819470001035,290.48819470001035,290.48819470001035,290.48819470001035,290.48819470001035,290.48819470001035,290.48819470001035,290.48819470001035,290.48819470001035,292.385963800014,292.385963800014,292.385963800014,292.385963800014,292.385963800014,292.385963800014,292.385963800014,12,56,64,27,64,70,292.385963800014,294.08695810000063,,,,,,,,,,,,,,,,,,,,３３４,f,1,2023-05-21_10h38.57.123,RL,2022.2.5,60.01158223623611,
58,8,18,62,0,45,45,45,,,,,,,,,,,None,294.08695810000063,294.08695810000063,294.08695810000063,294.08695810000063,294.08695810000063,294.08695810000063,r,0.3608738000039011,294.47159660002217,294.47159660002217,294.47159660002217,294.47159660002217,294.47159660002217,294.47159660002217,294.7542587000062,295.8705318000284,295.8869545000198,295.8869545000198,295.8869545000198,295.8869545000198,295.8869545000198,295.8869545000198,295.8869545000198,295.8869545000198,295.8869545000198,295.8869545000198,295.8869545000198,295.8869545000198,295.8869545000198,297.30175550002605,297.30175550002605,297.30175550002605,297.30175550002605,297.30175550002605,297.30175550002605,297.30175550002605,8,58,62,18,58,70,297.30175550002605,299.2022974000138,,,,,,,,,,,,,,,,,,,,３３４,f,1,2023-05-21_10h38.57.123,RL,2022.2.5,60.01158223623611,
50,11,23,62,0,46,46,46,,,,,,,,,,,None,299.2022974000138,299.2022974000138,299.2022974000138,299.2022974000138,299.2022974000138,299.2022974000138,i,0.25848399999085814,299.48815360001754,299.48815360001754,299.48815360001754,299.48815360001754,299.48815360001754,299.48815360001754,299.76983670002664,301.66911190000246,301.6858082000108,301.6858082000108,301.6858082000108,301.6858082000108,301.6858082000108,301.6858082000108,301.6858082000108,301.6858082000108,301.6858082000108,301.6858082000108,301.6858082000108,301.6858082000108,301.6858082000108,303.8841004000278,303.8841004000278,303.8841004000278,303.8841004000278,303.8841004000278,303.8841004000278,303.8841004000278,11,50,62,23,62,70,303.8841004000278,305.6183420000016,,,,,,,,,,,,,,,,,,,,３３４,f,1,2023-05-21_10h38.57.123,RL,2022.2.5,60.01158223623611,
52,17,32,62,0,47,47,47,,,,,,,,,,,None,305.6183420000016,305.6183420000016,305.6183420000016,305.6183420000016,305.6183420000016,305.6183420000016,j,0.26041600000462495,305.9018341000192,305.9018341000192,305.9018341000192,305.9018341000192,305.9018341000192,305.9018341000192,306.201867100026,307.60140220000176,307.60140220000176,307.60140220000176,307.60140220000176,307.60140220000176,307.60140220000176,307.60140220000176,307.60140220000176,307.60140220000176,307.60140220000176,307.60140220000176,307.60140220000176,307.60140220000176,307.60140220000176,309.29933930002153,309.29933930002153,309.29933930002153,309.29933930002153,309.29933930002153,309.29933930002153,309.29933930002153,17,52,62,32,32,70,309.29933930002153,310.8673202000209,,,,,,,,,,,,,,,,,,,,３３４,f,1,2023-05-21_10h38.57.123,RL,2022.2.5,60.01158223623611,
49,12,27,60,0,48,48,48,,,,,,,,,,,None,310.8673202000209,310.8673202000209,310.8673202000209,310.8673202000209,310.8673202000209,310.8673202000209,i,0.24691360001452267,311.13436830000137,311.13436830000137,311.13436830000137,311.13436830000137,311.13436830000137,311.13436830000137,311.417399100028,312.41737490001833,312.4338023000164,312.4338023000164,312.4338023000164,312.4338023000164,312.4338023000164,312.4338023000164,312.4338023000164,312.4338023000164,312.4338023000164,312.4338023000164,312.4338023000164,312.4338023000164,312.4338023000164,313.732313000015,313.732313000015,313.732313000015,313.732313000015,313.732313000015,313.732313000015,313.732313000015,12,49,60,27,60,70,313.732313000015,315.3500220000278,,,,,,,,,,,,,,,,,,,,３３４,f,1,2023-05-21_10h38.57.123,RL,2022.2.5,60.01158223623611,
44,20,26,58,0,49,49,49,,,,,,,,,,,None,315.3500220000278,315.3500220000278,315.3500220000278,315.3500220000278,315.3500220000278,315.3500220000278,i,0.261328799999319,315.6342000000004,315.6342000000004,315.6342000000004,315.6342000000004,315.6342000000004,315.6342000000004,315.9167556000175,317.3997236000141,317.41649980001966,317.41649980001966,317.41649980001966,317.41649980001966,317.41649980001966,317.41649980001966,317.41649980001966,317.41649980001966,317.41649980001966,317.41649980001966,317.41649980001966,317.41649980001966,317.41649980001966,319.1976584000222,319.1976584000222,319.1976584000222,319.1976584000222,319.1976584000222,319.1976584000222,319.1976584000222,20,44,58,26,58,70,319.1976584000222,321.13228510000044,,,,,,,,,,,,,,,,,,,,３３４,f,1,2023-05-21_10h38.57.123,RL,2022.2.5,60.01158223623611,
37,11,33,62,0,50,50,50,,,,,,,,,,,None,321.13228510000044,321.13228510000044,321.13228510000044,321.13228510000044,321.13228510000044,321.13228510000044,f,0.3028006000095047,321.47161240002606,321.47161240002606,321.47161240002606,321.47161240002606,321.47161240002606,321.47161240002606,321.76559460000135,323.2819842000026,323.2819842000026,323.2819842000026,323.2819842000026,323.2819842000026,323.2819842000026,323.2819842000026,323.2819842000026,323.2819842000026,323.2819842000026,323.2819842000026,323.2819842000026,323.2819842000026,323.2819842000026,325.0967556000105,325.0967556000105,325.0967556000105,325.0967556000105,325.0967556000105,325.0967556000105,325.0967556000105,11,37,62,33,11,70,325.0967556000105,327.09807240002556,,,,,,,,,,,,,,,,,,,,３３４,f,1,2023-05-21_10h38.57.123,RL,2022.2.5,60.01158223623611,
43,19,22,58,0,51,51,51,,,,,,,,,,,None,327.09807240002556,327.09807240002556,327.09807240002556,327.09807240002556,327.09807240002556,327.09807240002556,r,0.241245599987451,327.3650295000116,327.3650295000116,327.3650295000116,327.3650295000116,327.3650295000116,327.3650295000116,327.6646786000056,329.18114710002556,329.18114710002556,329.18114710002556,329.18114710002556,329.18114710002556,329.18114710002556,329.18114710002556,329.18114710002556,329.18114710002556,329.18114710002556,329.18114710002556,329.18114710002556,329.18114710002556,329.18114710002556,330.99561580002774,330.99561580002774,330.99561580002774,330.99561580002774,330.99561580002774,330.99561580002774,330.99561580002774,19,43,58,22,43,70,330.99561580002774,332.86381310000434,,,,,,,,,,,,,,,,,,,,３３４,f,1,2023-05-21_10h38.57.123,RL,2022.2.5,60.01158223623611,
50,21,39,52,0,52,52,52,,,,,,,,,,,None,332.86381310000434,332.86381310000434,332.86381310000434,332.86381310000434,332.86381310000434,332.86381310000434,i,0.2681165999965742,333.16935540002305,333.16935540002305,333.16935540002305,333.16935540002305,333.16935540002305,333.16935540002305,333.46374510001624,334.69682930002455,334.71358050001436,334.71358050001436,334.71358050001436,334.71358050001436,334.71358050001436,334.71358050001436,334.71358050001436,334.71358050001436,334.71358050001436,334.71358050001436,334.71358050001436,334.71358050001436,334.71358050001436,336.2446651000064,336.2446651000064,336.2446651000064,336.2446651000064,336.2446651000064,336.2446651000064,336.2446651000064,21,50,52,39,52,70,336.2446651000064,337.8795919000113,,,,,,,,,,,,,,,,,,,,３３４,f,1,2023-05-21_10h38.57.123,RL,2022.2.5,60.01158223623611,
55,25,31,59,0,53,53,53,,,,,,,,,,,None,337.8795919000113,337.8795919000113,337.8795919000113,337.8795919000113,337.8795919000113,337.8795919000113,j,0.38694090000353754,338.29880010001943,338.29880010001943,338.29880010001943,338.29880010001943,338.29880010001943,338.29880010001943,338.59606190002523,339.42935180000495,339.42935180000495,339.42935180000495,339.42935180000495,339.42935180000495,339.42935180000495,339.42935180000495,339.42935180000495,339.42935180000495,339.42935180000495,339.42935180000495,339.42935180000495,339.42935180000495,339.42935180000495,340.56065510000917,340.56065510000917,340.56065510000917,340.56065510000917,340.56065510000917,340.56065510000917,340.56065510000917,25,55,59,31,31,70,340.56065510000917,342.19527180001023,,,,,,,,,,,,,,,,,,,,３３４,f,1,2023-05-21_10h38.57.123,RL,2022.2.5,60.01158223623611,
58,22,36,48,0,54,54,54,,,,,,,,,,,None,342.19527180001023,342.19527180001023,342.19527180001023,342.19527180001023,342.19527180001023,342.19527180001023,i,0.2596524999826215,342.480664600007,342.480664600007,342.480664600007,342.480664600007,342.480664600007,342.480664600007,342.77895730000455,343.79505840002093,343.79505840002093,343.79505840002093,343.79505840002093,343.79505840002093,343.79505840002093,343.79505840002093,343.79505840002093,343.79505840002093,343.79505840002093,343.79505840002093,343.79505840002093,343.79505840002093,343.79505840002093,345.1097996000026,345.1097996000026,345.1097996000026,345.1097996000026,345.1097996000026,345.1097996000026,345.1097996000026,22,58,48,36,48,70,345.1097996000026,346.7775750000146,,,,,,,,,,,,,,,,,,,,３３４,f,1,2023-05-21_10h38.57.123,RL,2022.2.5,60.01158223623611,
59,21,28,46,0,55,55,55,,,,,,,,,,,None,346.7775750000146,346.7775750000146,346.7775750000146,346.7775750000146,346.7775750000146,346.7775750000146,r,0.47546600000350736,347.2781381000241,347.2781381000241,347.2781381000241,347.2781381000241,347.2781381000241,347.2781381000241,347.5612191000255,348.62757989999955,348.6441903000232,348.6441903000232,348.6441903000232,348.6441903000232,348.6441903000232,348.6441903000232,348.6441903000232,348.6441903000232,348.6441903000232,348.6441903000232,348.6441903000232,348.6441903000232,348.6441903000232,350.0092407000193,350.0092407000193,350.0092407000193,350.0092407000193,350.0092407000193,350.0092407000193,350.0092407000193,21,59,46,28,59,70,350.0092407000193,351.84391290001804,,,,,,,,,,,,,,,,,,,,３３４,f,1,2023-05-21_10h38.57.123,RL,2022.2.5,60.01158223623611,
66,28,23,47,0,56,56,56,,,,,,,,,,,None,351.84391290001804,351.84391290001804,351.84391290001804,351.84391290001804,351.84391290001804,351.84391290001804,r,0.30066680000163615,352.181694400002,352.181694400002,352.181694400002,352.181694400002,352.181694400002,352.181694400002,352.4606871000142,354.0604113000154,354.07685010001296,354.07685010001296,354.07685010001296,354.07685010001296,354.07685010001296,354.07685010001296,354.07685010001296,354.07685010001296,354.07685010001296,354.07685010001296,354.07685010001296,354.07685010001296,354.07685010001296,355.97454350002226,355.97454350002226,355.97454350002226,355.97454350002226,355.97454350002226,355.97454350002226,355.97454350002226,28,66,47,23,66,70,355.97454350002226,357.49264460001723,,,,,,,,,,,,,,,,,,,,３３４,f,1,2023-05-21_10h38.57.123,RL,2022.2.5,60.01158223623611,
65,24,30,54,0,57,57,57,,,,,,,,,,,None,357.49264460001723,357.49264460001723,357.49264460001723,357.49264460001723,357.49264460001723,357.49264460001723,r,0.2823972999758553,357.79738329999964,357.79738329999964,357.79738329999964,357.79738329999964,357.79738329999964,357.79738329999964,358.09268630002043,359.1423693000106,359.1423693000106,359.1423693000106,359.1423693000106,359.1423693000106,359.1423693000106,359.1423693000106,359.1423693000106,359.1423693000106,359.1423693000106,359.1423693000106,359.1423693000106,359.1423693000106,359.1423693000106,360.4906547999999,360.4906547999999,360.4906547999999,360.4906547999999,360.4906547999999,360.4906547999999,360.4906547999999,24,65,54,30,65,70,360.4906547999999,362.3248521000205,,,,,,,,,,,,,,,,,,,,３３４,f,1,2023-05-21_10h38.57.123,RL,2022.2.5,60.01158223623611,
48,23,22,51,0,58,58,58,,,,,,,,,,,None,362.3248521000205,362.3248521000205,362.3248521000205,362.3248521000205,362.3248521000205,362.3248521000205,r,0.26744919997872785,362.6089070000162,362.6089070000162,362.6089070000162,362.6089070000162,362.6089070000162,362.6089070000162,362.90888270002324,364.0981752000225,364.0981752000225,364.0981752000225,364.0981752000225,364.0981752000225,364.0981752000225,364.0981752000225,364.0981752000225,364.0981752000225,364.0981752000225,364.0981752000225,364.0981752000225,364.0981752000225,364.0981752000225,365.5397067000158,365.5397067000158,365.5397067000158,365.5397067000158,365.5397067000158,365.5397067000158,365.5397067000158,23,48,51,22,48,70,365.5397067000158,367.2575924000121,,,,,,,,,,,,,,,,,,,,３３４,f,1,2023-05-21_10h38.57.123,RL,2022.2.5,60.01158223623611,
52,30,31,59,0,59,59,59,,,,,,,,,,,None,367.2575924000121,367.2575924000121,367.2575924000121,367.2575924000121,367.2575924000121,367.2575924000121,f,0.2577961999922991,367.5433454000158,367.5433454000158,367.5433454000158,367.5433454000158,367.5433454000158,367.5433454000158,367.84128550000605,369.37406380000175,369.37406380000175,369.37406380000175,369.37406380000175,369.37406380000175,369.37406380000175,369.37406380000175,369.37406380000175,369.37406380000175,369.37406380000175,369.37406380000175,369.37406380000175,369.37406380000175,369.37406380000175,371.2052593000117,371.2052593000117,371.2052593000117,371.2052593000117,371.2052593000117,371.2052593000117,371.2052593000117,30,52,59,31,30,70,371.2052593000117,373.173168600013,,,,,,,,,,,,,,,,,,,,３３４,f,1,2023-05-21_10h38.57.123,RL,2022.2.5,60.01158223623611,
46,15,23,55,0,60,60,60,,,,,,,,,,,None,373.173168600013,373.173168600013,373.173168600013,373.173168600013,373.173168600013,373.173168600013,i,0.2543456999992486,373.4568641000078,373.4568641000078,373.4568641000078,373.4568641000078,373.4568641000078,373.4568641000078,373.7402206000115,375.03985070000635,375.05652280000504,375.05652280000504,375.05652280000504,375.05652280000504,375.05652280000504,375.05652280000504,375.05652280000504,375.05652280000504,375.05652280000504,375.05652280000504,375.05652280000504,375.05652280000504,375.05652280000504,376.6545794000267,376.6545794000267,376.6545794000267,376.6545794000267,376.6545794000267,376.6545794000267,376.6545794000267,15,46,55,23,55,70,376.6545794000267,378.5722305000236,,,,,,,,,,,,,,,,,,,,３３４,f,1,2023-05-21_10h38.57.123,RL,2022.2.5,60.01158223623611,
48,17,23,52,0,61,61,61,,,,,,,,,,,None,378.5722305000236,378.5722305000236,378.5722305000236,378.5722305000236,378.5722305000236,378.5722305000236,i,0.29101909999735653,378.8911670000234,378.8911670000234,378.8911670000234,378.8911670000234,378.8911670000234,378.8911670000234,379.1888099000207,380.62204680001014,380.62204680001014,380.62204680001014,380.62204680001014,380.62204680001014,380.62204680001014,380.62204680001014,380.62204680001014,380.62204680001014,380.62204680001014,380.62204680001014,380.62204680001014,380.62204680001014,380.62204680001014,382.35327440002584,382.35327440002584,382.35327440002584,382.35327440002584,382.35327440002584,382.35327440002584,382.35327440002584,17,48,52,23,52,70,382.35327440002584,383.9549933000235,,,,,,,,,,,,,,,,,,,,３３４,f,1,2023-05-21_10h38.57.123,RL,2022.2.5,60.01158223623611,
51,22,36,50,0,62,62,62,,,,,,,,,,,None,383.9549933000235,383.9549933000235,383.9549933000235,383.9549933000235,383.9549933000235,383.9549933000235,j,0.33524009998654947,384.33535390000907,384.33535390000907,384.33535390000907,384.33535390000907,384.33535390000907,384.33535390000907,384.62154120000196,386.12141830002656,386.1378111000231,386.1378111000231,386.1378111000231,386.1378111000231,386.1378111000231,386.1378111000231,386.1378111000231,386.1378111000231,386.1378111000231,386.1378111000231,386.1378111000231,386.1378111000231,386.1378111000231,387.93570850000833,387.93570850000833,387.93570850000833,387.93570850000833,387.93570850000833,387.93570850000833,387.93570850000833,22,51,50,36,36,70,387.93570850000833,389.5541088000173,,,,,,,,,,,,,,,,,,,,３３４,f,1,2023-05-21_10h38.57.123,RL,2022.2.5,60.01158223623611,
58,21,38,52,0,63,63,63,,,,,,,,,,,None,389.5541088000173,389.5541088000173,389.5541088000173,389.5541088000173,389.5541088000173,389.5541088000173,r,0.24552860000403598,389.8209132000047,389.8209132000047,389.8209132000047,389.8209132000047,389.8209132000047,389.8209132000047,390.1037814000156,391.8035431000171,391.8201735000184,391.8201735000184,391.8201735000184,391.8201735000184,391.8201735000184,391.8201735000184,391.8201735000184,391.8201735000184,391.8201735000184,391.8201735000184,391.8201735000184,391.8201735000184,391.8201735000184,393.81827930000145,393.81827930000145,393.81827930000145,393.81827930000145,393.81827930000145,393.81827930000145,393.81827930000145,21,58,52,38,58,70,393.81827930000145,395.50276000000304,,,,,,,,,,,,,,,,,,,,３３４,f,1,2023-05-21_10h38.57.123,RL,2022.2.5,60.01158223623611,
54,20,31,51,0,64,64,64,,,,,,,,,,,None,395.50276000000304,395.50276000000304,395.50276000000304,395.50276000000304,395.50276000000304,395.50276000000304,r,0.22656530002132058,395.7541852000286,395.7541852000286,395.7541852000286,395.7541852000286,395.7541852000286,395.7541852000286,396.0363645000034,397.73630700001377,397.75246400001924,397.75246400001924,397.75246400001924,397.75246400001924,397.75246400001924,397.75246400001924,397.75246400001924,397.75246400001924,397.75246400001924,397.75246400001924,397.75246400001924,397.75246400001924,397.75246400001924,399.7510163000261,399.7510163000261,399.7510163000261,399.7510163000261,399.7510163000261,399.7510163000261,399.7510163000261,20,54,51,31,54,70,399.7510163000261,401.4680571000208,,,,,,,,,,,,,,,,,,,,３３４,f,1,2023-05-21_10h38.57.123,RL,2022.2.5,60.01158223623611,
48,32,33,49,0,65,65,65,,,,,,,,,,,None,401.4680571000208,401.4680571000208,401.4680571000208,401.4680571000208,401.4680571000208,401.4680571000208,i,0.3398254000057932,401.83742950001033,401.83742950001033,401.83742950001033,401.83742950001033,401.83742950001033,401.83742950001033,402.13514710002346,403.7516251000052,403.7516251000052,403.7516251000052,403.7516251000052,403.7516251000052,403.7516251000052,403.7516251000052,403.7516251000052,403.7516251000052,403.7516251000052,403.7516251000052,403.7516251000052,403.7516251000052,403.7516251000052,405.66589470001054,405.66589470001054,405.66589470001054,405.66589470001054,405.66589470001054,405.66589470001054,405.66589470001054,32,48,49,33,49,70,405.66589470001054,407.35045790000004,,,,,,,,,,,,,,,,,,,,３３４,f,1,2023-05-21_10h38.57.123,RL,2022.2.5,60.01158223623611,
56,34,34,46,0,66,66,66,,,,,,,,,,,None,407.35045790000004,407.35045790000004,407.35045790000004,407.35045790000004,407.35045790000004,407.35045790000004,f,0.25143420000676997,407.63812660000985,407.63812660000985,407.63812660000985,407.63812660000985,407.63812660000985,407.63812660000985,407.91748020000523,409.1010559000133,409.1174481000053,409.1174481000053,409.1174481000053,409.1174481000053,409.1174481000053,409.1174481000053,409.1174481000053,409.1174481000053,409.1174481000053,409.1174481000053,409.1174481000053,409.1174481000053,409.1174481000053,410.5991098000086,410.5991098000086,410.5991098000086,410.5991098000086,410.5991098000086,410.5991098000086,410.5991098000086,34,56,46,34,34,70,410.5991098000086,412.11627020000014,,,,,,,,,,,,,,,,,,,,３３４,f,1,2023-05-21_10h38.57.123,RL,2022.2.5,60.01158223623611,
62,30,42,44,0,67,67,67,,,,,,,,,,,None,412.11627020000014,412.11627020000014,412.11627020000014,412.11627020000014,412.11627020000014,412.11627020000014,i,0.3565480000106618,412.5021043000161,412.5021043000161,412.5021043000161,412.5021043000161,412.5021043000161,412.5021043000161,412.79992500002845,413.91639270001906,413.91639270001906,413.91639270001906,413.91639270001906,413.91639270001906,413.91639270001906,413.91639270001906,413.91639270001906,413.91639270001906,413.91639270001906,413.91639270001906,413.91639270001906,413.91639270001906,413.91639270001906,415.33100600002217,415.33100600002217,415.33100600002217,415.33100600002217,415.33100600002217,415.33100600002217,415.33100600002217,30,62,44,42,44,70,415.33100600002217,416.9657700000098,,,,,,,,,,,,,,,,,,,,３３４,f,1,2023-05-21_10h38.57.123,RL,2022.2.5,60.01158223623611,
59,31,43,39,0,68,68,68,,,,,,,,,,,None,416.9657700000098,416.9657700000098,416.9657700000098,416.9657700000098,416.9657700000098,416.9657700000098,r,0.28820499998982996,417.2835716000118,417.2835716000118,417.2835716000118,417.2835716000118,417.2835716000118,417.2835716000118,417.5821912000247,418.6322645000182,418.6322645000182,418.6322645000182,418.6322645000182,418.6322645000182,418.6322645000182,418.6322645000182,418.6322645000182,418.6322645000182,418.6322645000182,418.6322645000182,418.6322645000182,418.6322645000182,418.6322645000182,419.98016490001464,419.98016490001464,419.98016490001464,419.98016490001464,419.98016490001464,419.98016490001464,419.98016490001464,31,59,39,43,59,70,419.98016490001464,421.864847800025,,,,,,,,,,,,,,,,,,,,３３４,f,1,2023-05-21_10h38.57.123,RL,2022.2.5,60.01158223623611,
62,31,43,53,0,69,69,69,,,,,,,,,,,None,421.864847800025,421.864847800025,421.864847800025,421.864847800025,421.864847800025,421.864847800025,i,0.4645345000026282,422.34867500001565,422.34867500001565,422.34867500001565,422.34867500001565,422.34867500001565,422.34867500001565,422.63166080001974,423.6151485000155,423.6317823000136,423.6317823000136,423.6317823000136,423.6317823000136,423.6317823000136,423.6317823000136,423.6317823000136,423.6317823000136,423.6317823000136,423.6317823000136,423.6317823000136,423.6317823000136,423.6317823000136,424.912894100009,424.912894100009,424.912894100009,424.912894100009,424.912894100009,424.912894100009,424.912894100009,31,62,53,43,53,70,424.912894100009,426.61392670002533,,,,,,,,,,,,,,,,,,,,３３４,f,1,2023-05-21_10h38.57.123,RL,2022.2.5,60.01158223623611,
54,30,48,51,0,70,70,70,,,,,,,,,,,None,426.61392670002533,426.61392670002533,426.61392670002533,426.61392670002533,426.61392670002533,426.61392670002533,r,0.24283339999965392,426.8853014000051,426.8853014000051,426.8853014000051,426.8853014000051,426.8853014000051,426.8853014000051,427.1807992000249,428.1806950000173,428.1971295000112,428.1971295000112,428.1971295000112,428.1971295000112,428.1971295000112,428.1971295000112,428.1971295000112,428.1971295000112,428.1971295000112,428.1971295000112,428.1971295000112,428.1971295000112,428.1971295000112,429.4951748000167,429.4951748000167,429.4951748000167,429.4951748000167,429.4951748000167,429.4951748000167,429.4951748000167,30,54,51,48,54,70,429.4951748000167,431.04616050000186,,,,,,,,,,,,,,,,,,,,３３４,f,1,2023-05-21_10h38.57.123,RL,2022.2.5,60.01158223623611,
56,29,49,53,0,71,71,71,,,,,,,,,,,None,431.04616050000186,431.04616050000186,431.04616050000186,431.04616050000186,431.04616050000186,431.04616050000186,i,0.3639776000054553,431.4319930000056,431.4319930000056,431.4319930000056,431.4319930000056,431.4319930000056,431.4319930000056,431.7131884000264,433.0801420000207,433.0965919000155,433.0965919000155,433.0965919000155,433.0965919000155,433.0965919000155,433.0965919000155,433.0965919000155,433.0965919000155,433.0965919000155,433.0965919000155,433.0965919000155,433.0965919000155,433.0965919000155,434.76130910002394,434.76130910002394,434.76130910002394,434.76130910002394,434.76130910002394,434.76130910002394,434.76130910002394,29,56,53,49,53,70,434.76130910002394,436.7285818000091,,,,,,,,,,,,,,,,,,,,３３４,f,1,2023-05-21_10h38.57.123,RL,2022.2.5,60.01158223623611,
44,32,50,53,0,72,72,72,,,,,,,,,,,None,436.7285818000091,436.7285818000091,436.7285818000091,436.7285818000091,436.7285818000091,436.7285818000091,j,0.5271790000260808,437.2791663000244,437.2791663000244,437.2791663000244,437.2791663000244,437.2791663000244,437.2791663000244,437.56237030000193,438.51250390001223,438.5291002000158,438.5291002000158,438.5291002000158,438.5291002000158,438.5291002000158,438.5291002000158,438.5291002000158,438.5291002000158,438.5291002000158,438.5291002000158,438.5291002000158,438.5291002000158,438.5291002000158,439.776620300021,439.776620300021,439.776620300021,439.776620300021,439.776620300021,439.776620300021,439.776620300021,32,44,53,50,50,70,439.776620300021,441.5283332000254,,,,,,,,,,,,,,,,,,,,３３４,f,1,2023-05-21_10h38.57.123,RL,2022.2.5,60.01158223623611,
59,21,41,64,0,73,73,73,,,,,,,,,,,None,441.5283332000254,441.5283332000254,441.5283332000254,441.5283332000254,441.5283332000254,441.5283332000254,r,0.41242120001697913,441.96179510001093,441.96179510001093,441.96179510001093,441.96179510001093,441.96179510001093,441.96179510001093,442.26199470000574,443.961443600012,443.961443600012,443.961443600012,443.961443600012,443.961443600012,443.961443600012,443.961443600012,443.961443600012,443.961443600012,443.961443600012,443.961443600012,443.961443600012,443.961443600012,443.961443600012,445.9589596000151,445.9589596000151,445.9589596000151,445.9589596000151,445.9589596000151,445.9589596000151,445.9589596000151,21,59,64,41,59,70,445.9589596000151,447.4936258000089,,,,,,,,,,,,,,,,,,,,３３４,f,1,2023-05-21_10h38.57.123,RL,2022.2.5,60.01158223623611,
55,30,41,50,0,74,74,74,,,,,,,,,,,None,447.4936258000089,447.4936258000089,447.4936258000089,447.4936258000089,447.4936258000089,447.4936258000089,r,0.4186168999876827,447.95132540000486,447.95132540000486,447.95132540000486,447.95132540000486,447.95132540000486,447.95132540000486,448.24366550002014,449.6769199000264,449.69336520001525,449.69336520001525,449.69336520001525,449.69336520001525,449.69336520001525,449.69336520001525,449.69336520001525,449.69336520001525,449.69336520001525,449.69336520001525,449.69336520001525,449.69336520001525,449.69336520001525,451.4247513000155,451.4247513000155,451.4247513000155,451.4247513000155,451.4247513000155,451.4247513000155,451.4247513000155,30,55,50,41,55,70,451.4247513000155,452.9416324000049,,,,,,,,,,,,,,,,,,,,３３４,f,1,2023-05-21_10h38.57.123,RL,2022.2.5,60.01158223623611,
51,22,44,55,0,75,75,75,,,,,,,,,,,q,484.0040457000141,484.0040457000141,484.0040457000141,484.0040457000141,484.0040457000141,484.0040457000141,j,0.5298726000182796,484.5570505000069,484.5570505000069,484.5570505000069,484.5570505000069,484.5570505000069,484.5570505000069,484.85445230000187,486.653532300028,486.653532300028,486.653532300028,486.653532300028,486.653532300028,486.653532300028,486.653532300028,486.653532300028,486.653532300028,486.653532300028,486.653532300028,486.653532300028,486.653532300028,486.653532300028,488.7516884000215,488.7516884000215,488.7516884000215,488.7516884000215,488.7516884000215,488.7516884000215,488.7516884000215,22,51,55,44,44,70,488.7516884000215,490.55289620000985,,,,,,,,,452.9416324000049,452.9416324000049,26.02504169999156,478.9887966000242,478.9887966000242,484.0040457000141,484.0040457000141,,,,,３３４,f,1,2023-05-21_10h38.57.123,RL,2022.2.5,60.01158223623611,
44,22,40,63,0,76,76,76,,,,,,,,,,,None,490.55289620000985,490.55289620000985,490.55289620000985,490.55289620000985,490.55289620000985,490.55289620000985,r,0.2884767999930773,490.87103490001755,490.87103490001755,490.87103490001755,490.87103490001755,490.87103490001755,490.87103490001755,491.1696137000108,493.1196861000208,493.1196861000208,493.1196861000208,493.1196861000208,493.1196861000208,493.1196861000208,493.1196861000208,493.1196861000208,493.1196861000208,493.1196861000208,493.1196861000208,493.1196861000208,493.1196861000208,493.1196861000208,495.36752160001197,495.36752160001197,495.36752160001197,495.36752160001197,495.36752160001197,495.36752160001197,495.36752160001197,22,44,63,40,44,70,495.36752160001197,497.2846054000256,,,,,,,,,,,,,,,,,,,,３３４,f,1,2023-05-21_10h38.57.123,RL,2022.2.5,60.01158223623611,
54,18,41,62,0,77,77,77,,,,,,,,,,,None,497.2846054000256,497.2846054000256,497.2846054000256,497.2846054000256,497.2846054000256,497.2846054000256,f,0.23105699999723583,497.5362587000127,497.5362587000127,497.5362587000127,497.5362587000127,497.5362587000127,497.5362587000127,497.8354053000221,499.66824520000955,499.66824520000955,499.66824520000955,499.66824520000955,499.66824520000955,499.66824520000955,499.66824520000955,499.66824520000955,499.66824520000955,499.66824520000955,499.66824520000955,499.66824520000955,499.66824520000955,499.66824520000955,501.7992529000039,501.7992529000039,501.7992529000039,501.7992529000039,501.7992529000039,501.7992529000039,501.7992529000039,18,54,62,41,18,70,501.7992529000039,503.4169432000199,,,,,,,,,,,,,,,,,,,,３３４,f,1,2023-05-21_10h38.57.123,RL,2022.2.5,60.01158223623611,
48,24,40,57,0,78,78,78,,,,,,,,,,,None,503.4169432000199,503.4169432000199,503.4169432000199,503.4169432000199,503.4169432000199,503.4169432000199,i,0.2920305999869015,503.73596370001906,503.73596370001906,503.73596370001906,503.73596370001906,503.73596370001906,503.73596370001906,504.01789110002574,505.9509131000086,505.9674088000029,505.9674088000029,505.9674088000029,505.9674088000029,505.9674088000029,505.9674088000029,505.9674088000029,505.9674088000029,505.9674088000029,505.9674088000029,505.9674088000029,505.9674088000029,505.9674088000029,508.19870140001876,508.19870140001876,508.19870140001876,508.19870140001876,508.19870140001876,508.19870140001876,508.19870140001876,24,48,57,40,57,70,508.19870140001876,509.8330514000263,,,,,,,,,,,,,,,,,,,,３３４,f,1,2023-05-21_10h38.57.123,RL,2022.2.5,60.01158223623611,
53,30,36,49,0,79,79,79,,,,,,,,,,,None,509.8330514000263,509.8330514000263,509.8330514000263,509.8330514000263,509.8330514000263,509.8330514000263,j,0.28418519999831915,510.1390028000169,510.1390028000169,510.1390028000169,510.1390028000169,510.1390028000169,510.1390028000169,510.4334202000173,511.33300240000244,511.33300240000244,511.33300240000244,511.33300240000244,511.33300240000244,511.33300240000244,511.33300240000244,511.33300240000244,511.33300240000244,511.33300240000244,511.33300240000244,511.33300240000244,511.33300240000244,511.33300240000244,512.5306038000272,512.5306038000272,512.5306038000272,512.5306038000272,512.5306038000272,512.5306038000272,512.5306038000272,30,53,49,36,36,70,512.5306038000272,514.0651090000174,,,,,,,,,,,,,,,,,,,,３３４,f,1,2023-05-21_10h38.57.123,RL,2022.2.5,60.01158223623611,
56,30,35,49,0,80,80,80,,,,,,,,,,,None,514.0651090000174,514.0651090000174,514.0651090000174,514.0651090000174,514.0651090000174,514.0651090000174,i,0.31356640000012703,514.4030667000043,514.4030667000043,514.4030667000043,514.4030667000043,514.4030667000043,514.4030667000043,514.682363800006,516.1656509000168,516.1825610000233,516.1825610000233,516.1825610000233,516.1825610000233,516.1825610000233,516.1825610000233,516.1825610000233,516.1825610000233,516.1825610000233,516.1825610000233,516.1825610000233,516.1825610000233,516.1825610000233,517.9636381000164,517.9636381000164,517.9636381000164,517.9636381000164,517.9636381000164,517.9636381000164,517.9636381000164,30,56,49,35,49,70,517.9636381000164,519.564420300012,,,,,,,,,,,,,,,,,,,,３３４,f,1,2023-05-21_10h38.57.123,RL,2022.2.5,60.01158223623611,
59,25,33,53,0,81,81,81,,,,,,,,,,,None,519.564420300012,519.564420300012,519.564420300012,519.564420300012,519.564420300012,519.564420300012,r,0.3126570000022184,519.8993979000079,519.8993979000079,519.8993979000079,519.8993979000079,519.8993979000079,519.8993979000079,520.1982105000061,521.8811715000193,521.8811715000193,521.8811715000193,521.8811715000193,521.8811715000193,521.8811715000193,521.8811715000193,521.8811715000193,521.8811715000193,521.8811715000193,521.8811715000193,521.8811715000193,521.8811715000193,521.8811715000193,523.862065400026,523.862065400026,523.862065400026,523.862065400026,523.862065400026,523.862065400026,523.862065400026,25,59,53,33,59,70,523.862065400026,525.4136502000038,,,,,,,,,,,,,,,,,,,,３３４,f,1,2023-05-21_10h38.57.123,RL,2022.2.5,60.01158223623611,
59,27,48,43,0,82,82,82,,,,,,,,,,,None,525.4136502000038,525.4136502000038,525.4136502000038,525.4136502000038,525.4136502000038,525.4136502000038,f,0.2143344999931287,525.6473156000138,525.6473156000138,525.6473156000138,525.6473156000138,525.6473156000138,525.6473156000138,525.946929800004,527.5804330000246,527.5804330000246,527.5804330000246,527.5804330000246,527.5804330000246,527.5804330000246,527.5804330000246,527.5804330000246,527.5804330000246,527.5804330000246,527.5804330000246,527.5804330000246,527.5804330000246,527.5804330000246,529.5113548000227,529.5113548000227,529.5113548000227,529.5113548000227,529.5113548000227,529.5113548000227,529.5113548000227,27,59,43,48,27,70,529.5113548000227,531.0461166000168,,,,,,,,,,,,,,,,,,,,３３４,f,1,2023-05-21_10h38.57.123,RL,2022.2.5,60.01158223623611,
65,27,33,53,0,83,83,83,,,,,,,,,,,None,531.0461166000168,531.0461166000168,531.0461166000168,531.0461166000168,531.0461166000168,531.0461166000168,r,0.21202940001967363,531.2803894000244,531.2803894000244,531.2803894000244,531.2803894000244,531.2803894000244,531.2803894000244,531.5627978000266,532.6957887000171,532.7122367000266,532.7122367000266,532.7122367000266,532.7122367000266,532.7122367000266,532.7122367000266,532.7122367000266,532.7122367000266,532.7122367000266,532.7122367000266,532.7122367000266,532.7122367000266,532.7122367000266,534.1439428000012,534.1439428000012,534.1439428000012,534.1439428000012,534.1439428000012,534.1439428000012,534.1439428000012,27,65,53,33,65,70,534.1439428000012,535.7947536000283,,,,,,,,,,,,,,,,,,,,３３４,f,1,2023-05-21_10h38.57.123,RL,2022.2.5,60.01158223623611,
61,28,37,52,0,84,84,84,,,,,,,,,,,None,535.7947536000283,535.7947536000283,535.7947536000283,535.7947536000283,535.7947536000283,535.7947536000283,r,0.27254780000657775,536.0970067000017,536.0970067000017,536.0970067000017,536.0970067000017,536.0970067000017,536.0970067000017,536.3784665000276,538.0785555000184,538.0951828000252,538.0951828000252,538.0951828000252,538.0951828000252,538.0951828000252,538.0951828000252,538.0951828000252,538.0951828000252,538.0951828000252,538.0951828000252,538.0951828000252,538.0951828000252,538.0951828000252,540.0929379000154,540.0929379000154,540.0929379000154,540.0929379000154,540.0929379000154,540.0929379000154,540.0929379000154,28,61,52,37,61,70,540.0929379000154,541.7106243000017,,,,,,,,,,,,,,,,,,,,３３４,f,1,2023-05-21_10h38.57.123,RL,2022.2.5,60.01158223623611,
59,39,34,56,0,85,85,85,,,,,,,,,,,None,541.7106243000017,541.7106243000017,541.7106243000017,541.7106243000017,541.7106243000017,541.7106243000017,i,0.21017179999034852,541.9450604000012,541.9450604000012,541.9450604000012,541.9450604000012,541.9450604000012,541.9450604000012,542.2272807000263,543.3769952000002,543.3938332000107,543.3938332000107,543.3938332000107,543.3938332000107,543.3938332000107,543.3938332000107,543.3938332000107,543.3938332000107,543.3938332000107,543.3938332000107,543.3938332000107,543.3938332000107,543.3938332000107,544.8418732000282,544.8418732000282,544.8418732000282,544.8418732000282,544.8418732000282,544.8418732000282,544.8418732000282,39,59,56,34,56,70,544.8418732000282,546.7260028000164,,,,,,,,,,,,,,,,,,,,３３４,f,1,2023-05-21_10h38.57.123,RL,2022.2.5,60.01158223623611,
68,36,36,54,0,86,86,86,,,,,,,,,,,None,546.7260028000164,546.7260028000164,546.7260028000164,546.7260028000164,546.7260028000164,546.7260028000164,r,0.37101350000011735,547.1268429000047,547.1268429000047,547.1268429000047,547.1268429000047,547.1268429000047,547.1268429000047,547.4262678000086,549.1426815000013,549.1426815000013,549.1426815000013,549.1426815000013,549.1426815000013,549.1426815000013,549.1426815000013,549.1426815000013,549.1426815000013,549.1426815000013,549.1426815000013,549.1426815000013,549.1426815000013,549.1426815000013,551.1576437000185,551.1576437000185,551.1576437000185,551.1576437000185,551.1576437000185,551.1576437000185,551.1576437000185,36,68,54,36,68,70,551.1576437000185,553.1588067000266,,,,,,,,,,,,,,,,,,,,３３４,f,1,2023-05-21_10h38.57.123,RL,2022.2.5,60.01158223623611,
68,27,33,57,0,87,87,87,,,,,,,,,,,None,553.1588067000266,553.1588067000266,553.1588067000266,553.1588067000266,553.1588067000266,553.1588067000266,r,0.22947190000559203,553.4139157000172,553.4139157000172,553.4139157000172,553.4139157000172,553.4139157000172,553.4139157000172,553.708753200015,554.8417942000087,554.8417942000087,554.8417942000087,554.8417942000087,554.8417942000087,554.8417942000087,554.8417942000087,554.8417942000087,554.8417942000087,554.8417942000087,554.8417942000087,554.8417942000087,554.8417942000087,554.8417942000087,556.2732737000042,556.2732737000042,556.2732737000042,556.2732737000042,556.2732737000042,556.2732737000042,556.2732737000042,27,68,57,33,68,70,556.2732737000042,557.907677900017,,,,,,,,,,,,,,,,,,,,３３４,f,1,2023-05-21_10h38.57.123,RL,2022.2.5,60.01158223623611,
67,35,40,59,0,88,88,88,,,,,,,,,,,None,557.907677900017,557.907677900017,557.907677900017,557.907677900017,557.907677900017,557.907677900017,r,0.3096133000217378,558.2413437000068,558.2413437000068,558.2413437000068,558.2413437000068,558.2413437000068,558.2413437000068,558.524848400004,559.7910683000227,559.8076671000163,559.8076671000163,559.8076671000163,559.8076671000163,559.8076671000163,559.8076671000163,559.8076671000163,559.8076671000163,559.8076671000163,559.8076671000163,559.8076671000163,559.8076671000163,559.8076671000163,561.3726412000251,561.3726412000251,561.3726412000251,561.3726412000251,561.3726412000251,561.3726412000251,561.3726412000251,35,67,59,40,67,70,561.3726412000251,563.1069486000051,,,,,,,,,,,,,,,,,,,,３３４,f,1,2023-05-21_10h38.57.123,RL,2022.2.5,60.01158223623611,
53,28,34,57,0,89,89,89,,,,,,,,,,,None,563.1069486000051,563.1069486000051,563.1069486000051,563.1069486000051,563.1069486000051,563.1069486000051,r,1.4404753999842796,564.5746863000095,564.5746863000095,564.5746863000095,564.5746863000095,564.5746863000095,564.5746863000095,564.8735960000195,566.2398031000048,566.2398031000048,566.2398031000048,566.2398031000048,566.2398031000048,566.2398031000048,566.2398031000048,566.2398031000048,566.2398031000048,566.2398031000048,566.2398031000048,566.2398031000048,566.2398031000048,566.2398031000048,567.9046080000116,567.9046080000116,567.9046080000116,567.9046080000116,567.9046080000116,567.9046080000116,567.9046080000116,28,53,57,34,53,70,567.9046080000116,569.5890359000186,,,,,,,,,,,,,,,,,,,,３３４,f,1,2023-05-21_10h38.57.123,RL,2022.2.5,60.01158223623611,
63,38,37,61,0,90,90,90,,,,,,,,,,,None,569.5890359000186,569.5890359000186,569.5890359000186,569.5890359000186,569.5890359000186,569.5890359000186,f,0.3032396000053268,569.9260127000161,569.9260127000161,569.9260127000161,569.9260127000161,569.9260127000161,569.9260127000161,570.2058940000134,571.4225055999996,571.4390549000236,571.4390549000236,571.4390549000236,571.4390549000236,571.4390549000236,571.4390549000236,571.4390549000236,571.4390549000236,571.4390549000236,571.4390549000236,571.4390549000236,571.4390549000236,571.4390549000236,572.9537818000244,572.9537818000244,572.9537818000244,572.9537818000244,572.9537818000244,572.9537818000244,572.9537818000244,38,63,61,37,38,70,572.9537818000244,574.5052049000224,,,,,,,,,,,,,,,,,,,,３３４,f,1,2023-05-21_10h38.57.123,RL,2022.2.5,60.01158223623611,
66,37,40,64,0,91,91,91,,,,,,,,,,,None,574.5052049000224,574.5052049000224,574.5052049000224,574.5052049000224,574.5052049000224,574.5052049000224,j,0.11774859999422915,574.6603027000092,574.6603027000092,574.6603027000092,574.6603027000092,574.6603027000092,574.6603027000092,574.9389712000266,576.0883284000156,576.1215398000204,576.1215398000204,576.1215398000204,576.1215398000204,576.1215398000204,576.1215398000204,576.1215398000204,576.1215398000204,576.1215398000204,576.1215398000204,576.1215398000204,576.1215398000204,576.1215398000204,577.5692754000193,577.5692754000193,577.5692754000193,577.5692754000193,577.5692754000193,577.5692754000193,577.5692754000193,37,66,64,40,40,70,577.5692754000193,579.287714200007,,,,,,,,,,,,,,,,,,,,３３４,f,1,2023-05-21_10h38.57.123,RL,2022.2.5,60.01158223623611,
56,37,31,50,0,92,92,92,,,,,,,,,,,None,579.287714200007,579.287714200007,579.287714200007,579.287714200007,579.287714200007,579.287714200007,i,0.5105861999909393,579.8213438000239,579.8213438000239,579.8213438000239,579.8213438000239,579.8213438000239,579.8213438000239,580.1039535000164,581.2205435000069,581.2370672000106,581.2370672000106,581.2370672000106,581.2370672000106,581.2370672000106,581.2370672000106,581.2370672000106,581.2370672000106,581.2370672000106,581.2370672000106,581.2370672000106,581.2370672000106,581.2370672000106,582.6522379000089,582.6522379000089,582.6522379000089,582.6522379000089,582.6522379000089,582.6522379000089,582.6522379000089,37,56,50,31,50,70,582.6522379000089,584.6031058000226,,,,,,,,,,,,,,,,,,,,３３４,f,1,2023-05-21_10h38.57.123,RL,2022.2.5,60.01158223623611,
61,32,36,61,0,93,93,93,,,,,,,,,,,None,584.6031058000226,584.6031058000226,584.6031058000226,584.6031058000226,584.6031058000226,584.6031058000226,r,0.23701579999760725,584.8699922000233,584.8699922000233,584.8699922000233,584.8699922000233,584.8699922000233,584.8699922000233,585.1532772000064,587.1033664999995,587.1194734000019,587.1194734000019,587.1194734000019,587.1194734000019,587.1194734000019,587.1194734000019,587.1194734000019,587.1194734000019,587.1194734000019,587.1194734000019,587.1194734000019,587.1194734000019,587.1194734000019,589.3677182000247,589.3677182000247,589.3677182000247,589.3677182000247,589.3677182000247,589.3677182000247,589.3677182000247,32,61,61,36,61,70,589.3677182000247,590.9856125000224,,,,,,,,,,,,,,,,,,,,３３４,f,1,2023-05-21_10h38.57.123,RL,2022.2.5,60.01158223623611,
68,39,40,55,0,94,94,94,,,,,,,,,,,None,590.9856125000224,590.9856125000224,590.9856125000224,590.9856125000224,590.9856125000224,590.9856125000224,r,0.24641980000887997,591.2541125999996,591.2541125999996,591.2541125999996,591.2541125999996,591.2541125999996,591.2541125999996,591.5353646000149,592.5185519000224,592.535080200003,592.535080200003,592.535080200003,592.535080200003,592.535080200003,592.535080200003,592.535080200003,592.535080200003,592.535080200003,592.535080200003,592.535080200003,592.535080200003,592.535080200003,593.8168500000029,593.8168500000029,593.8168500000029,593.8168500000029,593.8168500000029,593.8168500000029,593.8168500000029,39,68,55,40,68,70,593.8168500000029,595.5344781000167,,,,,,,,,,,,,,,,,,,,３３４,f,1,2023-05-21_10h38.57.123,RL,2022.2.5,60.01158223623611,
66,34,43,56,0,95,95,95,,,,,,,,,,,None,595.5344781000167,595.5344781000167,595.5344781000167,595.5344781000167,595.5344781000167,595.5344781000167,r,0.33676619999459945,595.9020546000102,595.9020546000102,595.9020546000102,595.9020546000102,595.9020546000102,595.9020546000102,596.1846449000004,598.1681559000281,598.1845251000195,598.1845251000195,598.1845251000195,598.1845251000195,598.1845251000195,598.1845251000195,598.1845251000195,598.1845251000195,598.1845251000195,598.1845251000195,598.1845251000195,598.1845251000195,598.1845251000195,600.4657230000012,600.4657230000012,600.4657230000012,600.4657230000012,600.4657230000012,600.4657230000012,600.4657230000012,34,66,56,43,66,70,600.4657230000012,602.3665223999997,,,,,,,,,,,,,,,,,,,,３３４,f,1,2023-05-21_10h38.57.123,RL,2022.2.5,60.01158223623611,
60,37,33,49,0,96,96,96,,,,,,,,,,,None,602.3665223999997,602.3665223999997,602.3665223999997,602.3665223999997,602.3665223999997,602.3665223999997,r,0.2548172000097111,602.6502644000284,602.6502644000284,602.6502644000284,602.6502644000284,602.6502644000284,602.6502644000284,602.9335474000254,604.8831485000264,604.89990020002,604.89990020002,604.89990020002,604.89990020002,604.89990020002,604.89990020002,604.89990020002,604.89990020002,604.89990020002,604.89990020002,604.89990020002,604.89990020002,604.89990020002,607.1477813000092,607.1477813000092,607.1477813000092,607.1477813000092,607.1477813000092,607.1477813000092,607.1477813000092,37,60,49,33,60,70,607.1477813000092,609.1154391000164,,,,,,,,,,,,,,,,,,,,３３４,f,1,2023-05-21_10h38.57.123,RL,2022.2.5,60.01158223623611,
60,36,34,51,0,97,97,97,,,,,,,,,,,None,609.1154391000164,609.1154391000164,609.1154391000164,609.1154391000164,609.1154391000164,609.1154391000164,r,0.22868479997850955,609.3676771000028,609.3676771000028,609.3676771000028,609.3676771000028,609.3676771000028,609.3676771000028,609.6656777000171,611.5320222000009,611.5320222000009,611.5320222000009,611.5320222000009,611.5320222000009,611.5320222000009,611.5320222000009,611.5320222000009,611.5320222000009,611.5320222000009,611.5320222000009,611.5320222000009,611.5320222000009,611.5320222000009,613.6969387000136,613.6969387000136,613.6969387000136,613.6969387000136,613.6969387000136,613.6969387000136,613.6969387000136,36,60,51,34,60,70,613.6969387000136,615.3480088000069,,,,,,,,,,,,,,,,,,,,３３４,f,1,2023-05-21_10h38.57.123,RL,2022.2.5,60.01158223623611,
65,35,38,53,0,98,98,98,,,,,,,,,,,None,615.3480088000069,615.3480088000069,615.3480088000069,615.3480088000069,615.3480088000069,615.3480088000069,i,0.23625439999159425,615.6170293000177,615.6170293000177,615.6170293000177,615.6170293000177,615.6170293000177,615.6170293000177,615.9147085000004,617.6641905000142,617.6641905000142,617.6641905000142,617.6641905000142,617.6641905000142,617.6641905000142,617.6641905000142,617.6641905000142,617.6641905000142,617.6641905000142,617.6641905000142,617.6641905000142,617.6641905000142,617.6641905000142,619.7119421000243,619.7119421000243,619.7119421000243,619.7119421000243,619.7119421000243,619.7119421000243,619.7119421000243,35,65,53,38,53,70,619.7119421000243,621.5302840000077,,,,,,,,,,,,,,,,,,,,３３４,f,1,2023-05-21_10h38.57.123,RL,2022.2.5,60.01158223623611,
71,34,27,49,0,99,99,99,,,,,,,,,,,None,621.5302840000077,621.5302840000077,621.5302840000077,621.5302840000077,621.5302840000077,621.5302840000077,r,0.2512971000105608,621.817518900003,621.817518900003,621.817518900003,621.817518900003,621.817518900003,621.817518900003,622.0969939000206,623.880352600012,623.8964341000246,623.8964341000246,623.8964341000246,623.8964341000246,623.8964341000246,623.8964341000246,623.8964341000246,623.8964341000246,623.8964341000246,623.8964341000246,623.8964341000246,623.8964341000246,623.8964341000246,625.9778382000222,625.9778382000222,625.9778382000222,625.9778382000222,625.9778382000222,625.9778382000222,625.9778382000222,34,71,49,27,71,70,625.9778382000222,627.7955065000278,,,,,,,,,,,,,,,,,,,,３３４,f,1,2023-05-21_10h38.57.123,RL,2022.2.5,60.01158223623611,
76,35,25,44,0,100,100,100,,,,,,,,,,,None,627.7955065000278,627.7955065000278,627.7955065000278,627.7955065000278,627.7955065000278,627.7955065000278,r,0.19121520000044256,628.0125617000158,628.0125617000158,628.0125617000158,628.0125617000158,628.0125617000158,628.0125617000158,628.2955335000006,629.8459415000107,629.8622992000019,629.8622992000019,629.8622992000019,629.8622992000019,629.8622992000019,629.8622992000019,629.8622992000019,629.8622992000019,629.8622992000019,629.8622992000019,629.8622992000019,629.8622992000019,629.8622992000019,631.7101800000237,631.7101800000237,631.7101800000237,631.7101800000237,631.7101800000237,631.7101800000237,631.7101800000237,35,76,44,25,76,70,631.7101800000237,633.411468700011,,,,,,,,,,,,,,,,,,,,３３４,f,1,2023-05-21_10h38.57.123,RL,2022.2.5,60.01158223623611,
82,37,36,49,0,101,101,101,,,,,,,,,,,None,633.411468700011,633.411468700011,633.411468700011,633.411468700011,633.411468700011,633.411468700011,r,0.3732927000091877,633.8116214000038,633.8116214000038,633.8116214000038,633.8116214000038,633.8116214000038,633.8116214000038,634.1113484000089,635.227798500011,635.227798500011,635.227798500011,635.227798500011,635.227798500011,635.227798500011,635.227798500011,635.227798500011,635.227798500011,635.227798500011,635.227798500011,635.227798500011,635.227798500011,635.227798500011,636.6422638000222,636.6422638000222,636.6422638000222,636.6422638000222,636.6422638000222,636.6422638000222,636.6422638000222,37,82,49,36,82,70,636.6422638000222,638.5767936000193,,,,,,,,,,,,,,,,,,,,３３４,f,1,2023-05-21_10h38.57.123,RL,2022.2.5,60.01158223623611,
68,31,29,39,0,102,102,102,,,,,,,,,,,None,638.5767936000193,638.5767936000193,638.5767936000193,638.5767936000193,638.5767936000193,638.5767936000193,r,0.3031726999906823,638.9114170000248,638.9114170000248,638.9114170000248,638.9114170000248,638.9114170000248,638.9114170000248,639.193989100022,640.444210000016,640.4601333000173,640.4601333000173,640.4601333000173,640.4601333000173,640.4601333000173,640.4601333000173,640.4601333000173,640.4601333000173,640.4601333000173,640.4601333000173,640.4601333000173,640.4601333000173,640.4601333000173,642.0083222000103,642.0083222000103,642.0083222000103,642.0083222000103,642.0083222000103,642.0083222000103,642.0083222000103,31,68,39,29,68,70,642.0083222000103,643.5930100000114,,,,,,,,,,,,,,,,,,,,３３４,f,1,2023-05-21_10h38.57.123,RL,2022.2.5,60.01158223623611,
66,39,36,40,0,103,103,103,,,,,,,,,,,None,643.5930100000114,643.5930100000114,643.5930100000114,643.5930100000114,643.5930100000114,643.5930100000114,r,0.2914448000083212,643.9098915000213,643.9098915000213,643.9098915000213,643.9098915000213,643.9098915000213,643.9098915000213,644.1930274000042,646.0092275000061,646.0261296000099,646.0261296000099,646.0261296000099,646.0261296000099,646.0261296000099,646.0261296000099,646.0261296000099,646.0261296000099,646.0261296000099,646.0261296000099,646.0261296000099,646.0261296000099,646.0261296000099,648.1404429000104,648.1404429000104,648.1404429000104,648.1404429000104,648.1404429000104,648.1404429000104,648.1404429000104,39,66,40,36,66,70,648.1404429000104,649.8583863000094,,,,,,,,,,,,,,,,,,,,３３４,f,1,2023-05-21_10h38.57.123,RL,2022.2.5,60.01158223623611,
66,40,34,35,0,104,104,104,,,,,,,,,,,None,649.8583863000094,649.8583863000094,649.8583863000094,649.8583863000094,649.8583863000094,649.8583863000094,r,0.2548659000021871,650.1428697000083,650.1428697000083,650.1428697000083,650.1428697000083,650.1428697000083,650.1428697000083,650.425579200004,651.6084428000031,651.6251215000229,651.6251215000229,651.6251215000229,651.6251215000229,651.6251215000229,651.6251215000229,651.6251215000229,651.6251215000229,651.6251215000229,651.6251215000229,651.6251215000229,651.6251215000229,651.6251215000229,653.1065859000082,653.1065859000082,653.1065859000082,653.1065859000082,653.1065859000082,653.1065859000082,653.1065859000082,40,66,35,34,66,70,653.1065859000082,654.6578154000163,,,,,,,,,,,,,,,,,,,,３３４,f,1,2023-05-21_10h38.57.123,RL,2022.2.5,60.01158223623611,
68,41,32,40,0,105,105,105,,,,,,,,,,,None,654.6578154000163,654.6578154000163,654.6578154000163,654.6578154000163,654.6578154000163,654.6578154000163,r,0.23573849999229424,654.925999900006,654.925999900006,654.925999900006,654.925999900006,654.925999900006,654.925999900006,655.2246731000196,656.0741717000201,656.0741717000201,656.0741717000201,656.0741717000201,656.0741717000201,656.0741717000201,656.0741717000201,656.0741717000201,656.0741717000201,656.0741717000201,656.0741717000201,656.0741717000201,656.0741717000201,656.0741717000201,657.2224012000079,657.2224012000079,657.2224012000079,657.2224012000079,657.2224012000079,657.2224012000079,657.2224012000079,41,68,40,32,68,70,657.2224012000079,658.8067093000282,,,,,,,,,,,,,,,,,,,,３３４,f,1,2023-05-21_10h38.57.123,RL,2022.2.5,60.01158223623611,
84,42,27,41,0,106,106,106,,,,,,,,,,,None,658.8067093000282,658.8067093000282,658.8067093000282,658.8067093000282,658.8067093000282,658.8067093000282,r,0.30088749999413267,659.1423880000075,659.1423880000075,659.1423880000075,659.1423880000075,659.1423880000075,659.1423880000075,659.4238296000112,660.440304400021,660.456765800016,660.456765800016,660.456765800016,660.456765800016,660.456765800016,660.456765800016,660.456765800016,660.456765800016,660.456765800016,660.456765800016,660.456765800016,660.456765800016,660.456765800016,661.7716684000043,661.7716684000043,661.7716684000043,661.7716684000043,661.7716684000043,661.7716684000043,661.7716684000043,42,84,41,27,84,70,661.7716684000043,663.3391434000223,,,,,,,,,,,,,,,,,,,,３３４,f,1,2023-05-21_10h38.57.123,RL,2022.2.5,60.01158223623611,
71,34,33,48,0,107,107,107,,,,,,,,,,,None,663.3391434000223,663.3391434000223,663.3391434000223,663.3391434000223,663.3391434000223,663.3391434000223,r,0.21302460000151768,663.573082900024,663.573082900024,663.573082900024,663.573082900024,663.573082900024,663.573082900024,663.856380400015,665.1892379000201,665.2058511000068,665.2058511000068,665.2058511000068,665.2058511000068,665.2058511000068,665.2058511000068,665.2058511000068,665.2058511000068,665.2058511000068,665.2058511000068,665.2058511000068,665.2058511000068,665.2058511000068,666.837448300008,666.837448300008,666.837448300008,666.837448300008,666.837448300008,666.837448300008,666.837448300008,34,71,48,33,71,70,666.837448300008,668.438593000028,,,,,,,,,,,,,,,,,,,,３３４,f,1,2023-05-21_10h38.57.123,RL,2022.2.5,60.01158223623611,
73,37,35,47,0,108,108,108,,,,,,,,,,,None,668.438593000028,668.438593000028,668.438593000028,668.438593000028,668.438593000028,668.438593000028,r,0.3254947999957949,668.7904344000272,668.7904344000272,668.7904344000272,668.7904344000272,668.7904344000272,668.7904344000272,669.0722598000139,669.8884649000247,669.9052512000198,669.9052512000198,669.9052512000198,669.9052512000198,669.9052512000198,669.9052512000198,669.9052512000198,669.9052512000198,669.9052512000198,669.9052512000198,669.9052512000198,669.9052512000198,669.9052512000198,671.0199773000204,671.0199773000204,671.0199773000204,671.0199773000204,671.0199773000204,671.0199773000204,671.0199773000204,37,73,47,35,73,70,671.0199773000204,673.0210964000144,,,,,,,,,,,,,,,,,,,,３３４,f,1,2023-05-21_10h38.57.123,RL,2022.2.5,60.01158223623611,
72,51,31,44,0,109,109,109,,,,,,,,,,,None,673.0210964000144,673.0210964000144,673.0210964000144,673.0210964000144,673.0210964000144,673.0210964000144,r,0.21949909999966621,673.2761296000099,673.2761296000099,673.2761296000099,673.2761296000099,673.2761296000099,673.2761296000099,673.5549324000021,674.8543601000274,674.870974600024,674.870974600024,674.870974600024,674.870974600024,674.870974600024,674.870974600024,674.870974600024,674.870974600024,674.870974600024,674.870974600024,674.870974600024,674.870974600024,674.870974600024,676.4689661000157,676.4689661000157,676.4689661000157,676.4689661000157,676.4689661000157,676.4689661000157,676.4689661000157,51,72,44,31,72,70,676.4689661000157,678.2365693000029,,,,,,,,,,,,,,,,,,,,３３４,f,1,2023-05-21_10h38.57.123,RL,2022.2.5,60.01158223623611,
72,43,35,48,0,110,110,110,,,,,,,,,,,None,678.2365693000029,678.2365693000029,678.2365693000029,678.2365693000029,678.2365693000029,678.2365693000029,r,0.2986875000060536,678.5555070000119,678.5555070000119,678.5555070000119,678.5555070000119,678.5555070000119,678.5555070000119,678.8371030000271,680.0700708000222,680.0867385000165,680.0867385000165,680.0867385000165,680.0867385000165,680.0867385000165,680.0867385000165,680.0867385000165,680.0867385000165,680.0867385000165,680.0867385000165,680.0867385000165,680.0867385000165,680.0867385000165,681.6180105000094,681.6180105000094,681.6180105000094,681.6180105000094,681.6180105000094,681.6180105000094,681.6180105000094,43,72,48,35,72,70,681.6180105000094,683.5855286000005,,,,,,,,,,,,,,,,,,,,３３４,f,1,2023-05-21_10h38.57.123,RL,2022.2.5,60.01158223623611,
78,43,28,52,0,111,111,111,,,,,,,,,,,None,683.5855286000005,683.5855286000005,683.5855286000005,683.5855286000005,683.5855286000005,683.5855286000005,r,0.26196580001851544,683.8697138999996,683.8697138999996,683.8697138999996,683.8697138999996,683.8697138999996,683.8697138999996,684.1523936000012,685.4523363000189,685.4688680000254,685.4688680000254,685.4688680000254,685.4688680000254,685.4688680000254,685.4688680000254,685.4688680000254,685.4688680000254,685.4688680000254,685.4688680000254,685.4688680000254,685.4688680000254,685.4688680000254,687.0670095000241,687.0670095000241,687.0670095000241,687.0670095000241,687.0670095000241,687.0670095000241,687.0670095000241,43,78,52,28,78,70,687.0670095000241,689.0012069000222,,,,,,,,,,,,,,,,,,,,３３４,f,1,2023-05-21_10h38.57.123,RL,2022.2.5,60.01158223623611,
69,41,40,56,0,112,112,112,,,,,,,,,,,None,689.0012069000222,689.0012069000222,689.0012069000222,689.0012069000222,689.0012069000222,689.0012069000222,r,0.3552462999941781,689.3884634000133,689.3884634000133,689.3884634000133,689.3884634000133,689.3884634000133,689.3884634000133,689.6851717000245,690.9514557000075,690.9514557000075,690.9514557000075,690.9514557000075,690.9514557000075,690.9514557000075,690.9514557000075,690.9514557000075,690.9514557000075,690.9514557000075,690.9514557000075,690.9514557000075,690.9514557000075,690.9514557000075,692.5159331000177,692.5159331000177,692.5159331000177,692.5159331000177,692.5159331000177,692.5159331000177,692.5159331000177,41,69,56,40,69,70,692.5159331000177,694.1669003000134,,,,,,,,,,,,,,,,,,,,３３４,f,1,2023-05-21_10h38.57.123,RL,2022.2.5,60.01158223623611,
70,41,46,51,0,113,113,113,,,,,,,,,,,None,694.1669003000134,694.1669003000134,694.1669003000134,694.1669003000134,694.1669003000134,694.1669003000134,r,0.23188969999318942,694.4190179000143,694.4190179000143,694.4190179000143,694.4190179000143,694.4190179000143,694.4190179000143,694.7008616000239,696.3671139000216,696.383687100024,696.383687100024,696.383687100024,696.383687100024,696.383687100024,696.383687100024,696.383687100024,696.383687100024,696.383687100024,696.383687100024,696.383687100024,696.383687100024,696.383687100024,698.3484644000127,698.3484644000127,698.3484644000127,698.3484644000127,698.3484644000127,698.3484644000127,698.3484644000127,41,70,51,46,70,70,698.3484644000127,700.3327252000163,,,,,,,,,,,,,,,,,,,,３３４,f,1,2023-05-21_10h38.57.123,RL,2022.2.5,60.01158223623611,
74,48,37,58,0,114,114,114,,,,,,,,,,,None,700.3327252000163,700.3327252000163,700.3327252000163,700.3327252000163,700.3327252000163,700.3327252000163,r,0.23657379997894168,700.6000812000129,700.6000812000129,700.6000812000129,700.6000812000129,700.6000812000129,700.6000812000129,700.8996694000089,702.899186100025,702.899186100025,702.899186100025,702.899186100025,702.899186100025,702.899186100025,702.899186100025,702.899186100025,702.899186100025,702.899186100025,702.899186100025,702.899186100025,702.899186100025,702.899186100025,705.1971183000132,705.1971183000132,705.1971183000132,705.1971183000132,705.1971183000132,705.1971183000132,705.1971183000132,48,74,58,37,74,70,705.1971183000132,707.0481038000144,,,,,,,,,,,,,,,,,,,,３３４,f,1,2023-05-21_10h38.57.123,RL,2022.2.5,60.01158223623611,
65,50,48,56,0,115,115,115,,,,,,,,,,,None,707.0481038000144,707.0481038000144,707.0481038000144,707.0481038000144,707.0481038000144,707.0481038000144,r,0.3274346999824047,707.3990075000038,707.3990075000038,707.3990075000038,707.3990075000038,707.3990075000038,707.3990075000038,707.681817500008,709.431541900005,709.4481800000067,709.4481800000067,709.4481800000067,709.4481800000067,709.4481800000067,709.4481800000067,709.4481800000067,709.4481800000067,709.4481800000067,709.4481800000067,709.4481800000067,709.4481800000067,709.4481800000067,711.4961174000055,711.4961174000055,711.4961174000055,711.4961174000055,711.4961174000055,711.4961174000055,711.4961174000055,50,65,56,48,65,70,711.4961174000055,713.4138763000083,,,,,,,,,,,,,,,,,,,,３３４,f,1,2023-05-21_10h38.57.123,RL,2022.2.5,60.01158223623611,
68,50,35,55,0,116,116,116,,,,,,,,,,,None,713.4138763000083,713.4138763000083,713.4138763000083,713.4138763000083,713.4138763000083,713.4138763000083,r,0.24974299999303184,713.6812765000213,713.6812765000213,713.6812765000213,713.6812765000213,713.6812765000213,713.6812765000213,713.9641255000024,714.8806352000101,714.8973564000044,714.8973564000044,714.8973564000044,714.8973564000044,714.8973564000044,714.8973564000044,714.8973564000044,714.8973564000044,714.8973564000044,714.8973564000044,714.8973564000044,714.8973564000044,714.8973564000044,716.111925300007,716.111925300007,716.111925300007,716.111925300007,716.111925300007,716.111925300007,716.111925300007,50,68,55,35,68,70,716.111925300007,717.8133949000039,,,,,,,,,,,,,,,,,,,,３３４,f,1,2023-05-21_10h38.57.123,RL,2022.2.5,60.01158223623611,
73,47,43,59,0,117,117,117,,,,,,,,,,,None,717.8133949000039,717.8133949000039,717.8133949000039,717.8133949000039,717.8133949000039,717.8133949000039,r,0.25392550000105985,718.0973669000086,718.0973669000086,718.0973669000086,718.0973669000086,718.0973669000086,718.0973669000086,718.3966450000007,719.2629387000052,719.2629387000052,719.2629387000052,719.2629387000052,719.2629387000052,719.2629387000052,719.2629387000052,719.2629387000052,719.2629387000052,719.2629387000052,719.2629387000052,719.2629387000052,719.2629387000052,719.2629387000052,720.4277715000208,720.4277715000208,720.4277715000208,720.4277715000208,720.4277715000208,720.4277715000208,720.4277715000208,47,73,59,43,73,70,720.4277715000208,722.278546400019,,,,,,,,,,,,,,,,,,,,３３４,f,1,2023-05-21_10h38.57.123,RL,2022.2.5,60.01158223623611,
73,55,46,47,0,118,118,118,,,,,,,,,,,None,722.278546400019,722.278546400019,722.278546400019,722.278546400019,722.278546400019,722.278546400019,r,0.2765394000161905,722.579629600019,722.579629600019,722.579629600019,722.579629600019,722.579629600019,722.579629600019,722.8626477000071,723.9458778000262,723.9622780000209,723.9622780000209,723.9622780000209,723.9622780000209,723.9622780000209,723.9622780000209,723.9622780000209,723.9622780000209,723.9622780000209,723.9622780000209,723.9622780000209,723.9622780000209,723.9622780000209,725.3437660000054,725.3437660000054,725.3437660000054,725.3437660000054,725.3437660000054,725.3437660000054,725.3437660000054,55,73,47,46,73,70,725.3437660000054,727.1945346000139,,,,,,,,,,,,,,,,,,,,３３４,f,1,2023-05-21_10h38.57.123,RL,2022.2.5,60.01158223623611,
76,49,53,49,0,119,119,119,,,,,,,,,,,None,727.1945346000139,727.1945346000139,727.1945346000139,727.1945346000139,727.1945346000139,727.1945346000139,r,0.2958212000085041,727.5132775000238,727.5132775000238,727.5132775000238,727.5132775000238,727.5132775000238,727.5132775000238,727.811477900017,729.7779047000222,729.7779047000222,729.7779047000222,729.7779047000222,729.7779047000222,729.7779047000222,729.7779047000222,729.7779047000222,729.7779047000222,729.7779047000222,729.7779047000222,729.7779047000222,729.7779047000222,729.7779047000222,732.0426210000005,732.0426210000005,732.0426210000005,732.0426210000005,732.0426210000005,732.0426210000005,732.0426210000005,49,76,49,53,76,70,732.0426210000005,733.7933792000113,,,,,,,,,,,,,,,,,,,,３３４,f,1,2023-05-21_10h38.57.123,RL,2022.2.5,60.01158223623611,
