arm1,arm2,arm3,arm4,trials.thisRepN,trials.thisTrialN,trials.thisN,trials.thisIndex,instru_img1.started,instru_resp.started,instru_resp.keys,instru_resp.rt,image_2.started,text_2.started,image_2.stopped,text_2.stopped,fixbefore_2.started,fixbefore_2.stopped,rest_response.keys,red.started,green.started,yellow.started,blue.started,choose_bandit.started,Fixation.started,choose_bandit.keys,choose_bandit.rt,black.started,red_2.started,green_2.started,yellow_2.started,blue_2.started,fixation_2.started,docs.started,docs.stopped,black.stopped,red_2.stopped,green_2.stopped,yellow_2.stopped,blue_2.stopped,fixation_2.stopped,black_com.started,reward_sub.started,reward__sub.started,red_compare.started,green_com.started,yellow_com.started,blue_com.started,black_com.stopped,reward_sub.stopped,reward__sub.stopped,red_compare.stopped,green_com.stopped,yellow_com.stopped,blue_com.stopped,rewardred,rewardyellow,rewardblue,rewardgreen,subchoose,expectation,intertrialfix.started,intertrialfix.stopped,rest_image.started,rest_response.started,rest_response.rt,image_expect_after.started,text_exp_after.started,image_expect_after.stopped,text_exp_after.stopped,red.stopped,green.stopped,yellow.stopped,blue.stopped,choose_bandit.stopped,Fixation.stopped,bigx.started,bigx.stopped,image.started,key_resp.started,key_resp.keys,key_resp.rt,participant,Gender,Age,date,expName,psychopyVersion,frameRate,
,,,,,,,,34.7790811000159,34.7790811000159,space,4.475582000013674,,,,,,,,,,,,,,,,,,,,,,,,,,,,,,,,,,,,,,,,,,,,,,,,,,,,,,,,,,,,,,,,,,,,,,,３３５,f,２２,2023-05-21_11h06.04.774,RL,2022.2.5,59.90208404702956,
32,41,57,55,0,0,0,0,,,,,39.27173700000276,39.27173700000276,44.27151729998877,44.27151729998877,44.27151729998877,45.273176999995485,None,45.273176999995485,45.273176999995485,45.273176999995485,45.273176999995485,45.273176999995485,45.273176999995485,r,0.9543287999986205,46.259536300000036,46.259536300000036,46.259536300000036,46.259536300000036,46.259536300000036,46.259536300000036,46.53982070001075,48.292367000016384,48.31315390000236,48.31315390000236,48.31315390000236,48.31315390000236,48.31315390000236,48.31315390000236,48.31315390000236,48.31315390000236,48.31315390000236,48.31315390000236,48.31315390000236,48.31315390000236,48.31315390000236,50.415997300005984,50.415997300005984,50.415997300005984,50.415997300005984,50.415997300005984,50.415997300005984,50.415997300005984,55,57,41,32,57,60,50.415997300005984,52.071635100001004,,,,,,,,,,,,,,,,,,,,３３５,f,２２,2023-05-21_11h06.04.774,RL,2022.2.5,59.90208404702956,
34,23,64,60,0,1,1,1,,,,,,,,,,,None,52.071635100001004,52.071635100001004,52.071635100001004,52.071635100001004,52.071635100001004,52.071635100001004,r,1.3325219000107609,53.42368979999446,53.42368979999446,53.42368979999446,53.42368979999446,53.42368979999446,53.42368979999446,53.7213339000009,54.87112560000969,54.87112560000969,54.87112560000969,54.87112560000969,54.87112560000969,54.87112560000969,54.87112560000969,54.87112560000969,54.87112560000969,54.87112560000969,54.87112560000969,54.87112560000969,54.87112560000969,54.87112560000969,56.319030699989526,56.319030699989526,56.319030699989526,56.319030699989526,56.319030699989526,56.319030699989526,56.319030699989526,60,64,23,34,64,60,56.319030699989526,58.00337049999507,,,,,,,,,,,,,,,,,,,,３３５,f,２２,2023-05-21_11h06.04.774,RL,2022.2.5,59.90208404702956,
34,35,44,64,0,2,2,2,,,,,,,,,,,None,58.00337049999507,58.00337049999507,58.00337049999507,58.00337049999507,58.00337049999507,58.00337049999507,r,1.268949999997858,59.31157930000336,59.31157930000336,59.31157930000336,59.31157930000336,59.31157930000336,59.31157930000336,59.58771940000588,61.07045550001203,61.10387260001153,61.10387260001153,61.10387260001153,61.10387260001153,61.10387260001153,61.10387260001153,61.10387260001153,61.10387260001153,61.10387260001153,61.10387260001153,61.10387260001153,61.10387260001153,61.10387260001153,62.885136500000954,62.885136500000954,62.885136500000954,62.885136500000954,62.885136500000954,62.885136500000954,62.885136500000954,64,44,35,34,44,60,62.885136500000954,64.73579820001032,,,,,,,,,,,,,,,,,,,,３３５,f,２２,2023-05-21_11h06.04.774,RL,2022.2.5,59.90208404702956,
45,32,57,55,0,3,3,3,,,,,,,,,,,None,64.73579820001032,64.73579820001032,64.73579820001032,64.73579820001032,64.73579820001032,64.73579820001032,j,0.7568967999832239,65.51958459999878,65.51958459999878,65.51958459999878,65.51958459999878,65.51958459999878,65.51958459999878,65.80296790000284,66.98588170000585,67.00216550001642,67.00216550001642,67.00216550001642,67.00216550001642,67.00216550001642,67.00216550001642,67.00216550001642,67.00216550001642,67.00216550001642,67.00216550001642,67.00216550001642,67.00216550001642,67.00216550001642,68.48384870000882,68.48384870000882,68.48384870000882,68.48384870000882,68.48384870000882,68.48384870000882,68.48384870000882,55,57,32,45,45,60,68.48384870000882,70.2019239999936,,,,,,,,,,,,,,,,,,,,３３５,f,２２,2023-05-21_11h06.04.774,RL,2022.2.5,59.90208404702956,
29,41,51,50,0,4,4,4,,,,,,,,,,,None,70.2019239999936,70.2019239999936,70.2019239999936,70.2019239999936,70.2019239999936,70.2019239999936,i,0.8742172999773175,71.10282309999457,71.10282309999457,71.10282309999457,71.10282309999457,71.10282309999457,71.10282309999457,71.40172319998965,72.4680067000154,72.4680067000154,72.4680067000154,72.4680067000154,72.4680067000154,72.4680067000154,72.4680067000154,72.4680067000154,72.4680067000154,72.4680067000154,72.4680067000154,72.4680067000154,72.4680067000154,72.4680067000154,73.8330108000082,73.8330108000082,73.8330108000082,73.8330108000082,73.8330108000082,73.8330108000082,73.8330108000082,50,51,41,29,41,60,73.8330108000082,75.46756039999309,,,,,,,,,,,,,,,,,,,,３３５,f,２２,2023-05-21_11h06.04.774,RL,2022.2.5,59.90208404702956,
29,32,53,55,0,5,5,5,,,,,,,,,,,None,75.46756039999309,75.46756039999309,75.46756039999309,75.46756039999309,75.46756039999309,75.46756039999309,f,0.6481884999957401,76.13505949999671,76.13505949999671,76.13505949999671,76.13505949999671,76.13505949999671,76.13505949999671,76.4341182000062,78.35162780000246,78.35162780000246,78.35162780000246,78.35162780000246,78.35162780000246,78.35162780000246,78.35162780000246,78.35162780000246,78.35162780000246,78.35162780000246,78.35162780000246,78.35162780000246,78.35162780000246,78.35162780000246,80.56513609999092,80.56513609999092,80.56513609999092,80.56513609999092,80.56513609999092,80.56513609999092,80.56513609999092,55,53,32,29,55,60,80.56513609999092,82.39941750001162,,,,,,,,,,,,,,,,,,,,３３５,f,２２,2023-05-21_11h06.04.774,RL,2022.2.5,59.90208404702956,
30,33,47,54,0,6,6,6,,,,,,,,,,,None,82.39941750001162,82.39941750001162,82.39941750001162,82.39941750001162,82.39941750001162,82.39941750001162,r,0.5956554000149481,83.01882319999277,83.01882319999277,83.01882319999277,83.01882319999277,83.01882319999277,83.01882319999277,83.31612619999214,84.93262140001752,84.93262140001752,84.93262140001752,84.93262140001752,84.93262140001752,84.93262140001752,84.93262140001752,84.93262140001752,84.93262140001752,84.93262140001752,84.93262140001752,84.93262140001752,84.93262140001752,84.93262140001752,86.84762479999335,86.84762479999335,86.84762479999335,86.84762479999335,86.84762479999335,86.84762479999335,86.84762479999335,54,47,33,30,47,60,86.84762479999335,88.76525220001349,,,,,,,,,,,,,,,,,,,,３３５,f,２２,2023-05-21_11h06.04.774,RL,2022.2.5,59.90208404702956,
33,38,39,52,0,7,7,7,,,,,,,,,,,None,88.76525220001349,88.76525220001349,88.76525220001349,88.76525220001349,88.76525220001349,88.76525220001349,f,0.4883818000089377,89.28585580000072,89.28585580000072,89.28585580000072,89.28585580000072,89.28585580000072,89.28585580000072,89.58191199999419,91.43112339999061,91.43112339999061,91.43112339999061,91.43112339999061,91.43112339999061,91.43112339999061,91.43112339999061,91.43112339999061,91.43112339999061,91.43112339999061,91.43112339999061,91.43112339999061,91.43112339999061,91.43112339999061,93.57917430001544,93.57917430001544,93.57917430001544,93.57917430001544,93.57917430001544,93.57917430001544,93.57917430001544,52,39,38,33,52,60,93.57917430001544,95.43067000000156,,,,,,,,,,,,,,,,,,,,３３５,f,２２,2023-05-21_11h06.04.774,RL,2022.2.5,59.90208404702956,
24,46,52,56,0,8,8,8,,,,,,,,,,,None,95.43067000000156,95.43067000000156,95.43067000000156,95.43067000000156,95.43067000000156,95.43067000000156,f,0.5291419000132009,95.9856274999911,95.9856274999911,95.9856274999911,95.9856274999911,95.9856274999911,95.9856274999911,96.28037079999922,97.76352480001515,97.78031410000403,97.78031410000403,97.78031410000403,97.78031410000403,97.78031410000403,97.78031410000403,97.78031410000403,97.78031410000403,97.78031410000403,97.78031410000403,97.78031410000403,97.78031410000403,97.78031410000403,99.56145350000588,99.56145350000588,99.56145350000588,99.56145350000588,99.56145350000588,99.56145350000588,99.56145350000588,56,52,46,24,56,60,99.56145350000588,101.46297570000752,,,,,,,,,,,,,,,,,,,,３３５,f,２２,2023-05-21_11h06.04.774,RL,2022.2.5,59.90208404702956,
23,39,58,60,0,9,9,9,,,,,,,,,,,None,101.46297570000752,101.46297570000752,101.46297570000752,101.46297570000752,101.46297570000752,101.46297570000752,j,0.7000475999957416,102.18600990000414,102.18600990000414,102.18600990000414,102.18600990000414,102.18600990000414,102.18600990000414,102.47983960001147,103.76266969999415,103.76266969999415,103.76266969999415,103.76266969999415,103.76266969999415,103.76266969999415,103.76266969999415,103.76266969999415,103.76266969999415,103.76266969999415,103.76266969999415,103.76266969999415,103.76266969999415,103.76266969999415,105.34405230000266,105.34405230000266,105.34405230000266,105.34405230000266,105.34405230000266,105.34405230000266,105.34405230000266,60,58,39,23,23,60,105.34405230000266,106.94510640000226,,,,,,,,,,,,,,,,,,,,３３５,f,２２,2023-05-21_11h06.04.774,RL,2022.2.5,59.90208404702956,
35,42,58,51,0,10,10,10,,,,,,,,,,,None,106.94510640000226,106.94510640000226,106.94510640000226,106.94510640000226,106.94510640000226,106.94510640000226,i,0.6598806999973021,107.63112160001765,107.63112160001765,107.63112160001765,107.63112160001765,107.63112160001765,107.63112160001765,107.92851880000671,109.01155460000155,109.01155460000155,109.01155460000155,109.01155460000155,109.01155460000155,109.01155460000155,109.01155460000155,109.01155460000155,109.01155460000155,109.01155460000155,109.01155460000155,109.01155460000155,109.01155460000155,109.01155460000155,110.39345400000457,110.39345400000457,110.39345400000457,110.39345400000457,110.39345400000457,110.39345400000457,110.39345400000457,51,58,42,35,42,60,110.39345400000457,112.06068510000478,,,,,,,,,,,,,,,,,,,,３３５,f,２２,2023-05-21_11h06.04.774,RL,2022.2.5,59.90208404702956,
35,42,52,54,0,11,11,11,,,,,,,,,,,None,112.06068510000478,112.06068510000478,112.06068510000478,112.06068510000478,112.06068510000478,112.06068510000478,f,0.4649995000218041,112.54653799999505,112.54653799999505,112.54653799999505,112.54653799999505,112.54653799999505,112.54653799999505,112.84458979999181,114.46112859999994,114.46112859999994,114.46112859999994,114.46112859999994,114.46112859999994,114.46112859999994,114.46112859999994,114.46112859999994,114.46112859999994,114.46112859999994,114.46112859999994,114.46112859999994,114.46112859999994,114.46112859999994,116.37579640001059,116.37579640001059,116.37579640001059,116.37579640001059,116.37579640001059,116.37579640001059,116.37579640001059,54,52,42,35,54,60,116.37579640001059,118.27688059999491,,,,,,,,,,,,,,,,,,,,３３５,f,２２,2023-05-21_11h06.04.774,RL,2022.2.5,59.90208404702956,
39,42,54,59,0,12,12,12,,,,,,,,,,,None,118.27688059999491,118.27688059999491,118.27688059999491,118.27688059999491,118.27688059999491,118.27688059999491,r,0.342419599997811,118.64345900001354,118.64345900001354,118.64345900001354,118.64345900001354,118.64345900001354,118.64345900001354,118.92676780000329,120.82664189999923,120.84305100000347,120.84305100000347,120.84305100000347,120.84305100000347,120.84305100000347,120.84305100000347,120.84305100000347,120.84305100000347,120.84305100000347,120.84305100000347,120.84305100000347,120.84305100000347,120.84305100000347,123.04070820001652,123.04070820001652,123.04070820001652,123.04070820001652,123.04070820001652,123.04070820001652,123.04070820001652,59,54,42,39,54,60,123.04070820001652,124.97507980000228,,,,,,,,,,,,,,,,,,,,３３５,f,２２,2023-05-21_11h06.04.774,RL,2022.2.5,59.90208404702956,
36,49,53,63,0,13,13,13,,,,,,,,,,,None,124.97507980000228,124.97507980000228,124.97507980000228,124.97507980000228,124.97507980000228,124.97507980000228,f,0.42979280001600273,125.42771769998944,125.42771769998944,125.42771769998944,125.42771769998944,125.42771769998944,125.42771769998944,125.70904849999351,127.42552680001245,127.44216609999421,127.44216609999421,127.44216609999421,127.44216609999421,127.44216609999421,127.44216609999421,127.44216609999421,127.44216609999421,127.44216609999421,127.44216609999421,127.44216609999421,127.44216609999421,127.44216609999421,129.45685700001195,129.45685700001195,129.45685700001195,129.45685700001195,129.45685700001195,129.45685700001195,129.45685700001195,63,53,49,36,63,60,129.45685700001195,131.04141030000756,,,,,,,,,,,,,,,,,,,,３３５,f,２２,2023-05-21_11h06.04.774,RL,2022.2.5,59.90208404702956,
38,53,55,52,0,14,14,14,,,,,,,,,,,None,131.04141030000756,131.04141030000756,131.04141030000756,131.04141030000756,131.04141030000756,131.04141030000756,f,0.7544238999835216,131.8255468000134,131.8255468000134,131.8255468000134,131.8255468000134,131.8255468000134,131.8255468000134,132.12477809999837,133.34069820001605,133.34069820001605,133.34069820001605,133.34069820001605,133.34069820001605,133.34069820001605,133.34069820001605,133.34069820001605,133.34069820001605,133.34069820001605,133.34069820001605,133.34069820001605,133.34069820001605,133.34069820001605,134.85557839999092,134.85557839999092,134.85557839999092,134.85557839999092,134.85557839999092,134.85557839999092,134.85557839999092,52,55,53,38,52,60,134.85557839999092,136.39001840000856,,,,,,,,,,,,,,,,,,,,３３５,f,２２,2023-05-21_11h06.04.774,RL,2022.2.5,59.90208404702956,
32,46,54,55,0,15,15,15,,,,,,,,,,,None,136.39001840000856,136.39001840000856,136.39001840000856,136.39001840000856,136.39001840000856,136.39001840000856,r,0.8619908000109717,137.2736775999947,137.2736775999947,137.2736775999947,137.2736775999947,137.2736775999947,137.2736775999947,137.55720400001155,139.05625530000543,139.0731582000153,139.0731582000153,139.0731582000153,139.0731582000153,139.0731582000153,139.0731582000153,139.0731582000153,139.0731582000153,139.0731582000153,139.0731582000153,139.0731582000153,139.0731582000153,139.0731582000153,140.87133500000346,140.87133500000346,140.87133500000346,140.87133500000346,140.87133500000346,140.87133500000346,140.87133500000346,55,54,46,32,54,60,140.87133500000346,142.72236040001735,,,,,,,,,,,,,,,,,,,,３３５,f,２２,2023-05-21_11h06.04.774,RL,2022.2.5,59.90208404702956,
35,59,53,53,0,16,16,16,,,,,,,,,,,None,142.72236040001735,142.72236040001735,142.72236040001735,142.72236040001735,142.72236040001735,142.72236040001735,f,0.5753414000209887,143.32259689999046,143.32259689999046,143.32259689999046,143.32259689999046,143.32259689999046,143.32259689999046,143.60621840000385,144.4723049000022,144.48914119999972,144.48914119999972,144.48914119999972,144.48914119999972,144.48914119999972,144.48914119999972,144.48914119999972,144.48914119999972,144.48914119999972,144.48914119999972,144.48914119999972,144.48914119999972,144.48914119999972,145.65386109999963,145.65386109999963,145.65386109999963,145.65386109999963,145.65386109999963,145.65386109999963,145.65386109999963,53,53,59,35,53,60,145.65386109999963,147.60499389999313,,,,,,,,,,,,,,,,,,,,３３５,f,２２,2023-05-21_11h06.04.774,RL,2022.2.5,59.90208404702956,
39,55,46,63,0,17,17,17,,,,,,,,,,,None,147.60499389999313,147.60499389999313,147.60499389999313,147.60499389999313,147.60499389999313,147.60499389999313,r,0.7788740000105463,148.40662890000385,148.40662890000385,148.40662890000385,148.40662890000385,148.40662890000385,148.40662890000385,148.68808890000219,150.10504349999246,150.12148430000525,150.12148430000525,150.12148430000525,150.12148430000525,150.12148430000525,150.12148430000525,150.12148430000525,150.12148430000525,150.12148430000525,150.12148430000525,150.12148430000525,150.12148430000525,150.12148430000525,151.83636889999616,151.83636889999616,151.83636889999616,151.83636889999616,151.83636889999616,151.83636889999616,151.83636889999616,63,46,55,39,46,60,151.83636889999616,153.77017000000342,,,,,,,,,,,,,,,,,,,,３３５,f,２２,2023-05-21_11h06.04.774,RL,2022.2.5,59.90208404702956,
35,48,41,63,0,18,18,18,,,,,,,,,,,None,153.77017000000342,153.77017000000342,153.77017000000342,153.77017000000342,153.77017000000342,153.77017000000342,f,0.41973190000862814,154.2250350000104,154.2250350000104,154.2250350000104,154.2250350000104,154.2250350000104,154.2250350000104,154.5041417000175,156.3536061999912,156.37031200001366,156.37031200001366,156.37031200001366,156.37031200001366,156.37031200001366,156.37031200001366,156.37031200001366,156.37031200001366,156.37031200001366,156.37031200001366,156.37031200001366,156.37031200001366,156.37031200001366,158.51840420000372,158.51840420000372,158.51840420000372,158.51840420000372,158.51840420000372,158.51840420000372,158.51840420000372,63,41,48,35,63,60,158.51840420000372,160.31900320001296,,,,,,,,,,,,,,,,,,,,３３５,f,２２,2023-05-21_11h06.04.774,RL,2022.2.5,59.90208404702956,
37,55,49,56,0,19,19,19,,,,,,,,,,,None,160.31900320001296,160.31900320001296,160.31900320001296,160.31900320001296,160.31900320001296,160.31900320001296,f,0.6372503000020515,160.98616920001223,160.98616920001223,160.98616920001223,160.98616920001223,160.98616920001223,160.98616920001223,161.26975440001115,163.0354961999983,163.05219950000173,163.05219950000173,163.05219950000173,163.05219950000173,163.05219950000173,163.05219950000173,163.05219950000173,163.05219950000173,163.05219950000173,163.05219950000173,163.05219950000173,163.05219950000173,163.05219950000173,165.11676999999327,165.11676999999327,165.11676999999327,165.11676999999327,165.11676999999327,165.11676999999327,165.11676999999327,56,49,55,37,56,60,165.11676999999327,166.86834570000065,,,,,,,,,,,,,,,,,,,,３３５,f,２２,2023-05-21_11h06.04.774,RL,2022.2.5,59.90208404702956,
33,61,59,53,0,20,20,20,,,,,,,,,,,None,166.86834570000065,166.86834570000065,166.86834570000065,166.86834570000065,166.86834570000065,166.86834570000065,f,0.38420649999170564,167.28680760000134,167.28680760000134,167.28680760000134,167.28680760000134,167.28680760000134,167.28680760000134,167.56854510001722,168.96828110000934,168.98476029999438,168.98476029999438,168.98476029999438,168.98476029999438,168.98476029999438,168.98476029999438,168.98476029999438,168.98476029999438,168.98476029999438,168.98476029999438,168.98476029999438,168.98476029999438,168.98476029999438,170.68290569999954,170.68290569999954,170.68290569999954,170.68290569999954,170.68290569999954,170.68290569999954,170.68290569999954,53,59,61,33,53,60,170.68290569999954,172.61727270000847,,,,,,,,,,,,,,,,,,,,３３５,f,２２,2023-05-21_11h06.04.774,RL,2022.2.5,59.90208404702956,
36,48,59,56,0,21,21,21,,,,,,,,,,,None,172.61727270000847,172.61727270000847,172.61727270000847,172.61727270000847,172.61727270000847,172.61727270000847,r,0.3283756999881007,172.96783209999558,172.96783209999558,172.96783209999558,172.96783209999558,172.96783209999558,172.96783209999558,173.26722949999385,174.21675479999976,174.21675479999976,174.21675479999976,174.21675479999976,174.21675479999976,174.21675479999976,174.21675479999976,174.21675479999976,174.21675479999976,174.21675479999976,174.21675479999976,174.21675479999976,174.21675479999976,174.21675479999976,175.46527730001253,175.46527730001253,175.46527730001253,175.46527730001253,175.46527730001253,175.46527730001253,175.46527730001253,56,59,48,36,59,60,175.46527730001253,177.1326934999961,,,,,,,,,,,,,,,,,,,,３３５,f,２２,2023-05-21_11h06.04.774,RL,2022.2.5,59.90208404702956,
29,54,59,59,0,22,22,22,,,,,,,,,,,None,177.1326934999961,177.1326934999961,177.1326934999961,177.1326934999961,177.1326934999961,177.1326934999961,f,1.064419900008943,178.2179104000097,178.2179104000097,178.2179104000097,178.2179104000097,178.2179104000097,178.2179104000097,178.5162410000048,180.2992149000056,180.2992149000056,180.2992149000056,180.2992149000056,180.2992149000056,180.2992149000056,180.2992149000056,180.2992149000056,180.2992149000056,180.2992149000056,180.2992149000056,180.2992149000056,180.2992149000056,180.2992149000056,182.3806772000098,182.3806772000098,182.3806772000098,182.3806772000098,182.3806772000098,182.3806772000098,182.3806772000098,59,59,54,29,59,60,182.3806772000098,183.91506769999978,,,,,,,,,,,,,,,,,,,,３３５,f,２２,2023-05-21_11h06.04.774,RL,2022.2.5,59.90208404702956,
29,56,52,51,0,23,23,23,,,,,,,,,,,None,183.91506769999978,183.91506769999978,183.91506769999978,183.91506769999978,183.91506769999978,183.91506769999978,f,0.8628937999892514,184.8001104000141,184.8001104000141,184.8001104000141,184.8001104000141,184.8001104000141,184.8001104000141,185.0818954000133,186.39826770001673,186.41491960000712,186.41491960000712,186.41491960000712,186.41491960000712,186.41491960000712,186.41491960000712,186.41491960000712,186.41491960000712,186.41491960000712,186.41491960000712,186.41491960000712,186.41491960000712,186.41491960000712,188.0297310000169,188.0297310000169,188.0297310000169,188.0297310000169,188.0297310000169,188.0297310000169,188.0297310000169,51,52,56,29,51,60,188.0297310000169,190.01413049999974,,,,,,,,,,,,,,,,,,,,３３５,f,２２,2023-05-21_11h06.04.774,RL,2022.2.5,59.90208404702956,
33,55,52,52,0,24,24,24,,,,,,,,,,,None,190.01413049999974,190.01413049999974,190.01413049999974,190.01413049999974,190.01413049999974,190.01413049999974,r,0.3222970999777317,190.3673942000023,190.3673942000023,190.3673942000023,190.3673942000023,190.3673942000023,190.3673942000023,190.6475946000137,192.04756919998908,192.06392190000042,192.06392190000042,192.06392190000042,192.06392190000042,192.06392190000042,192.06392190000042,192.06392190000042,192.06392190000042,192.06392190000042,192.06392190000042,192.06392190000042,192.06392190000042,192.06392190000042,193.76204639999196,193.76204639999196,193.76204639999196,193.76204639999196,193.76204639999196,193.76204639999196,193.76204639999196,52,52,55,33,52,60,193.76204639999196,195.36290199999348,,,,,,,,,,,,,,,,,,,,３３５,f,２２,2023-05-21_11h06.04.774,RL,2022.2.5,59.90208404702956,
50,56,59,54,0,25,25,25,,,,,,,,,,,None,195.36290199999348,195.36290199999348,195.36290199999348,195.36290199999348,195.36290199999348,195.36290199999348,f,0.5713072000071406,195.96354759999667,195.96354759999667,195.96354759999667,195.96354759999667,195.96354759999667,195.96354759999667,196.24709079999593,197.87967280001612,197.89631460001692,197.89631460001692,197.89631460001692,197.89631460001692,197.89631460001692,197.89631460001692,197.89631460001692,197.89631460001692,197.89631460001692,197.89631460001692,197.89631460001692,197.89631460001692,197.89631460001692,199.82775620001485,199.82775620001485,199.82775620001485,199.82775620001485,199.82775620001485,199.82775620001485,199.82775620001485,54,59,56,50,54,60,199.82775620001485,201.41207570000552,,,,,,,,,,,,,,,,,,,,３３５,f,２２,2023-05-21_11h06.04.774,RL,2022.2.5,59.90208404702956,
32,49,49,64,0,26,26,26,,,,,,,,,,,None,201.41207570000552,201.41207570000552,201.41207570000552,201.41207570000552,201.41207570000552,201.41207570000552,j,0.4729530999902636,201.9156847000122,201.9156847000122,201.9156847000122,201.9156847000122,201.9156847000122,201.9156847000122,202.212297399994,203.56229370000074,203.57870230000117,203.57870230000117,203.57870230000117,203.57870230000117,203.57870230000117,203.57870230000117,203.57870230000117,203.57870230000117,203.57870230000117,203.57870230000117,203.57870230000117,203.57870230000117,203.57870230000117,205.22648990000016,205.22648990000016,205.22648990000016,205.22648990000016,205.22648990000016,205.22648990000016,205.22648990000016,64,49,49,32,32,60,205.22648990000016,207.07777720000013,,,,,,,,,,,,,,,,,,,,３３５,f,２２,2023-05-21_11h06.04.774,RL,2022.2.5,59.90208404702956,
39,45,54,68,0,27,27,27,,,,,,,,,,,None,207.07777720000013,207.07777720000013,207.07777720000013,207.07777720000013,207.07777720000013,207.07777720000013,i,0.4676709000195842,207.5838436000049,207.5838436000049,207.5838436000049,207.5838436000049,207.5838436000049,207.5838436000049,207.87778139999136,209.4775210999942,209.4775210999942,209.4775210999942,209.4775210999942,209.4775210999942,209.4775210999942,209.4775210999942,209.4775210999942,209.4775210999942,209.4775210999942,209.4775210999942,209.4775210999942,209.4775210999942,209.4775210999942,211.3753701999958,211.3753701999958,211.3753701999958,211.3753701999958,211.3753701999958,211.3753701999958,211.3753701999958,68,54,45,39,45,60,211.3753701999958,213.0767601999978,,,,,,,,,,,,,,,,,,,,３３５,f,２２,2023-05-21_11h06.04.774,RL,2022.2.5,59.90208404702956,
39,42,58,58,0,28,28,28,,,,,,,,,,,None,213.0767601999978,213.0767601999978,213.0767601999978,213.0767601999978,213.0767601999978,213.0767601999978,f,0.3461476000084076,213.4437026999949,213.4437026999949,213.4437026999949,213.4437026999949,213.4437026999949,213.4437026999949,213.7438206000079,215.3764002000098,215.3764002000098,215.3764002000098,215.3764002000098,215.3764002000098,215.3764002000098,215.3764002000098,215.3764002000098,215.3764002000098,215.3764002000098,215.3764002000098,215.3764002000098,215.3764002000098,215.3764002000098,217.3077934999892,217.3077934999892,217.3077934999892,217.3077934999892,217.3077934999892,217.3077934999892,217.3077934999892,58,58,42,39,58,60,217.3077934999892,219.1421493999951,,,,,,,,,,,,,,,,,,,,３３５,f,２２,2023-05-21_11h06.04.774,RL,2022.2.5,59.90208404702956,
32,44,56,55,0,29,29,29,,,,,,,,,,,None,219.1421493999951,219.1421493999951,219.1421493999951,219.1421493999951,219.1421493999951,219.1421493999951,f,0.32629050000105053,219.49272119998932,219.49272119998932,219.49272119998932,219.49272119998932,219.49272119998932,219.49272119998932,219.77577730000485,221.59224230001564,221.60893720001332,221.60893720001332,221.60893720001332,221.60893720001332,221.60893720001332,221.60893720001332,221.60893720001332,221.60893720001332,221.60893720001332,221.60893720001332,221.60893720001332,221.60893720001332,221.60893720001332,223.72332260000985,223.72332260000985,223.72332260000985,223.72332260000985,223.72332260000985,223.72332260000985,223.72332260000985,55,56,44,32,55,60,223.72332260000985,225.37430240001413,,,,,,,,,,,,,,,,,,,,３３５,f,２２,2023-05-21_11h06.04.774,RL,2022.2.5,59.90208404702956,
44,44,58,64,0,30,30,30,,,,,,,,,,,None,225.37430240001413,225.37430240001413,225.37430240001413,225.37430240001413,225.37430240001413,225.37430240001413,f,0.3281167999957688,225.72495979999076,225.72495979999076,225.72495979999076,225.72495979999076,225.72495979999076,225.72495979999076,226.00840710001648,226.92467430001125,226.94122830001288,226.94122830001288,226.94122830001288,226.94122830001288,226.94122830001288,226.94122830001288,226.94122830001288,226.94122830001288,226.94122830001288,226.94122830001288,226.94122830001288,226.94122830001288,226.94122830001288,228.15584079999826,228.15584079999826,228.15584079999826,228.15584079999826,228.15584079999826,228.15584079999826,228.15584079999826,64,58,44,44,64,60,228.15584079999826,229.7238587999891,,,,,,,,,,,,,,,,,,,,３３５,f,２２,2023-05-21_11h06.04.774,RL,2022.2.5,59.90208404702956,
37,42,51,59,0,31,31,31,,,,,,,,,,,None,229.7238587999891,229.7238587999891,229.7238587999891,229.7238587999891,229.7238587999891,229.7238587999891,f,0.8638514999765903,230.6090111999947,230.6090111999947,230.6090111999947,230.6090111999947,230.6090111999947,230.6090111999947,230.89047640000354,232.10685899999226,232.1235364000022,232.1235364000022,232.1235364000022,232.1235364000022,232.1235364000022,232.1235364000022,232.1235364000022,232.1235364000022,232.1235364000022,232.1235364000022,232.1235364000022,232.1235364000022,232.1235364000022,233.63816490001045,233.63816490001045,233.63816490001045,233.63816490001045,233.63816490001045,233.63816490001045,233.63816490001045,59,51,42,37,59,60,233.63816490001045,235.43977490000543,,,,,,,,,,,,,,,,,,,,３３５,f,２２,2023-05-21_11h06.04.774,RL,2022.2.5,59.90208404702956,
42,44,53,65,0,32,32,32,,,,,,,,,,,None,235.43977490000543,235.43977490000543,235.43977490000543,235.43977490000543,235.43977490000543,235.43977490000543,f,0.6836177000077441,236.16013000000385,236.16013000000385,236.16013000000385,236.16013000000385,236.16013000000385,236.16013000000385,236.43973600000027,237.32274699999834,237.33927749999566,237.33927749999566,237.33927749999566,237.33927749999566,237.33927749999566,237.33927749999566,237.33927749999566,237.33927749999566,237.33927749999566,237.33927749999566,237.33927749999566,237.33927749999566,237.33927749999566,238.52117500000168,238.52117500000168,238.52117500000168,238.52117500000168,238.52117500000168,238.52117500000168,238.52117500000168,65,53,44,42,65,60,238.52117500000168,240.3882736999949,,,,,,,,,,,,,,,,,,,,３３５,f,２２,2023-05-21_11h06.04.774,RL,2022.2.5,59.90208404702956,
42,35,52,67,0,33,33,33,,,,,,,,,,,None,240.3882736999949,240.3882736999949,240.3882736999949,240.3882736999949,240.3882736999949,240.3882736999949,f,0.3588312999927439,240.77222089999123,240.77222089999123,240.77222089999123,240.77222089999123,240.77222089999123,240.77222089999123,241.07225540000945,241.90513420000207,241.90513420000207,241.90513420000207,241.90513420000207,241.90513420000207,241.90513420000207,241.90513420000207,241.90513420000207,241.90513420000207,241.90513420000207,241.90513420000207,241.90513420000207,241.90513420000207,241.90513420000207,243.03704640001524,243.03704640001524,243.03704640001524,243.03704640001524,243.03704640001524,243.03704640001524,243.03704640001524,67,52,35,42,67,60,243.03704640001524,244.80497620001552,,,,,,,,,,,,,,,,,,,,３３５,f,２２,2023-05-21_11h06.04.774,RL,2022.2.5,59.90208404702956,
45,38,58,64,0,34,34,34,,,,,,,,,,,None,244.80497620001552,244.80497620001552,244.80497620001552,244.80497620001552,244.80497620001552,244.80497620001552,f,0.6549119999981485,245.4882181000139,245.4882181000139,245.4882181000139,245.4882181000139,245.4882181000139,245.4882181000139,245.7717624999932,247.6875898000144,247.70421170000918,247.70421170000918,247.70421170000918,247.70421170000918,247.70421170000918,247.70421170000918,247.70421170000918,247.70421170000918,247.70421170000918,247.70421170000918,247.70421170000918,247.70421170000918,247.70421170000918,249.91915870000958,249.91915870000958,249.91915870000958,249.91915870000958,249.91915870000958,249.91915870000958,249.91915870000958,64,58,38,45,64,60,249.91915870000958,251.58651850000024,,,,,,,,,,,,,,,,,,,,３３５,f,２２,2023-05-21_11h06.04.774,RL,2022.2.5,59.90208404702956,
49,33,52,67,0,35,35,35,,,,,,,,,,,None,251.58651850000024,251.58651850000024,251.58651850000024,251.58651850000024,251.58651850000024,251.58651850000024,f,0.46469739999156445,252.07311649998883,252.07311649998883,252.07311649998883,252.07311649998883,252.07311649998883,252.07311649998883,252.3702581000107,253.5034236999927,253.52026150000165,253.52026150000165,253.52026150000165,253.52026150000165,253.52026150000165,253.52026150000165,253.52026150000165,253.52026150000165,253.52026150000165,253.52026150000165,253.52026150000165,253.52026150000165,253.52026150000165,254.95168810000177,254.95168810000177,254.95168810000177,254.95168810000177,254.95168810000177,254.95168810000177,254.95168810000177,67,52,33,49,67,60,254.95168810000177,256.85273620000225,,,,,,,,,,,,,,,,,,,,３３５,f,２２,2023-05-21_11h06.04.774,RL,2022.2.5,59.90208404702956,
55,40,48,65,0,36,36,36,,,,,,,,,,,None,256.85273620000225,256.85273620000225,256.85273620000225,256.85273620000225,256.85273620000225,256.85273620000225,f,0.4749932999839075,257.3528621000005,257.3528621000005,257.3528621000005,257.3528621000005,257.3528621000005,257.3528621000005,257.63586090001627,258.4693520000146,258.48568220000016,258.48568220000016,258.48568220000016,258.48568220000016,258.48568220000016,258.48568220000016,258.48568220000016,258.48568220000016,258.48568220000016,258.48568220000016,258.48568220000016,258.48568220000016,258.48568220000016,259.61747930001,259.61747930001,259.61747930001,259.61747930001,259.61747930001,259.61747930001,259.61747930001,65,48,40,55,65,60,259.61747930001,261.2017970000161,,,,,,,,,,,,,,,,,,,,３３５,f,２２,2023-05-21_11h06.04.774,RL,2022.2.5,59.90208404702956,
42,35,51,71,0,37,37,37,,,,,,,,,,,None,261.2017970000161,261.2017970000161,261.2017970000161,261.2017970000161,261.2017970000161,261.2017970000161,f,0.6591388999950141,261.8855667000171,261.8855667000171,261.8855667000171,261.8855667000171,261.8855667000171,261.8855667000171,262.1686190000037,263.0019655000069,263.0182769999956,263.0182769999956,263.0182769999956,263.0182769999956,263.0182769999956,263.0182769999956,263.0182769999956,263.0182769999956,263.0182769999956,263.0182769999956,263.0182769999956,263.0182769999956,263.0182769999956,264.1497449000017,264.1497449000017,264.1497449000017,264.1497449000017,264.1497449000017,264.1497449000017,264.1497449000017,71,51,35,42,71,60,264.1497449000017,265.9009415000037,,,,,,,,,,,,,,,,,,,,３３５,f,２２,2023-05-21_11h06.04.774,RL,2022.2.5,59.90208404702956,
41,45,54,81,0,38,38,38,,,,,,,,,,,None,265.9009415000037,265.9009415000037,265.9009415000037,265.9009415000037,265.9009415000037,265.9009415000037,f,0.2853809999942314,266.22263360000215,266.22263360000215,266.22263360000215,266.22263360000215,266.22263360000215,266.22263360000215,266.50118640001165,267.5509967000107,267.5841553999926,267.5841553999926,267.5841553999926,267.5841553999926,267.5841553999926,267.5841553999926,267.5841553999926,267.5841553999926,267.5841553999926,267.5841553999926,267.5841553999926,267.5841553999926,267.5841553999926,268.93207899999106,268.93207899999106,268.93207899999106,268.93207899999106,268.93207899999106,268.93207899999106,268.93207899999106,81,54,45,41,81,60,268.93207899999106,270.91676190000726,,,,,,,,,,,,,,,,,,,,３３５,f,２２,2023-05-21_11h06.04.774,RL,2022.2.5,59.90208404702956,
44,43,50,76,0,39,39,39,,,,,,,,,,,None,270.91676190000726,270.91676190000726,270.91676190000726,270.91676190000726,270.91676190000726,270.91676190000726,f,0.3240452999889385,271.26726389999385,271.26726389999385,271.26726389999385,271.26726389999385,271.26726389999385,271.26726389999385,271.5507879999932,272.5500885999936,272.56662269998924,272.56662269998924,272.56662269998924,272.56662269998924,272.56662269998924,272.56662269998924,272.56662269998924,272.56662269998924,272.56662269998924,272.56662269998924,272.56662269998924,272.56662269998924,272.56662269998924,273.864596600004,273.864596600004,273.864596600004,273.864596600004,273.864596600004,273.864596600004,273.864596600004,76,50,43,44,76,60,273.864596600004,275.6494026000146,,,,,,,,,,,,,,,,,,,,３３５,f,２２,2023-05-21_11h06.04.774,RL,2022.2.5,59.90208404702956,
42,37,58,65,0,40,40,40,,,,,,,,,,,None,275.6494026000146,275.6494026000146,275.6494026000146,275.6494026000146,275.6494026000146,275.6494026000146,f,0.43675140000414103,276.11655760000576,276.11655760000576,276.11655760000576,276.11655760000576,276.11655760000576,276.11655760000576,276.3990727000055,277.8659125000122,277.88255750000826,277.88255750000826,277.88255750000826,277.88255750000826,277.88255750000826,277.88255750000826,277.88255750000826,277.88255750000826,277.88255750000826,277.88255750000826,277.88255750000826,277.88255750000826,277.88255750000826,279.64703789999476,279.64703789999476,279.64703789999476,279.64703789999476,279.64703789999476,279.64703789999476,279.64703789999476,65,58,37,42,65,60,279.64703789999476,281.2813312000071,,,,,,,,,,,,,,,,,,,,３３５,f,２２,2023-05-21_11h06.04.774,RL,2022.2.5,59.90208404702956,
55,41,55,73,0,41,41,41,,,,,,,,,,,None,281.2813312000071,281.2813312000071,281.2813312000071,281.2813312000071,281.2813312000071,281.2813312000071,f,0.39270749999559484,281.7001497000165,281.7001497000165,281.7001497000165,281.7001497000165,281.7001497000165,281.7001497000165,281.98200240000733,282.94846990000224,282.9649408000114,282.9649408000114,282.9649408000114,282.9649408000114,282.9649408000114,282.9649408000114,282.9649408000114,282.9649408000114,282.9649408000114,282.9649408000114,282.9649408000114,282.9649408000114,282.9649408000114,284.22962540001026,284.22962540001026,284.22962540001026,284.22962540001026,284.22962540001026,284.22962540001026,284.22962540001026,73,55,41,55,73,60,284.22962540001026,285.9971630999935,,,,,,,,,,,,,,,,,,,,３３５,f,２２,2023-05-21_11h06.04.774,RL,2022.2.5,59.90208404702956,
43,34,54,65,0,42,42,42,,,,,,,,,,,None,285.9971630999935,285.9971630999935,285.9971630999935,285.9971630999935,285.9971630999935,285.9971630999935,f,0.5396742000011727,286.5659850999946,286.5659850999946,286.5659850999946,286.5659850999946,286.5659850999946,286.5659850999946,286.8640504000068,288.7473595000047,288.7473595000047,288.7473595000047,288.7473595000047,288.7473595000047,288.7473595000047,288.7473595000047,288.7473595000047,288.7473595000047,288.7473595000047,288.7473595000047,288.7473595000047,288.7473595000047,288.7473595000047,290.9284867999959,290.9284867999959,290.9284867999959,290.9284867999959,290.9284867999959,290.9284867999959,290.9284867999959,65,54,34,43,65,60,290.9284867999959,292.663166000013,,,,,,,,,,,,,,,,,,,,３３５,f,２２,2023-05-21_11h06.04.774,RL,2022.2.5,59.90208404702956,
51,30,53,65,0,43,43,43,,,,,,,,,,,None,292.663166000013,292.663166000013,292.663166000013,292.663166000013,292.663166000013,292.663166000013,f,0.5064110000093933,293.1978529999906,293.1978529999906,293.1978529999906,293.1978529999906,293.1978529999906,293.1978529999906,293.49650110001676,294.34632989999955,294.34632989999955,294.34632989999955,294.34632989999955,294.34632989999955,294.34632989999955,294.34632989999955,294.34632989999955,294.34632989999955,294.34632989999955,294.34632989999955,294.34632989999955,294.34632989999955,294.34632989999955,295.4944383999973,295.4944383999973,295.4944383999973,295.4944383999973,295.4944383999973,295.4944383999973,295.4944383999973,65,53,30,51,65,60,295.4944383999973,297.428846099996,,,,,,,,,,,,,,,,,,,,３３５,f,２２,2023-05-21_11h06.04.774,RL,2022.2.5,59.90208404702956,
47,38,53,69,0,44,44,44,,,,,,,,,,,None,297.428846099996,297.428846099996,297.428846099996,297.428846099996,297.428846099996,297.428846099996,f,0.46315739999408834,297.91380539999227,297.91380539999227,297.91380539999227,297.91380539999227,297.91380539999227,297.91380539999227,298.19546190000256,299.1287796999968,299.14545810001437,299.14545810001437,299.14545810001437,299.14545810001437,299.14545810001437,299.14545810001437,299.14545810001437,299.14545810001437,299.14545810001437,299.14545810001437,299.14545810001437,299.14545810001437,299.14545810001437,300.37663220000104,300.37663220000104,300.37663220000104,300.37663220000104,300.37663220000104,300.37663220000104,300.37663220000104,69,53,38,47,69,60,300.37663220000104,302.07837740000105,,,,,,,,,,,,,,,,,,,,３３５,f,２２,2023-05-21_11h06.04.774,RL,2022.2.5,59.90208404702956,
42,42,50,67,0,45,45,45,,,,,,,,,,,None,302.07837740000105,302.07837740000105,302.07837740000105,302.07837740000105,302.07837740000105,302.07837740000105,f,0.3872646999952849,302.49754740000935,302.49754740000935,302.49754740000935,302.49754740000935,302.49754740000935,302.49754740000935,302.79495539999334,304.5443076000083,304.5443076000083,304.5443076000083,304.5443076000083,304.5443076000083,304.5443076000083,304.5443076000083,304.5443076000083,304.5443076000083,304.5443076000083,304.5443076000083,304.5443076000083,304.5443076000083,304.5443076000083,306.5926635999931,306.5926635999931,306.5926635999931,306.5926635999931,306.5926635999931,306.5926635999931,306.5926635999931,67,50,42,42,67,60,306.5926635999931,308.4103840000171,,,,,,,,,,,,,,,,,,,,３３５,f,２２,2023-05-21_11h06.04.774,RL,2022.2.5,59.90208404702956,
39,32,54,61,0,46,46,46,,,,,,,,,,,None,308.4103840000171,308.4103840000171,308.4103840000171,308.4103840000171,308.4103840000171,308.4103840000171,f,0.5366383999935351,308.97805750000407,308.97805750000407,308.97805750000407,308.97805750000407,308.97805750000407,308.97805750000407,309.2605673999933,310.59333020000486,310.610233000014,310.610233000014,310.610233000014,310.610233000014,310.610233000014,310.610233000014,310.610233000014,310.610233000014,310.610233000014,310.610233000014,310.610233000014,310.610233000014,310.610233000014,312.2411568000098,312.2411568000098,312.2411568000098,312.2411568000098,312.2411568000098,312.2411568000098,312.2411568000098,61,54,32,39,61,60,312.2411568000098,313.8592955000058,,,,,,,,,,,,,,,,,,,,３３５,f,２２,2023-05-21_11h06.04.774,RL,2022.2.5,59.90208404702956,
52,42,49,64,0,47,47,47,,,,,,,,,,,None,313.8592955000058,313.8592955000058,313.8592955000058,313.8592955000058,313.8592955000058,313.8592955000058,f,0.5366169999761041,314.4281447000103,314.4281447000103,314.4281447000103,314.4281447000103,314.4281447000103,314.4281447000103,314.7261056000134,316.17585510000936,316.17585510000936,316.17585510000936,316.17585510000936,316.17585510000936,316.17585510000936,316.17585510000936,316.17585510000936,316.17585510000936,316.17585510000936,316.17585510000936,316.17585510000936,316.17585510000936,316.17585510000936,317.9236053999921,317.9236053999921,317.9236053999921,317.9236053999921,317.9236053999921,317.9236053999921,317.9236053999921,64,49,42,52,64,60,317.9236053999921,319.87507229999756,,,,,,,,,,,,,,,,,,,,３３５,f,２２,2023-05-21_11h06.04.774,RL,2022.2.5,59.90208404702956,
46,37,46,59,0,48,48,48,,,,,,,,,,,None,319.87507229999756,319.87507229999756,319.87507229999756,319.87507229999756,319.87507229999756,319.87507229999756,f,0.4963448999915272,320.3920919999946,320.3920919999946,320.3920919999946,320.3920919999946,320.3920919999946,320.3920919999946,320.6751251000096,322.0746619999991,322.09124460001476,322.09124460001476,322.09124460001476,322.09124460001476,322.09124460001476,322.09124460001476,322.09124460001476,322.09124460001476,322.09124460001476,322.09124460001476,322.09124460001476,322.09124460001476,322.09124460001476,323.7894121000136,323.7894121000136,323.7894121000136,323.7894121000136,323.7894121000136,323.7894121000136,323.7894121000136,59,46,37,46,59,60,323.7894121000136,325.656982000015,,,,,,,,,,,,,,,,,,,,３３５,f,２２,2023-05-21_11h06.04.774,RL,2022.2.5,59.90208404702956,
43,46,51,66,0,49,49,49,,,,,,,,,,,None,325.656982000015,325.656982000015,325.656982000015,325.656982000015,325.656982000015,325.656982000015,f,0.37916860001860186,326.05754400001024,326.05754400001024,326.05754400001024,326.05754400001024,326.05754400001024,326.05754400001024,326.3410838000127,328.27369689999614,328.2902999999933,328.2902999999933,328.2902999999933,328.2902999999933,328.2902999999933,328.2902999999933,328.2902999999933,328.2902999999933,328.2902999999933,328.2902999999933,328.2902999999933,328.2902999999933,328.2902999999933,330.52192980001564,330.52192980001564,330.52192980001564,330.52192980001564,330.52192980001564,330.52192980001564,330.52192980001564,66,51,46,43,66,60,330.52192980001564,332.45587750000414,,,,,,,,,,,,,,,,,,,,３３５,f,２２,2023-05-21_11h06.04.774,RL,2022.2.5,59.90208404702956,
53,47,47,66,0,50,50,50,,,,,,,,,,,None,332.45587750000414,332.45587750000414,332.45587750000414,332.45587750000414,332.45587750000414,332.45587750000414,f,1.1209770000132266,333.6069137000013,333.6069137000013,333.6069137000013,333.6069137000013,333.6069137000013,333.6069137000013,333.90624420001404,335.6225092000095,335.6225092000095,335.6225092000095,335.6225092000095,335.6225092000095,335.6225092000095,335.6225092000095,335.6225092000095,335.6225092000095,335.6225092000095,335.6225092000095,335.6225092000095,335.6225092000095,335.6225092000095,337.63710439999704,337.63710439999704,337.63710439999704,337.63710439999704,337.63710439999704,337.63710439999704,337.63710439999704,66,47,47,53,66,60,337.63710439999704,339.55504750000546,,,,,,,,,,,,,,,,,,,,３３５,f,２２,2023-05-21_11h06.04.774,RL,2022.2.5,59.90208404702956,
48,46,59,65,0,51,51,51,,,,,,,,,,,None,339.55504750000546,339.55504750000546,339.55504750000546,339.55504750000546,339.55504750000546,339.55504750000546,f,0.5178162999800406,340.1052625000011,340.1052625000011,340.1052625000011,340.1052625000011,340.1052625000011,340.1052625000011,340.3881221000047,342.0046772999922,342.02106980001554,342.02106980001554,342.02106980001554,342.02106980001554,342.02106980001554,342.02106980001554,342.02106980001554,342.02106980001554,342.02106980001554,342.02106980001554,342.02106980001554,342.02106980001554,342.02106980001554,343.93572040001163,343.93572040001163,343.93572040001163,343.93572040001163,343.93572040001163,343.93572040001163,343.93572040001163,65,59,46,48,65,60,343.93572040001163,345.5704565999913,,,,,,,,,,,,,,,,,,,,３３５,f,２２,2023-05-21_11h06.04.774,RL,2022.2.5,59.90208404702956,
47,53,51,69,0,52,52,52,,,,,,,,,,,None,345.5704565999913,345.5704565999913,345.5704565999913,345.5704565999913,345.5704565999913,345.5704565999913,f,0.5788958000193816,346.17561090001254,346.17561090001254,346.17561090001254,346.17561090001254,346.17561090001254,346.17561090001254,346.45407649999834,347.8702589000168,347.90360099999816,347.90360099999816,347.90360099999816,347.90360099999816,347.90360099999816,347.90360099999816,347.90360099999816,347.90360099999816,347.90360099999816,347.90360099999816,347.90360099999816,347.90360099999816,347.90360099999816,349.6180478000024,349.6180478000024,349.6180478000024,349.6180478000024,349.6180478000024,349.6180478000024,349.6180478000024,69,51,53,47,69,60,349.6180478000024,351.55261600000085,,,,,,,,,,,,,,,,,,,,３３５,f,２２,2023-05-21_11h06.04.774,RL,2022.2.5,59.90208404702956,
47,48,52,72,0,53,53,53,,,,,,,,,,,None,351.55261600000085,351.55261600000085,351.55261600000085,351.55261600000085,351.55261600000085,351.55261600000085,f,0.6788087000022642,352.2534575999889,352.2534575999889,352.2534575999889,352.2534575999889,352.2534575999889,352.2534575999889,352.55280070001027,353.4192908999976,353.4192908999976,353.4192908999976,353.4192908999976,353.4192908999976,353.4192908999976,353.4192908999976,353.4192908999976,353.4192908999976,353.4192908999976,353.4192908999976,353.4192908999976,353.4192908999976,353.4192908999976,354.58414290001383,354.58414290001383,354.58414290001383,354.58414290001383,354.58414290001383,354.58414290001383,354.58414290001383,72,52,48,47,72,60,354.58414290001383,356.3517139000178,,,,,,,,,,,,,,,,,,,,３３５,f,２２,2023-05-21_11h06.04.774,RL,2022.2.5,59.90208404702956,
50,43,56,72,0,54,54,54,,,,,,,,,,,None,356.3517139000178,356.3517139000178,356.3517139000178,356.3517139000178,356.3517139000178,356.3517139000178,f,0.5766202999802772,356.95364260001224,356.95364260001224,356.95364260001224,356.95364260001224,356.95364260001224,356.95364260001224,357.25187670000014,358.26886899999226,358.26886899999226,358.26886899999226,358.26886899999226,358.26886899999226,358.26886899999226,358.26886899999226,358.26886899999226,358.26886899999226,358.26886899999226,358.26886899999226,358.26886899999226,358.26886899999226,358.26886899999226,359.58311780000804,359.58311780000804,359.58311780000804,359.58311780000804,359.58311780000804,359.58311780000804,359.58311780000804,72,56,43,50,72,60,359.58311780000804,361.467410799989,,,,,,,,,,,,,,,,,,,,３３５,f,２２,2023-05-21_11h06.04.774,RL,2022.2.5,59.90208404702956,
47,40,40,68,0,55,55,55,,,,,,,,,,,None,361.467410799989,361.467410799989,361.467410799989,361.467410799989,361.467410799989,361.467410799989,f,0.6347744999802671,362.1422598999925,362.1422598999925,362.1422598999925,362.1422598999925,362.1422598999925,362.1422598999925,362.4346102999989,363.51767090000794,363.51767090000794,363.51767090000794,363.51767090000794,363.51767090000794,363.51767090000794,363.51767090000794,363.51767090000794,363.51767090000794,363.51767090000794,363.51767090000794,363.51767090000794,363.51767090000794,363.51767090000794,364.89895709999837,364.89895709999837,364.89895709999837,364.89895709999837,364.89895709999837,364.89895709999837,364.89895709999837,68,40,40,47,68,60,364.89895709999837,366.7499597000133,,,,,,,,,,,,,,,,,,,,３３５,f,２２,2023-05-21_11h06.04.774,RL,2022.2.5,59.90208404702956,
45,46,45,74,0,56,56,56,,,,,,,,,,,None,366.7499597000133,366.7499597000133,366.7499597000133,366.7499597000133,366.7499597000133,366.7499597000133,f,0.5711422000022139,367.3504108999914,367.3504108999914,367.3504108999914,367.3504108999914,367.3504108999914,367.3504108999914,367.6338182000036,368.4999974000093,368.4999974000093,368.4999974000093,368.4999974000093,368.4999974000093,368.4999974000093,368.4999974000093,368.4999974000093,368.4999974000093,368.4999974000093,368.4999974000093,368.4999974000093,368.4999974000093,368.4999974000093,369.6648414999945,369.6648414999945,369.6648414999945,369.6648414999945,369.6648414999945,369.6648414999945,369.6648414999945,74,45,46,45,74,60,369.6648414999945,371.3491869000136,,,,,,,,,,,,,,,,,,,,３３５,f,２２,2023-05-21_11h06.04.774,RL,2022.2.5,59.90208404702956,
47,42,44,73,0,57,57,57,,,,,,,,,,,None,371.3491869000136,371.3491869000136,371.3491869000136,371.3491869000136,371.3491869000136,371.3491869000136,f,0.44821940001565963,371.81754119999823,371.81754119999823,371.81754119999823,371.81754119999823,371.81754119999823,371.81754119999823,372.1161079000158,374.09871920000296,374.09871920000296,374.09871920000296,374.09871920000296,374.09871920000296,374.09871920000296,374.09871920000296,374.09871920000296,374.09871920000296,374.09871920000296,374.09871920000296,374.09871920000296,374.09871920000296,374.09871920000296,376.3472185000137,376.3472185000137,376.3472185000137,376.3472185000137,376.3472185000137,376.3472185000137,376.3472185000137,73,44,42,47,73,60,376.3472185000137,377.9480479999911,,,,,,,,,,,,,,,,,,,,３３５,f,２２,2023-05-21_11h06.04.774,RL,2022.2.5,59.90208404702956,
48,35,48,78,0,58,58,58,,,,,,,,,,,None,377.9480479999911,377.9480479999911,377.9480479999911,377.9480479999911,377.9480479999911,377.9480479999911,f,0.4634850999864284,378.43381300001056,378.43381300001056,378.43381300001056,378.43381300001056,378.43381300001056,378.43381300001056,378.71473060001153,380.5982981999987,380.61474730001646,380.61474730001646,380.61474730001646,380.61474730001646,380.61474730001646,380.61474730001646,380.61474730001646,380.61474730001646,380.61474730001646,380.61474730001646,380.61474730001646,380.61474730001646,380.61474730001646,382.7962247999967,382.7962247999967,382.7962247999967,382.7962247999967,382.7962247999967,382.7962247999967,382.7962247999967,78,48,35,48,78,60,382.7962247999967,384.646802400006,,,,,,,,,,,,,,,,,,,,３３５,f,２２,2023-05-21_11h06.04.774,RL,2022.2.5,59.90208404702956,
54,54,42,73,0,59,59,59,,,,,,,,,,,None,384.646802400006,384.646802400006,384.646802400006,384.646802400006,384.646802400006,384.646802400006,f,0.2500935999851208,384.9165760000178,384.9165760000178,384.9165760000178,384.9165760000178,384.9165760000178,384.9165760000178,385.2140614000091,386.2804926999961,386.2804926999961,386.2804926999961,386.2804926999961,386.2804926999961,386.2804926999961,386.2804926999961,386.2804926999961,386.2804926999961,386.2804926999961,386.2804926999961,386.2804926999961,386.2804926999961,386.2804926999961,387.6449828000041,387.6449828000041,387.6449828000041,387.6449828000041,387.6449828000041,387.6449828000041,387.6449828000041,73,42,54,54,73,60,387.6449828000041,389.1630215999903,,,,,,,,,,,,,,,,,,,,３３５,f,２２,2023-05-21_11h06.04.774,RL,2022.2.5,59.90208404702956,
46,53,48,72,0,60,60,60,,,,,,,,,,,None,389.1630215999903,389.1630215999903,389.1630215999903,389.1630215999903,389.1630215999903,389.1630215999903,f,0.6616178999829572,389.8478286000027,389.8478286000027,389.8478286000027,389.8478286000027,389.8478286000027,389.8478286000027,390.1295984000026,391.31243540000287,391.3457553999906,391.3457553999906,391.3457553999906,391.3457553999906,391.3457553999906,391.3457553999906,391.3457553999906,391.3457553999906,391.3457553999906,391.3457553999906,391.3457553999906,391.3457553999906,391.3457553999906,392.827157599997,392.827157599997,392.827157599997,392.827157599997,392.827157599997,392.827157599997,392.827157599997,72,48,53,46,72,60,392.827157599997,394.6782898000092,,,,,,,,,,,,,,,,,,,,３３５,f,２２,2023-05-21_11h06.04.774,RL,2022.2.5,59.90208404702956,
45,58,52,68,0,61,61,61,,,,,,,,,,,None,394.6782898000092,394.6782898000092,394.6782898000092,394.6782898000092,394.6782898000092,394.6782898000092,f,0.7394402000063565,395.44846000001417,395.44846000001417,395.44846000001417,395.44846000001417,395.44846000001417,395.44846000001417,395.7452231000061,397.0952768000134,397.0952768000134,397.0952768000134,397.0952768000134,397.0952768000134,397.0952768000134,397.0952768000134,397.0952768000134,397.0952768000134,397.0952768000134,397.0952768000134,397.0952768000134,397.0952768000134,397.0952768000134,398.7430415000126,398.7430415000126,398.7430415000126,398.7430415000126,398.7430415000126,398.7430415000126,398.7430415000126,68,52,58,45,68,60,398.7430415000126,400.61094430001685,,,,,,,,,,,,,,,,,,,,３３５,f,２２,2023-05-21_11h06.04.774,RL,2022.2.5,59.90208404702956,
44,60,49,70,0,62,62,62,,,,,,,,,,,None,400.61094430001685,400.61094430001685,400.61094430001685,400.61094430001685,400.61094430001685,400.61094430001685,f,1.0838613999949303,401.7349402999971,401.7349402999971,401.7349402999971,401.7349402999971,401.7349402999971,401.7349402999971,402.0111700000125,403.1604434000037,403.17683539999416,403.17683539999416,403.17683539999416,403.17683539999416,403.17683539999416,403.17683539999416,403.17683539999416,403.17683539999416,403.17683539999416,403.17683539999416,403.17683539999416,403.17683539999416,403.17683539999416,404.62517939999816,404.62517939999816,404.62517939999816,404.62517939999816,404.62517939999816,404.62517939999816,404.62517939999816,70,49,60,44,70,60,404.62517939999816,406.57648610000615,,,,,,,,,,,,,,,,,,,,３３５,f,２２,2023-05-21_11h06.04.774,RL,2022.2.5,59.90208404702956,
43,55,49,66,0,63,63,63,,,,,,,,,,,None,406.57648610000615,406.57648610000615,406.57648610000615,406.57648610000615,406.57648610000615,406.57648610000615,f,0.5914056999899913,407.193565900001,407.193565900001,407.193565900001,407.193565900001,407.193565900001,407.193565900001,407.47641770000337,408.8596060000127,408.87605190000613,408.87605190000613,408.87605190000613,408.87605190000613,408.87605190000613,408.87605190000613,408.87605190000613,408.87605190000613,408.87605190000613,408.87605190000613,408.87605190000613,408.87605190000613,408.87605190000613,410.55743169999914,410.55743169999914,410.55743169999914,410.55743169999914,410.55743169999914,410.55743169999914,410.55743169999914,66,49,55,43,66,60,410.55743169999914,412.1085138999915,,,,,,,,,,,,,,,,,,,,３３５,f,２２,2023-05-21_11h06.04.774,RL,2022.2.5,59.90208404702956,
52,51,55,73,0,64,64,64,,,,,,,,,,,None,412.1085138999915,412.1085138999915,412.1085138999915,412.1085138999915,412.1085138999915,412.1085138999915,f,1.162712699995609,413.2922329000139,413.2922329000139,413.2922329000139,413.2922329000139,413.2922329000139,413.2922329000139,413.59256029999233,415.3251137000043,415.3251137000043,415.3251137000043,415.3251137000043,415.3251137000043,415.3251137000043,415.3251137000043,415.3251137000043,415.3251137000043,415.3251137000043,415.3251137000043,415.3251137000043,415.3251137000043,415.3251137000043,417.3568532000063,417.3568532000063,417.3568532000063,417.3568532000063,417.3568532000063,417.3568532000063,417.3568532000063,73,55,51,52,73,60,417.3568532000063,419.2572946000146,,,,,,,,,,,,,,,,,,,,３３５,f,２２,2023-05-21_11h06.04.774,RL,2022.2.5,59.90208404702956,
56,52,53,65,0,65,65,65,,,,,,,,,,,None,419.2572946000146,419.2572946000146,419.2572946000146,419.2572946000146,419.2572946000146,419.2572946000146,f,0.4642824000038672,419.7429356999928,419.7429356999928,419.7429356999928,419.7429356999928,419.7429356999928,419.7429356999928,420.0247929999896,421.07429930000217,421.09070279999287,421.09070279999287,421.09070279999287,421.09070279999287,421.09070279999287,421.09070279999287,421.09070279999287,421.09070279999287,421.09070279999287,421.09070279999287,421.09070279999287,421.09070279999287,421.09070279999287,422.43872559999,422.43872559999,422.43872559999,422.43872559999,422.43872559999,422.43872559999,422.43872559999,65,53,52,56,65,60,422.43872559999,424.3062343999918,,,,,,,,,,,,,,,,,,,,３３５,f,２２,2023-05-21_11h06.04.774,RL,2022.2.5,59.90208404702956,
49,53,51,69,0,66,66,66,,,,,,,,,,,None,424.3062343999918,424.3062343999918,424.3062343999918,424.3062343999918,424.3062343999918,424.3062343999918,f,0.6185576999851037,424.9588267999934,424.9588267999934,424.9588267999934,424.9588267999934,424.9588267999934,424.9588267999934,425.24054580001393,426.07357130001765,426.0901445999916,426.0901445999916,426.0901445999916,426.0901445999916,426.0901445999916,426.0901445999916,426.0901445999916,426.0901445999916,426.0901445999916,426.0901445999916,426.0901445999916,426.0901445999916,426.0901445999916,427.2216613999917,427.2216613999917,427.2216613999917,427.2216613999917,427.2216613999917,427.2216613999917,427.2216613999917,69,51,53,49,69,60,427.2216613999917,429.1722437000135,,,,,,,,,,,,,,,,,,,,３３５,f,２２,2023-05-21_11h06.04.774,RL,2022.2.5,59.90208404702956,
54,56,49,79,0,67,67,67,,,,,,,,,,,None,429.1722437000135,429.1722437000135,429.1722437000135,429.1722437000135,429.1722437000135,429.1722437000135,f,0.39668279999750666,429.5910543999926,429.5910543999926,429.5910543999926,429.5910543999926,429.5910543999926,429.5910543999926,429.88935400001355,431.0224981000065,431.0224981000065,431.0224981000065,431.0224981000065,431.0224981000065,431.0224981000065,431.0224981000065,431.0224981000065,431.0224981000065,431.0224981000065,431.0224981000065,431.0224981000065,431.0224981000065,431.0224981000065,432.4538659999962,432.4538659999962,432.4538659999962,432.4538659999962,432.4538659999962,432.4538659999962,432.4538659999962,79,49,56,54,79,60,432.4538659999962,434.0385218000156,,,,,,,,,,,,,,,,,,,,３３５,f,２２,2023-05-21_11h06.04.774,RL,2022.2.5,59.90208404702956,
56,46,55,74,0,68,68,68,,,,,,,,,,,None,434.0385218000156,434.0385218000156,434.0385218000156,434.0385218000156,434.0385218000156,434.0385218000156,f,0.4792398000136018,434.53884809999727,434.53884809999727,434.53884809999727,434.53884809999727,434.53884809999727,434.53884809999727,434.8221499999927,435.95515460000024,435.9713883000077,435.9713883000077,435.9713883000077,435.9713883000077,435.9713883000077,435.9713883000077,435.9713883000077,435.9713883000077,435.9713883000077,435.9713883000077,435.9713883000077,435.9713883000077,435.9713883000077,437.4028360999946,437.4028360999946,437.4028360999946,437.4028360999946,437.4028360999946,437.4028360999946,437.4028360999946,74,55,46,56,74,60,437.4028360999946,439.30354200000875,,,,,,,,,,,,,,,,,,,,３３５,f,２２,2023-05-21_11h06.04.774,RL,2022.2.5,59.90208404702956,
54,53,48,72,0,69,69,69,,,,,,,,,,,None,439.30354200000875,439.30354200000875,439.30354200000875,439.30354200000875,439.30354200000875,439.30354200000875,f,0.3556414000049699,439.6909483000054,439.6909483000054,439.6909483000054,439.6909483000054,439.6909483000054,439.6909483000054,439.987583500013,441.52060350001557,441.52060350001557,441.52060350001557,441.52060350001557,441.52060350001557,441.52060350001557,441.52060350001557,441.52060350001557,441.52060350001557,441.52060350001557,441.52060350001557,441.52060350001557,441.52060350001557,441.52060350001557,443.3516750000126,443.3516750000126,443.3516750000126,443.3516750000126,443.3516750000126,443.3516750000126,443.3516750000126,72,48,53,54,72,60,443.3516750000126,445.33613250000053,,,,,,,,,,,,,,,,,,,,３３５,f,２２,2023-05-21_11h06.04.774,RL,2022.2.5,59.90208404702956,
50,53,49,72,0,70,70,70,,,,,,,,,,,None,445.33613250000053,445.33613250000053,445.33613250000053,445.33613250000053,445.33613250000053,445.33613250000053,f,0.37093589999130927,445.7377848000033,445.7377848000033,445.7377848000033,445.7377848000033,445.7377848000033,445.7377848000033,446.02023510000436,448.019892500015,448.03617090001353,448.03617090001353,448.03617090001353,448.03617090001353,448.03617090001353,448.03617090001353,448.03617090001353,448.03617090001353,448.03617090001353,448.03617090001353,448.03617090001353,448.03617090001353,448.03617090001353,450.3344875999901,450.3344875999901,450.3344875999901,450.3344875999901,450.3344875999901,450.3344875999901,450.3344875999901,72,49,53,50,72,60,450.3344875999901,451.9354820000008,,,,,,,,,,,,,,,,,,,,３３５,f,２２,2023-05-21_11h06.04.774,RL,2022.2.5,59.90208404702956,
61,55,46,76,0,71,71,71,,,,,,,,,,,None,451.9354820000008,451.9354820000008,451.9354820000008,451.9354820000008,451.9354820000008,451.9354820000008,f,0.45219189999625087,452.4187462000118,452.4187462000118,452.4187462000118,452.4187462000118,452.4187462000118,452.4187462000118,452.7023135999916,454.43515609999304,454.4519655999902,454.4519655999902,454.4519655999902,454.4519655999902,454.4519655999902,454.4519655999902,454.4519655999902,454.4519655999902,454.4519655999902,454.4519655999902,454.4519655999902,454.4519655999902,454.4519655999902,456.48364550000406,456.48364550000406,456.48364550000406,456.48364550000406,456.48364550000406,456.48364550000406,456.48364550000406,76,46,55,61,76,60,456.48364550000406,458.334153600008,,,,,,,,,,,,,,,,,,,,３３５,f,２２,2023-05-21_11h06.04.774,RL,2022.2.5,59.90208404702956,
50,54,45,77,0,72,72,72,,,,,,,,,,,None,458.334153600008,458.334153600008,458.334153600008,458.334153600008,458.334153600008,458.334153600008,f,0.31521699999575503,458.6710490999976,458.6710490999976,458.6710490999976,458.6710490999976,458.6710490999976,458.6710490999976,458.9674450000166,460.65055379999103,460.65055379999103,460.65055379999103,460.65055379999103,460.65055379999103,460.65055379999103,460.65055379999103,460.65055379999103,460.65055379999103,460.65055379999103,460.65055379999103,460.65055379999103,460.65055379999103,460.65055379999103,462.6322499999951,462.6322499999951,462.6322499999951,462.6322499999951,462.6322499999951,462.6322499999951,462.6322499999951,77,45,54,50,77,60,462.6322499999951,464.3327078000002,,,,,,,,,,,,,,,,,,,,３３５,f,２２,2023-05-21_11h06.04.774,RL,2022.2.5,59.90208404702956,
45,55,39,76,0,73,73,73,,,,,,,,,,,None,464.3327078000002,464.3327078000002,464.3327078000002,464.3327078000002,464.3327078000002,464.3327078000002,f,0.39468150000902824,464.7512975000136,464.7512975000136,464.7512975000136,464.7512975000136,464.7512975000136,464.7512975000136,465.0332988000009,466.6333517000021,466.649727800017,466.649727800017,466.649727800017,466.649727800017,466.649727800017,466.649727800017,466.649727800017,466.649727800017,466.649727800017,466.649727800017,466.649727800017,466.649727800017,466.649727800017,468.5477233999991,468.5477233999991,468.5477233999991,468.5477233999991,468.5477233999991,468.5477233999991,468.5477233999991,76,39,55,45,76,60,468.5477233999991,470.481830100005,,,,,,,,,,,,,,,,,,,,３３５,f,２２,2023-05-21_11h06.04.774,RL,2022.2.5,59.90208404702956,
48,58,35,68,0,74,74,74,,,,,,,,,,,None,470.481830100005,470.481830100005,470.481830100005,470.481830100005,470.481830100005,470.481830100005,f,0.3845973999996204,470.9022873000067,470.9022873000067,470.9022873000067,470.9022873000067,470.9022873000067,470.9022873000067,471.18221540001105,472.26542489998974,472.28202240000246,472.28202240000246,472.28202240000246,472.28202240000246,472.28202240000246,472.28202240000246,472.28202240000246,472.28202240000246,472.28202240000246,472.28202240000246,472.28202240000246,472.28202240000246,472.28202240000246,473.6631589999888,473.6631589999888,473.6631589999888,473.6631589999888,473.6631589999888,473.6631589999888,473.6631589999888,68,35,58,48,68,60,473.6631589999888,475.49669649999123,,,,,,,,,,,,,,,,,,,,３３５,f,２２,2023-05-21_11h06.04.774,RL,2022.2.5,59.90208404702956,
57,55,36,65,0,75,75,75,,,,,,,,,,,q,492.11177429999225,492.11177429999225,492.11177429999225,492.11177429999225,492.11177429999225,492.11177429999225,f,1.4517859000188764,493.60649470001226,493.60649470001226,493.60649470001226,493.60649470001226,493.60649470001226,493.60649470001226,493.87812060001306,495.4780940999917,495.4945668000146,495.4945668000146,495.4945668000146,495.4945668000146,495.4945668000146,495.4945668000146,495.4945668000146,495.4945668000146,495.4945668000146,495.4945668000146,495.4945668000146,495.4945668000146,495.4945668000146,497.39259969998966,497.39259969998966,497.39259969998966,497.39259969998966,497.39259969998966,497.39259969998966,497.39259969998966,65,36,55,57,65,60,497.39259969998966,499.0103058000095,475.49669649999123,475.49669649999123,11.573204400017858,487.0962511000107,487.0962511000107,492.11177429999225,492.11177429999225,,,,,,,,,,,,,３３５,f,２２,2023-05-21_11h06.04.774,RL,2022.2.5,59.90208404702956,
54,55,39,59,0,76,76,76,,,,,,,,,,,None,499.0103058000095,499.0103058000095,499.0103058000095,499.0103058000095,499.0103058000095,499.0103058000095,f,0.4587863000051584,499.4976344000024,499.4976344000024,499.4976344000024,499.4976344000024,499.4976344000024,499.4976344000024,499.77737570001045,500.8775433000119,500.89350679999916,500.89350679999916,500.89350679999916,500.89350679999916,500.89350679999916,500.89350679999916,500.89350679999916,500.89350679999916,500.89350679999916,500.89350679999916,500.89350679999916,500.89350679999916,500.89350679999916,502.29191329999594,502.29191329999594,502.29191329999594,502.29191329999594,502.29191329999594,502.29191329999594,502.29191329999594,59,39,55,54,59,60,502.29191329999594,504.09299880001345,,,,,,,,,,,,,,,,,,,,３３５,f,２２,2023-05-21_11h06.04.774,RL,2022.2.5,59.90208404702956,
57,59,46,63,0,77,77,77,,,,,,,,,,,None,504.09299880001345,504.09299880001345,504.09299880001345,504.09299880001345,504.09299880001345,504.09299880001345,f,0.3469232000061311,504.46166980001726,504.46166980001726,504.46166980001726,504.46166980001726,504.46166980001726,504.46166980001726,504.7432594000129,505.6592995999963,505.67591150000226,505.67591150000226,505.67591150000226,505.67591150000226,505.67591150000226,505.67591150000226,505.67591150000226,505.67591150000226,505.67591150000226,505.67591150000226,505.67591150000226,505.67591150000226,505.67591150000226,506.8909117000003,506.8909117000003,506.8909117000003,506.8909117000003,506.8909117000003,506.8909117000003,506.8909117000003,63,46,59,57,63,60,506.8909117000003,508.8419189999986,,,,,,,,,,,,,,,,,,,,３３５,f,２２,2023-05-21_11h06.04.774,RL,2022.2.5,59.90208404702956,
47,74,41,56,0,78,78,78,,,,,,,,,,,None,508.8419189999986,508.8419189999986,508.8419189999986,508.8419189999986,508.8419189999986,508.8419189999986,f,0.49275370000395924,509.35960769999656,509.35960769999656,509.35960769999656,509.35960769999656,509.35960769999656,509.35960769999656,509.65856760001043,510.5252366999921,510.5252366999921,510.5252366999921,510.5252366999921,510.5252366999921,510.5252366999921,510.5252366999921,510.5252366999921,510.5252366999921,510.5252366999921,510.5252366999921,510.5252366999921,510.5252366999921,510.5252366999921,511.68999630000326,511.68999630000326,511.68999630000326,511.68999630000326,511.68999630000326,511.68999630000326,511.68999630000326,56,41,74,47,56,60,511.68999630000326,513.6741913000005,,,,,,,,,,,,,,,,,,,,３３５,f,２２,2023-05-21_11h06.04.774,RL,2022.2.5,59.90208404702956,
48,69,40,65,0,79,79,79,,,,,,,,,,,None,513.6741913000005,513.6741913000005,513.6741913000005,513.6741913000005,513.6741913000005,513.6741913000005,r,0.44504170000436716,514.1419716000091,514.1419716000091,514.1419716000091,514.1419716000091,514.1419716000091,514.1419716000091,514.4413020999928,516.0912067999889,516.0912067999889,516.0912067999889,516.0912067999889,516.0912067999889,516.0912067999889,516.0912067999889,516.0912067999889,516.0912067999889,516.0912067999889,516.0912067999889,516.0912067999889,516.0912067999889,516.0912067999889,518.0389671000012,518.0389671000012,518.0389671000012,518.0389671000012,518.0389671000012,518.0389671000012,518.0389671000012,65,40,69,48,40,60,518.0389671000012,519.8737106999906,,,,,,,,,,,,,,,,,,,,３３５,f,２２,2023-05-21_11h06.04.774,RL,2022.2.5,59.90208404702956,
55,79,44,65,0,80,80,80,,,,,,,,,,,None,519.8737106999906,519.8737106999906,519.8737106999906,519.8737106999906,519.8737106999906,519.8737106999906,i,0.5465595999849029,520.444739300001,520.444739300001,520.444739300001,520.444739300001,520.444739300001,520.444739300001,520.7405534000136,522.6067803000042,522.6067803000042,522.6067803000042,522.6067803000042,522.6067803000042,522.6067803000042,522.6067803000042,522.6067803000042,522.6067803000042,522.6067803000042,522.6067803000042,522.6067803000042,522.6067803000042,522.6067803000042,524.7707560000126,524.7707560000126,524.7707560000126,524.7707560000126,524.7707560000126,524.7707560000126,524.7707560000126,65,44,79,55,79,60,524.7707560000126,526.65566270001,,,,,,,,,,,,,,,,,,,,３３５,f,２２,2023-05-21_11h06.04.774,RL,2022.2.5,59.90208404702956,
57,67,40,66,0,81,81,81,,,,,,,,,,,None,526.65566270001,526.65566270001,526.65566270001,526.65566270001,526.65566270001,526.65566270001,i,0.3253742999804672,527.0076609000098,527.0076609000098,527.0076609000098,527.0076609000098,527.0076609000098,527.0076609000098,527.2892892000091,528.1553885999892,528.1719550999987,528.1719550999987,528.1719550999987,528.1719550999987,528.1719550999987,528.1719550999987,528.1719550999987,528.1719550999987,528.1719550999987,528.1719550999987,528.1719550999987,528.1719550999987,528.1719550999987,529.3369482000126,529.3369482000126,529.3369482000126,529.3369482000126,529.3369482000126,529.3369482000126,529.3369482000126,66,40,67,57,67,60,529.3369482000126,530.9549851999909,,,,,,,,,,,,,,,,,,,,３３５,f,２２,2023-05-21_11h06.04.774,RL,2022.2.5,59.90208404702956,
74,72,38,59,0,82,82,82,,,,,,,,,,,None,530.9549851999909,530.9549851999909,530.9549851999909,530.9549851999909,530.9549851999909,530.9549851999909,i,0.3447605000110343,531.3217340999981,531.3217340999981,531.3217340999981,531.3217340999981,531.3217340999981,531.3217340999981,531.6052795000141,533.3210837999941,533.3378559999983,533.3378559999983,533.3378559999983,533.3378559999983,533.3378559999983,533.3378559999983,533.3378559999983,533.3378559999983,533.3378559999983,533.3378559999983,533.3378559999983,533.3378559999983,533.3378559999983,535.3525280999893,535.3525280999893,535.3525280999893,535.3525280999893,535.3525280999893,535.3525280999893,535.3525280999893,59,38,72,74,72,60,535.3525280999893,536.8706913999922,,,,,,,,,,,,,,,,,,,,３３５,f,２２,2023-05-21_11h06.04.774,RL,2022.2.5,59.90208404702956,
64,72,36,55,0,83,83,83,,,,,,,,,,,None,536.8706913999922,536.8706913999922,536.8706913999922,536.8706913999922,536.8706913999922,536.8706913999922,i,0.2746811999822967,537.1726673000085,537.1726673000085,537.1726673000085,537.1726673000085,537.1726673000085,537.1726673000085,537.4705921999994,538.5037063999916,538.5037063999916,538.5037063999916,538.5037063999916,538.5037063999916,538.5037063999916,538.5037063999916,538.5037063999916,538.5037063999916,538.5037063999916,538.5037063999916,538.5037063999916,538.5037063999916,538.5037063999916,539.8351840999967,539.8351840999967,539.8351840999967,539.8351840999967,539.8351840999967,539.8351840999967,539.8351840999967,55,36,72,64,72,60,539.8351840999967,541.8359582000121,,,,,,,,,,,,,,,,,,,,３３５,f,２２,2023-05-21_11h06.04.774,RL,2022.2.5,59.90208404702956,
57,73,34,54,0,84,84,84,,,,,,,,,,,None,541.8359582000121,541.8359582000121,541.8359582000121,541.8359582000121,541.8359582000121,541.8359582000121,i,0.41359149999334477,542.271152900008,542.271152900008,542.271152900008,542.271152900008,542.271152900008,542.271152900008,542.5695798000088,543.5193415000103,543.5193415000103,543.5193415000103,543.5193415000103,543.5193415000103,543.5193415000103,543.5193415000103,543.5193415000103,543.5193415000103,543.5193415000103,543.5193415000103,543.5193415000103,543.5193415000103,543.5193415000103,544.7678591000149,544.7678591000149,544.7678591000149,544.7678591000149,544.7678591000149,544.7678591000149,544.7678591000149,54,34,73,57,73,60,544.7678591000149,546.5686604999937,,,,,,,,,,,,,,,,,,,,３３５,f,２２,2023-05-21_11h06.04.774,RL,2022.2.5,59.90208404702956,
63,73,37,59,0,85,85,85,,,,,,,,,,,None,546.5686604999937,546.5686604999937,546.5686604999937,546.5686604999937,546.5686604999937,546.5686604999937,i,0.5043122000060976,547.1025107000023,547.1025107000023,547.1025107000023,547.1025107000023,547.1025107000023,547.1025107000023,547.3857663999952,549.2854666000057,549.2854666000057,549.2854666000057,549.2854666000057,549.2854666000057,549.2854666000057,549.2854666000057,549.2854666000057,549.2854666000057,549.2854666000057,549.2854666000057,549.2854666000057,549.2854666000057,549.2854666000057,551.4665420000092,551.4665420000092,551.4665420000092,551.4665420000092,551.4665420000092,551.4665420000092,551.4665420000092,59,37,73,63,73,60,551.4665420000092,553.150676099991,,,,,,,,,,,,,,,,,,,,３３５,f,２２,2023-05-21_11h06.04.774,RL,2022.2.5,59.90208404702956,
63,69,28,59,0,86,86,86,,,,,,,,,,,None,553.150676099991,553.150676099991,553.150676099991,553.150676099991,553.150676099991,553.150676099991,i,0.3319162999978289,553.5011764999945,553.5011764999945,553.5011764999945,553.5011764999945,553.5011764999945,553.5011764999945,553.7844047000108,554.9841990999994,555.000924299995,555.000924299995,555.000924299995,555.000924299995,555.000924299995,555.000924299995,555.000924299995,555.000924299995,555.000924299995,555.000924299995,555.000924299995,555.000924299995,555.000924299995,556.4989215999958,556.4989215999958,556.4989215999958,556.4989215999958,556.4989215999958,556.4989215999958,556.4989215999958,59,28,69,63,69,60,556.4989215999958,558.0333845000132,,,,,,,,,,,,,,,,,,,,３３５,f,２２,2023-05-21_11h06.04.774,RL,2022.2.5,59.90208404702956,
61,67,34,55,0,87,87,87,,,,,,,,,,,None,558.0333845000132,558.0333845000132,558.0333845000132,558.0333845000132,558.0333845000132,558.0333845000132,i,0.4292044000176247,558.4859349000035,558.4859349000035,558.4859349000035,558.4859349000035,558.4859349000035,558.4859349000035,558.7834934999992,560.366385500005,560.366385500005,560.366385500005,560.366385500005,560.366385500005,560.366385500005,560.366385500005,560.366385500005,560.366385500005,560.366385500005,560.366385500005,560.366385500005,560.366385500005,560.366385500005,562.248214399995,562.248214399995,562.248214399995,562.248214399995,562.248214399995,562.248214399995,562.248214399995,55,34,67,61,67,60,562.248214399995,564.0988608000043,,,,,,,,,,,,,,,,,,,,３３５,f,２２,2023-05-21_11h06.04.774,RL,2022.2.5,59.90208404702956,
62,60,31,65,0,88,88,88,,,,,,,,,,,None,564.0988608000043,564.0988608000043,564.0988608000043,564.0988608000043,564.0988608000043,564.0988608000043,i,0.4931299999880139,564.616079200001,564.616079200001,564.616079200001,564.616079200001,564.616079200001,564.616079200001,564.8993254000088,566.3488052999892,566.3653701000148,566.3653701000148,566.3653701000148,566.3653701000148,566.3653701000148,566.3653701000148,566.3653701000148,566.3653701000148,566.3653701000148,566.3653701000148,566.3653701000148,566.3653701000148,566.3653701000148,568.1135818999901,568.1135818999901,568.1135818999901,568.1135818999901,568.1135818999901,568.1135818999901,568.1135818999901,65,31,60,62,60,60,568.1135818999901,569.7980518999975,,,,,,,,,,,,,,,,,,,,３３５,f,２２,2023-05-21_11h06.04.774,RL,2022.2.5,59.90208404702956,
59,59,39,59,0,89,89,89,,,,,,,,,,,None,569.7980518999975,569.7980518999975,569.7980518999975,569.7980518999975,569.7980518999975,569.7980518999975,i,0.3349400000006426,570.1747378,570.1747378,570.1747378,570.1747378,570.1747378,570.1747378,570.464641300001,572.3311550999933,572.3311550999933,572.3311550999933,572.3311550999933,572.3311550999933,572.3311550999933,572.3311550999933,572.3311550999933,572.3311550999933,572.3311550999933,572.3311550999933,572.3311550999933,572.3311550999933,572.3311550999933,574.4963023000164,574.4963023000164,574.4963023000164,574.4963023000164,574.4963023000164,574.4963023000164,574.4963023000164,59,39,59,59,59,60,574.4963023000164,576.4632494999969,,,,,,,,,,,,,,,,,,,,３３５,f,２２,2023-05-21_11h06.04.774,RL,2022.2.5,59.90208404702956,
59,64,27,67,0,90,90,90,,,,,,,,,,,None,576.4632494999969,576.4632494999969,576.4632494999969,576.4632494999969,576.4632494999969,576.4632494999969,j,0.45989080000435933,576.9470601000066,576.9470601000066,576.9470601000066,576.9470601000066,576.9470601000066,576.9470601000066,577.2306670999969,578.1304841999954,578.1471191000019,578.1471191000019,578.1471191000019,578.1471191000019,578.1471191000019,578.1471191000019,578.1471191000019,578.1471191000019,578.1471191000019,578.1471191000019,578.1471191000019,578.1471191000019,578.1471191000019,579.3447477000009,579.3447477000009,579.3447477000009,579.3447477000009,579.3447477000009,579.3447477000009,579.3447477000009,67,27,64,59,59,60,579.3447477000009,580.9459969000018,,,,,,,,,,,,,,,,,,,,３３５,f,２２,2023-05-21_11h06.04.774,RL,2022.2.5,59.90208404702956,
55,62,38,57,0,91,91,91,,,,,,,,,,,None,580.9459969000018,580.9459969000018,580.9459969000018,580.9459969000018,580.9459969000018,580.9459969000018,None,,,,,,,,,,,,,,,,,,,,,,,,,,,,,,57,38,62,55,0,60,588.4437218999956,590.2279329000157,,,,,,,,582.4443968000123,582.4443968000123,582.4443968000123,582.4443968000123,582.4443968000123,582.4443968000123,582.4443968000123,588.4437218999956,,,,,３３５,f,２２,2023-05-21_11h06.04.774,RL,2022.2.5,59.90208404702956,
58,66,36,63,0,92,92,92,,,,,,,,,,,None,590.2279329000157,590.2279329000157,590.2279329000157,590.2279329000157,590.2279329000157,590.2279329000157,f,0.6513241000066046,590.9162072000036,590.9162072000036,590.9162072000036,590.9162072000036,590.9162072000036,590.9162072000036,591.2111032000103,592.8274980999995,592.8274980999995,592.8274980999995,592.8274980999995,592.8274980999995,592.8274980999995,592.8274980999995,592.8274980999995,592.8274980999995,592.8274980999995,592.8274980999995,592.8274980999995,592.8274980999995,592.8274980999995,594.7423207999964,594.7423207999964,594.7423207999964,594.7423207999964,594.7423207999964,594.7423207999964,594.7423207999964,63,36,66,58,63,60,594.7423207999964,596.2430440000026,,,,,,,,,,,,,,,,,,,,３３５,f,２２,2023-05-21_11h06.04.774,RL,2022.2.5,59.90208404702956,
48,69,38,54,0,93,93,93,,,,,,,,,,,None,596.2430440000026,596.2430440000026,596.2430440000026,596.2430440000026,596.2430440000026,596.2430440000026,f,0.3452969000209123,596.6121585000074,596.6121585000074,596.6121585000074,596.6121585000074,596.6121585000074,596.6121585000074,596.8938264999888,598.2105109000113,598.226690600015,598.226690600015,598.226690600015,598.226690600015,598.226690600015,598.226690600015,598.226690600015,598.226690600015,598.226690600015,598.226690600015,598.226690600015,598.226690600015,598.226690600015,599.8412780000072,599.8412780000072,599.8412780000072,599.8412780000072,599.8412780000072,599.8412780000072,599.8412780000072,54,38,69,48,54,60,599.8412780000072,601.709208300017,,,,,,,,,,,,,,,,,,,,３３５,f,２２,2023-05-21_11h06.04.774,RL,2022.2.5,59.90208404702956,
60,70,35,57,0,94,94,94,,,,,,,,,,,None,601.709208300017,601.709208300017,601.709208300017,601.709208300017,601.709208300017,601.709208300017,i,0.3323939999972936,602.0598798000137,602.0598798000137,602.0598798000137,602.0598798000137,602.0598798000137,602.0598798000137,602.3590176000143,603.8255792999989,603.8422642000078,603.8422642000078,603.8422642000078,603.8422642000078,603.8422642000078,603.8422642000078,603.8422642000078,603.8422642000078,603.8422642000078,603.8422642000078,603.8422642000078,603.8422642000078,603.8422642000078,605.6241118999897,605.6241118999897,605.6241118999897,605.6241118999897,605.6241118999897,605.6241118999897,605.6241118999897,57,35,70,60,70,60,605.6241118999897,607.5746296000143,,,,,,,,,,,,,,,,,,,,３３５,f,２２,2023-05-21_11h06.04.774,RL,2022.2.5,59.90208404702956,
54,64,36,59,0,95,95,95,,,,,,,,,,,None,607.5746296000143,607.5746296000143,607.5746296000143,607.5746296000143,607.5746296000143,607.5746296000143,i,0.43591299999388866,608.0424330999958,608.0424330999958,608.0424330999958,608.0424330999958,608.0424330999958,608.0424330999958,608.3249375000014,610.1745534999936,610.1910741000029,610.1910741000029,610.1910741000029,610.1910741000029,610.1910741000029,610.1910741000029,610.1910741000029,610.1910741000029,610.1910741000029,610.1910741000029,610.1910741000029,610.1910741000029,610.1910741000029,612.3393988000171,612.3393988000171,612.3393988000171,612.3393988000171,612.3393988000171,612.3393988000171,612.3393988000171,59,36,64,54,64,60,612.3393988000171,614.073695900006,,,,,,,,,,,,,,,,,,,,３３５,f,２２,2023-05-21_11h06.04.774,RL,2022.2.5,59.90208404702956,
50,68,41,56,0,96,96,96,,,,,,,,,,,None,614.073695900006,614.073695900006,614.073695900006,614.073695900006,614.073695900006,614.073695900006,i,0.29885590000776574,614.3906969999953,614.3906969999953,614.3906969999953,614.3906969999953,614.3906969999953,614.3906969999953,614.6737733999908,616.6406253000023,616.6569613000029,616.6569613000029,616.6569613000029,616.6569613000029,616.6569613000029,616.6569613000029,616.6569613000029,616.6569613000029,616.6569613000029,616.6569613000029,616.6569613000029,616.6569613000029,616.6569613000029,618.9216401000158,618.9216401000158,618.9216401000158,618.9216401000158,618.9216401000158,618.9216401000158,618.9216401000158,56,41,68,50,68,60,618.9216401000158,620.7393044999917,,,,,,,,,,,,,,,,,,,,３３５,f,２２,2023-05-21_11h06.04.774,RL,2022.2.5,59.90208404702956,
56,68,37,54,0,97,97,97,,,,,,,,,,,None,620.7393044999917,620.7393044999917,620.7393044999917,620.7393044999917,620.7393044999917,620.7393044999917,i,0.25339649998932146,621.0271530000027,621.0271530000027,621.0271530000027,621.0271530000027,621.0271530000027,621.0271530000027,621.3227706000034,622.422292800009,622.422292800009,622.422292800009,622.422292800009,622.422292800009,622.422292800009,622.422292800009,622.422292800009,622.422292800009,622.422292800009,622.422292800009,622.422292800009,622.422292800009,622.422292800009,623.8207125999907,623.8207125999907,623.8207125999907,623.8207125999907,623.8207125999907,623.8207125999907,623.8207125999907,54,37,68,56,68,60,623.8207125999907,625.4045396000147,,,,,,,,,,,,,,,,,,,,３３５,f,２２,2023-05-21_11h06.04.774,RL,2022.2.5,59.90208404702956,
52,74,49,53,0,98,98,98,,,,,,,,,,,None,625.4045396000147,625.4045396000147,625.4045396000147,625.4045396000147,625.4045396000147,625.4045396000147,i,1.17290169998887,626.6068352000148,626.6068352000148,626.6068352000148,626.6068352000148,626.6068352000148,626.6068352000148,626.8886818000174,628.2717250999995,628.2883352999925,628.2883352999925,628.2883352999925,628.2883352999925,628.2883352999925,628.2883352999925,628.2883352999925,628.2883352999925,628.2883352999925,628.2883352999925,628.2883352999925,628.2883352999925,628.2883352999925,629.9692222000158,629.9692222000158,629.9692222000158,629.9692222000158,629.9692222000158,629.9692222000158,629.9692222000158,53,49,74,52,74,60,629.9692222000158,631.7369925999956,,,,,,,,,,,,,,,,,,,,３３５,f,２２,2023-05-21_11h06.04.774,RL,2022.2.5,59.90208404702956,
55,64,37,54,0,99,99,99,,,,,,,,,,,None,631.7369925999956,631.7369925999956,631.7369925999956,631.7369925999956,631.7369925999956,631.7369925999956,i,0.3292950000031851,632.0900632000121,632.0900632000121,632.0900632000121,632.0900632000121,632.0900632000121,632.0900632000121,632.3710592999996,633.3206579000107,633.3370631000143,633.3370631000143,633.3370631000143,633.3370631000143,633.3370631000143,633.3370631000143,633.3370631000143,633.3370631000143,633.3370631000143,633.3370631000143,633.3370631000143,633.3370631000143,633.3370631000143,634.5855752000061,634.5855752000061,634.5855752000061,634.5855752000061,634.5855752000061,634.5855752000061,634.5855752000061,54,37,64,55,64,60,634.5855752000061,636.4035145000089,,,,,,,,,,,,,,,,,,,,３３５,f,２２,2023-05-21_11h06.04.774,RL,2022.2.5,59.90208404702956,
59,78,48,49,0,100,100,100,,,,,,,,,,,None,636.4035145000089,636.4035145000089,636.4035145000089,636.4035145000089,636.4035145000089,636.4035145000089,i,0.2764002999756485,636.7038873000129,636.7038873000129,636.7038873000129,636.7038873000129,636.7038873000129,636.7038873000129,636.9865529999952,638.4528828999901,638.4696888999897,638.4696888999897,638.4696888999897,638.4696888999897,638.4696888999897,638.4696888999897,638.4696888999897,638.4696888999897,638.4696888999897,638.4696888999897,638.4696888999897,638.4696888999897,638.4696888999897,640.2341517000168,640.2341517000168,640.2341517000168,640.2341517000168,640.2341517000168,640.2341517000168,640.2341517000168,49,48,78,59,78,60,640.2341517000168,642.0851868999889,,,,,,,,,,,,,,,,,,,,３３５,f,２２,2023-05-21_11h06.04.774,RL,2022.2.5,59.90208404702956,
45,77,33,48,0,101,101,101,,,,,,,,,,,None,642.0851868999889,642.0851868999889,642.0851868999889,642.0851868999889,642.0851868999889,642.0851868999889,i,0.30896429999847896,642.4216198000067,642.4216198000067,642.4216198000067,642.4216198000067,642.4216198000067,642.4216198000067,642.719121800008,643.5523820999952,643.5523820999952,643.5523820999952,643.5523820999952,643.5523820999952,643.5523820999952,643.5523820999952,643.5523820999952,643.5523820999952,643.5523820999952,643.5523820999952,643.5523820999952,643.5523820999952,643.5523820999952,644.6835021000006,644.6835021000006,644.6835021000006,644.6835021000006,644.6835021000006,644.6835021000006,644.6835021000006,48,33,77,45,77,60,644.6835021000006,646.2179509999987,,,,,,,,,,,,,,,,,,,,３３５,f,２２,2023-05-21_11h06.04.774,RL,2022.2.5,59.90208404702956,
56,57,38,37,0,102,102,102,,,,,,,,,,,None,646.2179509999987,646.2179509999987,646.2179509999987,646.2179509999987,646.2179509999987,646.2179509999987,i,0.42643210000824183,646.668525599991,646.668525599991,646.668525599991,646.668525599991,646.668525599991,646.668525599991,646.9515690999979,648.3014024000149,648.3182694000134,648.3182694000134,648.3182694000134,648.3182694000134,648.3182694000134,648.3182694000134,648.3182694000134,648.3182694000134,648.3182694000134,648.3182694000134,648.3182694000134,648.3182694000134,648.3182694000134,649.966250700003,649.966250700003,649.966250700003,649.966250700003,649.966250700003,649.966250700003,649.966250700003,37,38,57,56,57,60,649.966250700003,651.5666713000101,,,,,,,,,,,,,,,,,,,,３３５,f,２２,2023-05-21_11h06.04.774,RL,2022.2.5,59.90208404702956,
62,65,40,38,0,103,103,103,,,,,,,,,,,None,651.5666713000101,651.5666713000101,651.5666713000101,651.5666713000101,651.5666713000101,651.5666713000101,j,0.3286002999811899,651.9191503000038,651.9191503000038,651.9191503000038,651.9191503000038,651.9191503000038,651.9191503000038,652.2004132000147,653.7002434000024,653.7169427000044,653.7169427000044,653.7169427000044,653.7169427000044,653.7169427000044,653.7169427000044,653.7169427000044,653.7169427000044,653.7169427000044,653.7169427000044,653.7169427000044,653.7169427000044,653.7169427000044,655.5148227000027,655.5148227000027,655.5148227000027,655.5148227000027,655.5148227000027,655.5148227000027,655.5148227000027,38,40,65,62,62,60,655.5148227000027,657.3826229000115,,,,,,,,,,,,,,,,,,,,３３５,f,２２,2023-05-21_11h06.04.774,RL,2022.2.5,59.90208404702956,
61,61,43,41,0,104,104,104,,,,,,,,,,,None,657.3826229000115,657.3826229000115,657.3826229000115,657.3826229000115,657.3826229000115,657.3826229000115,j,0.6740158000029624,658.0849926999945,658.0849926999945,658.0849926999945,658.0849926999945,658.0849926999945,658.0849926999945,658.3661350999901,659.8326164000027,659.849286200013,659.849286200013,659.849286200013,659.849286200013,659.849286200013,659.849286200013,659.849286200013,659.849286200013,659.849286200013,659.849286200013,659.849286200013,659.849286200013,659.849286200013,661.6138572999917,661.6138572999917,661.6138572999917,661.6138572999917,661.6138572999917,661.6138572999917,661.6138572999917,41,43,61,61,61,60,661.6138572999917,663.1652444000065,,,,,,,,,,,,,,,,,,,,３３５,f,２２,2023-05-21_11h06.04.774,RL,2022.2.5,59.90208404702956,
69,66,38,41,0,105,105,105,,,,,,,,,,,None,663.1652444000065,663.1652444000065,663.1652444000065,663.1652444000065,663.1652444000065,663.1652444000065,f,0.4463372000027448,663.6322455999907,663.6322455999907,663.6322455999907,663.6322455999907,663.6322455999907,663.6322455999907,663.9151398999966,664.8319094000035,664.8485827000113,664.8485827000113,664.8485827000113,664.8485827000113,664.8485827000113,664.8485827000113,664.8485827000113,664.8485827000113,664.8485827000113,664.8485827000113,664.8485827000113,664.8485827000113,664.8485827000113,666.0634587999957,666.0634587999957,666.0634587999957,666.0634587999957,666.0634587999957,666.0634587999957,666.0634587999957,41,38,66,69,41,60,666.0634587999957,667.6146804000018,,,,,,,,,,,,,,,,,,,,３３５,f,２２,2023-05-21_11h06.04.774,RL,2022.2.5,59.90208404702956,
61,55,28,45,0,106,106,106,,,,,,,,,,,None,667.6146804000018,667.6146804000018,667.6146804000018,667.6146804000018,667.6146804000018,667.6146804000018,i,0.2509310000168625,667.9109088999976,667.9109088999976,667.9109088999976,667.9109088999976,667.9109088999976,667.9109088999976,668.1977566000132,669.4477235999948,669.4644918999984,669.4644918999984,669.4644918999984,669.4644918999984,669.4644918999984,669.4644918999984,669.4644918999984,669.4644918999984,669.4644918999984,669.4644918999984,669.4644918999984,669.4644918999984,669.4644918999984,671.0127615999954,671.0127615999954,671.0127615999954,671.0127615999954,671.0127615999954,671.0127615999954,671.0127615999954,45,28,55,61,55,60,671.0127615999954,672.5299320000049,,,,,,,,,,,,,,,,,,,,３３５,f,２２,2023-05-21_11h06.04.774,RL,2022.2.5,59.90208404702956,
65,53,46,49,0,107,107,107,,,,,,,,,,,None,672.5299320000049,672.5299320000049,672.5299320000049,672.5299320000049,672.5299320000049,672.5299320000049,j,0.5539779999817256,673.1152081000037,673.1152081000037,673.1152081000037,673.1152081000037,673.1152081000037,673.1152081000037,673.413473099994,674.2801963000093,674.2801963000093,674.2801963000093,674.2801963000093,674.2801963000093,674.2801963000093,674.2801963000093,674.2801963000093,674.2801963000093,674.2801963000093,674.2801963000093,674.2801963000093,674.2801963000093,674.2801963000093,675.444791899994,675.444791899994,675.444791899994,675.444791899994,675.444791899994,675.444791899994,675.444791899994,49,46,53,65,65,60,675.444791899994,677.1631154000061,,,,,,,,,,,,,,,,,,,,３３５,f,２２,2023-05-21_11h06.04.774,RL,2022.2.5,59.90208404702956,
67,48,42,46,0,108,108,108,,,,,,,,,,,None,677.1631154000061,677.1631154000061,677.1631154000061,677.1631154000061,677.1631154000061,677.1631154000061,r,0.34833579999394715,677.5306025000173,677.5306025000173,677.5306025000173,677.5306025000173,677.5306025000173,677.5306025000173,677.8129876000166,679.8127938999969,679.8295610999921,679.8295610999921,679.8295610999921,679.8295610999921,679.8295610999921,679.8295610999921,679.8295610999921,679.8295610999921,679.8295610999921,679.8295610999921,679.8295610999921,679.8295610999921,679.8295610999921,682.1269855000137,682.1269855000137,682.1269855000137,682.1269855000137,682.1269855000137,682.1269855000137,682.1269855000137,46,42,48,67,42,60,682.1269855000137,683.8780840999971,,,,,,,,,,,,,,,,,,,,３３５,f,２２,2023-05-21_11h06.04.774,RL,2022.2.5,59.90208404702956,
65,55,41,42,0,109,109,109,,,,,,,,,,,None,683.8780840999971,683.8780840999971,683.8780840999971,683.8780840999971,683.8780840999971,683.8780840999971,j,0.25902660001884215,684.1623594000121,684.1623594000121,684.1623594000121,684.1623594000121,684.1623594000121,684.1623594000121,684.4448948999925,686.2113959999988,686.2281358999899,686.2281358999899,686.2281358999899,686.2281358999899,686.2281358999899,686.2281358999899,686.2281358999899,686.2281358999899,686.2281358999899,686.2281358999899,686.2281358999899,686.2281358999899,686.2281358999899,688.2928121000004,688.2928121000004,688.2928121000004,688.2928121000004,688.2928121000004,688.2928121000004,688.2928121000004,42,41,55,65,65,60,688.2928121000004,689.9271611000004,,,,,,,,,,,,,,,,,,,,３３５,f,２２,2023-05-21_11h06.04.774,RL,2022.2.5,59.90208404702956,
61,48,45,48,0,110,110,110,,,,,,,,,,,None,689.9271611000004,689.9271611000004,689.9271611000004,689.9271611000004,689.9271611000004,689.9271611000004,j,0.2579535999975633,690.2109283000173,690.2109283000173,690.2109283000173,690.2109283000173,690.2109283000173,690.2109283000173,690.4939243000117,692.0274473000027,692.0441891000082,692.0441891000082,692.0441891000082,692.0441891000082,692.0441891000082,692.0441891000082,692.0441891000082,692.0441891000082,692.0441891000082,692.0441891000082,692.0441891000082,692.0441891000082,692.0441891000082,693.8753279999946,693.8753279999946,693.8753279999946,693.8753279999946,693.8753279999946,693.8753279999946,693.8753279999946,48,45,48,61,61,60,693.8753279999946,695.676274700003,,,,,,,,,,,,,,,,,,,,３３５,f,２２,2023-05-21_11h06.04.774,RL,2022.2.5,59.90208404702956,
74,54,36,44,0,111,111,111,,,,,,,,,,,None,695.676274700003,695.676274700003,695.676274700003,695.676274700003,695.676274700003,695.676274700003,i,0.3335975000227336,696.0482061000075,696.0482061000075,696.0482061000075,696.0482061000075,696.0482061000075,696.0482061000075,696.3265678999887,697.3764770000125,697.3928398000135,697.3928398000135,697.3928398000135,697.3928398000135,697.3928398000135,697.3928398000135,697.3928398000135,697.3928398000135,697.3928398000135,697.3928398000135,697.3928398000135,697.3928398000135,697.3928398000135,698.740915900009,698.740915900009,698.740915900009,698.740915900009,698.740915900009,698.740915900009,698.740915900009,44,36,54,74,54,60,698.740915900009,700.5251059000148,,,,,,,,,,,,,,,,,,,,３３５,f,２２,2023-05-21_11h06.04.774,RL,2022.2.5,59.90208404702956,
76,65,31,44,0,112,112,112,,,,,,,,,,,None,700.5251059000148,700.5251059000148,700.5251059000148,700.5251059000148,700.5251059000148,700.5251059000148,j,0.295736100000795,700.8422824000008,700.8422824000008,700.8422824000008,700.8422824000008,700.8422824000008,700.8422824000008,701.1257741000154,702.9583306999994,702.9750736000133,702.9750736000133,702.9750736000133,702.9750736000133,702.9750736000133,702.9750736000133,702.9750736000133,702.9750736000133,702.9750736000133,702.9750736000133,702.9750736000133,702.9750736000133,702.9750736000133,705.1066321000108,705.1066321000108,705.1066321000108,705.1066321000108,705.1066321000108,705.1066321000108,705.1066321000108,44,31,65,76,76,60,705.1066321000108,706.6409266999981,,,,,,,,,,,,,,,,,,,,３３５,f,２２,2023-05-21_11h06.04.774,RL,2022.2.5,59.90208404702956,
75,55,36,52,0,113,113,113,,,,,,,,,,,None,706.6409266999981,706.6409266999981,706.6409266999981,706.6409266999981,706.6409266999981,706.6409266999981,j,0.5546479999902658,707.2253450000135,707.2253450000135,707.2253450000135,707.2253450000135,707.2253450000135,707.2253450000135,707.5244636000134,708.3743492999929,708.3743492999929,708.3743492999929,708.3743492999929,708.3743492999929,708.3743492999929,708.3743492999929,708.3743492999929,708.3743492999929,708.3743492999929,708.3743492999929,708.3743492999929,708.3743492999929,708.3743492999929,709.5056666000164,709.5056666000164,709.5056666000164,709.5056666000164,709.5056666000164,709.5056666000164,709.5056666000164,52,36,55,75,75,60,709.5056666000164,711.2066115000052,,,,,,,,,,,,,,,,,,,,３３５,f,２２,2023-05-21_11h06.04.774,RL,2022.2.5,59.90208404702956,
72,61,41,49,0,114,114,114,,,,,,,,,,,None,711.2066115000052,711.2066115000052,711.2066115000052,711.2066115000052,711.2066115000052,711.2066115000052,j,0.6873729999933857,711.9246091000095,711.9246091000095,711.9246091000095,711.9246091000095,711.9246091000095,711.9246091000095,712.2071223999956,713.4069964000082,713.4273350000149,713.4273350000149,713.4273350000149,713.4273350000149,713.4273350000149,713.4273350000149,713.4273350000149,713.4273350000149,713.4273350000149,713.4273350000149,713.4273350000149,713.4273350000149,713.4273350000149,714.9216575000028,714.9216575000028,714.9216575000028,714.9216575000028,714.9216575000028,714.9216575000028,714.9216575000028,49,41,61,72,72,60,714.9216575000028,716.6726948000141,,,,,,,,,,,,,,,,,,,,３３５,f,２２,2023-05-21_11h06.04.774,RL,2022.2.5,59.90208404702956,
66,51,33,45,0,115,115,115,,,,,,,,,,,None,716.6726948000141,716.6726948000141,716.6726948000141,716.6726948000141,716.6726948000141,716.6726948000141,j,0.28256570000667125,716.9761047000065,716.9761047000065,716.9761047000065,716.9761047000065,716.9761047000065,716.9761047000065,717.2559814999986,719.1392627000168,719.155877799989,719.155877799989,719.155877799989,719.155877799989,719.155877799989,719.155877799989,719.155877799989,719.155877799989,719.155877799989,719.155877799989,719.155877799989,719.155877799989,719.155877799989,721.3369243000052,721.3369243000052,721.3369243000052,721.3369243000052,721.3369243000052,721.3369243000052,721.3369243000052,45,33,51,66,66,60,721.3369243000052,723.2712323000014,,,,,,,,,,,,,,,,,,,,３３５,f,２２,2023-05-21_11h06.04.774,RL,2022.2.5,59.90208404702956,
69,59,34,34,0,116,116,116,,,,,,,,,,,None,723.2712323000014,723.2712323000014,723.2712323000014,723.2712323000014,723.2712323000014,723.2712323000014,j,0.3041470999887679,723.6071719000174,723.6071719000174,723.6071719000174,723.6071719000174,723.6071719000174,723.6071719000174,723.8884213000129,725.5046301000111,725.5211482000013,725.5211482000013,725.5211482000013,725.5211482000013,725.5211482000013,725.5211482000013,725.5211482000013,725.5211482000013,725.5211482000013,725.5211482000013,725.5211482000013,725.5211482000013,725.5211482000013,727.4357855000126,727.4357855000126,727.4357855000126,727.4357855000126,727.4357855000126,727.4357855000126,727.4357855000126,34,34,59,69,69,60,727.4357855000126,729.403341199999,,,,,,,,,,,,,,,,,,,,３３５,f,２２,2023-05-21_11h06.04.774,RL,2022.2.5,59.90208404702956,
74,63,31,32,0,117,117,117,,,,,,,,,,,None,729.403341199999,729.403341199999,729.403341199999,729.403341199999,729.403341199999,729.403341199999,j,0.3572479000140447,729.7882989000063,729.7882989000063,729.7882989000063,729.7882989000063,729.7882989000063,729.7882989000063,730.0867903000035,731.2037254000024,731.2037254000024,731.2037254000024,731.2037254000024,731.2037254000024,731.2037254000024,731.2037254000024,731.2037254000024,731.2037254000024,731.2037254000024,731.2037254000024,731.2037254000024,731.2037254000024,731.2037254000024,732.6186782000004,732.6186782000004,732.6186782000004,732.6186782000004,732.6186782000004,732.6186782000004,732.6186782000004,32,31,63,74,74,60,732.6186782000004,734.1862211000116,,,,,,,,,,,,,,,,,,,,３３５,f,２２,2023-05-21_11h06.04.774,RL,2022.2.5,59.90208404702956,
65,53,34,30,0,118,118,118,,,,,,,,,,,None,734.1862211000116,734.1862211000116,734.1862211000116,734.1862211000116,734.1862211000116,734.1862211000116,j,0.42379679999430664,734.6380818999896,734.6380818999896,734.6380818999896,734.6380818999896,734.6380818999896,734.6380818999896,734.9361746000068,736.0861537000164,736.0861537000164,736.0861537000164,736.0861537000164,736.0861537000164,736.0861537000164,736.0861537000164,736.0861537000164,736.0861537000164,736.0861537000164,736.0861537000164,736.0861537000164,736.0861537000164,736.0861537000164,737.5345250999962,737.5345250999962,737.5345250999962,737.5345250999962,737.5345250999962,737.5345250999962,737.5345250999962,30,34,53,65,65,60,737.5345250999962,739.4182099000027,,,,,,,,,,,,,,,,,,,,３３５,f,２２,2023-05-21_11h06.04.774,RL,2022.2.5,59.90208404702956,
58,61,26,30,0,119,119,119,,,,,,,,,,,None,739.4182099000027,739.4182099000027,739.4182099000027,739.4182099000027,739.4182099000027,739.4182099000027,j,0.4233040999970399,739.8707864999888,739.8707864999888,739.8707864999888,739.8707864999888,739.8707864999888,739.8707864999888,740.168487899995,741.4351585000113,741.4516832999943,741.4516832999943,741.4516832999943,741.4516832999943,741.4516832999943,741.4516832999943,741.4516832999943,741.4516832999943,741.4516832999943,741.4516832999943,741.4516832999943,741.4516832999943,741.4516832999943,743.0166934000154,743.0166934000154,743.0166934000154,743.0166934000154,743.0166934000154,743.0166934000154,743.0166934000154,30,26,61,58,58,60,743.0166934000154,744.7174550000054,,,,,,,,,,,,,,,,,,,,３３５,f,２２,2023-05-21_11h06.04.774,RL,2022.2.5,59.90208404702956,
