arm1,arm2,arm3,arm4,trials.thisRepN,trials.thisTrialN,trials.thisN,trials.thisIndex,instru_img1.started,instru_resp.started,instru_resp.keys,instru_resp.rt,image_2.started,text_2.started,image_2.stopped,text_2.stopped,fixbefore_2.started,fixbefore_2.stopped,rest_response.keys,red.started,green.started,yellow.started,blue.started,choose_bandit.started,Fixation.started,choose_bandit.keys,choose_bandit.rt,black.started,red_2.started,green_2.started,yellow_2.started,blue_2.started,fixation_2.started,docs.started,black.stopped,red_2.stopped,green_2.stopped,yellow_2.stopped,blue_2.stopped,fixation_2.stopped,docs.stopped,black_com.started,reward_sub.started,reward__sub.started,red_compare.started,green_com.started,yellow_com.started,blue_com.started,black_com.stopped,reward_sub.stopped,reward__sub.stopped,red_compare.stopped,green_com.stopped,yellow_com.stopped,blue_com.stopped,rewardred,rewardyellow,rewardblue,rewardgreen,subchoose,expectation,intertrialfix.started,intertrialfix.stopped,red.stopped,green.stopped,yellow.stopped,blue.stopped,choose_bandit.stopped,Fixation.stopped,bigx.started,bigx.stopped,rest_image.started,rest_response.started,rest_response.rt,image_expect_after.started,text_exp_after.started,image_expect_after.stopped,text_exp_after.stopped,image.started,key_resp.started,key_resp.keys,key_resp.rt,participant,Gender,Age,date,expName,psychopyVersion,frameRate,
,,,,,,,,39.8514245999977,39.8514245999977,space,6.3695301999978255,,,,,,,,,,,,,,,,,,,,,,,,,,,,,,,,,,,,,,,,,,,,,,,,,,,,,,,,,,,,,,,,,,,,,,,３３６,f,２４,2023-05-21_11h34.13.883,RL,2022.2.5,60.03564916385562,
32,41,57,55,0,0,0,0,,,,,46.2405851999938,46.2405851999938,51.239836099994136,51.239836099994136,51.239836099994136,52.24169309998979,None,52.24169309998979,52.24169309998979,52.24169309998979,52.24169309998979,52.24169309998979,52.24169309998979,f,1.4312694999971427,53.693320499995025,53.693320499995025,53.693320499995025,53.693320499995025,53.693320499995025,53.693320499995025,53.99978260000353,55.83572279999498,55.83572279999498,55.83572279999498,55.83572279999498,55.83572279999498,55.83572279999498,55.83572279999498,55.83572279999498,55.83572279999498,55.83572279999498,55.83572279999498,55.83572279999498,55.83572279999498,55.83572279999498,58.016280799987726,58.016280799987726,58.016280799987726,58.016280799987726,58.016280799987726,58.016280799987726,58.016280799987726,57,32,55,41,57,70,58.016280799987726,59.773171000008006,,,,,,,,,,,,,,,,,,,,３３６,f,２４,2023-05-21_11h34.13.883,RL,2022.2.5,60.03564916385562,
34,23,64,60,0,1,1,1,,,,,,,,,,,None,59.773171000008006,59.773171000008006,59.773171000008006,59.773171000008006,59.773171000008006,59.773171000008006,i,1.1074322999920696,60.90656430000672,60.90656430000672,60.90656430000672,60.90656430000672,60.90656430000672,60.90656430000672,61.189790000003995,62.891058100009104,62.891058100009104,62.891058100009104,62.891058100009104,62.891058100009104,62.891058100009104,62.87315899998066,62.891058100009104,62.891058100009104,62.891058100009104,62.891058100009104,62.891058100009104,62.891058100009104,62.891058100009104,64.87082759998157,64.87082759998157,64.87082759998157,64.87082759998157,64.87082759998157,64.87082759998157,64.87082759998157,64,34,60,23,60,70,64.87082759998157,66.52186859998619,,,,,,,,,,,,,,,,,,,,３３６,f,２４,2023-05-21_11h34.13.883,RL,2022.2.5,60.03564916385562,
34,35,44,64,0,2,2,2,,,,,,,,,,,None,66.52186859998619,66.52186859998619,66.52186859998619,66.52186859998619,66.52186859998619,66.52186859998619,None,,,,,,,,,,,,,,,,,,,,,,,,,,,,,,44,34,64,35,0,70,74.03565269999672,75.75383589998819,68.02261079999153,68.02261079999153,68.02261079999153,68.02261079999153,68.02261079999153,68.02261079999153,68.02261079999153,74.03565269999672,,,,,,,,,,,,３３６,f,２４,2023-05-21_11h34.13.883,RL,2022.2.5,60.03564916385562,
45,32,57,55,0,3,3,3,,,,,,,,,,,None,75.75383589998819,75.75383589998819,75.75383589998819,75.75383589998819,75.75383589998819,75.75383589998819,j,0.5215167000133079,76.30502569998498,76.30502569998498,76.30502569998498,76.30502569998498,76.30502569998498,76.30502569998498,76.6038636000012,78.46973270000308,78.46973270000308,78.46973270000308,78.46973270000308,78.46973270000308,78.46973270000308,78.46973270000308,78.46973270000308,78.46973270000308,78.46973270000308,78.46973270000308,78.46973270000308,78.46973270000308,78.46973270000308,80.63500720000593,80.63500720000593,80.63500720000593,80.63500720000593,80.63500720000593,80.63500720000593,80.63500720000593,57,45,55,32,32,70,80.63500720000593,82.2693239999935,,,,,,,,,,,,,,,,,,,,３３６,f,２４,2023-05-21_11h34.13.883,RL,2022.2.5,60.03564916385562,
29,41,51,50,0,4,4,4,,,,,,,,,,,None,82.2693239999935,82.2693239999935,82.2693239999935,82.2693239999935,82.2693239999935,82.2693239999935,r,0.47922229999676347,82.77633210000931,82.77633210000931,82.77633210000931,82.77633210000931,82.77633210000931,82.77633210000931,83.06947049999144,84.93529809999745,84.93529809999745,84.93529809999745,84.93529809999745,84.93529809999745,84.93529809999745,84.91912509998656,84.93529809999745,84.93529809999745,84.93529809999745,84.93529809999745,84.93529809999745,84.93529809999745,84.93529809999745,87.08377759999712,87.08377759999712,87.08377759999712,87.08377759999712,87.08377759999712,87.08377759999712,87.08377759999712,51,29,50,41,29,70,87.08377759999712,88.9014337999979,,,,,,,,,,,,,,,,,,,,３３６,f,２４,2023-05-21_11h34.13.883,RL,2022.2.5,60.03564916385562,
29,32,53,55,0,5,5,5,,,,,,,,,,,None,88.9014337999979,88.9014337999979,88.9014337999979,88.9014337999979,88.9014337999979,88.9014337999979,f,0.8675382999936119,89.81467289998545,89.81467289998545,89.81467289998545,89.81467289998545,89.81467289998545,89.81467289998545,90.08479039999656,91.93408619999536,91.93408619999536,91.93408619999536,91.93408619999536,91.93408619999536,91.93408619999536,91.90071469999384,91.93408619999536,91.93408619999536,91.93408619999536,91.93408619999536,91.93408619999536,91.93408619999536,91.93408619999536,94.04913649999071,94.04913649999071,94.04913649999071,94.04913649999071,94.04913649999071,94.04913649999071,94.04913649999071,53,29,55,32,53,70,94.04913649999071,95.81642270000884,,,,,,,,,,,,,,,,,,,,３３６,f,２４,2023-05-21_11h34.13.883,RL,2022.2.5,60.03564916385562,
30,33,47,54,0,6,6,6,,,,,,,,,,,None,95.81642270000884,95.81642270000884,95.81642270000884,95.81642270000884,95.81642270000884,95.81642270000884,j,0.6674996000074316,96.5203152000031,96.5203152000031,96.5203152000031,96.5203152000031,96.5203152000031,96.5203152000031,96.80047280000872,98.15020030000596,98.15020030000596,98.15020030000596,98.15020030000596,98.15020030000596,98.15020030000596,98.13371940000798,98.15020030000596,98.15020030000596,98.15020030000596,98.15020030000596,98.15020030000596,98.15020030000596,98.15020030000596,99.78124919999391,99.78124919999391,99.78124919999391,99.78124919999391,99.78124919999391,99.78124919999391,99.78124919999391,47,30,54,33,33,70,99.78124919999391,101.38281660000212,,,,,,,,,,,,,,,,,,,,３３６,f,２４,2023-05-21_11h34.13.883,RL,2022.2.5,60.03564916385562,
33,38,39,52,0,7,7,7,,,,,,,,,,,None,101.38281660000212,101.38281660000212,101.38281660000212,101.38281660000212,101.38281660000212,101.38281660000212,i,0.6741144999978133,102.0863362000091,102.0863362000091,102.0863362000091,102.0863362000091,102.0863362000091,102.0863362000091,102.38279089998105,104.34875129998545,104.34875129998545,104.34875129998545,104.34875129998545,104.34875129998545,104.34875129998545,104.34875129998545,104.34875129998545,104.34875129998545,104.34875129998545,104.34875129998545,104.34875129998545,104.34875129998545,104.34875129998545,106.6137449000089,106.6137449000089,106.6137449000089,106.6137449000089,106.6137449000089,106.6137449000089,106.6137449000089,39,33,52,38,52,70,106.6137449000089,108.26425229999586,,,,,,,,,,,,,,,,,,,,３３６,f,２４,2023-05-21_11h34.13.883,RL,2022.2.5,60.03564916385562,
24,46,52,56,0,8,8,8,,,,,,,,,,,None,108.26425229999586,108.26425229999586,108.26425229999586,108.26425229999586,108.26425229999586,108.26425229999586,f,0.5344784000189975,108.83459359998233,108.83459359998233,108.83459359998233,108.83459359998233,108.83459359998233,108.83459359998233,109.13156770000933,110.64803419998498,110.64803419998498,110.64803419998498,110.64803419998498,110.64803419998498,110.64803419998498,110.63161429998581,110.64803419998498,110.64803419998498,110.64803419998498,110.64803419998498,110.64803419998498,110.64803419998498,110.64803419998498,112.44568010000512,112.44568010000512,112.44568010000512,112.44568010000512,112.44568010000512,112.44568010000512,112.44568010000512,52,24,56,46,52,70,112.44568010000512,114.19642999998177,,,,,,,,,,,,,,,,,,,,３３６,f,２４,2023-05-21_11h34.13.883,RL,2022.2.5,60.03564916385562,
23,39,58,60,0,9,9,9,,,,,,,,,,,None,114.19642999998177,114.19642999998177,114.19642999998177,114.19642999998177,114.19642999998177,114.19642999998177,r,0.5059334000106901,114.7342199999839,114.7342199999839,114.7342199999839,114.7342199999839,114.7342199999839,114.7342199999839,115.01427590000094,116.41363259998616,116.41363259998616,116.41363259998616,116.41363259998616,116.41363259998616,116.41363259998616,116.39695329999086,116.41363259998616,116.41363259998616,116.41363259998616,116.41363259998616,116.41363259998616,116.41363259998616,116.41363259998616,118.07817369999248,118.07817369999248,118.07817369999248,118.07817369999248,118.07817369999248,118.07817369999248,118.07817369999248,58,23,60,39,23,70,118.07817369999248,119.89573739998741,,,,,,,,,,,,,,,,,,,,３３６,f,２４,2023-05-21_11h34.13.883,RL,2022.2.5,60.03564916385562,
35,42,58,51,0,10,10,10,,,,,,,,,,,None,119.89573739998741,119.89573739998741,119.89573739998741,119.89573739998741,119.89573739998741,119.89573739998741,f,0.7039591000066139,120.63386899998295,120.63386899998295,120.63386899998295,120.63386899998295,120.63386899998295,120.63386899998295,120.92977119999705,122.21258950000629,122.21258950000629,122.21258950000629,122.21258950000629,122.21258950000629,122.21258950000629,122.19582950000768,122.21258950000629,122.21258950000629,122.21258950000629,122.21258950000629,122.21258950000629,122.21258950000629,122.21258950000629,123.7769038999977,123.7769038999977,123.7769038999977,123.7769038999977,123.7769038999977,123.7769038999977,123.7769038999977,58,35,51,42,58,70,123.7769038999977,125.69480999998632,,,,,,,,,,,,,,,,,,,,３３６,f,２４,2023-05-21_11h34.13.883,RL,2022.2.5,60.03564916385562,
35,42,52,54,0,11,11,11,,,,,,,,,,,None,125.69480999998632,125.69480999998632,125.69480999998632,125.69480999998632,125.69480999998632,125.69480999998632,i,0.5359861000033561,126.26505230000475,126.26505230000475,126.26505230000475,126.26505230000475,126.26505230000475,126.26505230000475,126.54506689999835,127.52782119999756,127.52782119999756,127.52782119999756,127.52782119999756,127.52782119999756,127.52782119999756,127.51153580000391,127.52782119999756,127.52782119999756,127.52782119999756,127.52782119999756,127.52782119999756,127.52782119999756,127.52782119999756,128.79315069998847,128.79315069998847,128.79315069998847,128.79315069998847,128.79315069998847,128.79315069998847,128.79315069998847,52,35,54,42,54,70,128.79315069998847,130.49394549999852,,,,,,,,,,,,,,,,,,,,３３６,f,２４,2023-05-21_11h34.13.883,RL,2022.2.5,60.03564916385562,
39,42,54,59,0,12,12,12,,,,,,,,,,,None,130.49394549999852,130.49394549999852,130.49394549999852,130.49394549999852,130.49394549999852,130.49394549999852,f,1.1399231999821495,131.66110669999034,131.66110669999034,131.66110669999034,131.66110669999034,131.66110669999034,131.66110669999034,131.96086890000151,133.51069759999518,133.51069759999518,133.51069759999518,133.51069759999518,133.51069759999518,133.51069759999518,133.51069759999518,133.51069759999518,133.51069759999518,133.51069759999518,133.51069759999518,133.51069759999518,133.51069759999518,133.51069759999518,135.35842479998246,135.35842479998246,135.35842479998246,135.35842479998246,135.35842479998246,135.35842479998246,135.35842479998246,54,39,59,42,54,70,135.35842479998246,137.04345420000027,,,,,,,,,,,,,,,,,,,,３３６,f,２４,2023-05-21_11h34.13.883,RL,2022.2.5,60.03564916385562,
36,49,53,63,0,13,13,13,,,,,,,,,,,None,137.04345420000027,137.04345420000027,137.04345420000027,137.04345420000027,137.04345420000027,137.04345420000027,i,0.6143351000209805,137.6812859000056,137.6812859000056,137.6812859000056,137.6812859000056,137.6812859000056,137.6812859000056,137.97647460000007,138.79294320000918,138.79294320000918,138.79294320000918,138.79294320000918,138.79294320000918,138.79294320000918,138.79294320000918,138.79294320000918,138.79294320000918,138.79294320000918,138.79294320000918,138.79294320000918,138.79294320000918,138.79294320000918,139.90766619998612,139.90766619998612,139.90766619998612,139.90766619998612,139.90766619998612,139.90766619998612,139.90766619998612,53,36,63,49,63,70,139.90766619998612,141.45871559999068,,,,,,,,,,,,,,,,,,,,３３６,f,２４,2023-05-21_11h34.13.883,RL,2022.2.5,60.03564916385562,
38,53,55,52,0,14,14,14,,,,,,,,,,,None,141.45871559999068,141.45871559999068,141.45871559999068,141.45871559999068,141.45871559999068,141.45871559999068,i,0.5899264000181574,142.07752560000517,142.07752560000517,142.07752560000517,142.07752560000517,142.07752560000517,142.07752560000517,142.35896809998667,143.35874619998503,143.35874619998503,143.35874619998503,143.35874619998503,143.35874619998503,143.35874619998503,143.3423921999929,143.35874619998503,143.35874619998503,143.35874619998503,143.35874619998503,143.35874619998503,143.35874619998503,143.35874619998503,144.64019949999056,144.64019949999056,144.64019949999056,144.64019949999056,144.64019949999056,144.64019949999056,144.64019949999056,55,38,52,53,52,70,144.64019949999056,146.24145239999052,,,,,,,,,,,,,,,,,,,,３３６,f,２４,2023-05-21_11h34.13.883,RL,2022.2.5,60.03564916385562,
32,46,54,55,0,15,15,15,,,,,,,,,,,None,146.24145239999052,146.24145239999052,146.24145239999052,146.24145239999052,146.24145239999052,146.24145239999052,j,1.153330700006336,147.42914540000493,147.42914540000493,147.42914540000493,147.42914540000493,147.42914540000493,147.42914540000493,147.7080297000066,149.15753009999753,149.15753009999753,149.15753009999753,149.15753009999753,149.15753009999753,149.15753009999753,149.14108719999786,149.15753009999753,149.15753009999753,149.15753009999753,149.15753009999753,149.15753009999753,149.15753009999753,149.15753009999753,150.88920629999484,150.88920629999484,150.88920629999484,150.88920629999484,150.88920629999484,150.88920629999484,150.88920629999484,54,32,55,46,46,70,150.88920629999484,152.78964350000024,,,,,,,,,,,,,,,,,,,,３３６,f,２４,2023-05-21_11h34.13.883,RL,2022.2.5,60.03564916385562,
35,59,53,53,0,16,16,16,,,,,,,,,,,None,152.78964350000024,152.78964350000024,152.78964350000024,152.78964350000024,152.78964350000024,152.78964350000024,f,0.7246957999886945,153.5427514000039,153.5427514000039,153.5427514000039,153.5427514000039,153.5427514000039,153.5427514000039,153.8402447999979,155.0065212000045,155.0065212000045,155.0065212000045,155.0065212000045,155.0065212000045,155.0065212000045,155.0065212000045,155.0065212000045,155.0065212000045,155.0065212000045,155.0065212000045,155.0065212000045,155.0065212000045,155.0065212000045,156.47123910000664,156.47123910000664,156.47123910000664,156.47123910000664,156.47123910000664,156.47123910000664,156.47123910000664,53,35,53,59,53,70,156.47123910000664,158.45598969998537,,,,,,,,,,,,,,,,,,,,３３６,f,２４,2023-05-21_11h34.13.883,RL,2022.2.5,60.03564916385562,
39,55,46,63,0,17,17,17,,,,,,,,,,,None,158.45598969998537,158.45598969998537,158.45598969998537,158.45598969998537,158.45598969998537,158.45598969998537,i,0.34216010000091046,158.82432719998178,158.82432719998178,158.82432719998178,158.82432719998178,158.82432719998178,158.82432719998178,159.10606109999935,160.72242050000932,160.72242050000932,160.72242050000932,160.72242050000932,160.72242050000932,160.72242050000932,160.7058154999977,160.72242050000932,160.72242050000932,160.72242050000932,160.72242050000932,160.72242050000932,160.72242050000932,160.72242050000932,162.62068319998798,162.62068319998798,162.62068319998798,162.62068319998798,162.62068319998798,162.62068319998798,162.62068319998798,46,39,63,55,63,70,162.62068319998798,164.57149659999413,,,,,,,,,,,,,,,,,,,,３３６,f,２４,2023-05-21_11h34.13.883,RL,2022.2.5,60.03564916385562,
35,48,41,63,0,18,18,18,,,,,,,,,,,None,164.57149659999413,164.57149659999413,164.57149659999413,164.57149659999413,164.57149659999413,164.57149659999413,i,0.0343838999979198,164.64644620000036,164.64644620000036,164.64644620000036,164.64644620000036,164.64644620000036,164.64644620000036,164.93825629999628,166.08792990000802,166.08792990000802,166.08792990000802,166.08792990000802,166.08792990000802,166.08792990000802,166.08792990000802,166.08792990000802,166.08792990000802,166.08792990000802,166.08792990000802,166.08792990000802,166.08792990000802,166.08792990000802,167.53624309998122,167.53624309998122,167.53624309998122,167.53624309998122,167.53624309998122,167.53624309998122,167.53624309998122,41,35,63,48,63,70,167.53624309998122,169.4369602999941,,,,,,,,,,,,,,,,,,,,３３６,f,２４,2023-05-21_11h34.13.883,RL,2022.2.5,60.03564916385562,
37,55,49,56,0,19,19,19,,,,,,,,,,,None,169.4369602999941,169.4369602999941,169.4369602999941,169.4369602999941,169.4369602999941,169.4369602999941,i,0.4241284000163432,169.88780870000483,169.88780870000483,169.88780870000483,169.88780870000483,169.88780870000483,169.88780870000483,170.18749059998663,172.0202117000008,172.0202117000008,172.0202117000008,172.0202117000008,172.0202117000008,172.0202117000008,172.0202117000008,172.0202117000008,172.0202117000008,172.0202117000008,172.0202117000008,172.0202117000008,172.0202117000008,172.0202117000008,174.15197939999052,174.15197939999052,174.15197939999052,174.15197939999052,174.15197939999052,174.15197939999052,174.15197939999052,49,37,56,55,56,70,174.15197939999052,176.01917899999535,,,,,,,,,,,,,,,,,,,,３３６,f,２４,2023-05-21_11h34.13.883,RL,2022.2.5,60.03564916385562,
33,61,59,53,0,20,20,20,,,,,,,,,,,None,176.01917899999535,176.01917899999535,176.01917899999535,176.01917899999535,176.01917899999535,176.01917899999535,f,0.3221495999896433,176.3699592000048,176.3699592000048,176.3699592000048,176.3699592000048,176.3699592000048,176.3699592000048,176.65318219998153,178.28589719999582,178.28589719999582,178.28589719999582,178.28589719999582,178.28589719999582,178.28589719999582,178.2697465000092,178.28589719999582,178.28589719999582,178.28589719999582,178.28589719999582,178.28589719999582,178.28589719999582,178.28589719999582,180.2005754999991,180.2005754999991,180.2005754999991,180.2005754999991,180.2005754999991,180.2005754999991,180.2005754999991,59,33,53,61,59,70,180.2005754999991,182.03558100000373,,,,,,,,,,,,,,,,,,,,３３６,f,２４,2023-05-21_11h34.13.883,RL,2022.2.5,60.03564916385562,
36,48,59,56,0,21,21,21,,,,,,,,,,,None,182.03558100000373,182.03558100000373,182.03558100000373,182.03558100000373,182.03558100000373,182.03558100000373,i,0.4091016000020318,182.4696047999896,182.4696047999896,182.4696047999896,182.4696047999896,182.4696047999896,182.4696047999896,182.75174700000207,184.43492830000469,184.43492830000469,184.43492830000469,184.43492830000469,184.43492830000469,184.43492830000469,184.41853699999047,184.43492830000469,184.43492830000469,184.43492830000469,184.43492830000469,184.43492830000469,184.43492830000469,184.43492830000469,186.40003789999173,186.40003789999173,186.40003789999173,186.40003789999173,186.40003789999173,186.40003789999173,186.40003789999173,59,36,56,48,56,70,186.40003789999173,188.06729839998297,,,,,,,,,,,,,,,,,,,,３３６,f,２４,2023-05-21_11h34.13.883,RL,2022.2.5,60.03564916385562,
29,54,59,59,0,22,22,22,,,,,,,,,,,None,188.06729839998297,188.06729839998297,188.06729839998297,188.06729839998297,188.06729839998297,188.06729839998297,f,0.3125916999997571,188.40193429999636,188.40193429999636,188.40193429999636,188.40193429999636,188.40193429999636,188.40193429999636,188.70098570000846,190.7007110999839,190.7007110999839,190.7007110999839,190.7007110999839,190.7007110999839,190.7007110999839,190.7007110999839,190.7007110999839,190.7007110999839,190.7007110999839,190.7007110999839,190.7007110999839,190.7007110999839,190.7007110999839,192.99885780000477,192.99885780000477,192.99885780000477,192.99885780000477,192.99885780000477,192.99885780000477,192.99885780000477,59,29,59,54,59,70,192.99885780000477,194.54961170000024,,,,,,,,,,,,,,,,,,,,３３６,f,２４,2023-05-21_11h34.13.883,RL,2022.2.5,60.03564916385562,
29,56,52,51,0,23,23,23,,,,,,,,,,,None,194.54961170000024,194.54961170000024,194.54961170000024,194.54961170000024,194.54961170000024,194.54961170000024,f,0.33087579999119043,194.9012844999961,194.9012844999961,194.9012844999961,194.9012844999961,194.9012844999961,194.9012844999961,195.19984009998734,196.4493972999917,196.4493972999917,196.4493972999917,196.4493972999917,196.4493972999917,196.4493972999917,196.4493972999917,196.4493972999917,196.4493972999917,196.4493972999917,196.4493972999917,196.4493972999917,196.4493972999917,196.4493972999917,197.9973040999903,197.9973040999903,197.9973040999903,197.9973040999903,197.9973040999903,197.9973040999903,197.9973040999903,52,29,51,56,52,70,197.9973040999903,199.94860509998398,,,,,,,,,,,,,,,,,,,,３３６,f,２４,2023-05-21_11h34.13.883,RL,2022.2.5,60.03564916385562,
33,55,52,52,0,24,24,24,,,,,,,,,,,None,199.94860509998398,199.94860509998398,199.94860509998398,199.94860509998398,199.94860509998398,199.94860509998398,i,0.34321730001829565,200.3156655000057,200.3156655000057,200.3156655000057,200.3156655000057,200.3156655000057,200.3156655000057,200.5989286999975,202.03189409998595,202.03189409998595,202.03189409998595,202.03189409998595,202.03189409998595,202.03189409998595,202.01549439999508,202.03189409998595,202.03189409998595,202.03189409998595,202.03189409998595,202.03189409998595,202.03189409998595,202.03189409998595,203.74669339999673,203.74669339999673,203.74669339999673,203.74669339999673,203.74669339999673,203.74669339999673,203.74669339999673,52,33,52,55,52,70,203.74669339999673,205.66420639998978,,,,,,,,,,,,,,,,,,,,３３６,f,２４,2023-05-21_11h34.13.883,RL,2022.2.5,60.03564916385562,
50,56,59,54,0,25,25,25,,,,,,,,,,,None,205.66420639998978,205.66420639998978,205.66420639998978,205.66420639998978,205.66420639998978,205.66420639998978,r,0.18355489999521524,205.8813603000017,205.8813603000017,205.8813603000017,205.8813603000017,205.8813603000017,205.8813603000017,206.16444039999624,208.06426690000808,208.06426690000808,208.06426690000808,208.06426690000808,208.06426690000808,208.06426690000808,208.04762880000635,208.06426690000808,208.06426690000808,208.06426690000808,208.06426690000808,208.06426690000808,208.06426690000808,208.06426690000808,210.26241039999877,210.26241039999877,210.26241039999877,210.26241039999877,210.26241039999877,210.26241039999877,210.26241039999877,59,50,54,56,50,70,210.26241039999877,211.9132610000088,,,,,,,,,,,,,,,,,,,,３３６,f,２４,2023-05-21_11h34.13.883,RL,2022.2.5,60.03564916385562,
32,49,49,64,0,26,26,26,,,,,,,,,,,None,211.9132610000088,211.9132610000088,211.9132610000088,211.9132610000088,211.9132610000088,211.9132610000088,j,0.32994399999734014,212.26365079998504,212.26365079998504,212.26365079998504,212.26365079998504,212.26365079998504,212.26365079998504,212.54685749998316,214.49658390000695,214.49658390000695,214.49658390000695,214.49658390000695,214.49658390000695,214.49658390000695,214.48000159999356,214.49658390000695,214.49658390000695,214.49658390000695,214.49658390000695,214.49658390000695,214.49658390000695,214.49658390000695,216.7276220000058,216.7276220000058,216.7276220000058,216.7276220000058,216.7276220000058,216.7276220000058,216.7276220000058,49,32,64,49,49,70,216.7276220000058,218.59539820000646,,,,,,,,,,,,,,,,,,,,３３６,f,２４,2023-05-21_11h34.13.883,RL,2022.2.5,60.03564916385562,
39,45,54,68,0,27,27,27,,,,,,,,,,,None,218.59539820000646,218.59539820000646,218.59539820000646,218.59539820000646,218.59539820000646,218.59539820000646,f,0.2871776999963913,218.91222520000883,218.91222520000883,218.91222520000883,218.91222520000883,218.91222520000883,218.91222520000883,219.19555189998937,220.77832290000515,220.77832290000515,220.77832290000515,220.77832290000515,220.77832290000515,220.77832290000515,220.76203159999568,220.77832290000515,220.77832290000515,220.77832290000515,220.77832290000515,220.77832290000515,220.77832290000515,220.77832290000515,222.64303649999783,222.64303649999783,222.64303649999783,222.64303649999783,222.64303649999783,222.64303649999783,222.64303649999783,54,39,68,45,54,70,222.64303649999783,224.16123130000778,,,,,,,,,,,,,,,,,,,,３３６,f,２４,2023-05-21_11h34.13.883,RL,2022.2.5,60.03564916385562,
39,42,58,58,0,28,28,28,,,,,,,,,,,None,224.16123130000778,224.16123130000778,224.16123130000778,224.16123130000778,224.16123130000778,224.16123130000778,j,0.3717663999996148,224.5622619999922,224.5622619999922,224.5622619999922,224.5622619999922,224.5622619999922,224.5622619999922,224.84481449998566,226.72735699999612,226.72735699999612,226.72735699999612,226.72735699999612,226.72735699999612,226.72735699999612,226.71077820000937,226.72735699999612,226.72735699999612,226.72735699999612,226.72735699999612,226.72735699999612,226.72735699999612,226.72735699999612,228.89196330000414,228.89196330000414,228.89196330000414,228.89196330000414,228.89196330000414,228.89196330000414,228.89196330000414,58,39,58,42,42,70,228.89196330000414,230.4599062000052,,,,,,,,,,,,,,,,,,,,３３６,f,２４,2023-05-21_11h34.13.883,RL,2022.2.5,60.03564916385562,
32,44,56,55,0,29,29,29,,,,,,,,,,,None,230.4599062000052,230.4599062000052,230.4599062000052,230.4599062000052,230.4599062000052,230.4599062000052,i,0.20102760000736453,230.6769573999918,230.6769573999918,230.6769573999918,230.6769573999918,230.6769573999918,230.6769573999918,230.97720890000346,231.87664489998133,231.87664489998133,231.87664489998133,231.87664489998133,231.87664489998133,231.87664489998133,231.87664489998133,231.87664489998133,231.87664489998133,231.87664489998133,231.87664489998133,231.87664489998133,231.87664489998133,231.87664489998133,233.07454430000507,233.07454430000507,233.07454430000507,233.07454430000507,233.07454430000507,233.07454430000507,233.07454430000507,56,32,55,44,55,70,233.07454430000507,234.85937039999408,,,,,,,,,,,,,,,,,,,,３３６,f,２４,2023-05-21_11h34.13.883,RL,2022.2.5,60.03564916385562,
44,44,58,64,0,30,30,30,,,,,,,,,,,None,234.85937039999408,234.85937039999408,234.85937039999408,234.85937039999408,234.85937039999408,234.85937039999408,f,0.2783140999963507,235.1596789000032,235.1596789000032,235.1596789000032,235.1596789000032,235.1596789000032,235.1596789000032,235.45892619999358,236.29222239999217,236.29222239999217,236.29222239999217,236.29222239999217,236.29222239999217,236.29222239999217,236.29222239999217,236.29222239999217,236.29222239999217,236.29222239999217,236.29222239999217,236.29222239999217,236.29222239999217,236.29222239999217,237.4240971999825,237.4240971999825,237.4240971999825,237.4240971999825,237.4240971999825,237.4240971999825,237.4240971999825,58,44,64,44,58,70,237.4240971999825,239.25819090000005,,,,,,,,,,,,,,,,,,,,３３６,f,２４,2023-05-21_11h34.13.883,RL,2022.2.5,60.03564916385562,
37,42,51,59,0,31,31,31,,,,,,,,,,,None,239.25819090000005,239.25819090000005,239.25819090000005,239.25819090000005,239.25819090000005,239.25819090000005,f,0.33827179999207146,239.62619360000826,239.62619360000826,239.62619360000826,239.62619360000826,239.62619360000826,239.62619360000826,239.9250955999887,241.20802130000084,241.20802130000084,241.20802130000084,241.20802130000084,241.20802130000084,241.20802130000084,241.20802130000084,241.20802130000084,241.20802130000084,241.20802130000084,241.20802130000084,241.20802130000084,241.20802130000084,241.20802130000084,242.78972420000355,242.78972420000355,242.78972420000355,242.78972420000355,242.78972420000355,242.78972420000355,242.78972420000355,51,37,59,42,51,70,242.78972420000355,244.35771469998872,,,,,,,,,,,,,,,,,,,,３３６,f,２４,2023-05-21_11h34.13.883,RL,2022.2.5,60.03564916385562,
42,44,53,65,0,32,32,32,,,,,,,,,,,None,244.35771469998872,244.35771469998872,244.35771469998872,244.35771469998872,244.35771469998872,244.35771469998872,i,0.23645359999500215,244.62439789998461,244.62439789998461,244.62439789998461,244.62439789998461,244.62439789998461,244.62439789998461,244.90771639999002,245.89083180000307,245.89083180000307,245.89083180000307,245.89083180000307,245.89083180000307,245.89083180000307,245.87409090000438,245.89083180000307,245.89083180000307,245.89083180000307,245.89083180000307,245.89083180000307,245.89083180000307,245.89083180000307,247.1554530999856,247.1554530999856,247.1554530999856,247.1554530999856,247.1554530999856,247.1554530999856,247.1554530999856,53,42,65,44,65,70,247.1554530999856,248.89001679999637,,,,,,,,,,,,,,,,,,,,３３６,f,２４,2023-05-21_11h34.13.883,RL,2022.2.5,60.03564916385562,
42,35,52,67,0,33,33,33,,,,,,,,,,,None,248.89001679999637,248.89001679999637,248.89001679999637,248.89001679999637,248.89001679999637,248.89001679999637,i,0.4131632999924477,249.32446259999415,249.32446259999415,249.32446259999415,249.32446259999415,249.32446259999415,249.32446259999415,249.60711799998535,250.84033619999536,250.84033619999536,250.84033619999536,250.84033619999536,250.84033619999536,250.84033619999536,250.82351479999488,250.84033619999536,250.84033619999536,250.84033619999536,250.84033619999536,250.84033619999536,250.84033619999536,250.84033619999536,252.35471339998185,252.35471339998185,252.35471339998185,252.35471339998185,252.35471339998185,252.35471339998185,252.35471339998185,52,42,67,35,67,70,252.35471339998185,253.90583750000224,,,,,,,,,,,,,,,,,,,,３３６,f,２４,2023-05-21_11h34.13.883,RL,2022.2.5,60.03564916385562,
45,38,58,64,0,34,34,34,,,,,,,,,,,None,253.90583750000224,253.90583750000224,253.90583750000224,253.90583750000224,253.90583750000224,253.90583750000224,i,0.38345560000743717,254.32679449999705,254.32679449999705,254.32679449999705,254.32679449999705,254.32679449999705,254.32679449999705,254.606428900006,256.3721765000082,256.3721765000082,256.3721765000082,256.3721765000082,256.3721765000082,256.3721765000082,256.3557337000093,256.3721765000082,256.3721765000082,256.3721765000082,256.3721765000082,256.3721765000082,256.3721765000082,256.3721765000082,258.42032069998095,258.42032069998095,258.42032069998095,258.42032069998095,258.42032069998095,258.42032069998095,258.42032069998095,58,45,64,38,64,70,258.42032069998095,260.3876301999844,,,,,,,,,,,,,,,,,,,,３３６,f,２４,2023-05-21_11h34.13.883,RL,2022.2.5,60.03564916385562,
49,33,52,67,0,35,35,35,,,,,,,,,,,None,260.3876301999844,260.3876301999844,260.3876301999844,260.3876301999844,260.3876301999844,260.3876301999844,i,0.46601469998131506,260.87338000000454,260.87338000000454,260.87338000000454,260.87338000000454,260.87338000000454,260.87338000000454,261.17172589999973,262.15492959998664,262.15492959998664,262.15492959998664,262.15492959998664,262.15492959998664,262.15492959998664,262.15492959998664,262.15492959998664,262.15492959998664,262.15492959998664,262.15492959998664,262.15492959998664,262.15492959998664,262.15492959998664,263.43620649998775,263.43620649998775,263.43620649998775,263.43620649998775,263.43620649998775,263.43620649998775,263.43620649998775,52,49,67,33,67,70,263.43620649998775,265.20365599999786,,,,,,,,,,,,,,,,,,,,３３６,f,２４,2023-05-21_11h34.13.883,RL,2022.2.5,60.03564916385562,
55,40,48,65,0,36,36,36,,,,,,,,,,,None,265.20365599999786,265.20365599999786,265.20365599999786,265.20365599999786,265.20365599999786,265.20365599999786,i,0.38873759997659363,265.62109669999336,265.62109669999336,265.62109669999336,265.62109669999336,265.62109669999336,265.62109669999336,265.9041167999967,266.7871804999886,266.7871804999886,266.7871804999886,266.7871804999886,266.7871804999886,266.7871804999886,266.77106279999134,266.7871804999886,266.7871804999886,266.7871804999886,266.7871804999886,266.7871804999886,266.7871804999886,266.7871804999886,267.9519489000086,267.9519489000086,267.9519489000086,267.9519489000086,267.9519489000086,267.9519489000086,267.9519489000086,48,55,65,40,65,70,267.9519489000086,269.83631719998084,,,,,,,,,,,,,,,,,,,,３３６,f,２４,2023-05-21_11h34.13.883,RL,2022.2.5,60.03564916385562,
42,35,51,71,0,37,37,37,,,,,,,,,,,None,269.83631719998084,269.83631719998084,269.83631719998084,269.83631719998084,269.83631719998084,269.83631719998084,i,0.08197180001297966,269.9384034999821,269.9384034999821,269.9384034999821,269.9384034999821,269.9384034999821,269.9384034999821,270.2200045000063,271.95289640000556,271.95289640000556,271.95289640000556,271.95289640000556,271.95289640000556,271.95289640000556,271.9199023999972,271.95289640000556,271.95289640000556,271.95289640000556,271.95289640000556,271.95289640000556,271.95289640000556,271.95289640000556,273.9513619999925,273.9513619999925,273.9513619999925,273.9513619999925,273.9513619999925,273.9513619999925,273.9513619999925,51,42,71,35,71,70,273.9513619999925,275.6850715999899,,,,,,,,,,,,,,,,,,,,３３６,f,２４,2023-05-21_11h34.13.883,RL,2022.2.5,60.03564916385562,
41,45,54,81,0,38,38,38,,,,,,,,,,,None,275.6850715999899,275.6850715999899,275.6850715999899,275.6850715999899,275.6850715999899,275.6850715999899,i,0.27955649999785237,275.98726379999425,275.98726379999425,275.98726379999425,275.98726379999425,275.98726379999425,275.98726379999425,276.28577660000883,277.1186717999808,277.1186717999808,277.1186717999808,277.1186717999808,277.1186717999808,277.1186717999808,277.1186717999808,277.1186717999808,277.1186717999808,277.1186717999808,277.1186717999808,277.1186717999808,277.1186717999808,277.1186717999808,278.2500204999815,278.2500204999815,278.2500204999815,278.2500204999815,278.2500204999815,278.2500204999815,278.2500204999815,54,41,81,45,81,70,278.2500204999815,279.90133359999163,,,,,,,,,,,,,,,,,,,,３３６,f,２４,2023-05-21_11h34.13.883,RL,2022.2.5,60.03564916385562,
44,43,50,76,0,39,39,39,,,,,,,,,,,None,279.90133359999163,279.90133359999163,279.90133359999163,279.90133359999163,279.90133359999163,279.90133359999163,i,0.4870789000124205,280.41832589998376,280.41832589998376,280.41832589998376,280.41832589998376,280.41832589998376,280.41832589998376,280.7180733999994,282.2013536999875,282.2013536999875,282.2013536999875,282.2013536999875,282.2013536999875,282.2013536999875,282.2013536999875,282.2013536999875,282.2013536999875,282.2013536999875,282.2013536999875,282.2013536999875,282.2013536999875,282.2013536999875,283.98251070000697,283.98251070000697,283.98251070000697,283.98251070000697,283.98251070000697,283.98251070000697,283.98251070000697,50,44,76,43,76,70,283.98251070000697,285.8505848000059,,,,,,,,,,,,,,,,,,,,３３６,f,２４,2023-05-21_11h34.13.883,RL,2022.2.5,60.03564916385562,
42,37,58,65,0,40,40,40,,,,,,,,,,,None,285.8505848000059,285.8505848000059,285.8505848000059,285.8505848000059,285.8505848000059,285.8505848000059,i,0.2478246999962721,286.1202034000016,286.1202034000016,286.1202034000016,286.1202034000016,286.1202034000016,286.1202034000016,286.40052940000896,288.150332899997,288.150332899997,288.150332899997,288.150332899997,288.150332899997,288.150332899997,288.1339415999828,288.150332899997,288.150332899997,288.150332899997,288.150332899997,288.150332899997,288.150332899997,288.150332899997,290.1816411000036,290.1816411000036,290.1816411000036,290.1816411000036,290.1816411000036,290.1816411000036,290.1816411000036,58,42,65,37,65,70,290.1816411000036,292.1159236000094,,,,,,,,,,,,,,,,,,,,３３６,f,２４,2023-05-21_11h34.13.883,RL,2022.2.5,60.03564916385562,
55,41,55,73,0,41,41,41,,,,,,,,,,,None,292.1159236000094,292.1159236000094,292.1159236000094,292.1159236000094,292.1159236000094,292.1159236000094,i,0.24353139998856932,292.3829393000051,292.3829393000051,292.3829393000051,292.3829393000051,292.3829393000051,292.3829393000051,292.66571719999774,294.366096999991,294.366096999991,294.366096999991,294.366096999991,294.366096999991,294.366096999991,294.3492571999959,294.366096999991,294.366096999991,294.366096999991,294.366096999991,294.366096999991,294.366096999991,294.366096999991,296.34684339998057,296.34684339998057,296.34684339998057,296.34684339998057,296.34684339998057,296.34684339998057,296.34684339998057,55,55,73,41,73,70,296.34684339998057,297.96496630000183,,,,,,,,,,,,,,,,,,,,３３６,f,２４,2023-05-21_11h34.13.883,RL,2022.2.5,60.03564916385562,
43,34,54,65,0,42,42,42,,,,,,,,,,,None,297.96496630000183,297.96496630000183,297.96496630000183,297.96496630000183,297.96496630000183,297.96496630000183,i,0.31089669998618774,298.3006988999841,298.3006988999841,298.3006988999841,298.3006988999841,298.3006988999841,298.3006988999841,298.5985311999975,299.6146325999871,299.6146325999871,299.6146325999871,299.6146325999871,299.6146325999871,299.6146325999871,299.6146325999871,299.6146325999871,299.6146325999871,299.6146325999871,299.6146325999871,299.6146325999871,299.6146325999871,299.6146325999871,300.9297494000057,300.9297494000057,300.9297494000057,300.9297494000057,300.9297494000057,300.9297494000057,300.9297494000057,54,43,65,34,65,70,300.9297494000057,302.7473187999858,,,,,,,,,,,,,,,,,,,,３３６,f,２４,2023-05-21_11h34.13.883,RL,2022.2.5,60.03564916385562,
51,30,53,65,0,43,43,43,,,,,,,,,,,None,302.7473187999858,302.7473187999858,302.7473187999858,302.7473187999858,302.7473187999858,302.7473187999858,i,0.3570794000115711,303.13101809998625,303.13101809998625,303.13101809998625,303.13101809998625,303.13101809998625,303.13101809998625,303.41454769999837,304.7138895999815,304.7138895999815,304.7138895999815,304.7138895999815,304.7138895999815,304.7138895999815,304.69699820000096,304.7138895999815,304.7138895999815,304.7138895999815,304.7138895999815,304.7138895999815,304.7138895999815,304.7138895999815,306.29558069998166,306.29558069998166,306.29558069998166,306.29558069998166,306.29558069998166,306.29558069998166,306.29558069998166,53,51,65,30,65,70,306.29558069998166,308.1963189000089,,,,,,,,,,,,,,,,,,,,３３６,f,２４,2023-05-21_11h34.13.883,RL,2022.2.5,60.03564916385562,
47,38,53,69,0,44,44,44,,,,,,,,,,,None,308.1963189000089,308.1963189000089,308.1963189000089,308.1963189000089,308.1963189000089,308.1963189000089,i,0.08848859998397529,308.3133106000023,308.3133106000023,308.3133106000023,308.3133106000023,308.3133106000023,308.3133106000023,308.5969861999911,309.8962276999955,309.8962276999955,309.8962276999955,309.8962276999955,309.8962276999955,309.8962276999955,309.8796291000035,309.8962276999955,309.8962276999955,309.8962276999955,309.8962276999955,309.8962276999955,309.8962276999955,309.8962276999955,311.4777805999911,311.4777805999911,311.4777805999911,311.4777805999911,311.4777805999911,311.4777805999911,311.4777805999911,53,47,69,38,69,70,311.4777805999911,313.2125368999841,,,,,,,,,,,,,,,,,,,,３３６,f,２４,2023-05-21_11h34.13.883,RL,2022.2.5,60.03564916385562,
42,42,50,67,0,45,45,45,,,,,,,,,,,None,313.2125368999841,313.2125368999841,313.2125368999841,313.2125368999841,313.2125368999841,313.2125368999841,i,0.06745599998976104,313.3159337999823,313.3159337999823,313.3159337999823,313.3159337999823,313.3159337999823,313.3159337999823,313.59607299999334,314.96201829999336,314.96201829999336,314.96201829999336,314.96201829999336,314.96201829999336,314.96201829999336,314.9452392999956,314.96201829999336,314.96201829999336,314.96201829999336,314.96201829999336,314.96201829999336,314.96201829999336,314.96201829999336,316.6100429999933,316.6100429999933,316.6100429999933,316.6100429999933,316.6100429999933,316.6100429999933,316.6100429999933,50,42,67,42,67,70,316.6100429999933,318.1448054999928,,,,,,,,,,,,,,,,,,,,３３６,f,２４,2023-05-21_11h34.13.883,RL,2022.2.5,60.03564916385562,
39,32,54,61,0,46,46,46,,,,,,,,,,,None,318.1448054999928,318.1448054999928,318.1448054999928,318.1448054999928,318.1448054999928,318.1448054999928,i,0.31422110000858083,318.47914569999557,318.47914569999557,318.47914569999557,318.47914569999557,318.47914569999557,318.47914569999557,318.7619225999806,319.661231999984,319.661231999984,319.661231999984,319.661231999984,319.661231999984,319.661231999984,319.6446653000021,319.661231999984,319.661231999984,319.661231999984,319.661231999984,319.661231999984,319.661231999984,319.661231999984,320.8427574999805,320.8427574999805,320.8427574999805,320.8427574999805,320.8427574999805,320.8427574999805,320.8427574999805,54,39,61,32,61,70,320.8427574999805,322.4773091999814,,,,,,,,,,,,,,,,,,,,３３６,f,２４,2023-05-21_11h34.13.883,RL,2022.2.5,60.03564916385562,
52,42,49,64,0,47,47,47,,,,,,,,,,,None,322.4773091999814,322.4773091999814,322.4773091999814,322.4773091999814,322.4773091999814,322.4773091999814,i,0.2924417999747675,322.7949187000049,322.7949187000049,322.7949187000049,322.7949187000049,322.7949187000049,322.7949187000049,323.09413979999954,324.3603157000034,324.3603157000034,324.3603157000034,324.3603157000034,324.3603157000034,324.3603157000034,324.3603157000034,324.3603157000034,324.3603157000034,324.3603157000034,324.3603157000034,324.3603157000034,324.3603157000034,324.3603157000034,325.9249811999907,325.9249811999907,325.9249811999907,325.9249811999907,325.9249811999907,325.9249811999907,325.9249811999907,49,52,64,42,64,70,325.9249811999907,327.9097860000038,,,,,,,,,,,,,,,,,,,,３３６,f,２４,2023-05-21_11h34.13.883,RL,2022.2.5,60.03564916385562,
46,37,46,59,0,48,48,48,,,,,,,,,,,None,327.9097860000038,327.9097860000038,327.9097860000038,327.9097860000038,327.9097860000038,327.9097860000038,i,0.4169300000066869,328.363128099998,328.363128099998,328.363128099998,328.363128099998,328.363128099998,328.363128099998,328.64295209999545,330.34275350000826,330.34275350000826,330.34275350000826,330.34275350000826,330.34275350000826,330.34275350000826,330.3095527999976,330.34275350000826,330.34275350000826,330.34275350000826,330.34275350000826,330.34275350000826,330.34275350000826,330.34275350000826,332.32383049998316,332.32383049998316,332.32383049998316,332.32383049998316,332.32383049998316,332.32383049998316,332.32383049998316,46,46,59,37,59,70,332.32383049998316,334.10834360000445,,,,,,,,,,,,,,,,,,,,３３６,f,２４,2023-05-21_11h34.13.883,RL,2022.2.5,60.03564916385562,
43,46,51,66,0,49,49,49,,,,,,,,,,,None,334.10834360000445,334.10834360000445,334.10834360000445,334.10834360000445,334.10834360000445,334.10834360000445,f,0.3449813000042923,334.4762258999981,334.4762258999981,334.4762258999981,334.4762258999981,334.4762258999981,334.4762258999981,334.75884190000943,336.5084855000023,336.5084855000023,336.5084855000023,336.5084855000023,336.5084855000023,336.5084855000023,336.49203520000447,336.5084855000023,336.5084855000023,336.5084855000023,336.5084855000023,336.5084855000023,336.5084855000023,336.5084855000023,338.5398632999859,338.5398632999859,338.5398632999859,338.5398632999859,338.5398632999859,338.5398632999859,338.5398632999859,51,43,66,46,51,70,338.5398632999859,340.40739269999904,,,,,,,,,,,,,,,,,,,,３３６,f,２４,2023-05-21_11h34.13.883,RL,2022.2.5,60.03564916385562,
53,47,47,66,0,50,50,50,,,,,,,,,,,None,340.40739269999904,340.40739269999904,340.40739269999904,340.40739269999904,340.40739269999904,340.40739269999904,i,0.30241879998357035,340.74342769998475,340.74342769998475,340.74342769998475,340.74342769998475,340.74342769998475,340.74342769998475,341.0247687000083,342.6409454999957,342.6409454999957,342.6409454999957,342.6409454999957,342.6409454999957,342.6409454999957,342.6243076999963,342.6409454999957,342.6409454999957,342.6409454999957,342.6409454999957,342.6409454999957,342.6409454999957,342.6409454999957,344.5222328999953,344.5222328999953,344.5222328999953,344.5222328999953,344.5222328999953,344.5222328999953,344.5222328999953,47,53,66,47,66,70,344.5222328999953,346.3396519999951,,,,,,,,,,,,,,,,,,,,３３６,f,２４,2023-05-21_11h34.13.883,RL,2022.2.5,60.03564916385562,
48,46,59,65,0,51,51,51,,,,,,,,,,,None,346.3396519999951,346.3396519999951,346.3396519999951,346.3396519999951,346.3396519999951,346.3396519999951,i,0.29907120001735166,346.65858359998674,346.65858359998674,346.65858359998674,346.65858359998674,346.65858359998674,346.65858359998674,346.9567326999968,348.77305909999995,348.77305909999995,348.77305909999995,348.77305909999995,348.77305909999995,348.77305909999995,348.77305909999995,348.77305909999995,348.77305909999995,348.77305909999995,348.77305909999995,348.77305909999995,348.77305909999995,348.77305909999995,350.8874116000079,350.8874116000079,350.8874116000079,350.8874116000079,350.8874116000079,350.8874116000079,350.8874116000079,59,48,65,46,65,70,350.8874116000079,352.7216836999869,,,,,,,,,,,,,,,,,,,,３３６,f,２４,2023-05-21_11h34.13.883,RL,2022.2.5,60.03564916385562,
47,53,51,69,0,52,52,52,,,,,,,,,,,None,352.7216836999869,352.7216836999869,352.7216836999869,352.7216836999869,352.7216836999869,352.7216836999869,i,0.33131629999843426,353.07249269998283,353.07249269998283,353.07249269998283,353.07249269998283,353.07249269998283,353.07249269998283,353.35588960000314,354.8553413999907,354.8553413999907,354.8553413999907,354.8553413999907,354.8553413999907,354.8553413999907,354.8385939,354.8553413999907,354.8553413999907,354.8553413999907,354.8553413999907,354.8553413999907,354.8553413999907,354.8553413999907,356.63687719998416,356.63687719998416,356.63687719998416,356.63687719998416,356.63687719998416,356.63687719998416,356.63687719998416,51,47,69,53,69,70,356.63687719998416,358.3042101000028,,,,,,,,,,,,,,,,,,,,３３６,f,２４,2023-05-21_11h34.13.883,RL,2022.2.5,60.03564916385562,
47,48,52,72,0,53,53,53,,,,,,,,,,,None,358.3042101000028,358.3042101000028,358.3042101000028,358.3042101000028,358.3042101000028,358.3042101000028,i,0.2953214999870397,358.6213283999823,358.6213283999823,358.6213283999823,358.6213283999823,358.6213283999823,358.6213283999823,358.90451510000275,360.2707730999973,360.2707730999973,360.2707730999973,360.2707730999973,360.2707730999973,360.2707730999973,360.2544874000014,360.2707730999973,360.2707730999973,360.2707730999973,360.2707730999973,360.2707730999973,360.2707730999973,360.2707730999973,361.9193155999819,361.9193155999819,361.9193155999819,361.9193155999819,361.9193155999819,361.9193155999819,361.9193155999819,52,47,72,48,72,70,361.9193155999819,363.57011159998365,,,,,,,,,,,,,,,,,,,,３３６,f,２４,2023-05-21_11h34.13.883,RL,2022.2.5,60.03564916385562,
50,43,56,72,0,54,54,54,,,,,,,,,,,None,363.57011159998365,363.57011159998365,363.57011159998365,363.57011159998365,363.57011159998365,363.57011159998365,i,0.3016248999920208,363.9077266000095,363.9077266000095,363.9077266000095,363.9077266000095,363.9077266000095,363.9077266000095,364.1873045999964,365.369938799995,365.369938799995,365.369938799995,365.369938799995,365.369938799995,365.369938799995,365.3532322999963,365.369938799995,365.369938799995,365.369938799995,365.369938799995,365.369938799995,365.369938799995,365.369938799995,366.8348024000006,366.8348024000006,366.8348024000006,366.8348024000006,366.8348024000006,366.8348024000006,366.8348024000006,56,50,72,43,72,70,366.8348024000006,368.83552679998684,,,,,,,,,,,,,,,,,,,,３３６,f,２４,2023-05-21_11h34.13.883,RL,2022.2.5,60.03564916385562,
47,40,40,68,0,55,55,55,,,,,,,,,,,None,368.83552679998684,368.83552679998684,368.83552679998684,368.83552679998684,368.83552679998684,368.83552679998684,i,0.06838650000281632,368.94227050000336,368.94227050000336,368.94227050000336,368.94227050000336,368.94227050000336,368.94227050000336,369.2193765999982,370.78567199999816,370.78567199999816,370.78567199999816,370.78567199999816,370.78567199999816,370.78567199999816,370.76937120000366,370.78567199999816,370.78567199999816,370.78567199999816,370.78567199999816,370.78567199999816,370.78567199999816,370.78567199999816,372.6340649999911,372.6340649999911,372.6340649999911,372.6340649999911,372.6340649999911,372.6340649999911,372.6340649999911,40,47,68,40,68,70,372.6340649999911,374.5516119999811,,,,,,,,,,,,,,,,,,,,３３６,f,２４,2023-05-21_11h34.13.883,RL,2022.2.5,60.03564916385562,
45,46,45,74,0,56,56,56,,,,,,,,,,,None,374.5516119999811,374.5516119999811,374.5516119999811,374.5516119999811,374.5516119999811,374.5516119999811,i,0.09876809999695979,374.6709996999998,374.6709996999998,374.6709996999998,374.6709996999998,374.6709996999998,374.6709996999998,374.96849870000733,376.3851710000017,376.3851710000017,376.3851710000017,376.3851710000017,376.3851710000017,376.3851710000017,376.3851710000017,376.3851710000017,376.3851710000017,376.3851710000017,376.3851710000017,376.3851710000017,376.3851710000017,376.3851710000017,378.099913699989,378.099913699989,378.099913699989,378.099913699989,378.099913699989,378.099913699989,378.099913699989,45,45,74,46,74,70,378.099913699989,379.7004833999963,,,,,,,,,,,,,,,,,,,,３３６,f,２４,2023-05-21_11h34.13.883,RL,2022.2.5,60.03564916385562,
47,42,44,73,0,57,57,57,,,,,,,,,,,None,379.7004833999963,379.7004833999963,379.7004833999963,379.7004833999963,379.7004833999963,379.7004833999963,i,0.2744178999855649,380.0032290999952,380.0032290999952,380.0032290999952,380.0032290999952,380.0032290999952,380.0032290999952,380.2837570999982,382.0387320999871,382.0387320999871,382.0387320999871,382.0387320999871,382.0387320999871,382.0387320999871,381.98384269999224,382.0387320999871,382.0387320999871,382.0387320999871,382.0387320999871,382.0387320999871,382.0387320999871,382.0387320999871,384.0323625000019,384.0323625000019,384.0323625000019,384.0323625000019,384.0323625000019,384.0323625000019,384.0323625000019,44,47,73,42,73,70,384.0323625000019,385.9661777000001,,,,,,,,,,,,,,,,,,,,３３６,f,２４,2023-05-21_11h34.13.883,RL,2022.2.5,60.03564916385562,
48,35,48,78,0,58,58,58,,,,,,,,,,,None,385.9661777000001,385.9661777000001,385.9661777000001,385.9661777000001,385.9661777000001,385.9661777000001,i,0.6251543000107631,386.6175965000002,386.6175965000002,386.6175965000002,386.6175965000002,386.6175965000002,386.6175965000002,386.9162357999885,388.54918609999004,388.54918609999004,388.54918609999004,388.54918609999004,388.54918609999004,388.54918609999004,388.54918609999004,388.54918609999004,388.54918609999004,388.54918609999004,388.54918609999004,388.54918609999004,388.54918609999004,388.54918609999004,390.4806099999987,390.4806099999987,390.4806099999987,390.4806099999987,390.4806099999987,390.4806099999987,390.4806099999987,48,48,78,35,78,70,390.4806099999987,392.1981253999984,,,,,,,,,,,,,,,,,,,,３３６,f,２４,2023-05-21_11h34.13.883,RL,2022.2.5,60.03564916385562,
54,54,42,73,0,59,59,59,,,,,,,,,,,None,392.1981253999984,392.1981253999984,392.1981253999984,392.1981253999984,392.1981253999984,392.1981253999984,i,0.3077317999850493,392.5345105000015,392.5345105000015,392.5345105000015,392.5345105000015,392.5345105000015,392.5345105000015,392.83218789999955,394.4651198000065,394.4651198000065,394.4651198000065,394.4651198000065,394.4651198000065,394.4651198000065,394.4651198000065,394.4651198000065,394.4651198000065,394.4651198000065,394.4651198000065,394.4651198000065,394.4651198000065,394.4651198000065,396.3963056000066,396.3963056000066,396.3963056000066,396.3963056000066,396.3963056000066,396.3963056000066,396.3963056000066,42,54,73,54,73,70,396.3963056000066,398.2307603000081,,,,,,,,,,,,,,,,,,,,３３６,f,２４,2023-05-21_11h34.13.883,RL,2022.2.5,60.03564916385562,
46,53,48,72,0,60,60,60,,,,,,,,,,,None,398.2307603000081,398.2307603000081,398.2307603000081,398.2307603000081,398.2307603000081,398.2307603000081,i,0.18146609998075292,398.4333384000056,398.4333384000056,398.4333384000056,398.4333384000056,398.4333384000056,398.4333384000056,398.73119799999404,400.1809143999999,400.1809143999999,400.1809143999999,400.1809143999999,400.1809143999999,400.1809143999999,400.1809143999999,400.1809143999999,400.1809143999999,400.1809143999999,400.1809143999999,400.1809143999999,400.1809143999999,400.1809143999999,401.9291356999893,401.9291356999893,401.9291356999893,401.9291356999893,401.9291356999893,401.9291356999893,401.9291356999893,48,46,72,53,72,70,401.9291356999893,403.5794315999956,,,,,,,,,,,,,,,,,,,,３３６,f,２４,2023-05-21_11h34.13.883,RL,2022.2.5,60.03564916385562,
45,58,52,68,0,61,61,61,,,,,,,,,,,None,403.5794315999956,403.5794315999956,403.5794315999956,403.5794315999956,403.5794315999956,403.5794315999956,i,0.3554336999950465,403.96458410000196,403.96458410000196,403.96458410000196,403.96458410000196,403.96458410000196,403.96458410000196,404.2463965000061,406.0297067000065,406.0297067000065,406.0297067000065,406.0297067000065,406.0297067000065,406.0297067000065,406.0134170000092,406.0297067000065,406.0297067000065,406.0297067000065,406.0297067000065,406.0297067000065,406.0297067000065,406.0297067000065,408.09430659998907,408.09430659998907,408.09430659998907,408.09430659998907,408.09430659998907,408.09430659998907,408.09430659998907,52,45,68,58,68,70,408.09430659998907,409.9622005999845,,,,,,,,,,,,,,,,,,,,３３６,f,２４,2023-05-21_11h34.13.883,RL,2022.2.5,60.03564916385562,
44,60,49,70,0,62,62,62,,,,,,,,,,,None,409.9622005999845,409.9622005999845,409.9622005999845,409.9622005999845,409.9622005999845,409.9622005999845,i,0.29413690001820214,410.27991949999705,410.27991949999705,410.27991949999705,410.27991949999705,410.27991949999705,410.27991949999705,410.57892870000796,412.09552780000377,412.09552780000377,412.09552780000377,412.09552780000377,412.09552780000377,412.09552780000377,412.09552780000377,412.09552780000377,412.09552780000377,412.09552780000377,412.09552780000377,412.09552780000377,412.09552780000377,412.09552780000377,413.91009659998235,413.91009659998235,413.91009659998235,413.91009659998235,413.91009659998235,413.91009659998235,413.91009659998235,49,44,70,60,70,70,413.91009659998235,415.4446250000037,,,,,,,,,,,,,,,,,,,,３３６,f,２４,2023-05-21_11h34.13.883,RL,2022.2.5,60.03564916385562,
43,55,49,66,0,63,63,63,,,,,,,,,,,None,415.4446250000037,415.4446250000037,415.4446250000037,415.4446250000037,415.4446250000037,415.4446250000037,i,0.2458131999883335,415.7144543000031,415.7144543000031,415.7144543000031,415.7144543000031,415.7144543000031,415.7144543000031,416.01120809998247,417.96092700000736,417.96092700000736,417.96092700000736,417.96092700000736,417.96092700000736,417.96092700000736,417.96092700000736,417.96092700000736,417.96092700000736,417.96092700000736,417.96092700000736,417.96092700000736,417.96092700000736,417.96092700000736,420.20887740000035,420.20887740000035,420.20887740000035,420.20887740000035,420.20887740000035,420.20887740000035,420.20887740000035,49,43,66,55,66,70,420.20887740000035,422.1930204000091,,,,,,,,,,,,,,,,,,,,３３６,f,２４,2023-05-21_11h34.13.883,RL,2022.2.5,60.03564916385562,
52,51,55,73,0,64,64,64,,,,,,,,,,,None,422.1930204000091,422.1930204000091,422.1930204000091,422.1930204000091,422.1930204000091,422.1930204000091,i,0.28644829997210763,422.51031169999624,422.51031169999624,422.51031169999624,422.51031169999624,422.51031169999624,422.51031169999624,422.7934364999819,424.5429771000054,424.5429771000054,424.5429771000054,424.5429771000054,424.5429771000054,424.5429771000054,424.52634179999586,424.5429771000054,424.5429771000054,424.5429771000054,424.5429771000054,424.5429771000054,424.5429771000054,424.5429771000054,426.57484270000714,426.57484270000714,426.57484270000714,426.57484270000714,426.57484270000714,426.57484270000714,426.57484270000714,55,52,73,51,73,70,426.57484270000714,428.2420061999874,,,,,,,,,,,,,,,,,,,,３３６,f,２４,2023-05-21_11h34.13.883,RL,2022.2.5,60.03564916385562,
56,52,53,65,0,65,65,65,,,,,,,,,,,None,428.2420061999874,428.2420061999874,428.2420061999874,428.2420061999874,428.2420061999874,428.2420061999874,i,0.28164139998261817,428.5426564000081,428.5426564000081,428.5426564000081,428.5426564000081,428.5426564000081,428.5426564000081,428.8257870999805,430.14249389999895,430.14249389999895,430.14249389999895,430.14249389999895,430.14249389999895,430.14249389999895,430.10879199998453,430.14249389999895,430.14249389999895,430.14249389999895,430.14249389999895,430.14249389999895,430.14249389999895,430.14249389999895,431.74041100000613,431.74041100000613,431.74041100000613,431.74041100000613,431.74041100000613,431.74041100000613,431.74041100000613,53,56,65,52,65,70,431.74041100000613,433.65822079998907,,,,,,,,,,,,,,,,,,,,３３６,f,２４,2023-05-21_11h34.13.883,RL,2022.2.5,60.03564916385562,
49,53,51,69,0,66,66,66,,,,,,,,,,,None,433.65822079998907,433.65822079998907,433.65822079998907,433.65822079998907,433.65822079998907,433.65822079998907,f,0.39546859997790307,434.07477020000806,434.07477020000806,434.07477020000806,434.07477020000806,434.07477020000806,434.07477020000806,434.3746744999953,435.50773240000126,435.50773240000126,435.50773240000126,435.50773240000126,435.50773240000126,435.50773240000126,435.50773240000126,435.50773240000126,435.50773240000126,435.50773240000126,435.50773240000126,435.50773240000126,435.50773240000126,435.50773240000126,436.93941130000167,436.93941130000167,436.93941130000167,436.93941130000167,436.93941130000167,436.93941130000167,436.93941130000167,51,49,69,53,51,70,436.93941130000167,438.5905547000002,,,,,,,,,,,,,,,,,,,,３３６,f,２４,2023-05-21_11h34.13.883,RL,2022.2.5,60.03564916385562,
54,56,49,79,0,67,67,67,,,,,,,,,,,None,438.5905547000002,438.5905547000002,438.5905547000002,438.5905547000002,438.5905547000002,438.5905547000002,i,0.24117890000343323,438.8585543000081,438.8585543000081,438.8585543000081,438.8585543000081,438.8585543000081,438.8585543000081,439.1575854999828,441.1405537999817,441.1405537999817,441.1405537999817,441.1405537999817,441.1405537999817,441.1405537999817,441.1405537999817,441.1405537999817,441.1405537999817,441.1405537999817,441.1405537999817,441.1405537999817,441.1405537999817,441.1405537999817,443.4219751000055,443.4219751000055,443.4219751000055,443.4219751000055,443.4219751000055,443.4219751000055,443.4219751000055,49,54,79,56,79,70,443.4219751000055,445.1062009999878,,,,,,,,,,,,,,,,,,,,３３６,f,２４,2023-05-21_11h34.13.883,RL,2022.2.5,60.03564916385562,
56,46,55,74,0,68,68,68,,,,,,,,,,,None,445.1062009999878,445.1062009999878,445.1062009999878,445.1062009999878,445.1062009999878,445.1062009999878,i,0.33456739998655394,445.4776748000004,445.4776748000004,445.4776748000004,445.4776748000004,445.4776748000004,445.4776748000004,445.7565679999825,446.7724092999997,446.7724092999997,446.7724092999997,446.7724092999997,446.7724092999997,446.7724092999997,446.7557904999994,446.7724092999997,446.7724092999997,446.7724092999997,446.7724092999997,446.7724092999997,446.7724092999997,446.7724092999997,448.05395339999814,448.05395339999814,448.05395339999814,448.05395339999814,448.05395339999814,448.05395339999814,448.05395339999814,55,56,74,46,74,70,448.05395339999814,449.97213129999,,,,,,,,,,,,,,,,,,,,３３６,f,２４,2023-05-21_11h34.13.883,RL,2022.2.5,60.03564916385562,
54,53,48,72,0,69,69,69,,,,,,,,,,,None,449.97213129999,449.97213129999,449.97213129999,449.97213129999,449.97213129999,449.97213129999,i,0.17884110001614317,450.1738834999851,450.1738834999851,450.1738834999851,450.1738834999851,450.1738834999851,450.1738834999851,450.47226779998164,451.50532140000723,451.50532140000723,451.50532140000723,451.50532140000723,451.50532140000723,451.50532140000723,451.50532140000723,451.50532140000723,451.50532140000723,451.50532140000723,451.50532140000723,451.50532140000723,451.50532140000723,451.50532140000723,452.83651039999677,452.83651039999677,452.83651039999677,452.83651039999677,452.83651039999677,452.83651039999677,452.83651039999677,48,54,72,53,72,70,452.83651039999677,454.63785569998436,,,,,,,,,,,,,,,,,,,,３３６,f,２４,2023-05-21_11h34.13.883,RL,2022.2.5,60.03564916385562,
50,53,49,72,0,70,70,70,,,,,,,,,,,None,454.63785569998436,454.63785569998436,454.63785569998436,454.63785569998436,454.63785569998436,454.63785569998436,i,0.4216665999847464,455.08792669998365,455.08792669998365,455.08792669998365,455.08792669998365,455.08792669998365,455.08792669998365,455.3876118999906,456.2708903999883,456.2708903999883,456.2708903999883,456.2708903999883,456.2708903999883,456.2708903999883,456.2708903999883,456.2708903999883,456.2708903999883,456.2708903999883,456.2708903999883,456.2708903999883,456.2708903999883,456.2708903999883,457.45270679998794,457.45270679998794,457.45270679998794,457.45270679998794,457.45270679998794,457.45270679998794,457.45270679998794,49,50,72,53,72,70,457.45270679998794,459.35361099999864,,,,,,,,,,,,,,,,,,,,３３６,f,２４,2023-05-21_11h34.13.883,RL,2022.2.5,60.03564916385562,
61,55,46,76,0,71,71,71,,,,,,,,,,,None,459.35361099999864,459.35361099999864,459.35361099999864,459.35361099999864,459.35361099999864,459.35361099999864,i,0.2579865999869071,459.63715409999713,459.63715409999713,459.63715409999713,459.63715409999713,459.63715409999713,459.63715409999713,459.92069659999106,461.46999099999084,461.46999099999084,461.46999099999084,461.46999099999084,461.46999099999084,461.46999099999084,461.4535526999971,461.46999099999084,461.46999099999084,461.46999099999084,461.46999099999084,461.46999099999084,461.46999099999084,461.46999099999084,463.30142249999335,463.30142249999335,463.30142249999335,463.30142249999335,463.30142249999335,463.30142249999335,463.30142249999335,46,61,76,55,76,70,463.30142249999335,464.8355290000036,,,,,,,,,,,,,,,,,,,,３３６,f,２４,2023-05-21_11h34.13.883,RL,2022.2.5,60.03564916385562,
50,54,45,77,0,72,72,72,,,,,,,,,,,None,464.8355290000036,464.8355290000036,464.8355290000036,464.8355290000036,464.8355290000036,464.8355290000036,i,0.3245885999931488,465.18851199999335,465.18851199999335,465.18851199999335,465.18851199999335,465.18851199999335,465.18851199999335,465.4694460000028,466.53623269998934,466.53623269998934,466.53623269998934,466.53623269998934,466.53623269998934,466.53623269998934,466.5026614999806,466.53623269998934,466.53623269998934,466.53623269998934,466.53623269998934,466.53623269998934,466.53623269998934,466.53623269998934,467.86718999998993,467.86718999998993,467.86718999998993,467.86718999998993,467.86718999998993,467.86718999998993,467.86718999998993,45,50,77,54,77,70,467.86718999998993,469.4686900000088,,,,,,,,,,,,,,,,,,,,３３６,f,２４,2023-05-21_11h34.13.883,RL,2022.2.5,60.03564916385562,
45,55,39,76,0,73,73,73,,,,,,,,,,,None,469.4686900000088,469.4686900000088,469.4686900000088,469.4686900000088,469.4686900000088,469.4686900000088,i,0.43277039998793043,469.93864139998914,469.93864139998914,469.93864139998914,469.93864139998914,469.93864139998914,469.93864139998914,470.2187574999989,471.5851830999891,471.5851830999891,471.5851830999891,471.5851830999891,471.5851830999891,471.5851830999891,471.56854499998735,471.5851830999891,471.5851830999891,471.5851830999891,471.5851830999891,471.5851830999891,471.5851830999891,471.5851830999891,473.23337830000673,473.23337830000673,473.23337830000673,473.23337830000673,473.23337830000673,473.23337830000673,473.23337830000673,39,45,76,55,76,70,473.23337830000673,475.06784519998473,,,,,,,,,,,,,,,,,,,,３３６,f,２４,2023-05-21_11h34.13.883,RL,2022.2.5,60.03564916385562,
48,58,35,68,0,74,74,74,,,,,,,,,,,None,475.06784519998473,475.06784519998473,475.06784519998473,475.06784519998473,475.06784519998473,475.06784519998473,i,0.30339369998546317,475.40125359999365,475.40125359999365,475.40125359999365,475.40125359999365,475.40125359999365,475.40125359999365,475.6842212000047,477.5005007,477.5005007,477.5005007,477.5005007,477.5005007,477.5005007,477.48437869999907,477.5005007,477.5005007,477.5005007,477.5005007,477.5005007,477.5005007,477.5005007,479.5989999999874,479.5989999999874,479.5989999999874,479.5989999999874,479.5989999999874,479.5989999999874,479.5989999999874,35,48,68,58,68,70,479.5989999999874,481.2484201999905,,,,,,,,,,,,,,,,,,,,３３６,f,２４,2023-05-21_11h34.13.883,RL,2022.2.5,60.03564916385562,
57,55,36,65,0,75,75,75,,,,,,,,,,,q,495.61357529999805,495.61357529999805,495.61357529999805,495.61357529999805,495.61357529999805,495.61357529999805,i,0.620714599994244,496.26543549998314,496.26543549998314,496.26543549998314,496.26543549998314,496.26543549998314,496.26543549998314,496.5639448000002,497.4472623000038,497.4472623000038,497.4472623000038,497.4472623000038,497.4472623000038,497.4472623000038,497.4472623000038,497.4472623000038,497.4472623000038,497.4472623000038,497.4472623000038,497.4472623000038,497.4472623000038,497.4472623000038,498.62867119998555,498.62867119998555,498.62867119998555,498.62867119998555,498.62867119998555,498.62867119998555,498.62867119998555,36,57,65,55,65,70,498.62867119998555,500.52957590000005,,,,,,,,,481.2484201999905,481.2484201999905,9.320243699999992,490.5985410999856,490.5985410999856,495.61357529999805,495.61357529999805,,,,,３３６,f,２４,2023-05-21_11h34.13.883,RL,2022.2.5,60.03564916385562,
54,55,39,59,0,76,76,76,,,,,,,,,,,None,500.52957590000005,500.52957590000005,500.52957590000005,500.52957590000005,500.52957590000005,500.52957590000005,i,0.261845800006995,500.8134209999989,500.8134209999989,500.8134209999989,500.8134209999989,500.8134209999989,500.8134209999989,501.09677129998454,502.5965881999873,502.5965881999873,502.5965881999873,502.5965881999873,502.5965881999873,502.5965881999873,502.57971009999164,502.5965881999873,502.5965881999873,502.5965881999873,502.5965881999873,502.5965881999873,502.5965881999873,502.5965881999873,504.3778064000071,504.3778064000071,504.3778064000071,504.3778064000071,504.3778064000071,504.3778064000071,504.3778064000071,39,54,59,55,59,70,504.3778064000071,506.1119856000005,,,,,,,,,,,,,,,,,,,,３３６,f,２４,2023-05-21_11h34.13.883,RL,2022.2.5,60.03564916385562,
57,59,46,63,0,77,77,77,,,,,,,,,,,None,506.1119856000005,506.1119856000005,506.1119856000005,506.1119856000005,506.1119856000005,506.1119856000005,i,0.27887539999210276,506.41421369998716,506.41421369998716,506.41421369998716,506.41421369998716,506.41421369998716,506.41421369998716,506.69570489999023,508.5115933000052,508.5115933000052,508.5115933000052,508.5115933000052,508.5115933000052,508.5115933000052,508.495299400005,508.5115933000052,508.5115933000052,508.5115933000052,508.5115933000052,508.5115933000052,508.5115933000052,508.5115933000052,510.61017359999823,510.61017359999823,510.61017359999823,510.61017359999823,510.61017359999823,510.61017359999823,510.61017359999823,46,57,63,59,63,70,510.61017359999823,512.4110556000087,,,,,,,,,,,,,,,,,,,,３３６,f,２４,2023-05-21_11h34.13.883,RL,2022.2.5,60.03564916385562,
47,74,41,56,0,78,78,78,,,,,,,,,,,None,512.4110556000087,512.4110556000087,512.4110556000087,512.4110556000087,512.4110556000087,512.4110556000087,i,0.2791209999995772,512.7127196000074,512.7127196000074,512.7127196000074,512.7127196000074,512.7127196000074,512.7127196000074,512.9946433999867,514.377533699997,514.377533699997,514.377533699997,514.377533699997,514.377533699997,514.377533699997,514.3610310000076,514.377533699997,514.377533699997,514.377533699997,514.377533699997,514.377533699997,514.377533699997,514.377533699997,516.0426995999878,516.0426995999878,516.0426995999878,516.0426995999878,516.0426995999878,516.0426995999878,516.0426995999878,41,47,56,74,56,70,516.0426995999878,517.7099275999935,,,,,,,,,,,,,,,,,,,,３３６,f,２４,2023-05-21_11h34.13.883,RL,2022.2.5,60.03564916385562,
48,69,40,65,0,79,79,79,,,,,,,,,,,None,517.7099275999935,517.7099275999935,517.7099275999935,517.7099275999935,517.7099275999935,517.7099275999935,i,0.3306430999946315,518.0604675000068,518.0604675000068,518.0604675000068,518.0604675000068,518.0604675000068,518.0604675000068,518.360180299991,520.2097559999966,520.2097559999966,520.2097559999966,520.2097559999966,520.2097559999966,520.2097559999966,520.2097559999966,520.2097559999966,520.2097559999966,520.2097559999966,520.2097559999966,520.2097559999966,520.2097559999966,520.2097559999966,522.35801299999,522.35801299999,522.35801299999,522.35801299999,522.35801299999,522.35801299999,522.35801299999,40,48,65,69,65,70,522.35801299999,523.8925399,,,,,,,,,,,,,,,,,,,,３３６,f,２４,2023-05-21_11h34.13.883,RL,2022.2.5,60.03564916385562,
55,79,44,65,0,80,80,80,,,,,,,,,,,None,523.8925399,523.8925399,523.8925399,523.8925399,523.8925399,523.8925399,f,0.24395139998523518,524.159778900008,524.159778900008,524.159778900008,524.159778900008,524.159778900008,524.159778900008,524.4425775999844,525.3758825999976,525.3758825999976,525.3758825999976,525.3758825999976,525.3758825999976,525.3758825999976,525.3592637999973,525.3758825999976,525.3758825999976,525.3758825999976,525.3758825999976,525.3758825999976,525.3758825999976,525.3758825999976,526.5905267999915,526.5905267999915,526.5905267999915,526.5905267999915,526.5905267999915,526.5905267999915,526.5905267999915,44,55,65,79,44,70,526.5905267999915,528.5079938999843,,,,,,,,,,,,,,,,,,,,３３６,f,２４,2023-05-21_11h34.13.883,RL,2022.2.5,60.03564916385562,
57,67,40,66,0,81,81,81,,,,,,,,,,,None,528.5079938999843,528.5079938999843,528.5079938999843,528.5079938999843,528.5079938999843,528.5079938999843,r,0.303102800011402,528.8437585000065,528.8437585000065,528.8437585000065,528.8437585000065,528.8437585000065,528.8437585000065,529.1249894000066,530.341337299993,530.341337299993,530.341337299993,530.341337299993,530.341337299993,530.341337299993,530.3247554999834,530.341337299993,530.341337299993,530.341337299993,530.341337299993,530.341337299993,530.341337299993,530.341337299993,531.839379299985,531.839379299985,531.839379299985,531.839379299985,531.839379299985,531.839379299985,531.839379299985,40,57,66,67,57,70,531.839379299985,533.406937199994,,,,,,,,,,,,,,,,,,,,３３６,f,２４,2023-05-21_11h34.13.883,RL,2022.2.5,60.03564916385562,
74,72,38,59,0,82,82,82,,,,,,,,,,,None,533.406937199994,533.406937199994,533.406937199994,533.406937199994,533.406937199994,533.406937199994,j,0.26545539998915046,533.6930844000017,533.6930844000017,533.6930844000017,533.6930844000017,533.6930844000017,533.6930844000017,533.974440799997,535.3739333999984,535.3739333999984,535.3739333999984,535.3739333999984,535.3739333999984,535.3739333999984,535.3573672999919,535.3739333999984,535.3739333999984,535.3739333999984,535.3739333999984,535.3739333999984,535.3739333999984,535.3739333999984,537.0554875999806,537.0554875999806,537.0554875999806,537.0554875999806,537.0554875999806,537.0554875999806,537.0554875999806,38,74,59,72,72,70,537.0554875999806,539.0395444000023,,,,,,,,,,,,,,,,,,,,３３６,f,２４,2023-05-21_11h34.13.883,RL,2022.2.5,60.03564916385562,
64,72,36,55,0,83,83,83,,,,,,,,,,,None,539.0395444000023,539.0395444000023,539.0395444000023,539.0395444000023,539.0395444000023,539.0395444000023,j,0.11861130001489073,539.1973227999988,539.1973227999988,539.1973227999988,539.1973227999988,539.1973227999988,539.1973227999988,539.4734251000045,540.3395933999855,540.3395933999855,540.3395933999855,540.3395933999855,540.3395933999855,540.3395933999855,540.3230680999986,540.3395933999855,540.3395933999855,540.3395933999855,540.3395933999855,540.3395933999855,540.3395933999855,540.3395933999855,541.488077499991,541.488077499991,541.488077499991,541.488077499991,541.488077499991,541.488077499991,541.488077499991,36,64,55,72,72,70,541.488077499991,543.2220817999914,,,,,,,,,,,,,,,,,,,,３３６,f,２４,2023-05-21_11h34.13.883,RL,2022.2.5,60.03564916385562,
57,73,34,54,0,84,84,84,,,,,,,,,,,None,543.2220817999914,543.2220817999914,543.2220817999914,543.2220817999914,543.2220817999914,543.2220817999914,j,0.26633419998688623,543.5063241999887,543.5063241999887,543.5063241999887,543.5063241999887,543.5063241999887,543.5063241999887,543.8057699000055,545.4056633999862,545.4056633999862,545.4056633999862,545.4056633999862,545.4056633999862,545.4056633999862,545.4056633999862,545.4056633999862,545.4056633999862,545.4056633999862,545.4056633999862,545.4056633999862,545.4056633999862,545.4056633999862,547.3034405999933,547.3034405999933,547.3034405999933,547.3034405999933,547.3034405999933,547.3034405999933,547.3034405999933,34,57,54,73,73,70,547.3034405999933,548.8712620000006,,,,,,,,,,,,,,,,,,,,３３６,f,２４,2023-05-21_11h34.13.883,RL,2022.2.5,60.03564916385562,
63,73,37,59,0,85,85,85,,,,,,,,,,,None,548.8712620000006,548.8712620000006,548.8712620000006,548.8712620000006,548.8712620000006,548.8712620000006,j,0.35752099999808706,549.2559537999914,549.2559537999914,549.2559537999914,549.2559537999914,549.2559537999914,549.2559537999914,549.5382138999994,551.2546197999909,551.2546197999909,551.2546197999909,551.2546197999909,551.2546197999909,551.2546197999909,551.2382022000093,551.2546197999909,551.2546197999909,551.2546197999909,551.2546197999909,551.2546197999909,551.2546197999909,551.2546197999909,553.2524856000091,553.2524856000091,553.2524856000091,553.2524856000091,553.2524856000091,553.2524856000091,553.2524856000091,37,63,59,73,73,70,553.2524856000091,554.9202300999896,,,,,,,,,,,,,,,,,,,,３３６,f,２４,2023-05-21_11h34.13.883,RL,2022.2.5,60.03564916385562,
63,69,28,59,0,86,86,86,,,,,,,,,,,None,554.9202300999896,554.9202300999896,554.9202300999896,554.9202300999896,554.9202300999896,554.9202300999896,j,0.44529030000558123,555.3885834999965,555.3885834999965,555.3885834999965,555.3885834999965,555.3885834999965,555.3885834999965,555.6870046999829,557.0533662999806,557.0533662999806,557.0533662999806,557.0533662999806,557.0533662999806,557.0533662999806,557.0533662999806,557.0533662999806,557.0533662999806,557.0533662999806,557.0533662999806,557.0533662999806,557.0533662999806,557.0533662999806,558.7183482999972,558.7183482999972,558.7183482999972,558.7183482999972,558.7183482999972,558.7183482999972,558.7183482999972,28,63,59,69,69,70,558.7183482999972,560.5389566000085,,,,,,,,,,,,,,,,,,,,３３６,f,２４,2023-05-21_11h34.13.883,RL,2022.2.5,60.03564916385562,
61,67,34,55,0,87,87,87,,,,,,,,,,,None,560.5389566000085,560.5389566000085,560.5389566000085,560.5389566000085,560.5389566000085,560.5389566000085,j,0.22576610001851805,560.7893806000066,560.7893806000066,560.7893806000066,560.7893806000066,560.7893806000066,560.7893806000066,561.0693027999951,562.0857660000038,562.0857660000038,562.0857660000038,562.0857660000038,562.0857660000038,562.0857660000038,562.0695996999857,562.0857660000038,562.0857660000038,562.0857660000038,562.0857660000038,562.0857660000038,562.0857660000038,562.0857660000038,563.3847326999821,563.3847326999821,563.3847326999821,563.3847326999821,563.3847326999821,563.3847326999821,563.3847326999821,34,61,55,67,67,70,563.3847326999821,565.1183412999962,,,,,,,,,,,,,,,,,,,,３３６,f,２４,2023-05-21_11h34.13.883,RL,2022.2.5,60.03564916385562,
62,60,31,65,0,88,88,88,,,,,,,,,,,None,565.1183412999962,565.1183412999962,565.1183412999962,565.1183412999962,565.1183412999962,565.1183412999962,j,0.17850880001788028,565.3192118000006,565.3192118000006,565.3192118000006,565.3192118000006,565.3192118000006,565.3192118000006,565.6023952999967,567.4350976999849,567.4350976999849,567.4350976999849,567.4350976999849,567.4350976999849,567.4350976999849,567.4181191999814,567.4350976999849,567.4350976999849,567.4350976999849,567.4350976999849,567.4350976999849,567.4350976999849,567.4350976999849,569.5494748000056,569.5494748000056,569.5494748000056,569.5494748000056,569.5494748000056,569.5494748000056,569.5494748000056,31,62,65,60,60,70,569.5494748000056,571.1838898999849,,,,,,,,,,,,,,,,,,,,３３６,f,２４,2023-05-21_11h34.13.883,RL,2022.2.5,60.03564916385562,
59,59,39,59,0,89,89,89,,,,,,,,,,,None,571.1838898999849,571.1838898999849,571.1838898999849,571.1838898999849,571.1838898999849,571.1838898999849,j,0.22157720001996495,571.4390970999957,571.4390970999957,571.4390970999957,571.4390970999957,571.4390970999957,571.4390970999957,571.7344314999937,572.8178374999843,572.8178374999843,572.8178374999843,572.8178374999843,572.8178374999843,572.8178374999843,572.8178374999843,572.8178374999843,572.8178374999843,572.8178374999843,572.8178374999843,572.8178374999843,572.8178374999843,572.8178374999843,574.1987164999882,574.1987164999882,574.1987164999882,574.1987164999882,574.1987164999882,574.1987164999882,574.1987164999882,39,59,59,59,59,70,574.1987164999882,575.9165669000067,,,,,,,,,,,,,,,,,,,,３３６,f,２４,2023-05-21_11h34.13.883,RL,2022.2.5,60.03564916385562,
59,64,27,67,0,90,90,90,,,,,,,,,,,None,575.9165669000067,575.9165669000067,575.9165669000067,575.9165669000067,575.9165669000067,575.9165669000067,j,0.35179660000721924,576.3063034999941,576.3063034999941,576.3063034999941,576.3063034999941,576.3063034999941,576.3063034999941,576.5832909999881,578.0665432999958,578.0665432999958,578.0665432999958,578.0665432999958,578.0665432999958,578.0665432999958,578.0334546999948,578.0665432999958,578.0665432999958,578.0665432999958,578.0665432999958,578.0665432999958,578.0665432999958,578.0665432999958,579.8145005999831,579.8145005999831,579.8145005999831,579.8145005999831,579.8145005999831,579.8145005999831,579.8145005999831,27,59,67,64,64,70,579.8145005999831,581.665557100001,,,,,,,,,,,,,,,,,,,,３３６,f,２４,2023-05-21_11h34.13.883,RL,2022.2.5,60.03564916385562,
55,62,38,57,0,91,91,91,,,,,,,,,,,None,581.665557100001,581.665557100001,581.665557100001,581.665557100001,581.665557100001,581.665557100001,j,0.31639419999555685,581.9992462999944,581.9992462999944,581.9992462999944,581.9992462999944,581.9992462999944,581.9992462999944,582.2825329999905,583.8153866000066,583.8153866000066,583.8153866000066,583.8153866000066,583.8153866000066,583.8153866000066,583.7989067999879,583.8153866000066,583.8153866000066,583.8153866000066,583.8153866000066,583.8153866000066,583.8153866000066,583.8153866000066,585.6304292999848,585.6304292999848,585.6304292999848,585.6304292999848,585.6304292999848,585.6304292999848,585.6304292999848,38,55,57,62,62,70,585.6304292999848,587.197931600007,,,,,,,,,,,,,,,,,,,,３３６,f,２４,2023-05-21_11h34.13.883,RL,2022.2.5,60.03564916385562,
58,66,36,63,0,92,92,92,,,,,,,,,,,None,587.197931600007,587.197931600007,587.197931600007,587.197931600007,587.197931600007,587.197931600007,r,0.09813570001279004,587.315177099983,587.315177099983,587.315177099983,587.315177099983,587.315177099983,587.315177099983,587.6148033000063,589.0146747999825,589.0146747999825,589.0146747999825,589.0146747999825,589.0146747999825,589.0146747999825,589.0146747999825,589.0146747999825,589.0146747999825,589.0146747999825,589.0146747999825,589.0146747999825,589.0146747999825,589.0146747999825,590.7128883999831,590.7128883999831,590.7128883999831,590.7128883999831,590.7128883999831,590.7128883999831,590.7128883999831,36,58,63,66,58,70,590.7128883999831,592.2637063000002,,,,,,,,,,,,,,,,,,,,３３６,f,２４,2023-05-21_11h34.13.883,RL,2022.2.5,60.03564916385562,
48,69,38,54,0,93,93,93,,,,,,,,,,,None,592.2637063000002,592.2637063000002,592.2637063000002,592.2637063000002,592.2637063000002,592.2637063000002,j,0.11709020001580939,592.3975812999997,592.3975812999997,592.3975812999997,592.3975812999997,592.3975812999997,592.3975812999997,592.6971943999815,593.730129899981,593.730129899981,593.730129899981,593.730129899981,593.730129899981,593.730129899981,593.730129899981,593.730129899981,593.730129899981,593.730129899981,593.730129899981,593.730129899981,593.730129899981,593.730129899981,595.0619034999982,595.0619034999982,595.0619034999982,595.0619034999982,595.0619034999982,595.0619034999982,595.0619034999982,38,48,54,69,69,70,595.0619034999982,596.9961227999884,,,,,,,,,,,,,,,,,,,,３３６,f,２４,2023-05-21_11h34.13.883,RL,2022.2.5,60.03564916385562,
60,70,35,57,0,94,94,94,,,,,,,,,,,None,596.9961227999884,596.9961227999884,596.9961227999884,596.9961227999884,596.9961227999884,596.9961227999884,i,0.3060062000004109,597.3297432999825,597.3297432999825,597.3297432999825,597.3297432999825,597.3297432999825,597.3297432999825,597.6133132999821,598.9627852999838,598.9627852999838,598.9627852999838,598.9627852999838,598.9627852999838,598.9627852999838,598.9464341999847,598.9627852999838,598.9627852999838,598.9627852999838,598.9627852999838,598.9627852999838,598.9627852999838,598.9627852999838,600.5944327999896,600.5944327999896,600.5944327999896,600.5944327999896,600.5944327999896,600.5944327999896,600.5944327999896,35,60,57,70,57,70,600.5944327999896,602.2784457999805,,,,,,,,,,,,,,,,,,,,３３６,f,２４,2023-05-21_11h34.13.883,RL,2022.2.5,60.03564916385562,
54,64,36,59,0,95,95,95,,,,,,,,,,,None,602.2784457999805,602.2784457999805,602.2784457999805,602.2784457999805,602.2784457999805,602.2784457999805,j,0.2672849000082351,602.5813600999827,602.5813600999827,602.5813600999827,602.5813600999827,602.5813600999827,602.5813600999827,602.8621543000045,604.1949184999976,604.1949184999976,604.1949184999976,604.1949184999976,604.1949184999976,604.1949184999976,604.178949299996,604.1949184999976,604.1949184999976,604.1949184999976,604.1949184999976,604.1949184999976,604.1949184999976,604.1949184999976,605.809906999988,605.809906999988,605.809906999988,605.809906999988,605.809906999988,605.809906999988,605.809906999988,36,54,59,64,64,70,605.809906999988,607.5446052000043,,,,,,,,,,,,,,,,,,,,３３６,f,２４,2023-05-21_11h34.13.883,RL,2022.2.5,60.03564916385562,
50,68,41,56,0,96,96,96,,,,,,,,,,,None,607.5446052000043,607.5446052000043,607.5446052000043,607.5446052000043,607.5446052000043,607.5446052000043,j,0.4208601000136696,607.9966645999812,607.9966645999812,607.9966645999812,607.9966645999812,607.9966645999812,607.9966645999812,608.2777500000084,610.0442094999889,610.0442094999889,610.0442094999889,610.0442094999889,610.0442094999889,610.0442094999889,610.0274624000012,610.0442094999889,610.0442094999889,610.0442094999889,610.0442094999889,610.0442094999889,610.0442094999889,610.0442094999889,612.092562100006,612.092562100006,612.092562100006,612.092562100006,612.092562100006,612.092562100006,612.092562100006,41,50,56,68,68,70,612.092562100006,614.0931314000045,,,,,,,,,,,,,,,,,,,,３３６,f,２４,2023-05-21_11h34.13.883,RL,2022.2.5,60.03564916385562,
56,68,37,54,0,97,97,97,,,,,,,,,,,None,614.0931314000045,614.0931314000045,614.0931314000045,614.0931314000045,614.0931314000045,614.0931314000045,j,0.26095470000291243,614.3769882000051,614.3769882000051,614.3769882000051,614.3769882000051,614.3769882000051,614.3769882000051,614.6602685999824,615.5264113000012,615.5264113000012,615.5264113000012,615.5264113000012,615.5264113000012,615.5264113000012,615.509748499986,615.5264113000012,615.5264113000012,615.5264113000012,615.5264113000012,615.5264113000012,615.5264113000012,615.5264113000012,616.6744127999991,616.6744127999991,616.6744127999991,616.6744127999991,616.6744127999991,616.6744127999991,616.6744127999991,37,56,54,68,68,70,616.6744127999991,618.592630500003,,,,,,,,,,,,,,,,,,,,３３６,f,２４,2023-05-21_11h34.13.883,RL,2022.2.5,60.03564916385562,
52,74,49,53,0,98,98,98,,,,,,,,,,,None,618.592630500003,618.592630500003,618.592630500003,618.592630500003,618.592630500003,618.592630500003,j,0.47741070002666675,619.0952314999886,619.0952314999886,619.0952314999886,619.0952314999886,619.0952314999886,619.0952314999886,619.3761553000077,620.2094767999952,620.2094767999952,620.2094767999952,620.2094767999952,620.2094767999952,620.2094767999952,620.1923630999809,620.2094767999952,620.2094767999952,620.2094767999952,620.2094767999952,620.2094767999952,620.2094767999952,620.2094767999952,621.3237544999865,621.3237544999865,621.3237544999865,621.3237544999865,621.3237544999865,621.3237544999865,621.3237544999865,49,52,53,74,74,70,621.3237544999865,623.0083863000036,,,,,,,,,,,,,,,,,,,,３３６,f,２４,2023-05-21_11h34.13.883,RL,2022.2.5,60.03564916385562,
55,64,37,54,0,99,99,99,,,,,,,,,,,None,623.0083863000036,623.0083863000036,623.0083863000036,623.0083863000036,623.0083863000036,623.0083863000036,j,0.35446619999129325,623.3919088999974,623.3919088999974,623.3919088999974,623.3919088999974,623.3919088999974,623.3919088999974,623.6917640999891,625.174741099996,625.174741099996,625.174741099996,625.174741099996,625.174741099996,625.174741099996,625.174741099996,625.174741099996,625.174741099996,625.174741099996,625.174741099996,625.174741099996,625.174741099996,625.174741099996,626.9566166999866,626.9566166999866,626.9566166999866,626.9566166999866,626.9566166999866,626.9566166999866,626.9566166999866,37,55,54,64,64,70,626.9566166999866,628.6575540000049,,,,,,,,,,,,,,,,,,,,３３６,f,２４,2023-05-21_11h34.13.883,RL,2022.2.5,60.03564916385562,
59,78,48,49,0,100,100,100,,,,,,,,,,,None,628.6575540000049,628.6575540000049,628.6575540000049,628.6575540000049,628.6575540000049,628.6575540000049,j,0.34971090001636185,629.0246482999937,629.0246482999937,629.0246482999937,629.0246482999937,629.0246482999937,629.0246482999937,629.3242451999977,630.957061699999,630.957061699999,630.957061699999,630.957061699999,630.957061699999,630.957061699999,630.957061699999,630.957061699999,630.957061699999,630.957061699999,630.957061699999,630.957061699999,630.957061699999,630.957061699999,632.8883327000076,632.8883327000076,632.8883327000076,632.8883327000076,632.8883327000076,632.8883327000076,632.8883327000076,48,59,49,78,78,70,632.8883327000076,634.6724729999842,,,,,,,,,,,,,,,,,,,,３３６,f,２４,2023-05-21_11h34.13.883,RL,2022.2.5,60.03564916385562,
45,77,33,48,0,101,101,101,,,,,,,,,,,None,634.6724729999842,634.6724729999842,634.6724729999842,634.6724729999842,634.6724729999842,634.6724729999842,j,0.29711220000172034,634.9913281000045,634.9913281000045,634.9913281000045,634.9913281000045,634.9913281000045,634.9913281000045,635.2895900000003,637.2059901999892,637.2059901999892,637.2059901999892,637.2059901999892,637.2059901999892,637.2059901999892,637.2059901999892,637.2059901999892,637.2059901999892,637.2059901999892,637.2059901999892,637.2059901999892,637.2059901999892,637.2059901999892,639.4208354000002,639.4208354000002,639.4208354000002,639.4208354000002,639.4208354000002,639.4208354000002,639.4208354000002,33,45,48,77,77,70,639.4208354000002,641.0717463000037,,,,,,,,,,,,,,,,,,,,３３６,f,２４,2023-05-21_11h34.13.883,RL,2022.2.5,60.03564916385562,
56,57,38,37,0,102,102,102,,,,,,,,,,,None,641.0717463000037,641.0717463000037,641.0717463000037,641.0717463000037,641.0717463000037,641.0717463000037,j,0.2904610999976285,641.3917063999979,641.3917063999979,641.3917063999979,641.3917063999979,641.3917063999979,641.3917063999979,641.6885480000055,643.204922600009,643.204922600009,643.204922600009,643.204922600009,643.204922600009,643.204922600009,643.188532900007,643.204922600009,643.204922600009,643.204922600009,643.204922600009,643.204922600009,643.204922600009,643.204922600009,645.0031652000034,645.0031652000034,645.0031652000034,645.0031652000034,645.0031652000034,645.0031652000034,645.0031652000034,38,56,37,57,57,70,645.0031652000034,646.6041149999946,,,,,,,,,,,,,,,,,,,,３３６,f,２４,2023-05-21_11h34.13.883,RL,2022.2.5,60.03564916385562,
62,65,40,38,0,103,103,103,,,,,,,,,,,None,646.6041149999946,646.6041149999946,646.6041149999946,646.6041149999946,646.6041149999946,646.6041149999946,j,0.31868139997823164,646.9646720000019,646.9646720000019,646.9646720000019,646.9646720000019,646.9646720000019,646.9646720000019,647.2379059999948,648.6873076999909,648.6873076999909,648.6873076999909,648.6873076999909,648.6873076999909,648.6873076999909,648.6706296000048,648.6873076999909,648.6873076999909,648.6873076999909,648.6873076999909,648.6873076999909,648.6873076999909,648.6873076999909,650.4188911000092,650.4188911000092,650.4188911000092,650.4188911000092,650.4188911000092,650.4188911000092,650.4188911000092,40,62,38,65,65,70,650.4188911000092,652.2201567000011,,,,,,,,,,,,,,,,,,,,３３６,f,２４,2023-05-21_11h34.13.883,RL,2022.2.5,60.03564916385562,
61,61,43,41,0,104,104,104,,,,,,,,,,,None,652.2201567000011,652.2201567000011,652.2201567000011,652.2201567000011,652.2201567000011,652.2201567000011,j,0.36696039998787455,652.6257323999889,652.6257323999889,652.6257323999889,652.6257323999889,652.6257323999889,652.6257323999889,652.920326899999,653.8364821999858,653.8364821999858,653.8364821999858,653.8364821999858,653.8364821999858,653.8364821999858,653.8364821999858,653.8364821999858,653.8364821999858,653.8364821999858,653.8364821999858,653.8364821999858,653.8364821999858,653.8364821999858,655.0513706000056,655.0513706000056,655.0513706000056,655.0513706000056,655.0513706000056,655.0513706000056,655.0513706000056,43,61,41,61,61,70,655.0513706000056,656.6526569999987,,,,,,,,,,,,,,,,,,,,３３６,f,２４,2023-05-21_11h34.13.883,RL,2022.2.5,60.03564916385562,
69,66,38,41,0,105,105,105,,,,,,,,,,,None,656.6526569999987,656.6526569999987,656.6526569999987,656.6526569999987,656.6526569999987,656.6526569999987,j,0.3709845000121277,657.0535682000045,657.0535682000045,657.0535682000045,657.0535682000045,657.0535682000045,657.0535682000045,657.3361187999835,658.3022822999919,658.3022822999919,658.3022822999919,658.3022822999919,658.3022822999919,658.3022822999919,658.285674099985,658.3022822999919,658.3022822999919,658.3022822999919,658.3022822999919,658.3022822999919,658.3022822999919,658.3022822999919,659.5504037000064,659.5504037000064,659.5504037000064,659.5504037000064,659.5504037000064,659.5504037000064,659.5504037000064,38,69,41,66,66,70,659.5504037000064,661.468254300009,,,,,,,,,,,,,,,,,,,,３３６,f,２４,2023-05-21_11h34.13.883,RL,2022.2.5,60.03564916385562,
61,55,28,45,0,106,106,106,,,,,,,,,,,None,661.468254300009,661.468254300009,661.468254300009,661.468254300009,661.468254300009,661.468254300009,j,0.24334230000386015,661.7365377999959,661.7365377999959,661.7365377999959,661.7365377999959,661.7365377999959,661.7365377999959,662.0357175999961,663.4352736999863,663.4352736999863,663.4352736999863,663.4352736999863,663.4352736999863,663.4352736999863,663.4352736999863,663.4352736999863,663.4352736999863,663.4352736999863,663.4352736999863,663.4352736999863,663.4352736999863,663.4352736999863,665.1327218000079,665.1327218000079,665.1327218000079,665.1327218000079,665.1327218000079,665.1327218000079,665.1327218000079,28,61,45,55,55,70,665.1327218000079,667.100455399981,,,,,,,,,,,,,,,,,,,,３３６,f,２４,2023-05-21_11h34.13.883,RL,2022.2.5,60.03564916385562,
65,53,46,49,0,107,107,107,,,,,,,,,,,None,667.100455399981,667.100455399981,667.100455399981,667.100455399981,667.100455399981,667.100455399981,j,0.29428199998801574,667.417586399999,667.417586399999,667.417586399999,667.417586399999,667.417586399999,667.417586399999,667.7009058999829,669.6837201000017,669.6837201000017,669.6837201000017,669.6837201000017,669.6837201000017,669.6837201000017,669.6673332999926,669.6837201000017,669.6837201000017,669.6837201000017,669.6837201000017,669.6837201000017,669.6837201000017,669.6837201000017,671.9481138999981,671.9481138999981,671.9481138999981,671.9481138999981,671.9481138999981,671.9481138999981,671.9481138999981,46,65,49,53,53,70,671.9481138999981,673.6330631999881,,,,,,,,,,,,,,,,,,,,３３６,f,２４,2023-05-21_11h34.13.883,RL,2022.2.5,60.03564916385562,
67,48,42,46,0,108,108,108,,,,,,,,,,,None,673.6330631999881,673.6330631999881,673.6330631999881,673.6330631999881,673.6330631999881,673.6330631999881,i,0.2944740999955684,673.9498669999884,673.9498669999884,673.9498669999884,673.9498669999884,673.9498669999884,673.9498669999884,674.2335619000078,675.7492364000063,675.7492364000063,675.7492364000063,675.7492364000063,675.7492364000063,675.7492364000063,675.7492364000063,675.7492364000063,675.7492364000063,675.7492364000063,675.7492364000063,675.7492364000063,675.7492364000063,675.7492364000063,677.547338400007,677.547338400007,677.547338400007,677.547338400007,677.547338400007,677.547338400007,677.547338400007,42,67,46,48,46,70,677.547338400007,679.2982101999805,,,,,,,,,,,,,,,,,,,,３３６,f,２４,2023-05-21_11h34.13.883,RL,2022.2.5,60.03564916385562,
65,55,41,42,0,109,109,109,,,,,,,,,,,None,679.2982101999805,679.2982101999805,679.2982101999805,679.2982101999805,679.2982101999805,679.2982101999805,r,0.34465240000281483,679.6655892999843,679.6655892999843,679.6655892999843,679.6655892999843,679.6655892999843,679.6655892999843,679.9487305000075,680.881850899983,680.881850899983,680.881850899983,680.881850899983,680.881850899983,680.881850899983,680.8658442999877,680.881850899983,680.881850899983,680.881850899983,680.881850899983,680.881850899983,680.881850899983,680.881850899983,682.0968378999969,682.0968378999969,682.0968378999969,682.0968378999969,682.0968378999969,682.0968378999969,682.0968378999969,41,65,42,55,65,70,682.0968378999969,684.0478463000036,,,,,,,,,,,,,,,,,,,,３３６,f,２４,2023-05-21_11h34.13.883,RL,2022.2.5,60.03564916385562,
61,48,45,48,0,110,110,110,,,,,,,,,,,None,684.0478463000036,684.0478463000036,684.0478463000036,684.0478463000036,684.0478463000036,684.0478463000036,r,0.3302752000163309,684.4008786999912,684.4008786999912,684.4008786999912,684.4008786999912,684.4008786999912,684.4008786999912,684.6981495000073,686.0975396999856,686.0975396999856,686.0975396999856,686.0975396999856,686.0975396999856,686.0975396999856,686.0809630999865,686.0975396999856,686.0975396999856,686.0975396999856,686.0975396999856,686.0975396999856,686.0975396999856,686.0975396999856,687.7788298999949,687.7788298999949,687.7788298999949,687.7788298999949,687.7788298999949,687.7788298999949,687.7788298999949,45,61,48,48,61,70,687.7788298999949,689.3470779999916,,,,,,,,,,,,,,,,,,,,３３６,f,２４,2023-05-21_11h34.13.883,RL,2022.2.5,60.03564916385562,
74,54,36,44,0,111,111,111,,,,,,,,,,,None,689.3470779999916,689.3470779999916,689.3470779999916,689.3470779999916,689.3470779999916,689.3470779999916,r,0.30123339997953735,689.681163900008,689.681163900008,689.681163900008,689.681163900008,689.681163900008,689.681163900008,689.9634714999993,691.8131162000063,691.8131162000063,691.8131162000063,691.8131162000063,691.8131162000063,691.8131162000063,691.796595199994,691.8131162000063,691.8131162000063,691.8131162000063,691.8131162000063,691.8131162000063,691.8131162000063,691.8131162000063,693.9449553999875,693.9449553999875,693.9449553999875,693.9449553999875,693.9449553999875,693.9449553999875,693.9449553999875,36,74,44,54,74,70,693.9449553999875,695.8788971999893,,,,,,,,,,,,,,,,,,,,３３６,f,２４,2023-05-21_11h34.13.883,RL,2022.2.5,60.03564916385562,
76,65,31,44,0,112,112,112,,,,,,,,,,,None,695.8788971999893,695.8788971999893,695.8788971999893,695.8788971999893,695.8788971999893,695.8788971999893,r,0.333239900006447,696.2292690000031,696.2292690000031,696.2292690000031,696.2292690000031,696.2292690000031,696.2292690000031,696.5293645999918,698.4620711999887,698.4620711999887,698.4620711999887,698.4620711999887,698.4620711999887,698.4620711999887,698.4620711999887,698.4620711999887,698.4620711999887,698.4620711999887,698.4620711999887,698.4620711999887,698.4620711999887,698.4620711999887,700.6932700999896,700.6932700999896,700.6932700999896,700.6932700999896,700.6932700999896,700.6932700999896,700.6932700999896,31,76,44,65,76,70,700.6932700999896,702.5775775999937,,,,,,,,,,,,,,,,,,,,３３６,f,２４,2023-05-21_11h34.13.883,RL,2022.2.5,60.03564916385562,
75,55,36,52,0,113,113,113,,,,,,,,,,,None,702.5775775999937,702.5775775999937,702.5775775999937,702.5775775999937,702.5775775999937,702.5775775999937,r,0.3945520000124816,702.994895699987,702.994895699987,702.994895699987,702.994895699987,702.994895699987,702.994895699987,703.2779766999884,704.1281109999982,704.1281109999982,704.1281109999982,704.1281109999982,704.1281109999982,704.1281109999982,704.1116876000015,704.1281109999982,704.1281109999982,704.1281109999982,704.1281109999982,704.1281109999982,704.1281109999982,704.1281109999982,705.2589230999874,705.2589230999874,705.2589230999874,705.2589230999874,705.2589230999874,705.2589230999874,705.2589230999874,36,75,52,55,75,70,705.2589230999874,707.0601883000054,,,,,,,,,,,,,,,,,,,,３３６,f,２４,2023-05-21_11h34.13.883,RL,2022.2.5,60.03564916385562,
72,61,41,49,0,114,114,114,,,,,,,,,,,None,707.0601883000054,707.0601883000054,707.0601883000054,707.0601883000054,707.0601883000054,707.0601883000054,r,0.3128697999927681,707.3950263999868,707.3950263999868,707.3950263999868,707.3950263999868,707.3950263999868,707.3950263999868,707.6943963000085,708.9768538000062,708.9768538000062,708.9768538000062,708.9768538000062,708.9768538000062,708.9768538000062,708.9768538000062,708.9768538000062,708.9768538000062,708.9768538000062,708.9768538000062,708.9768538000062,708.9768538000062,708.9768538000062,710.5583011999843,710.5583011999843,710.5583011999843,710.5583011999843,710.5583011999843,710.5583011999843,710.5583011999843,41,72,49,61,72,70,710.5583011999843,712.5259801000066,,,,,,,,,,,,,,,,,,,,３３６,f,２４,2023-05-21_11h34.13.883,RL,2022.2.5,60.03564916385562,
66,51,33,45,0,115,115,115,,,,,,,,,,,None,712.5259801000066,712.5259801000066,712.5259801000066,712.5259801000066,712.5259801000066,712.5259801000066,r,0.030864100001053885,712.5802133999823,712.5802133999823,712.5802133999823,712.5802133999823,712.5802133999823,712.5802133999823,712.860256999993,714.6761087999912,714.6761087999912,714.6761087999912,714.6761087999912,714.6761087999912,714.6761087999912,714.6596871000074,714.6761087999912,714.6761087999912,714.6761087999912,714.6761087999912,714.6761087999912,714.6761087999912,714.6761087999912,716.773993699986,716.773993699986,716.773993699986,716.773993699986,716.773993699986,716.773993699986,716.773993699986,33,66,45,51,66,70,716.773993699986,718.5082222000055,,,,,,,,,,,,,,,,,,,,３３６,f,２４,2023-05-21_11h34.13.883,RL,2022.2.5,60.03564916385562,
69,59,34,34,0,116,116,116,,,,,,,,,,,None,718.5082222000055,718.5082222000055,718.5082222000055,718.5082222000055,718.5082222000055,718.5082222000055,r,0.30426230002194643,718.8423438000027,718.8423438000027,718.8423438000027,718.8423438000027,718.8423438000027,718.8423438000027,719.1257519999926,721.1249723999936,721.1249723999936,721.1249723999936,721.1249723999936,721.1249723999936,721.1249723999936,721.1081707999983,721.1249723999936,721.1249723999936,721.1249723999936,721.1249723999936,721.1249723999936,721.1249723999936,721.1249723999936,723.4059173999995,723.4059173999995,723.4059173999995,723.4059173999995,723.4059173999995,723.4059173999995,723.4059173999995,34,69,34,59,69,70,723.4059173999995,725.3234563999868,,,,,,,,,,,,,,,,,,,,３３６,f,２４,2023-05-21_11h34.13.883,RL,2022.2.5,60.03564916385562,
74,63,31,32,0,117,117,117,,,,,,,,,,,None,725.3234563999868,725.3234563999868,725.3234563999868,725.3234563999868,725.3234563999868,725.3234563999868,r,0.37603509999462403,725.7250358999881,725.7250358999881,725.7250358999881,725.7250358999881,725.7250358999881,725.7250358999881,726.0239567999961,727.1238765000016,727.1238765000016,727.1238765000016,727.1238765000016,727.1238765000016,727.1238765000016,727.1238765000016,727.1238765000016,727.1238765000016,727.1238765000016,727.1238765000016,727.1238765000016,727.1238765000016,727.1238765000016,728.5220535999979,728.5220535999979,728.5220535999979,728.5220535999979,728.5220535999979,728.5220535999979,728.5220535999979,31,74,32,63,74,70,728.5220535999979,730.1229710000043,,,,,,,,,,,,,,,,,,,,３３６,f,２４,2023-05-21_11h34.13.883,RL,2022.2.5,60.03564916385562,
65,53,34,30,0,118,118,118,,,,,,,,,,,None,730.1229710000043,730.1229710000043,730.1229710000043,730.1229710000043,730.1229710000043,730.1229710000043,r,0.47534589999122545,730.6269688000029,730.6269688000029,730.6269688000029,730.6269688000029,730.6269688000029,730.6269688000029,730.923487299995,732.4728477000026,732.4728477000026,732.4728477000026,732.4728477000026,732.4728477000026,732.4728477000026,732.4728477000026,732.4728477000026,732.4728477000026,732.4728477000026,732.4728477000026,732.4728477000026,732.4728477000026,732.4728477000026,734.3206434999884,734.3206434999884,734.3206434999884,734.3206434999884,734.3206434999884,734.3206434999884,734.3206434999884,34,65,30,53,65,70,734.3206434999884,736.0389547999948,,,,,,,,,,,,,,,,,,,,３３６,f,２４,2023-05-21_11h34.13.883,RL,2022.2.5,60.03564916385562,
58,61,26,30,0,119,119,119,,,,,,,,,,,None,736.0389547999948,736.0389547999948,736.0389547999948,736.0389547999948,736.0389547999948,736.0389547999948,r,0.39536409999709576,736.4597914000042,736.4597914000042,736.4597914000042,736.4597914000042,736.4597914000042,736.4597914000042,736.7557515999943,737.7055000999826,737.7055000999826,737.7055000999826,737.7055000999826,737.7055000999826,737.7055000999826,737.7055000999826,737.7055000999826,737.7055000999826,737.7055000999826,737.7055000999826,737.7055000999826,737.7055000999826,737.7055000999826,738.9536530000041,738.9536530000041,738.9536530000041,738.9536530000041,738.9536530000041,738.9536530000041,738.9536530000041,26,58,30,61,58,70,738.9536530000041,740.4709088999953,,,,,,,,,,,,,,,,,,,,３３６,f,２４,2023-05-21_11h34.13.883,RL,2022.2.5,60.03564916385562,
