arm1,arm2,arm3,arm4,trials.thisRepN,trials.thisTrialN,trials.thisN,trials.thisIndex,instru_img1.started,instru_resp.started,instru_resp.keys,instru_resp.rt,image_2.started,text_2.started,image_2.stopped,text_2.stopped,fixbefore_2.started,fixbefore_2.stopped,rest_response.keys,red.started,green.started,yellow.started,blue.started,choose_bandit.started,Fixation.started,choose_bandit.keys,choose_bandit.rt,black.started,red_2.started,green_2.started,yellow_2.started,blue_2.started,fixation_2.started,docs.started,black.stopped,red_2.stopped,green_2.stopped,yellow_2.stopped,blue_2.stopped,fixation_2.stopped,docs.stopped,black_com.started,reward_sub.started,reward__sub.started,red_compare.started,green_com.started,yellow_com.started,blue_com.started,black_com.stopped,reward_sub.stopped,reward__sub.stopped,red_compare.stopped,green_com.stopped,yellow_com.stopped,blue_com.stopped,rewardred,rewardyellow,rewardblue,rewardgreen,subchoose,expectation,intertrialfix.started,intertrialfix.stopped,rest_image.started,rest_response.started,rest_response.rt,image_expect_after.started,text_exp_after.started,image_expect_after.stopped,text_exp_after.stopped,red.stopped,green.stopped,yellow.stopped,blue.stopped,choose_bandit.stopped,Fixation.stopped,bigx.started,bigx.stopped,image.started,key_resp.started,key_resp.keys,key_resp.rt,participant,Gender,Age,date,expName,psychopyVersion,frameRate,
,,,,,,,,15.323123999987729,15.323123999987729,space,5.556507300003432,,,,,,,,,,,,,,,,,,,,,,,,,,,,,,,,,,,,,,,,,,,,,,,,,,,,,,,,,,,,,,,,,,,,,,,３３７,f,２９,2023-05-21_12h05.19.207,RL,2022.2.5,59.9940845766311,
29,37,64,55,0,0,0,0,,,,,20.895123299997067,20.895123299997067,25.894335899996804,25.894335899996804,25.894335899996804,26.900108599977102,None,26.900108599977102,26.900108599977102,26.900108599977102,26.900108599977102,26.900108599977102,26.900108599977102,r,0.27743529999861494,27.20052119999309,27.20052119999309,27.20052119999309,27.20052119999309,27.20052119999309,27.20052119999309,27.528089999977965,28.665471799991792,28.665471799991792,28.665471799991792,28.665471799991792,28.665471799991792,28.665471799991792,28.703410899994196,28.703410899994196,28.703410899994196,28.703410899994196,28.703410899994196,28.703410899994196,28.703410899994196,28.703410899994196,30.212314100004733,30.212314100004733,30.212314100004733,30.212314100004733,30.212314100004733,30.212314100004733,30.212314100004733,29,55,64,37,55,60,30.212314100004733,31.77831839999999,,,,,,,,,,,,,,,,,,,,３３７,f,２９,2023-05-21_12h05.19.207,RL,2022.2.5,59.9940845766311,
34,49,68,59,0,1,1,1,,,,,,,,,,,None,31.77831839999999,31.77831839999999,31.77831839999999,31.77831839999999,31.77831839999999,31.77831839999999,j,0.4089201000169851,32.2119987999904,32.2119987999904,32.2119987999904,32.2119987999904,32.2119987999904,32.2119987999904,32.49499409997952,33.761078099982115,33.761078099982115,33.761078099982115,33.761078099982115,33.761078099982115,33.761078099982115,33.7448277999938,33.761078099982115,33.761078099982115,33.761078099982115,33.761078099982115,33.761078099982115,33.761078099982115,33.761078099982115,35.30981859998428,35.30981859998428,35.30981859998428,35.30981859998428,35.30981859998428,35.30981859998428,35.30981859998428,34,59,68,49,49,60,35.30981859998428,37.21054919998278,,,,,,,,,,,,,,,,,,,,３３７,f,２９,2023-05-21_12h05.19.207,RL,2022.2.5,59.9940845766311,
30,39,58,51,0,2,2,2,,,,,,,,,,,None,37.21054919998278,37.21054919998278,37.21054919998278,37.21054919998278,37.21054919998278,37.21054919998278,r,0.6268967999785673,37.86106739999377,37.86106739999377,37.86106739999377,37.86106739999377,37.86106739999377,37.86106739999377,38.14436299999943,40.04393309997977,40.04393309997977,40.04393309997977,40.04393309997977,40.04393309997977,40.04393309997977,40.02749899998889,40.04393309997977,40.04393309997977,40.04393309997977,40.04393309997977,40.04393309997977,40.04393309997977,40.04393309997977,42.22544769998058,42.22544769998058,42.22544769998058,42.22544769998058,42.22544769998058,42.22544769998058,42.22544769998058,30,51,58,39,51,60,42.22544769998058,44.00951279999572,,,,,,,,,,,,,,,,,,,,３３７,f,２９,2023-05-21_12h05.19.207,RL,2022.2.5,59.9940845766311,
32,43,54,72,0,3,3,3,,,,,,,,,,,None,44.00951279999572,44.00951279999572,44.00951279999572,44.00951279999572,44.00951279999572,44.00951279999572,j,0.4494739000219852,44.476929700002074,44.476929700002074,44.476929700002074,44.476929700002074,44.476929700002074,44.476929700002074,44.7600007999863,46.209102599998005,46.209102599998005,46.209102599998005,46.209102599998005,46.209102599998005,46.209102599998005,46.19252029998461,46.209102599998005,46.209102599998005,46.209102599998005,46.209102599998005,46.209102599998005,46.209102599998005,46.209102599998005,47.94095809999271,47.94095809999271,47.94095809999271,47.94095809999271,47.94095809999271,47.94095809999271,47.94095809999271,32,72,54,43,43,60,47.94095809999271,49.891893699998036,,,,,,,,,,,,,,,,,,,,３３７,f,２９,2023-05-21_12h05.19.207,RL,2022.2.5,59.9940845766311,
28,36,49,61,0,4,4,4,,,,,,,,,,,None,49.891893699998036,49.891893699998036,49.891893699998036,49.891893699998036,49.891893699998036,49.891893699998036,i,0.2864343000110239,50.21252159998403,50.21252159998403,50.21252159998403,50.21252159998403,50.21252159998403,50.21252159998403,50.49182639998617,51.658359900000505,51.658359900000505,51.658359900000505,51.658359900000505,51.658359900000505,51.658359900000505,51.64190519999829,51.658359900000505,51.658359900000505,51.658359900000505,51.658359900000505,51.658359900000505,51.658359900000505,51.658359900000505,53.10624459999963,53.10624459999963,53.10624459999963,53.10624459999963,53.10624459999963,53.10624459999963,53.10624459999963,28,61,49,36,49,60,53.10624459999963,55.0909898999962,,,,,,,,,,,,,,,,,,,,３３７,f,２９,2023-05-21_12h05.19.207,RL,2022.2.5,59.9940845766311,
20,39,51,62,0,5,5,5,,,,,,,,,,,None,55.0909898999962,55.0909898999962,55.0909898999962,55.0909898999962,55.0909898999962,55.0909898999962,f,0.39338509997469373,55.50804699998116,55.50804699998116,55.50804699998116,55.50804699998116,55.50804699998116,55.50804699998116,55.79096990000107,56.99039999998058,56.99039999998058,56.99039999998058,56.99039999998058,56.99039999998058,56.99039999998058,56.9744781999907,56.99039999998058,56.99039999998058,56.99039999998058,56.99039999998058,56.99039999998058,56.99039999998058,56.99039999998058,58.472148999979254,58.472148999979254,58.472148999979254,58.472148999979254,58.472148999979254,58.472148999979254,58.472148999979254,20,62,51,39,20,60,58.472148999979254,60.43973329997971,,,,,,,,,,,,,,,,,,,,３３７,f,２９,2023-05-21_12h05.19.207,RL,2022.2.5,59.9940845766311,
28,35,39,56,0,6,6,6,,,,,,,,,,,None,60.43973329997971,60.43973329997971,60.43973329997971,60.43973329997971,60.43973329997971,60.43973329997971,r,0.8127665000210982,61.274774599995,61.274774599995,61.274774599995,61.274774599995,61.274774599995,61.274774599995,61.573190299997805,63.289366099983454,63.289366099983454,63.289366099983454,63.289366099983454,63.289366099983454,63.289366099983454,63.289366099983454,63.289366099983454,63.289366099983454,63.289366099983454,63.289366099983454,63.289366099983454,63.289366099983454,63.289366099983454,65.30427359999157,65.30427359999157,65.30427359999157,65.30427359999157,65.30427359999157,65.30427359999157,65.30427359999157,28,56,39,35,56,60,65.30427359999157,67.03899829997681,,,,,,,,,,,,,,,,,,,,３３７,f,２９,2023-05-21_12h05.19.207,RL,2022.2.5,59.9940845766311,
21,32,45,67,0,7,7,7,,,,,,,,,,,None,67.03899829997681,67.03899829997681,67.03899829997681,67.03899829997681,67.03899829997681,67.03899829997681,r,0.346914800000377,67.40586790000089,67.40586790000089,67.40586790000089,67.40586790000089,67.40586790000089,67.40586790000089,67.70556339999894,69.2388581999985,69.2388581999985,69.2388581999985,69.2388581999985,69.2388581999985,69.2388581999985,69.2388581999985,69.2388581999985,69.2388581999985,69.2388581999985,69.2388581999985,69.2388581999985,69.2388581999985,69.2388581999985,71.06982819997938,71.06982819997938,71.06982819997938,71.06982819997938,71.06982819997938,71.06982819997938,71.06982819997938,21,67,45,32,67,60,71.06982819997938,72.85419279997586,,,,,,,,,,,,,,,,,,,,３３７,f,２９,2023-05-21_12h05.19.207,RL,2022.2.5,59.9940845766311,
23,30,53,61,0,8,8,8,,,,,,,,,,,None,72.85419279997586,72.85419279997586,72.85419279997586,72.85419279997586,72.85419279997586,72.85419279997586,r,0.3252038999926299,73.20485859998735,73.20485859998735,73.20485859998735,73.20485859998735,73.20485859998735,73.20485859998735,73.48810229997616,74.82095039999695,74.82095039999695,74.82095039999695,74.82095039999695,74.82095039999695,74.82095039999695,74.80428280000342,74.82095039999695,74.82095039999695,74.82095039999695,74.82095039999695,74.82095039999695,74.82095039999695,74.82095039999695,76.43545499999891,76.43545499999891,76.43545499999891,76.43545499999891,76.43545499999891,76.43545499999891,76.43545499999891,23,61,53,30,61,60,76.43545499999891,78.38685799998348,,,,,,,,,,,,,,,,,,,,３３７,f,２９,2023-05-21_12h05.19.207,RL,2022.2.5,59.9940845766311,
27,30,53,62,0,9,9,9,,,,,,,,,,,None,78.38685799998348,78.38685799998348,78.38685799998348,78.38685799998348,78.38685799998348,78.38685799998348,r,0.3151752999983728,78.72055089997593,78.72055089997593,78.72055089997593,78.72055089997593,78.72055089997593,78.72055089997593,79.02077929998632,80.8703405999986,80.8703405999986,80.8703405999986,80.8703405999986,80.8703405999986,80.8703405999986,80.8703405999986,80.8703405999986,80.8703405999986,80.8703405999986,80.8703405999986,80.8703405999986,80.8703405999986,80.8703405999986,83.01818799998728,83.01818799998728,83.01818799998728,83.01818799998728,83.01818799998728,83.01818799998728,83.01818799998728,27,62,53,30,62,60,83.01818799998728,84.78548649998265,,,,,,,,,,,,,,,,,,,,３３７,f,２９,2023-05-21_12h05.19.207,RL,2022.2.5,59.9940845766311,
30,33,55,56,0,10,10,10,,,,,,,,,,,None,84.78548649998265,84.78548649998265,84.78548649998265,84.78548649998265,84.78548649998265,84.78548649998265,r,0.36544320001848973,85.17169229997671,85.17169229997671,85.17169229997671,85.17169229997671,85.17169229997671,85.17169229997671,85.46888679999392,86.4857592000044,86.4857592000044,86.4857592000044,86.4857592000044,86.4857592000044,86.4857592000044,86.4857592000044,86.4857592000044,86.4857592000044,86.4857592000044,86.4857592000044,86.4857592000044,86.4857592000044,86.4857592000044,87.80060819999198,87.80060819999198,87.80060819999198,87.80060819999198,87.80060819999198,87.80060819999198,87.80060819999198,30,56,55,33,56,60,87.80060819999198,89.56788669998059,,,,,,,,,,,,,,,,,,,,３３７,f,２９,2023-05-21_12h05.19.207,RL,2022.2.5,59.9940845766311,
31,27,57,57,0,11,11,11,,,,,,,,,,,None,89.56788669998059,89.56788669998059,89.56788669998059,89.56788669998059,89.56788669998059,89.56788669998059,r,0.40598499999032356,90.0022922999924,90.0022922999924,90.0022922999924,90.0022922999924,90.0022922999924,90.0022922999924,90.28536690000328,92.0178898999875,92.0178898999875,92.0178898999875,92.0178898999875,92.0178898999875,92.0178898999875,92.00137299997732,92.0178898999875,92.0178898999875,92.0178898999875,92.0178898999875,92.0178898999875,92.0178898999875,92.0178898999875,94.03257839998696,94.03257839998696,94.03257839998696,94.03257839998696,94.03257839998696,94.03257839998696,94.03257839998696,31,57,57,27,57,60,94.03257839998696,95.96693880000385,,,,,,,,,,,,,,,,,,,,３３７,f,２９,2023-05-21_12h05.19.207,RL,2022.2.5,59.9940845766311,
41,29,62,64,0,12,12,12,,,,,,,,,,,None,95.96693880000385,95.96693880000385,95.96693880000385,95.96693880000385,95.96693880000385,95.96693880000385,r,0.3995297999936156,96.38595569998142,96.38595569998142,96.38595569998142,96.38595569998142,96.38595569998142,96.38595569998142,96.68405689997599,97.80051689999527,97.80051689999527,97.80051689999527,97.80051689999527,97.80051689999527,97.80051689999527,97.80051689999527,97.80051689999527,97.80051689999527,97.80051689999527,97.80051689999527,97.80051689999527,97.80051689999527,97.80051689999527,99.21486919999006,99.21486919999006,99.21486919999006,99.21486919999006,99.21486919999006,99.21486919999006,99.21486919999006,41,64,62,29,64,60,99.21486919999006,101.11626889999025,,,,,,,,,,,,,,,,,,,,３３７,f,２９,2023-05-21_12h05.19.207,RL,2022.2.5,59.9940845766311,
31,39,61,59,0,13,13,13,,,,,,,,,,,None,101.11626889999025,101.11626889999025,101.11626889999025,101.11626889999025,101.11626889999025,101.11626889999025,r,0.3984735000121873,101.53333439998096,101.53333439998096,101.53333439998096,101.53333439998096,101.53333439998096,101.53333439998096,101.81674779998139,103.74922559998231,103.74922559998231,103.74922559998231,103.74922559998231,103.74922559998231,103.74922559998231,103.73264499998186,103.74922559998231,103.74922559998231,103.74922559998231,103.74922559998231,103.74922559998231,103.74922559998231,103.74922559998231,105.96415919999708,105.96415919999708,105.96415919999708,105.96415919999708,105.96415919999708,105.96415919999708,105.96415919999708,31,59,61,39,59,60,105.96415919999708,107.515302099986,,,,,,,,,,,,,,,,,,,,３３７,f,２９,2023-05-21_12h05.19.207,RL,2022.2.5,59.9940845766311,
34,37,68,59,0,14,14,14,,,,,,,,,,,None,107.515302099986,107.515302099986,107.515302099986,107.515302099986,107.515302099986,107.515302099986,r,0.32713609997881576,107.8688135999837,107.8688135999837,107.8688135999837,107.8688135999837,107.8688135999837,107.8688135999837,108.14884409998194,110.01503759998013,110.01503759998013,110.01503759998013,110.01503759998013,110.01503759998013,110.01503759998013,109.99837759998627,110.01503759998013,110.01503759998013,110.01503759998013,110.01503759998013,110.01503759998013,110.01503759998013,110.01503759998013,112.16298369999276,112.16298369999276,112.16298369999276,112.16298369999276,112.16298369999276,112.16298369999276,112.16298369999276,34,59,68,37,59,60,112.16298369999276,114.13056009999127,,,,,,,,,,,,,,,,,,,,３３７,f,２９,2023-05-21_12h05.19.207,RL,2022.2.5,59.9940845766311,
33,34,57,60,0,15,15,15,,,,,,,,,,,None,114.13056009999127,114.13056009999127,114.13056009999127,114.13056009999127,114.13056009999127,114.13056009999127,r,0.35137699998449534,114.52938309998717,114.52938309998717,114.52938309998717,114.52938309998717,114.52938309998717,114.52938309998717,114.7977086000028,115.78082759998506,115.78082759998506,115.78082759998506,115.78082759998506,115.78082759998506,115.78082759998506,115.74722119999933,115.78082759998506,115.78082759998506,115.78082759998506,115.78082759998506,115.78082759998506,115.78082759998506,115.78082759998506,117.0287043999997,117.0287043999997,117.0287043999997,117.0287043999997,117.0287043999997,117.0287043999997,117.0287043999997,33,60,57,34,60,60,117.0287043999997,118.97983319999184,,,,,,,,,,,,,,,,,,,,３３７,f,２９,2023-05-21_12h05.19.207,RL,2022.2.5,59.9940845766311,
32,37,70,62,0,16,16,16,,,,,,,,,,,None,118.97983319999184,118.97983319999184,118.97983319999184,118.97983319999184,118.97983319999184,118.97983319999184,r,0.3792834999912884,119.3803770999948,119.3803770999948,119.3803770999948,119.3803770999948,119.3803770999948,119.3803770999948,119.66360749999876,120.5966365999775,120.5966365999775,120.5966365999775,120.5966365999775,120.5966365999775,120.5966365999775,120.58003039998584,120.5966365999775,120.5966365999775,120.5966365999775,120.5966365999775,120.5966365999775,120.5966365999775,120.5966365999775,121.81134899999597,121.81134899999597,121.81134899999597,121.81134899999597,121.81134899999597,121.81134899999597,121.81134899999597,32,62,70,37,62,60,121.81134899999597,123.51191549998475,,,,,,,,,,,,,,,,,,,,３３７,f,２９,2023-05-21_12h05.19.207,RL,2022.2.5,59.9940845766311,
28,37,68,66,0,17,17,17,,,,,,,,,,,None,123.51191549998475,123.51191549998475,123.51191549998475,123.51191549998475,123.51191549998475,123.51191549998475,r,0.3201540000154637,123.86258869999438,123.86258869999438,123.86258869999438,123.86258869999438,123.86258869999438,123.86258869999438,124.14557609998155,125.87861139999586,125.87861139999586,125.87861139999586,125.87861139999586,125.87861139999586,125.87861139999586,125.86199350000243,125.87861139999586,125.87861139999586,125.87861139999586,125.87861139999586,125.87861139999586,125.87861139999586,125.87861139999586,127.89401449999423,127.89401449999423,127.89401449999423,127.89401449999423,127.89401449999423,127.89401449999423,127.89401449999423,28,66,68,37,66,60,127.89401449999423,129.51097889998346,,,,,,,,,,,,,,,,,,,,３３７,f,２９,2023-05-21_12h05.19.207,RL,2022.2.5,59.9940845766311,
39,32,59,59,0,18,18,18,,,,,,,,,,,None,129.51097889998346,129.51097889998346,129.51097889998346,129.51097889998346,129.51097889998346,129.51097889998346,r,0.36798670000280254,129.9167759999982,129.9167759999982,129.9167759999982,129.9167759999982,129.9167759999982,129.9167759999982,130.19505939999362,132.12769629998365,132.12769629998365,132.12769629998365,132.12769629998365,132.12769629998365,132.12769629998365,132.1111239999882,132.12769629998365,132.12769629998365,132.12769629998365,132.12769629998365,132.12769629998365,132.12769629998365,132.12769629998365,134.3423019000038,134.3423019000038,134.3423019000038,134.3423019000038,134.3423019000038,134.3423019000038,134.3423019000038,39,59,59,32,59,60,134.3423019000038,135.90978919999907,,,,,,,,,,,,,,,,,,,,３３７,f,２９,2023-05-21_12h05.19.207,RL,2022.2.5,59.9940845766311,
29,32,68,62,0,19,19,19,,,,,,,,,,,None,135.90978919999907,135.90978919999907,135.90978919999907,135.90978919999907,135.90978919999907,135.90978919999907,r,0.38525630001095124,136.3317111999786,136.3317111999786,136.3317111999786,136.3317111999786,136.3317111999786,136.3317111999786,136.62747229999513,138.4433621999924,138.4433621999924,138.4433621999924,138.4433621999924,138.4433621999924,138.4433621999924,138.4433621999924,138.4433621999924,138.4433621999924,138.4433621999924,138.4433621999924,138.4433621999924,138.4433621999924,138.4433621999924,140.55777959999978,140.55777959999978,140.55777959999978,140.55777959999978,140.55777959999978,140.55777959999978,140.55777959999978,29,62,68,32,62,60,140.55777959999978,142.3089926999819,,,,,,,,,,,,,,,,,,,,３３７,f,２９,2023-05-21_12h05.19.207,RL,2022.2.5,59.9940845766311,
37,29,53,53,0,20,20,20,,,,,,,,,,,None,142.3089926999819,142.3089926999819,142.3089926999819,142.3089926999819,142.3089926999819,142.3089926999819,r,0.33937970001716167,142.6759819999861,142.6759819999861,142.6759819999861,142.6759819999861,142.6759819999861,142.6759819999861,142.95905589999165,143.80932519998169,143.80932519998169,143.80932519998169,143.80932519998169,143.80932519998169,143.80932519998169,143.79261569998926,143.80932519998169,143.80932519998169,143.80932519998169,143.80932519998169,143.80932519998169,143.80932519998169,143.80932519998169,144.9407183000003,144.9407183000003,144.9407183000003,144.9407183000003,144.9407183000003,144.9407183000003,144.9407183000003,37,53,53,29,53,60,144.9407183000003,146.65821739999228,,,,,,,,,,,,,,,,,,,,３３７,f,２９,2023-05-21_12h05.19.207,RL,2022.2.5,59.9940845766311,
31,34,61,47,0,21,21,21,,,,,,,,,,,None,146.65821739999228,146.65821739999228,146.65821739999228,146.65821739999228,146.65821739999228,146.65821739999228,r,0.28850200001033954,146.97682309997617,146.97682309997617,146.97682309997617,146.97682309997617,146.97682309997617,146.97682309997617,147.25896219999413,148.80829580000136,148.80829580000136,148.80829580000136,148.80829580000136,148.80829580000136,148.80829580000136,148.79150659998413,148.80829580000136,148.80829580000136,148.80829580000136,148.80829580000136,148.80829580000136,148.80829580000136,148.80829580000136,150.6398997999786,150.6398997999786,150.6398997999786,150.6398997999786,150.6398997999786,150.6398997999786,150.6398997999786,31,47,61,34,47,60,150.6398997999786,152.5407520000008,,,,,,,,,,,,,,,,,,,,３３７,f,２９,2023-05-21_12h05.19.207,RL,2022.2.5,59.9940845766311,
30,33,61,55,0,22,22,22,,,,,,,,,,,None,152.5407520000008,152.5407520000008,152.5407520000008,152.5407520000008,152.5407520000008,152.5407520000008,i,0.23866410000482574,152.80759779998334,152.80759779998334,152.80759779998334,152.80759779998334,152.80759779998334,152.80759779998334,153.10783369999263,154.05728829998407,154.05728829998407,154.05728829998407,154.05728829998407,154.05728829998407,154.05728829998407,154.05728829998407,154.05728829998407,154.05728829998407,154.05728829998407,154.05728829998407,154.05728829998407,154.05728829998407,154.05728829998407,155.30564389997744,155.30564389997744,155.30564389997744,155.30564389997744,155.30564389997744,155.30564389997744,155.30564389997744,30,55,61,33,61,60,155.30564389997744,157.27280320000136,,,,,,,,,,,,,,,,,,,,３３７,f,２９,2023-05-21_12h05.19.207,RL,2022.2.5,59.9940845766311,
31,34,61,48,0,23,23,23,,,,,,,,,,,None,157.27280320000136,157.27280320000136,157.27280320000136,157.27280320000136,157.27280320000136,157.27280320000136,i,0.34968149999622256,157.641604000004,157.641604000004,157.641604000004,157.641604000004,157.641604000004,157.641604000004,157.92351989998133,159.4563352999976,159.4563352999976,159.4563352999976,159.4563352999976,159.4563352999976,159.4563352999976,159.43974489998072,159.4563352999976,159.4563352999976,159.4563352999976,159.4563352999976,159.4563352999976,159.4563352999976,159.4563352999976,161.27080279999063,161.27080279999063,161.27080279999063,161.27080279999063,161.27080279999063,161.27080279999063,161.27080279999063,31,48,61,34,61,60,161.27080279999063,163.20555199999944,,,,,,,,,,,,,,,,,,,,３３７,f,２９,2023-05-21_12h05.19.207,RL,2022.2.5,59.9940845766311,
34,32,71,47,0,24,24,24,,,,,,,,,,,None,163.20555199999944,163.20555199999944,163.20555199999944,163.20555199999944,163.20555199999944,163.20555199999944,i,0.2952023999823723,163.52249929998652,163.52249929998652,163.52249929998652,163.52249929998652,163.52249929998652,163.52249929998652,163.80594160000328,165.17181410000194,165.17181410000194,165.17181410000194,165.17181410000194,165.17181410000194,165.17181410000194,165.15517899999395,165.17181410000194,165.17181410000194,165.17181410000194,165.17181410000194,165.17181410000194,165.17181410000194,165.17181410000194,166.81975009999587,166.81975009999587,166.81975009999587,166.81975009999587,166.81975009999587,166.81975009999587,166.81975009999587,34,47,71,32,71,60,166.81975009999587,168.58820440000272,,,,,,,,,,,,,,,,,,,,３３７,f,２９,2023-05-21_12h05.19.207,RL,2022.2.5,59.9940845766311,
35,31,74,54,0,25,25,25,,,,,,,,,,,None,168.58820440000272,168.58820440000272,168.58820440000272,168.58820440000272,168.58820440000272,168.58820440000272,i,0.26744560000952333,168.89281419999315,168.89281419999315,168.89281419999315,168.89281419999315,168.89281419999315,168.89281419999315,169.1717313999834,170.3042879999848,170.3042879999848,170.3042879999848,170.3042879999848,170.3042879999848,170.3042879999848,170.28774420000263,170.3042879999848,170.3042879999848,170.3042879999848,170.3042879999848,170.3042879999848,170.3042879999848,170.3042879999848,171.71948859997792,171.71948859997792,171.71948859997792,171.71948859997792,171.71948859997792,171.71948859997792,171.71948859997792,35,54,74,31,74,60,171.71948859997792,173.4538633999764,,,,,,,,,,,,,,,,,,,,３３７,f,２９,2023-05-21_12h05.19.207,RL,2022.2.5,59.9940845766311,
44,35,67,58,0,26,26,26,,,,,,,,,,,None,173.4538633999764,173.4538633999764,173.4538633999764,173.4538633999764,173.4538633999764,173.4538633999764,i,0.34870370000135154,173.8207652999845,173.8207652999845,173.8207652999845,173.8207652999845,173.8207652999845,173.8207652999845,174.1041662999778,175.13701879998553,175.13701879998553,175.13701879998553,175.13701879998553,175.13701879998553,175.13701879998553,175.120300199982,175.13701879998553,175.13701879998553,175.13701879998553,175.13701879998553,175.13701879998553,175.13701879998553,175.13701879998553,176.45168939998257,176.45168939998257,176.45168939998257,176.45168939998257,176.45168939998257,176.45168939998257,176.45168939998257,44,58,67,35,67,60,176.45168939998257,178.33566909999354,,,,,,,,,,,,,,,,,,,,３３７,f,２９,2023-05-21_12h05.19.207,RL,2022.2.5,59.9940845766311,
33,35,62,45,0,27,27,27,,,,,,,,,,,None,178.33566909999354,178.33566909999354,178.33566909999354,178.33566909999354,178.33566909999354,178.33566909999354,i,0.29548900001100264,178.6557113000017,178.6557113000017,178.6557113000017,178.6557113000017,178.6557113000017,178.6557113000017,178.93606139998883,180.46955239999807,180.46955239999807,180.46955239999807,180.46955239999807,180.46955239999807,180.46955239999807,180.45263749998412,180.46955239999807,180.46955239999807,180.46955239999807,180.46955239999807,180.46955239999807,180.46955239999807,180.46955239999807,182.2838237999822,182.2838237999822,182.2838237999822,182.2838237999822,182.2838237999822,182.2838237999822,182.2838237999822,33,45,62,35,62,60,182.2838237999822,184.03556829999434,,,,,,,,,,,,,,,,,,,,３３７,f,２９,2023-05-21_12h05.19.207,RL,2022.2.5,59.9940845766311,
38,19,70,45,0,28,28,28,,,,,,,,,,,None,184.03556829999434,184.03556829999434,184.03556829999434,184.03556829999434,184.03556829999434,184.03556829999434,i,0.28748229998745956,184.3542586999829,184.3542586999829,184.3542586999829,184.3542586999829,184.3542586999829,184.3542586999829,184.65235219997703,185.8683550999849,185.8683550999849,185.8683550999849,185.8683550999849,185.8683550999849,185.8683550999849,185.85169280000264,185.8683550999849,185.8683550999849,185.8683550999849,185.8683550999849,185.8683550999849,185.8683550999849,185.8683550999849,187.36663309999858,187.36663309999858,187.36663309999858,187.36663309999858,187.36663309999858,187.36663309999858,187.36663309999858,38,45,70,19,70,60,187.36663309999858,189.2175088999793,,,,,,,,,,,,,,,,,,,,３３７,f,２９,2023-05-21_12h05.19.207,RL,2022.2.5,59.9940845766311,
30,35,65,43,0,29,29,29,,,,,,,,,,,None,189.2175088999793,189.2175088999793,189.2175088999793,189.2175088999793,189.2175088999793,189.2175088999793,i,0.34919329997501336,189.58450969998376,189.58450969998376,189.58450969998376,189.58450969998376,189.58450969998376,189.58450969998376,189.88486920000287,191.48430829998688,191.48430829998688,191.48430829998688,191.48430829998688,191.48430829998688,191.48430829998688,191.48430829998688,191.48430829998688,191.48430829998688,191.48430829998688,191.48430829998688,191.48430829998688,191.48430829998688,191.48430829998688,193.38199689998874,193.38199689998874,193.38199689998874,193.38199689998874,193.38199689998874,193.38199689998874,193.38199689998874,30,43,65,35,65,60,193.38199689998874,195.1665886999981,,,,,,,,,,,,,,,,,,,,３３７,f,２９,2023-05-21_12h05.19.207,RL,2022.2.5,59.9940845766311,
49,33,67,46,0,30,30,30,,,,,,,,,,,None,195.1665886999981,195.1665886999981,195.1665886999981,195.1665886999981,195.1665886999981,195.1665886999981,i,0.3374494000163395,195.53352090000408,195.53352090000408,195.53352090000408,195.53352090000408,195.53352090000408,195.53352090000408,195.81664929998806,196.85000889998628,196.85000889998628,196.85000889998628,196.85000889998628,196.85000889998628,196.85000889998628,196.83335119998083,196.85000889998628,196.85000889998628,196.85000889998628,196.85000889998628,196.85000889998628,196.85000889998628,196.85000889998628,198.16476679997868,198.16476679997868,198.16476679997868,198.16476679997868,198.16476679997868,198.16476679997868,198.16476679997868,49,46,67,33,67,60,198.16476679997868,200.0491884999792,,,,,,,,,,,,,,,,,,,,３３７,f,２９,2023-05-21_12h05.19.207,RL,2022.2.5,59.9940845766311,
27,34,70,37,0,31,31,31,,,,,,,,,,,None,200.0491884999792,200.0491884999792,200.0491884999792,200.0491884999792,200.0491884999792,200.0491884999792,i,0.3007727000222076,200.3851531999826,200.3851531999826,200.3851531999826,200.3851531999826,200.3851531999826,200.3851531999826,200.66582349999226,202.04925149999326,202.04925149999326,202.04925149999326,202.04925149999326,202.04925149999326,202.04925149999326,202.0324918999977,202.04925149999326,202.04925149999326,202.04925149999326,202.04925149999326,202.04925149999326,202.04925149999326,202.04925149999326,203.7139288999897,203.7139288999897,203.7139288999897,203.7139288999897,203.7139288999897,203.7139288999897,203.7139288999897,27,37,70,34,70,60,203.7139288999897,205.5977741999959,,,,,,,,,,,,,,,,,,,,３３７,f,２９,2023-05-21_12h05.19.207,RL,2022.2.5,59.9940845766311,
40,35,73,47,0,32,32,32,,,,,,,,,,,None,205.5977741999959,205.5977741999959,205.5977741999959,205.5977741999959,205.5977741999959,205.5977741999959,i,0.32914779998827726,205.94826730000204,205.94826730000204,205.94826730000204,205.94826730000204,205.94826730000204,205.94826730000204,206.23148829999263,208.0981705999875,208.0981705999875,208.0981705999875,208.0981705999875,208.0981705999875,208.0981705999875,208.0814244999783,208.0981705999875,208.0981705999875,208.0981705999875,208.0981705999875,208.0981705999875,208.0981705999875,208.0981705999875,210.2458878000034,210.2458878000034,210.2458878000034,210.2458878000034,210.2458878000034,210.2458878000034,210.2458878000034,40,47,73,35,73,60,210.2458878000034,211.76349029998528,,,,,,,,,,,,,,,,,,,,３３７,f,２９,2023-05-21_12h05.19.207,RL,2022.2.5,59.9940845766311,
40,36,70,47,0,33,33,33,,,,,,,,,,,None,211.76349029998528,211.76349029998528,211.76349029998528,211.76349029998528,211.76349029998528,211.76349029998528,i,0.28702969997539185,212.08140959998127,212.08140959998127,212.08140959998127,212.08140959998127,212.08140959998127,212.08140959998127,212.38024969998514,213.83022579998942,213.83022579998942,213.83022579998942,213.83022579998942,213.83022579998942,213.83022579998942,213.83022579998942,213.83022579998942,213.83022579998942,213.83022579998942,213.83022579998942,213.83022579998942,213.83022579998942,213.83022579998942,215.578153999988,215.578153999988,215.578153999988,215.578153999988,215.578153999988,215.578153999988,215.578153999988,40,47,70,36,70,60,215.578153999988,217.57950999998138,,,,,,,,,,,,,,,,,,,,３３７,f,２９,2023-05-21_12h05.19.207,RL,2022.2.5,59.9940845766311,
36,22,73,37,0,34,34,34,,,,,,,,,,,None,217.57950999998138,217.57950999998138,217.57950999998138,217.57950999998138,217.57950999998138,217.57950999998138,i,0.3074361000035424,217.91379609997966,217.91379609997966,217.91379609997966,217.91379609997966,217.91379609997966,217.91379609997966,218.21311689997674,219.89604639998288,219.89604639998288,219.89604639998288,219.89604639998288,219.89604639998288,219.89604639998288,219.89604639998288,219.89604639998288,219.89604639998288,219.89604639998288,219.89604639998288,219.89604639998288,219.89604639998288,219.89604639998288,221.87718270000187,221.87718270000187,221.87718270000187,221.87718270000187,221.87718270000187,221.87718270000187,221.87718270000187,36,37,73,22,73,60,221.87718270000187,223.56186889999663,,,,,,,,,,,,,,,,,,,,３３７,f,２９,2023-05-21_12h05.19.207,RL,2022.2.5,59.9940845766311,
35,30,62,37,0,35,35,35,,,,,,,,,,,None,223.56186889999663,223.56186889999663,223.56186889999663,223.56186889999663,223.56186889999663,223.56186889999663,i,0.24410189999616705,223.8288108999841,223.8288108999841,223.8288108999841,223.8288108999841,223.8288108999841,223.8288108999841,224.111713899998,225.81132039998192,225.81132039998192,225.81132039998192,225.81132039998192,225.81132039998192,225.81132039998192,225.79466489999322,225.81132039998192,225.81132039998192,225.81132039998192,225.81132039998192,225.81132039998192,225.81132039998192,225.81132039998192,227.7930129999877,227.7930129999877,227.7930129999877,227.7930129999877,227.7930129999877,227.7930129999877,227.7930129999877,35,37,62,30,62,60,227.7930129999877,229.7773404000036,,,,,,,,,,,,,,,,,,,,３３７,f,２９,2023-05-21_12h05.19.207,RL,2022.2.5,59.9940845766311,
35,33,68,45,0,36,36,36,,,,,,,,,,,None,229.7773404000036,229.7773404000036,229.7773404000036,229.7773404000036,229.7773404000036,229.7773404000036,i,0.27642069998546503,230.07800690000295,230.07800690000295,230.07800690000295,230.07800690000295,230.07800690000295,230.07800690000295,230.37725359998876,231.66016929998295,231.66016929998295,231.66016929998295,231.66016929998295,231.66016929998295,231.66016929998295,231.66016929998295,231.66016929998295,231.66016929998295,231.66016929998295,231.66016929998295,231.66016929998295,231.66016929998295,231.66016929998295,233.24219739998807,233.24219739998807,233.24219739998807,233.24219739998807,233.24219739998807,233.24219739998807,233.24219739998807,35,45,68,33,68,60,233.24219739998807,234.97640169999795,,,,,,,,,,,,,,,,,,,,３３７,f,２９,2023-05-21_12h05.19.207,RL,2022.2.5,59.9940845766311,
35,34,63,44,0,37,37,37,,,,,,,,,,,None,234.97640169999795,234.97640169999795,234.97640169999795,234.97640169999795,234.97640169999795,234.97640169999795,i,0.2881117000069935,235.29672990000108,235.29672990000108,235.29672990000108,235.29672990000108,235.29672990000108,235.29672990000108,235.59337049999158,237.49325959998532,237.49325959998532,237.49325959998532,237.49325959998532,237.49325959998532,237.49325959998532,237.49325959998532,237.49325959998532,237.49325959998532,237.49325959998532,237.49325959998532,237.49325959998532,237.49325959998532,237.49325959998532,239.6906874999986,239.6906874999986,239.6906874999986,239.6906874999986,239.6906874999986,239.6906874999986,239.6906874999986,35,44,63,34,63,60,239.6906874999986,241.2253628000035,,,,,,,,,,,,,,,,,,,,３３７,f,２９,2023-05-21_12h05.19.207,RL,2022.2.5,59.9940845766311,
36,29,66,50,0,38,38,38,,,,,,,,,,,None,241.2253628000035,241.2253628000035,241.2253628000035,241.2253628000035,241.2253628000035,241.2253628000035,i,0.32753269997192547,241.5755094999913,241.5755094999913,241.5755094999913,241.5755094999913,241.5755094999913,241.5755094999913,241.86016599999857,243.1917911999917,243.1917911999917,243.1917911999917,243.1917911999917,243.1917911999917,243.1917911999917,243.1752506000048,243.1917911999917,243.1917911999917,243.1917911999917,243.1917911999917,243.1917911999917,243.1917911999917,243.1917911999917,244.8063704999804,244.8063704999804,244.8063704999804,244.8063704999804,244.8063704999804,244.8063704999804,244.8063704999804,36,50,66,29,66,60,244.8063704999804,246.5910793999792,,,,,,,,,,,,,,,,,,,,３３７,f,２９,2023-05-21_12h05.19.207,RL,2022.2.5,59.9940845766311,
39,32,68,42,0,39,39,39,,,,,,,,,,,None,246.5910793999792,246.5910793999792,246.5910793999792,246.5910793999792,246.5910793999792,246.5910793999792,i,0.36208869999973103,246.97448539998732,246.97448539998732,246.97448539998732,246.97448539998732,246.97448539998732,246.97448539998732,247.25793009999325,248.90766379999695,248.90766379999695,248.90766379999695,248.90766379999695,248.90766379999695,248.90766379999695,248.89096799999243,248.90766379999695,248.90766379999695,248.90766379999695,248.90766379999695,248.90766379999695,248.90766379999695,248.90766379999695,250.83876789998612,250.83876789998612,250.83876789998612,250.83876789998612,250.83876789998612,250.83876789998612,250.83876789998612,39,42,68,32,68,60,250.83876789998612,252.63966869999422,,,,,,,,,,,,,,,,,,,,３３７,f,２９,2023-05-21_12h05.19.207,RL,2022.2.5,59.9940845766311,
41,33,71,49,0,40,40,40,,,,,,,,,,,None,252.63966869999422,252.63966869999422,252.63966869999422,252.63966869999422,252.63966869999422,252.63966869999422,i,0.32579589998931624,252.99132339999778,252.99132339999778,252.99132339999778,252.99132339999778,252.99132339999778,252.99132339999778,253.2903309999965,254.23997549997875,254.23997549997875,254.23997549997875,254.23997549997875,254.23997549997875,254.23997549997875,254.23997549997875,254.23997549997875,254.23997549997875,254.23997549997875,254.23997549997875,254.23997549997875,254.23997549997875,254.23997549997875,255.4876277000003,255.4876277000003,255.4876277000003,255.4876277000003,255.4876277000003,255.4876277000003,255.4876277000003,41,49,71,33,71,60,255.4876277000003,257.08923660000437,,,,,,,,,,,,,,,,,,,,３３７,f,２９,2023-05-21_12h05.19.207,RL,2022.2.5,59.9940845766311,
38,30,56,40,0,41,41,41,,,,,,,,,,,None,257.08923660000437,257.08923660000437,257.08923660000437,257.08923660000437,257.08923660000437,257.08923660000437,i,0.6372030000202358,257.7562797999999,257.7562797999999,257.7562797999999,257.7562797999999,257.7562797999999,257.7562797999999,258.0560436999949,259.1560160999943,259.1560160999943,259.1560160999943,259.1560160999943,259.1560160999943,259.1560160999943,259.1560160999943,259.1560160999943,259.1560160999943,259.1560160999943,259.1560160999943,259.1560160999943,259.1560160999943,259.1560160999943,260.55360640000436,260.55360640000436,260.55360640000436,260.55360640000436,260.55360640000436,260.55360640000436,260.55360640000436,38,40,56,30,56,60,260.55360640000436,262.43820390000474,,,,,,,,,,,,,,,,,,,,３３７,f,２９,2023-05-21_12h05.19.207,RL,2022.2.5,59.9940845766311,
34,35,58,51,0,42,42,42,,,,,,,,,,,None,262.43820390000474,262.43820390000474,262.43820390000474,262.43820390000474,262.43820390000474,262.43820390000474,j,0.327006799983792,262.7892430999782,262.7892430999782,262.7892430999782,262.7892430999782,262.7892430999782,262.7892430999782,263.07182230000035,264.30460789997596,264.30460789997596,264.30460789997596,264.30460789997596,264.30460789997596,264.30460789997596,264.28809009998804,264.30460789997596,264.30460789997596,264.30460789997596,264.30460789997596,264.30460789997596,264.30460789997596,264.30460789997596,265.81963709997945,265.81963709997945,265.81963709997945,265.81963709997945,265.81963709997945,265.81963709997945,265.81963709997945,34,51,58,35,35,60,265.81963709997945,267.48717069998384,,,,,,,,,,,,,,,,,,,,３３７,f,２９,2023-05-21_12h05.19.207,RL,2022.2.5,59.9940845766311,
42,34,57,44,0,43,43,43,,,,,,,,,,,None,267.48717069998384,267.48717069998384,267.48717069998384,267.48717069998384,267.48717069998384,267.48717069998384,i,0.27416560001438484,267.7879550999787,267.7879550999787,267.7879550999787,267.7879550999787,267.7879550999787,267.7879550999787,268.0873883999884,269.7204476999759,269.7204476999759,269.7204476999759,269.7204476999759,269.7204476999759,269.7204476999759,269.7037854999944,269.7204476999759,269.7204476999759,269.7204476999759,269.7204476999759,269.7204476999759,269.7204476999759,269.7204476999759,271.6352498999913,271.6352498999913,271.6352498999913,271.6352498999913,271.6352498999913,271.6352498999913,271.6352498999913,42,44,57,34,57,60,271.6352498999913,273.3030427999911,,,,,,,,,,,,,,,,,,,,３３７,f,２９,2023-05-21_12h05.19.207,RL,2022.2.5,59.9940845766311,
36,32,66,48,0,44,44,44,,,,,,,,,,,None,273.3030427999911,273.3030427999911,273.3030427999911,273.3030427999911,273.3030427999911,273.3030427999911,i,0.2782991999993101,273.6032094999973,273.6032094999973,273.6032094999973,273.6032094999973,273.6032094999973,273.6032094999973,273.90351099998225,275.0530611999857,275.0530611999857,275.0530611999857,275.0530611999857,275.0530611999857,275.0530611999857,275.0530611999857,275.0530611999857,275.0530611999857,275.0530611999857,275.0530611999857,275.0530611999857,275.0530611999857,275.0530611999857,276.50086739999824,276.50086739999824,276.50086739999824,276.50086739999824,276.50086739999824,276.50086739999824,276.50086739999824,36,48,66,32,66,60,276.50086739999824,278.0188409999828,,,,,,,,,,,,,,,,,,,,３３７,f,２９,2023-05-21_12h05.19.207,RL,2022.2.5,59.9940845766311,
33,28,60,45,0,45,45,45,,,,,,,,,,,None,278.0188409999828,278.0188409999828,278.0188409999828,278.0188409999828,278.0188409999828,278.0188409999828,i,0.2841078999917954,278.34130539998296,278.34130539998296,278.34130539998296,278.34130539998296,278.34130539998296,278.34130539998296,278.6359308999963,280.4353835999791,280.4353835999791,280.4353835999791,280.4353835999791,280.4353835999791,280.4353835999791,280.4190426999994,280.4353835999791,280.4353835999791,280.4353835999791,280.4353835999791,280.4353835999791,280.4353835999791,280.4353835999791,282.5164681999886,282.5164681999886,282.5164681999886,282.5164681999886,282.5164681999886,282.5164681999886,282.5164681999886,33,45,60,28,60,60,282.5164681999886,284.1846919999807,,,,,,,,,,,,,,,,,,,,３３７,f,２９,2023-05-21_12h05.19.207,RL,2022.2.5,59.9940845766311,
31,32,64,50,0,46,46,46,,,,,,,,,,,None,284.1846919999807,284.1846919999807,284.1846919999807,284.1846919999807,284.1846919999807,284.1846919999807,i,0.2316319000092335,284.43974819997675,284.43974819997675,284.43974819997675,284.43974819997675,284.43974819997675,284.43974819997675,284.7183036999777,286.28439809998963,286.28439809998963,286.28439809998963,286.28439809998963,286.28439809998963,286.28439809998963,286.2511398999777,286.28439809998963,286.28439809998963,286.28439809998963,286.28439809998963,286.28439809998963,286.28439809998963,286.28439809998963,288.1155351999914,288.1155351999914,288.1155351999914,288.1155351999914,288.1155351999914,288.1155351999914,288.1155351999914,31,50,64,32,64,60,288.1155351999914,290.1001575999835,,,,,,,,,,,,,,,,,,,,３３７,f,２９,2023-05-21_12h05.19.207,RL,2022.2.5,59.9940845766311,
36,23,64,49,0,47,47,47,,,,,,,,,,,None,290.1001575999835,290.1001575999835,290.1001575999835,290.1001575999835,290.1001575999835,290.1001575999835,i,0.3535617000015918,290.48481809999794,290.48481809999794,290.48481809999794,290.48481809999794,290.48481809999794,290.48481809999794,290.78380269999616,291.66698439998436,291.66698439998436,291.66698439998436,291.66698439998436,291.66698439998436,291.66698439998436,291.66698439998436,291.66698439998436,291.66698439998436,291.66698439998436,291.66698439998436,291.66698439998436,291.66698439998436,291.66698439998436,292.84816789999604,292.84816789999604,292.84816789999604,292.84816789999604,292.84816789999604,292.84816789999604,292.84816789999604,36,49,64,23,64,60,292.84816789999604,294.4823372999963,,,,,,,,,,,,,,,,,,,,３３７,f,２９,2023-05-21_12h05.19.207,RL,2022.2.5,59.9940845766311,
36,29,67,48,0,48,48,48,,,,,,,,,,,None,294.4823372999963,294.4823372999963,294.4823372999963,294.4823372999963,294.4823372999963,294.4823372999963,i,0.39730510002118535,294.89972200000193,294.89972200000193,294.89972200000193,294.89972200000193,294.89972200000193,294.89972200000193,295.18283370000427,296.28275569999823,296.28275569999823,296.28275569999823,296.28275569999823,296.28275569999823,296.28275569999823,296.2661291999975,296.28275569999823,296.28275569999823,296.28275569999823,296.28275569999823,296.28275569999823,296.28275569999823,296.28275569999823,297.66424220000044,297.66424220000044,297.66424220000044,297.66424220000044,297.66424220000044,297.66424220000044,297.66424220000044,36,48,67,29,67,60,297.66424220000044,299.4817851999833,,,,,,,,,,,,,,,,,,,,３３７,f,２９,2023-05-21_12h05.19.207,RL,2022.2.5,59.9940845766311,
40,33,67,44,0,49,49,49,,,,,,,,,,,None,299.4817851999833,299.4817851999833,299.4817851999833,299.4817851999833,299.4817851999833,299.4817851999833,i,0.2641769000038039,299.7660239999823,299.7660239999823,299.7660239999823,299.7660239999823,299.7660239999823,299.7660239999823,300.04845849997946,301.86494109997875,301.86494109997875,301.86494109997875,301.86494109997875,301.86494109997875,301.86494109997875,301.8481167999853,301.86494109997875,301.86494109997875,301.86494109997875,301.86494109997875,301.86494109997875,301.86494109997875,301.86494109997875,303.9629554999992,303.9629554999992,303.9629554999992,303.9629554999992,303.9629554999992,303.9629554999992,303.9629554999992,40,44,67,33,67,60,303.9629554999992,305.5638742999872,,,,,,,,,,,,,,,,,,,,３３７,f,２９,2023-05-21_12h05.19.207,RL,2022.2.5,59.9940845766311,
38,40,60,45,0,50,50,50,,,,,,,,,,,None,305.5638742999872,305.5638742999872,305.5638742999872,305.5638742999872,305.5638742999872,305.5638742999872,i,0.3724174000089988,305.9643805999949,305.9643805999949,305.9643805999949,305.9643805999949,305.9643805999949,305.9643805999949,306.24779579997994,307.8637825999758,307.8637825999758,307.8637825999758,307.8637825999758,307.8637825999758,307.8637825999758,307.84738449999713,307.8637825999758,307.8637825999758,307.8637825999758,307.8637825999758,307.8637825999758,307.8637825999758,307.8637825999758,309.761886399996,309.761886399996,309.761886399996,309.761886399996,309.761886399996,309.761886399996,309.761886399996,38,45,60,40,60,60,309.761886399996,311.36337139998795,,,,,,,,,,,,,,,,,,,,３３７,f,２９,2023-05-21_12h05.19.207,RL,2022.2.5,59.9940845766311,
40,32,76,34,0,51,51,51,,,,,,,,,,,None,311.36337139998795,311.36337139998795,311.36337139998795,311.36337139998795,311.36337139998795,311.36337139998795,i,0.299321600003168,311.68178980000084,311.68178980000084,311.68178980000084,311.68178980000084,311.68178980000084,311.68178980000084,311.9804213999887,312.97944039999857,312.97944039999857,312.97944039999857,312.97944039999857,312.97944039999857,312.97944039999857,312.97944039999857,312.97944039999857,312.97944039999857,312.97944039999857,312.97944039999857,312.97944039999857,312.97944039999857,312.97944039999857,314.27767270000186,314.27767270000186,314.27767270000186,314.27767270000186,314.27767270000186,314.27767270000186,314.27767270000186,40,34,76,32,76,60,314.27767270000186,316.0787937999994,,,,,,,,,,,,,,,,,,,,３３７,f,２９,2023-05-21_12h05.19.207,RL,2022.2.5,59.9940845766311,
37,43,77,35,0,52,52,52,,,,,,,,,,,None,316.0787937999994,316.0787937999994,316.0787937999994,316.0787937999994,316.0787937999994,316.0787937999994,i,0.3061578999913763,316.4126987999771,316.4126987999771,316.4126987999771,316.4126987999771,316.4126987999771,316.4126987999771,316.69580389998737,318.0289680999995,318.0289680999995,318.0289680999995,318.0289680999995,318.0289680999995,318.0289680999995,318.01216159999603,318.0289680999995,318.0289680999995,318.0289680999995,318.0289680999995,318.0289680999995,318.0289680999995,318.0289680999995,319.6434683999978,319.6434683999978,319.6434683999978,319.6434683999978,319.6434683999978,319.6434683999978,319.6434683999978,37,35,77,43,77,60,319.6434683999978,321.1783417999977,,,,,,,,,,,,,,,,,,,,３３７,f,２９,2023-05-21_12h05.19.207,RL,2022.2.5,59.9940845766311,
33,33,84,34,0,53,53,53,,,,,,,,,,,None,321.1783417999977,321.1783417999977,321.1783417999977,321.1783417999977,321.1783417999977,321.1783417999977,i,0.29437509999843314,321.4952301000012,321.4952301000012,321.4952301000012,321.4952301000012,321.4952301000012,321.4952301000012,321.77836899997783,322.77816379998694,322.77816379998694,322.77816379998694,322.77816379998694,322.77816379998694,322.77816379998694,322.7614909999829,322.77816379998694,322.77816379998694,322.77816379998694,322.77816379998694,322.77816379998694,322.77816379998694,322.77816379998694,324.05955579999136,324.05955579999136,324.05955579999136,324.05955579999136,324.05955579999136,324.05955579999136,324.05955579999136,33,34,84,33,84,60,324.05955579999136,325.84363210000447,,,,,,,,,,,,,,,,,,,,３３７,f,２９,2023-05-21_12h05.19.207,RL,2022.2.5,59.9940845766311,
29,36,74,36,0,54,54,54,,,,,,,,,,,None,325.84363210000447,325.84363210000447,325.84363210000447,325.84363210000447,325.84363210000447,325.84363210000447,i,0.25895190000301227,326.13054650000413,326.13054650000413,326.13054650000413,326.13054650000413,326.13054650000413,326.13054650000413,326.41073259999393,327.99403599998914,327.99403599998914,327.99403599998914,327.99403599998914,327.99403599998914,327.99403599998914,327.97732279999764,327.99403599998914,327.99403599998914,327.99403599998914,327.99403599998914,327.99403599998914,327.99403599998914,327.99403599998914,329.8586469999864,329.8586469999864,329.8586469999864,329.8586469999864,329.8586469999864,329.8586469999864,329.8586469999864,29,36,74,36,74,60,329.8586469999864,331.47613779999665,,,,,,,,,,,,,,,,,,,,３３７,f,２９,2023-05-21_12h05.19.207,RL,2022.2.5,59.9940845766311,
29,45,68,34,0,55,55,55,,,,,,,,,,,None,331.47613779999665,331.47613779999665,331.47613779999665,331.47613779999665,331.47613779999665,331.47613779999665,i,0.25575040001422167,331.7599792999972,331.7599792999972,331.7599792999972,331.7599792999972,331.7599792999972,331.7599792999972,332.0433479999774,333.44267960000434,333.44267960000434,333.44267960000434,333.44267960000434,333.44267960000434,333.44267960000434,333.4262005999917,333.44267960000434,333.44267960000434,333.44267960000434,333.44267960000434,333.44267960000434,333.44267960000434,333.44267960000434,335.1241805999889,335.1241805999889,335.1241805999889,335.1241805999889,335.1241805999889,335.1241805999889,335.1241805999889,29,34,68,45,68,60,335.1241805999889,336.80813879999914,,,,,,,,,,,,,,,,,,,,３３７,f,２９,2023-05-21_12h05.19.207,RL,2022.2.5,59.9940845766311,
28,49,66,37,0,56,56,56,,,,,,,,,,,None,336.80813879999914,336.80813879999914,336.80813879999914,336.80813879999914,336.80813879999914,336.80813879999914,i,0.44886370000313036,337.27781239998876,337.27781239998876,337.27781239998876,337.27781239998876,337.27781239998876,337.27781239998876,337.5589546999836,338.825119599991,338.825119599991,338.825119599991,338.825119599991,338.825119599991,338.825119599991,338.8089890999836,338.825119599991,338.825119599991,338.825119599991,338.825119599991,338.825119599991,338.825119599991,338.825119599991,340.373315099976,340.373315099976,340.373315099976,340.373315099976,340.373315099976,340.373315099976,340.373315099976,28,37,66,49,66,60,340.373315099976,342.34101899998495,,,,,,,,,,,,,,,,,,,,３３７,f,２９,2023-05-21_12h05.19.207,RL,2022.2.5,59.9940845766311,
24,35,59,34,0,57,57,57,,,,,,,,,,,None,342.34101899998495,342.34101899998495,342.34101899998495,342.34101899998495,342.34101899998495,342.34101899998495,i,0.294263999996474,342.65804779998143,342.65804779998143,342.65804779998143,342.65804779998143,342.65804779998143,342.65804779998143,342.9413511999883,344.4986943999829,344.4986943999829,344.4986943999829,344.4986943999829,344.4986943999829,344.4986943999829,344.4408680999768,344.4986943999829,344.4986943999829,344.4986943999829,344.4986943999829,344.4986943999829,344.4986943999829,344.4986943999829,346.2892122999765,346.2892122999765,346.2892122999765,346.2892122999765,346.2892122999765,346.2892122999765,346.2892122999765,24,34,59,35,59,60,346.2892122999765,347.90625739999814,,,,,,,,,,,,,,,,,,,,３３７,f,２９,2023-05-21_12h05.19.207,RL,2022.2.5,59.9940845766311,
26,38,54,39,0,58,58,58,,,,,,,,,,,None,347.90625739999814,347.90625739999814,347.90625739999814,347.90625739999814,347.90625739999814,347.90625739999814,i,0.49627430000691675,348.42369480000343,348.42369480000343,348.42369480000343,348.42369480000343,348.42369480000343,348.42369480000343,348.7234559999779,350.20663219998823,350.20663219998823,350.20663219998823,350.20663219998823,350.20663219998823,350.20663219998823,350.20663219998823,350.20663219998823,350.20663219998823,350.20663219998823,350.20663219998823,350.20663219998823,350.20663219998823,350.20663219998823,351.9881717999815,351.9881717999815,351.9881717999815,351.9881717999815,351.9881717999815,351.9881717999815,351.9881717999815,26,39,54,38,54,60,351.9881717999815,353.6058161999972,,,,,,,,,,,,,,,,,,,,３３７,f,２９,2023-05-21_12h05.19.207,RL,2022.2.5,59.9940845766311,
28,46,54,29,0,59,59,59,,,,,,,,,,,None,353.6058161999972,353.6058161999972,353.6058161999972,353.6058161999972,353.6058161999972,353.6058161999972,r,0.34231540001928806,353.9769239999878,353.9769239999878,353.9769239999878,353.9769239999878,353.9769239999878,353.9769239999878,354.2724139999773,355.3557186999824,355.3557186999824,355.3557186999824,355.3557186999824,355.3557186999824,355.3557186999824,355.3557186999824,355.3557186999824,355.3557186999824,355.3557186999824,355.3557186999824,355.3557186999824,355.3557186999824,355.3557186999824,356.73725559999,356.73725559999,356.73725559999,356.73725559999,356.73725559999,356.73725559999,356.73725559999,28,29,54,46,29,60,356.73725559999,358.55475949999527,,,,,,,,,,,,,,,,,,,,３３７,f,２９,2023-05-21_12h05.19.207,RL,2022.2.5,59.9940845766311,
24,39,59,32,0,60,60,60,,,,,,,,,,,None,358.55475949999527,358.55475949999527,358.55475949999527,358.55475949999527,358.55475949999527,358.55475949999527,f,0.7306663000199478,359.3063021999842,359.3063021999842,359.3063021999842,359.3063021999842,359.3063021999842,359.3063021999842,359.5884298000019,361.0881330999837,361.0881330999837,361.0881330999837,361.0881330999837,361.0881330999837,361.0881330999837,361.07145439999294,361.0881330999837,361.0881330999837,361.0881330999837,361.0881330999837,361.0881330999837,361.0881330999837,361.0881330999837,362.869151299994,362.869151299994,362.869151299994,362.869151299994,362.869151299994,362.869151299994,362.869151299994,24,32,59,39,24,60,362.869151299994,364.83707270000014,,,,,,,,,,,,,,,,,,,,３３７,f,２９,2023-05-21_12h05.19.207,RL,2022.2.5,59.9940845766311,
34,41,50,30,0,61,61,61,,,,,,,,,,,None,364.83707270000014,364.83707270000014,364.83707270000014,364.83707270000014,364.83707270000014,364.83707270000014,i,0.28727279999293387,365.15407550000236,365.15407550000236,365.15407550000236,365.15407550000236,365.15407550000236,365.15407550000236,365.4375233000028,366.4870685999922,366.4870685999922,366.4870685999922,366.4870685999922,366.4870685999922,366.4870685999922,366.47076850000303,366.4870685999922,366.4870685999922,366.4870685999922,366.4870685999922,366.4870685999922,366.4870685999922,366.4870685999922,367.818732499989,367.818732499989,367.818732499989,367.818732499989,367.818732499989,367.818732499989,367.818732499989,34,30,50,41,50,60,367.818732499989,369.7366150000016,,,,,,,,,,,,,,,,,,,,３３７,f,２９,2023-05-21_12h05.19.207,RL,2022.2.5,59.9940845766311,
32,47,60,23,0,62,62,62,,,,,,,,,,,None,369.7366150000016,369.7366150000016,369.7366150000016,369.7366150000016,369.7366150000016,369.7366150000016,i,0.3580006999836769,370.11981010000454,370.11981010000454,370.11981010000454,370.11981010000454,370.11981010000454,370.11981010000454,370.40325380000286,372.41923820000375,372.41923820000375,372.41923820000375,372.41923820000375,372.41923820000375,372.41923820000375,372.4025449999899,372.41923820000375,372.41923820000375,372.41923820000375,372.41923820000375,372.41923820000375,372.41923820000375,372.41923820000375,374.7174731999985,374.7174731999985,374.7174731999985,374.7174731999985,374.7174731999985,374.7174731999985,374.7174731999985,32,23,60,47,60,60,374.7174731999985,376.40195969998604,,,,,,,,,,,,,,,,,,,,３３７,f,２９,2023-05-21_12h05.19.207,RL,2022.2.5,59.9940845766311,
30,44,68,23,0,63,63,63,,,,,,,,,,,None,376.40195969998604,376.40195969998604,376.40195969998604,376.40195969998604,376.40195969998604,376.40195969998604,i,0.3092707000032533,376.7354432999855,376.7354432999855,376.7354432999855,376.7354432999855,376.7354432999855,376.7354432999855,377.0189715999877,378.9683654999826,378.9683654999826,378.9683654999826,378.9683654999826,378.9683654999826,378.9683654999826,378.95147629998974,378.9683654999826,378.9683654999826,378.9683654999826,378.9683654999826,378.9683654999826,378.9683654999826,378.9683654999826,381.1995061999769,381.1995061999769,381.1995061999769,381.1995061999769,381.1995061999769,381.1995061999769,381.1995061999769,30,23,68,44,68,60,381.1995061999769,382.883725599997,,,,,,,,,,,,,,,,,,,,３３７,f,２９,2023-05-21_12h05.19.207,RL,2022.2.5,59.9940845766311,
29,43,63,21,0,64,64,64,,,,,,,,,,,None,382.883725599997,382.883725599997,382.883725599997,382.883725599997,382.883725599997,382.883725599997,i,0.3936016999941785,383.30257119997987,383.30257119997987,383.30257119997987,383.30257119997987,383.30257119997987,383.30257119997987,383.6009283000021,384.7675762999861,384.7675762999861,384.7675762999861,384.7675762999861,384.7675762999861,384.7675762999861,384.7675762999861,384.7675762999861,384.7675762999861,384.7675762999861,384.7675762999861,384.7675762999861,384.7675762999861,384.7675762999861,386.2323017999879,386.2323017999879,386.2323017999879,386.2323017999879,386.2323017999879,386.2323017999879,386.2323017999879,29,21,63,43,63,60,386.2323017999879,388.0833074999973,,,,,,,,,,,,,,,,,,,,３３７,f,２９,2023-05-21_12h05.19.207,RL,2022.2.5,59.9940845766311,
31,50,65,22,0,65,65,65,,,,,,,,,,,None,388.0833074999973,388.0833074999973,388.0833074999973,388.0833074999973,388.0833074999973,388.0833074999973,i,0.3049780000001192,388.4167272999766,388.4167272999766,388.4167272999766,388.4167272999766,388.4167272999766,388.4167272999766,388.699975800002,390.682903399982,390.682903399982,390.682903399982,390.682903399982,390.682903399982,390.682903399982,390.66602529998636,390.682903399982,390.682903399982,390.682903399982,390.682903399982,390.682903399982,390.682903399982,390.682903399982,392.9476526999788,392.9476526999788,392.9476526999788,392.9476526999788,392.9476526999788,392.9476526999788,392.9476526999788,31,22,65,50,65,60,392.9476526999788,394.53191219997825,,,,,,,,,,,,,,,,,,,,３３７,f,２９,2023-05-21_12h05.19.207,RL,2022.2.5,59.9940845766311,
29,46,65,28,0,66,66,66,,,,,,,,,,,None,394.53191219997825,394.53191219997825,394.53191219997825,394.53191219997825,394.53191219997825,394.53191219997825,i,0.33243579999543726,394.8821398,394.8821398,394.8821398,394.8821398,394.8821398,394.8821398,395.16570240000146,396.1654209999833,396.1654209999833,396.1654209999833,396.1654209999833,396.1654209999833,396.1654209999833,396.14890499998,396.1654209999833,396.1654209999833,396.1654209999833,396.1654209999833,396.1654209999833,396.1654209999833,396.1654209999833,397.4471496999904,397.4471496999904,397.4471496999904,397.4471496999904,397.4471496999904,397.4471496999904,397.4471496999904,29,28,65,46,65,60,397.4471496999904,399.21413859998574,,,,,,,,,,,,,,,,,,,,３３７,f,２９,2023-05-21_12h05.19.207,RL,2022.2.5,59.9940845766311,
34,43,69,24,0,67,67,67,,,,,,,,,,,None,399.21413859998574,399.21413859998574,399.21413859998574,399.21413859998574,399.21413859998574,399.21413859998574,i,0.26217909998376854,399.4985756999813,399.4985756999813,399.4985756999813,399.4985756999813,399.4985756999813,399.4985756999813,399.7979458000045,400.9475610999798,400.9475610999798,400.9475610999798,400.9475610999798,400.9475610999798,400.9475610999798,400.9475610999798,400.9475610999798,400.9475610999798,400.9475610999798,400.9475610999798,400.9475610999798,400.9475610999798,400.9475610999798,402.395672499988,402.395672499988,402.395672499988,402.395672499988,402.395672499988,402.395672499988,402.395672499988,34,24,69,43,69,60,402.395672499988,404.3471320999961,,,,,,,,,,,,,,,,,,,,３３７,f,２９,2023-05-21_12h05.19.207,RL,2022.2.5,59.9940845766311,
35,51,62,26,0,68,68,68,,,,,,,,,,,None,404.3471320999961,404.3471320999961,404.3471320999961,404.3471320999961,404.3471320999961,404.3471320999961,i,0.27191789998323657,404.6472728999797,404.6472728999797,404.6472728999797,404.6472728999797,404.6472728999797,404.6472728999797,404.93091709999135,406.1803427999839,406.1803427999839,406.1803427999839,406.1803427999839,406.1803427999839,406.1803427999839,406.1636774999788,406.1803427999839,406.1803427999839,406.1803427999839,406.1803427999839,406.1803427999839,406.1803427999839,406.1803427999839,407.71158289999585,407.71158289999585,407.71158289999585,407.71158289999585,407.71158289999585,407.71158289999585,407.71158289999585,35,26,62,51,62,60,407.71158289999585,409.6126318000024,,,,,,,,,,,,,,,,,,,,３３７,f,２９,2023-05-21_12h05.19.207,RL,2022.2.5,59.9940845766311,
26,44,63,28,0,69,69,69,,,,,,,,,,,None,409.6126318000024,409.6126318000024,409.6126318000024,409.6126318000024,409.6126318000024,409.6126318000024,i,0.43193769999197684,410.06388199998764,410.06388199998764,410.06388199998764,410.06388199998764,410.06388199998764,410.06388199998764,410.36269819998415,412.2793166000047,412.2793166000047,412.2793166000047,412.2793166000047,412.2793166000047,412.2793166000047,412.2793166000047,412.2793166000047,412.2793166000047,412.2793166000047,412.2793166000047,412.2793166000047,412.2793166000047,412.2793166000047,414.4936104999797,414.4936104999797,414.4936104999797,414.4936104999797,414.4936104999797,414.4936104999797,414.4936104999797,26,28,63,44,63,60,414.4936104999797,416.2280309999769,,,,,,,,,,,,,,,,,,,,３３７,f,２９,2023-05-21_12h05.19.207,RL,2022.2.5,59.9940845766311,
37,45,65,36,0,70,70,70,,,,,,,,,,,None,416.2280309999769,416.2280309999769,416.2280309999769,416.2280309999769,416.2280309999769,416.2280309999769,i,0.27886880000005476,416.5282986999955,416.5282986999955,416.5282986999955,416.5282986999955,416.5282986999955,416.5282986999955,416.8115581999882,418.72798539997893,418.72798539997893,418.72798539997893,418.72798539997893,418.72798539997893,418.72798539997893,418.7113715999876,418.72798539997893,418.72798539997893,418.72798539997893,418.72798539997893,418.72798539997893,418.72798539997893,418.72798539997893,420.926001099986,420.926001099986,420.926001099986,420.926001099986,420.926001099986,420.926001099986,420.926001099986,37,36,65,45,65,60,420.926001099986,422.7272195999976,,,,,,,,,,,,,,,,,,,,３３７,f,２９,2023-05-21_12h05.19.207,RL,2022.2.5,59.9940845766311,
40,48,60,38,0,71,71,71,,,,,,,,,,,None,422.7272195999976,422.7272195999976,422.7272195999976,422.7272195999976,422.7272195999976,422.7272195999976,i,0.28028599999379367,423.02854229998775,423.02854229998775,423.02854229998775,423.02854229998775,423.02854229998775,423.02854229998775,423.32722929999,424.2104738999915,424.2104738999915,424.2104738999915,424.2104738999915,424.2104738999915,424.2104738999915,424.2104738999915,424.2104738999915,424.2104738999915,424.2104738999915,424.2104738999915,424.2104738999915,424.2104738999915,424.2104738999915,425.3919265999866,425.3919265999866,425.3919265999866,425.3919265999866,425.3919265999866,425.3919265999866,425.3919265999866,40,38,60,48,60,60,425.3919265999866,427.2929246999847,,,,,,,,,,,,,,,,,,,,３３７,f,２９,2023-05-21_12h05.19.207,RL,2022.2.5,59.9940845766311,
44,49,59,36,0,72,72,72,,,,,,,,,,,None,427.2929246999847,427.2929246999847,427.2929246999847,427.2929246999847,427.2929246999847,427.2929246999847,i,0.339360600017244,427.65988319998723,427.65988319998723,427.65988319998723,427.65988319998723,427.65988319998723,427.65988319998723,427.9597563999996,428.9931633999804,428.9931633999804,428.9931633999804,428.9931633999804,428.9931633999804,428.9931633999804,428.9931633999804,428.9931633999804,428.9931633999804,428.9931633999804,428.9931633999804,428.9931633999804,428.9931633999804,428.9931633999804,430.3240577999968,430.3240577999968,430.3240577999968,430.3240577999968,430.3240577999968,430.3240577999968,430.3240577999968,44,36,59,49,59,60,430.3240577999968,432.22499089999474,,,,,,,,,,,,,,,,,,,,３３７,f,２９,2023-05-21_12h05.19.207,RL,2022.2.5,59.9940845766311,
44,43,61,45,0,73,73,73,,,,,,,,,,,None,432.22499089999474,432.22499089999474,432.22499089999474,432.22499089999474,432.22499089999474,432.22499089999474,i,0.3007114000211004,432.5635967999988,432.5635967999988,432.5635967999988,432.5635967999988,432.5635967999988,432.5635967999988,432.8424249999807,434.8420552999887,434.8420552999887,434.8420552999887,434.8420552999887,434.8420552999887,434.8420552999887,434.8252158999967,434.8420552999887,434.8420552999887,434.8420552999887,434.8420552999887,434.8420552999887,434.8420552999887,434.8420552999887,437.1232145999966,437.1232145999966,437.1232145999966,437.1232145999966,437.1232145999966,437.1232145999966,437.1232145999966,44,45,61,43,61,60,437.1232145999966,438.79092519998085,,,,,,,,,,,,,,,,,,,,３３７,f,２９,2023-05-21_12h05.19.207,RL,2022.2.5,59.9940845766311,
38,53,59,41,0,74,74,74,,,,,,,,,,,None,438.79092519998085,438.79092519998085,438.79092519998085,438.79092519998085,438.79092519998085,438.79092519998085,i,0.2956371000036597,439.10869239998283,439.10869239998283,439.10869239998283,439.10869239998283,439.10869239998283,439.10869239998283,439.3914631999796,441.15727729999344,441.15727729999344,441.15727729999344,441.15727729999344,441.15727729999344,441.15727729999344,441.1407288000046,441.15727729999344,441.15727729999344,441.15727729999344,441.15727729999344,441.15727729999344,441.15727729999344,441.15727729999344,443.20550979999825,443.20550979999825,443.20550979999825,443.20550979999825,443.20550979999825,443.20550979999825,443.20550979999825,38,41,59,53,59,60,443.20550979999825,444.97183949998,,,,,,,,,,,,,,,,,,,,３３７,f,２９,2023-05-21_12h05.19.207,RL,2022.2.5,59.9940845766311,
39,36,56,42,0,75,75,75,,,,,,,,,,,q,458.8871950999892,458.8871950999892,458.8871950999892,458.8871950999892,458.8871950999892,458.8871950999892,i,0.8493464000057429,459.7770997000043,459.7770997000043,459.7770997000043,459.7770997000043,459.7770997000043,459.7770997000043,460.0541167999909,461.05377070000395,461.05377070000395,461.05377070000395,461.05377070000395,461.05377070000395,461.05377070000395,461.0375034000026,461.05377070000395,461.05377070000395,461.05377070000395,461.05377070000395,461.05377070000395,461.05377070000395,461.05377070000395,462.33549179998226,462.33549179998226,462.33549179998226,462.33549179998226,462.33549179998226,462.33549179998226,462.33549179998226,39,42,56,36,56,60,462.33549179998226,464.16988679999486,444.97183949998,444.97183949998,8.875662200007355,453.87219399999594,453.87219399999594,458.8871950999892,458.8871950999892,,,,,,,,,,,,,３３７,f,２９,2023-05-21_12h05.19.207,RL,2022.2.5,59.9940845766311,
51,47,48,41,0,76,76,76,,,,,,,,,,,None,464.16988679999486,464.16988679999486,464.16988679999486,464.16988679999486,464.16988679999486,464.16988679999486,i,0.3110039999883156,464.5033863999997,464.5033863999997,464.5033863999997,464.5033863999997,464.5033863999997,464.5033863999997,464.786457899987,466.4363871999958,466.4363871999958,466.4363871999958,466.4363871999958,466.4363871999958,466.4363871999958,466.419722599996,466.4363871999958,466.4363871999958,466.4363871999958,466.4363871999958,466.4363871999958,466.4363871999958,466.4363871999958,468.36742279998725,468.36742279998725,468.36742279998725,468.36742279998725,468.36742279998725,468.36742279998725,468.36742279998725,51,41,48,47,48,60,468.36742279998725,470.1018866999948,,,,,,,,,,,,,,,,,,,,３３７,f,２９,2023-05-21_12h05.19.207,RL,2022.2.5,59.9940845766311,
42,48,50,42,0,77,77,77,,,,,,,,,,,None,470.1018866999948,470.1018866999948,470.1018866999948,470.1018866999948,470.1018866999948,470.1018866999948,j,0.2548629999801051,470.3855997999781,470.3855997999781,470.3855997999781,470.3855997999781,470.3855997999781,470.3855997999781,470.669262099982,471.9188432999945,471.9188432999945,471.9188432999945,471.9188432999945,471.9188432999945,471.9188432999945,471.9188432999945,471.9188432999945,471.9188432999945,471.9188432999945,471.9188432999945,471.9188432999945,471.9188432999945,471.9188432999945,473.45023210000363,473.45023210000363,473.45023210000363,473.45023210000363,473.45023210000363,473.45023210000363,473.45023210000363,42,42,50,48,48,60,473.45023210000363,475.1177868999948,,,,,,,,,,,,,,,,,,,,３３７,f,２９,2023-05-21_12h05.19.207,RL,2022.2.5,59.9940845766311,
34,43,49,37,0,78,78,78,,,,,,,,,,,None,475.1177868999948,475.1177868999948,475.1177868999948,475.1177868999948,475.1177868999948,475.1177868999948,i,0.25979389998246916,475.4037180999876,475.4037180999876,475.4037180999876,475.4037180999876,475.4037180999876,475.4037180999876,475.70133290000376,477.58436379997875,477.58436379997875,477.58436379997875,477.58436379997875,477.58436379997875,477.58436379997875,477.58436379997875,477.58436379997875,477.58436379997875,477.58436379997875,477.58436379997875,477.58436379997875,477.58436379997875,477.58436379997875,479.76570219997666,479.76570219997666,479.76570219997666,479.76570219997666,479.76570219997666,479.76570219997666,479.76570219997666,34,37,49,43,49,60,479.76570219997666,481.5997664000024,,,,,,,,,,,,,,,,,,,,３３７,f,２９,2023-05-21_12h05.19.207,RL,2022.2.5,59.9940845766311,
36,36,43,42,0,79,79,79,,,,,,,,,,,None,481.5997664000024,481.5997664000024,481.5997664000024,481.5997664000024,481.5997664000024,481.5997664000024,i,0.32888079999247566,481.9503635999863,481.9503635999863,481.9503635999863,481.9503635999863,481.9503635999863,481.9503635999863,482.2334262999939,483.0834552999877,483.0834552999877,483.0834552999877,483.0834552999877,483.0834552999877,483.0834552999877,483.06699449999724,483.0834552999877,483.0834552999877,483.0834552999877,483.0834552999877,483.0834552999877,483.0834552999877,483.0834552999877,484.2149577999953,484.2149577999953,484.2149577999953,484.2149577999953,484.2149577999953,484.2149577999953,484.2149577999953,36,42,43,36,43,60,484.2149577999953,485.8157392999856,,,,,,,,,,,,,,,,,,,,３３７,f,２９,2023-05-21_12h05.19.207,RL,2022.2.5,59.9940845766311,
41,40,60,46,0,80,80,80,,,,,,,,,,,None,485.8157392999856,485.8157392999856,485.8157392999856,485.8157392999856,485.8157392999856,485.8157392999856,j,0.2812696000037249,486.1165869999968,486.1165869999968,486.1165869999968,486.1165869999968,486.1165869999968,486.1165869999968,486.4165081999963,488.33256249999977,488.33256249999977,488.33256249999977,488.33256249999977,488.33256249999977,488.33256249999977,488.33256249999977,488.33256249999977,488.33256249999977,488.33256249999977,488.33256249999977,488.33256249999977,488.33256249999977,488.33256249999977,490.54678089998197,490.54678089998197,490.54678089998197,490.54678089998197,490.54678089998197,490.54678089998197,490.54678089998197,41,46,60,40,40,60,490.54678089998197,492.51473359999363,,,,,,,,,,,,,,,,,,,,３３７,f,２９,2023-05-21_12h05.19.207,RL,2022.2.5,59.9940845766311,
36,44,58,50,0,81,81,81,,,,,,,,,,,None,492.51473359999363,492.51473359999363,492.51473359999363,492.51473359999363,492.51473359999363,492.51473359999363,i,0.2598844000021927,492.7995247999788,492.7995247999788,492.7995247999788,492.7995247999788,492.7995247999788,492.7995247999788,493.0820974999806,495.0144321999978,495.0144321999978,495.0144321999978,495.0144321999978,495.0144321999978,495.0144321999978,494.9980793999857,495.0144321999978,495.0144321999978,495.0144321999978,495.0144321999978,495.0144321999978,495.0144321999978,495.0144321999978,497.2291496999969,497.2291496999969,497.2291496999969,497.2291496999969,497.2291496999969,497.2291496999969,497.2291496999969,36,50,58,44,58,60,497.2291496999969,499.0636287999805,,,,,,,,,,,,,,,,,,,,３３７,f,２９,2023-05-21_12h05.19.207,RL,2022.2.5,59.9940845766311,
42,26,48,60,0,82,82,82,,,,,,,,,,,None,499.0636287999805,499.0636287999805,499.0636287999805,499.0636287999805,499.0636287999805,499.0636287999805,i,0.2710242999892216,499.36458819999825,499.36458819999825,499.36458819999825,499.36458819999825,499.36458819999825,499.36458819999825,499.64731729999767,500.53044370000134,500.53044370000134,500.53044370000134,500.53044370000134,500.53044370000134,500.53044370000134,500.5136237999832,500.53044370000134,500.53044370000134,500.53044370000134,500.53044370000134,500.53044370000134,500.53044370000134,500.53044370000134,501.69516669999575,501.69516669999575,501.69516669999575,501.69516669999575,501.69516669999575,501.69516669999575,501.69516669999575,42,60,48,26,48,60,501.69516669999575,503.22983009999734,,,,,,,,,,,,,,,,,,,,３３７,f,２９,2023-05-21_12h05.19.207,RL,2022.2.5,59.9940845766311,
38,37,54,48,0,83,83,83,,,,,,,,,,,None,503.22983009999734,503.22983009999734,503.22983009999734,503.22983009999734,503.22983009999734,503.22983009999734,i,1.0509726000018418,504.3193691999768,504.3193691999768,504.3193691999768,504.3193691999768,504.3193691999768,504.3193691999768,504.5962498000008,506.4458870999806,506.4458870999806,506.4458870999806,506.4458870999806,506.4458870999806,506.4458870999806,506.4125625999877,506.4458870999806,506.4458870999806,506.4458870999806,506.4458870999806,506.4458870999806,506.4458870999806,506.4458870999806,508.5607752999931,508.5607752999931,508.5607752999931,508.5607752999931,508.5607752999931,508.5607752999931,508.5607752999931,38,48,54,37,54,60,508.5607752999931,510.4616432999901,,,,,,,,,,,,,,,,,,,,３３７,f,２９,2023-05-21_12h05.19.207,RL,2022.2.5,59.9940845766311,
39,35,47,48,0,84,84,84,,,,,,,,,,,None,510.4616432999901,510.4616432999901,510.4616432999901,510.4616432999901,510.4616432999901,510.4616432999901,i,0.3114001000067219,510.79537710000295,510.79537710000295,510.79537710000295,510.79537710000295,510.79537710000295,510.79537710000295,511.07867099999567,512.3450014999835,512.3450014999835,512.3450014999835,512.3450014999835,512.3450014999835,512.3450014999835,512.3282663999998,512.3450014999835,512.3450014999835,512.3450014999835,512.3450014999835,512.3450014999835,512.3450014999835,512.3450014999835,513.8929819999903,513.8929819999903,513.8929819999903,513.8929819999903,513.8929819999903,513.8929819999903,513.8929819999903,39,48,47,35,47,60,513.8929819999903,515.7771919999796,,,,,,,,,,,,,,,,,,,,３３７,f,２９,2023-05-21_12h05.19.207,RL,2022.2.5,59.9940845766311,
38,29,51,57,0,85,85,85,,,,,,,,,,,None,515.7771919999796,515.7771919999796,515.7771919999796,515.7771919999796,515.7771919999796,515.7771919999796,j,0.30228810000699013,516.0980326999852,516.0980326999852,516.0980326999852,516.0980326999852,516.0980326999852,516.0980326999852,516.3946727000002,518.1607775999873,518.1607775999873,518.1607775999873,518.1607775999873,518.1607775999873,518.1607775999873,518.1442119999847,518.1607775999873,518.1607775999873,518.1607775999873,518.1607775999873,518.1607775999873,518.1607775999873,518.1607775999873,520.2085626999906,520.2085626999906,520.2085626999906,520.2085626999906,520.2085626999906,520.2085626999906,520.2085626999906,38,57,51,29,29,60,520.2085626999906,522.0600415999943,,,,,,,,,,,,,,,,,,,,３３７,f,２９,2023-05-21_12h05.19.207,RL,2022.2.5,59.9940845766311,
44,34,47,53,0,86,86,86,,,,,,,,,,,None,522.0600415999943,522.0600415999943,522.0600415999943,522.0600415999943,522.0600415999943,522.0600415999943,None,,,,,,,,,,,,,,,,,,,,,,,,,,,,,,44,53,47,34,0,60,529.5739180999808,531.3580366999959,,,,,,,,523.5591578999883,523.5591578999883,523.5591578999883,523.5591578999883,523.5591578999883,523.5591578999883,523.5591578999883,529.5739180999808,,,,,３３７,f,２９,2023-05-21_12h05.19.207,RL,2022.2.5,59.9940845766311,
44,27,50,59,0,87,87,87,,,,,,,,,,,None,531.3580366999959,531.3580366999959,531.3580366999959,531.3580366999959,531.3580366999959,531.3580366999959,r,0.2566946000151802,531.6449658999918,531.6449658999918,531.6449658999918,531.6449658999918,531.6449658999918,531.6449658999918,531.9417873999919,533.4245597999834,533.4245597999834,533.4245597999834,533.4245597999834,533.4245597999834,533.4245597999834,533.4245597999834,533.4245597999834,533.4245597999834,533.4245597999834,533.4245597999834,533.4245597999834,533.4245597999834,533.4245597999834,535.2060280999867,535.2060280999867,535.2060280999867,535.2060280999867,535.2060280999867,535.2060280999867,535.2060280999867,44,59,50,27,59,60,535.2060280999867,536.9072614999895,,,,,,,,,,,,,,,,,,,,３３７,f,２９,2023-05-21_12h05.19.207,RL,2022.2.5,59.9940845766311,
40,34,46,57,0,88,88,88,,,,,,,,,,,None,536.9072614999895,536.9072614999895,536.9072614999895,536.9072614999895,536.9072614999895,536.9072614999895,r,0.25483180000446737,537.1917867999873,537.1917867999873,537.1917867999873,537.1917867999873,537.1917867999873,537.1917867999873,537.4739725999825,538.4074584000045,538.4074584000045,538.4074584000045,538.4074584000045,538.4074584000045,538.4074584000045,538.3908838999923,538.4074584000045,538.4074584000045,538.4074584000045,538.4074584000045,538.4074584000045,538.4074584000045,538.4074584000045,539.6222010999918,539.6222010999918,539.6222010999918,539.6222010999918,539.6222010999918,539.6222010999918,539.6222010999918,40,57,46,34,57,60,539.6222010999918,541.4064189999772,,,,,,,,,,,,,,,,,,,,３３７,f,２９,2023-05-21_12h05.19.207,RL,2022.2.5,59.9940845766311,
45,39,51,62,0,89,89,89,,,,,,,,,,,None,541.4064189999772,541.4064189999772,541.4064189999772,541.4064189999772,541.4064189999772,541.4064189999772,r,0.31285280000884086,541.7401026999869,541.7401026999869,541.7401026999869,541.7401026999869,541.7401026999869,541.7401026999869,542.0235747999977,543.9731268000032,543.9731268000032,543.9731268000032,543.9731268000032,543.9731268000032,543.9731268000032,543.9565030999947,543.9731268000032,543.9731268000032,543.9731268000032,543.9731268000032,543.9731268000032,543.9731268000032,543.9731268000032,546.2043615999864,546.2043615999864,546.2043615999864,546.2043615999864,546.2043615999864,546.2043615999864,546.2043615999864,45,62,51,39,62,60,546.2043615999864,547.955511099979,,,,,,,,,,,,,,,,,,,,３３７,f,２９,2023-05-21_12h05.19.207,RL,2022.2.5,59.9940845766311,
48,40,59,67,0,90,90,90,,,,,,,,,,,None,547.955511099979,547.955511099979,547.955511099979,547.955511099979,547.955511099979,547.955511099979,r,0.24570989998755977,548.2225363999896,548.2225363999896,548.2225363999896,548.2225363999896,548.2225363999896,548.2225363999896,548.5052397999971,550.4383738999895,550.4383738999895,550.4383738999895,550.4383738999895,550.4383738999895,550.4383738999895,550.4215934999811,550.4383738999895,550.4383738999895,550.4383738999895,550.4383738999895,550.4383738999895,550.4383738999895,550.4383738999895,552.63667789998,552.63667789998,552.63667789998,552.63667789998,552.63667789998,552.63667789998,552.63667789998,48,67,59,40,67,60,552.63667789998,554.5708298999816,,,,,,,,,,,,,,,,,,,,３３７,f,２９,2023-05-21_12h05.19.207,RL,2022.2.5,59.9940845766311,
50,29,58,64,0,91,91,91,,,,,,,,,,,None,554.5708298999816,554.5708298999816,554.5708298999816,554.5708298999816,554.5708298999816,554.5708298999816,r,0.23154070001328364,554.8217169999843,554.8217169999843,554.8217169999843,554.8217169999843,554.8217169999843,554.8217169999843,555.1209671999968,556.5371691999899,556.5371691999899,556.5371691999899,556.5371691999899,556.5371691999899,556.5371691999899,556.5371691999899,556.5371691999899,556.5371691999899,556.5371691999899,556.5371691999899,556.5371691999899,556.5371691999899,556.5371691999899,558.2518043000018,558.2518043000018,558.2518043000018,558.2518043000018,558.2518043000018,558.2518043000018,558.2518043000018,50,64,58,29,64,60,558.2518043000018,559.8198577000003,,,,,,,,,,,,,,,,,,,,３３７,f,２９,2023-05-21_12h05.19.207,RL,2022.2.5,59.9940845766311,
55,31,56,74,0,92,92,92,,,,,,,,,,,None,559.8198577000003,559.8198577000003,559.8198577000003,559.8198577000003,559.8198577000003,559.8198577000003,r,0.3271408999862615,560.1704407999932,560.1704407999932,560.1704407999932,560.1704407999932,560.1704407999932,560.1704407999932,560.453036699997,562.0864497000002,562.0864497000002,562.0864497000002,562.0864497000002,562.0864497000002,562.0864497000002,562.0698365999851,562.0864497000002,562.0864497000002,562.0864497000002,562.0864497000002,562.0864497000002,562.0864497000002,562.0864497000002,564.0008744999941,564.0008744999941,564.0008744999941,564.0008744999941,564.0008744999941,564.0008744999941,564.0008744999941,55,74,56,31,74,60,564.0008744999941,565.9684798999806,,,,,,,,,,,,,,,,,,,,３３７,f,２９,2023-05-21_12h05.19.207,RL,2022.2.5,59.9940845766311,
55,41,46,76,0,93,93,93,,,,,,,,,,,None,565.9684798999806,565.9684798999806,565.9684798999806,565.9684798999806,565.9684798999806,565.9684798999806,r,0.2514460000093095,566.2588422999834,566.2588422999834,566.2588422999834,566.2588422999834,566.2588422999834,566.2588422999834,566.5355695000035,567.6688049999939,567.6688049999939,567.6688049999939,567.6688049999939,567.6688049999939,567.6688049999939,567.6521611999779,567.6688049999939,567.6688049999939,567.6688049999939,567.6688049999939,567.6688049999939,567.6688049999939,567.6688049999939,569.0833752999897,569.0833752999897,569.0833752999897,569.0833752999897,569.0833752999897,569.0833752999897,569.0833752999897,55,76,46,41,76,60,569.0833752999897,570.8180571999983,,,,,,,,,,,,,,,,,,,,３３７,f,２９,2023-05-21_12h05.19.207,RL,2022.2.5,59.9940845766311,
53,42,49,71,0,94,94,94,,,,,,,,,,,None,570.8180571999983,570.8180571999983,570.8180571999983,570.8180571999983,570.8180571999983,570.8180571999983,r,0.3085453000094276,571.151882199978,571.151882199978,571.151882199978,571.151882199978,571.151882199978,571.151882199978,571.4352260000014,573.1340735999984,573.1340735999984,573.1340735999984,573.1340735999984,573.1340735999984,573.1340735999984,573.1175288999802,573.1340735999984,573.1340735999984,573.1340735999984,573.1340735999984,573.1340735999984,573.1340735999984,573.1340735999984,575.1162526999833,575.1162526999833,575.1162526999833,575.1162526999833,575.1162526999833,575.1162526999833,575.1162526999833,53,71,49,42,71,60,575.1162526999833,576.9504593999882,,,,,,,,,,,,,,,,,,,,３３７,f,２９,2023-05-21_12h05.19.207,RL,2022.2.5,59.9940845766311,
55,37,42,68,0,95,95,95,,,,,,,,,,,None,576.9504593999882,576.9504593999882,576.9504593999882,576.9504593999882,576.9504593999882,576.9504593999882,r,0.2854485999851022,577.2727783999871,577.2727783999871,577.2727783999871,577.2727783999871,577.2727783999871,577.2727783999871,577.5508622999769,579.1834404999972,579.1834404999972,579.1834404999972,579.1834404999972,579.1834404999972,579.1834404999972,579.1667759999982,579.1834404999972,579.1834404999972,579.1834404999972,579.1834404999972,579.1834404999972,579.1834404999972,579.1834404999972,581.0984222999832,581.0984222999832,581.0984222999832,581.0984222999832,581.0984222999832,581.0984222999832,581.0984222999832,55,68,42,37,68,60,581.0984222999832,582.7159811999882,,,,,,,,,,,,,,,,,,,,３３７,f,２９,2023-05-21_12h05.19.207,RL,2022.2.5,59.9940845766311,
53,37,51,61,0,96,96,96,,,,,,,,,,,None,582.7159811999882,582.7159811999882,582.7159811999882,582.7159811999882,582.7159811999882,582.7159811999882,r,0.29206669999985024,583.0341508999991,583.0341508999991,583.0341508999991,583.0341508999991,583.0341508999991,583.0341508999991,583.3159360999998,585.1323227999965,585.1323227999965,585.1323227999965,585.1323227999965,585.1323227999965,585.1323227999965,585.1157854999765,585.1323227999965,585.1323227999965,585.1323227999965,585.1323227999965,585.1323227999965,585.1323227999965,585.1323227999965,587.2304237999779,587.2304237999779,587.2304237999779,587.2304237999779,587.2304237999779,587.2304237999779,587.2304237999779,53,61,51,37,61,60,587.2304237999779,588.9481633999967,,,,,,,,,,,,,,,,,,,,３３７,f,２９,2023-05-21_12h05.19.207,RL,2022.2.5,59.9940845766311,
65,44,46,67,0,97,97,97,,,,,,,,,,,None,588.9481633999967,588.9481633999967,588.9481633999967,588.9481633999967,588.9481633999967,588.9481633999967,r,0.2854511000041384,589.2768837999902,589.2768837999902,589.2768837999902,589.2768837999902,589.2768837999902,589.2768837999902,589.548430099996,591.3481567999988,591.3481567999988,591.3481567999988,591.3481567999988,591.3481567999988,591.3481567999988,591.3315888999787,591.3481567999988,591.3481567999988,591.3481567999988,591.3481567999988,591.3481567999988,591.3481567999988,591.3481567999988,593.429518399993,593.429518399993,593.429518399993,593.429518399993,593.429518399993,593.429518399993,593.429518399993,65,67,46,44,67,60,593.429518399993,595.0472822999873,,,,,,,,,,,,,,,,,,,,３３７,f,２９,2023-05-21_12h05.19.207,RL,2022.2.5,59.9940845766311,
56,35,39,64,0,98,98,98,,,,,,,,,,,None,595.0472822999873,595.0472822999873,595.0472822999873,595.0472822999873,595.0472822999873,595.0472822999873,r,0.30102010001428425,595.3837900999933,595.3837900999933,595.3837900999933,595.3837900999933,595.3837900999933,595.3837900999933,595.6640173999767,597.6467908999766,597.6467908999766,597.6467908999766,597.6467908999766,597.6467908999766,597.6467908999766,597.613572399976,597.6467908999766,597.6467908999766,597.6467908999766,597.6467908999766,597.6467908999766,597.6467908999766,597.6467908999766,599.8947686000029,599.8947686000029,599.8947686000029,599.8947686000029,599.8947686000029,599.8947686000029,599.8947686000029,56,64,39,35,64,60,599.8947686000029,601.745889199985,,,,,,,,,,,,,,,,,,,,３３７,f,２９,2023-05-21_12h05.19.207,RL,2022.2.5,59.9940845766311,
52,39,46,78,0,99,99,99,,,,,,,,,,,None,601.745889199985,601.745889199985,601.745889199985,601.745889199985,601.745889199985,601.745889199985,r,0.32488980001653545,602.1001845999854,602.1001845999854,602.1001845999854,602.1001845999854,602.1001845999854,602.1001845999854,602.37972669999,603.8127542999864,603.8127542999864,603.8127542999864,603.8127542999864,603.8127542999864,603.8127542999864,603.796007500001,603.8127542999864,603.8127542999864,603.8127542999864,603.8127542999864,603.8127542999864,603.8127542999864,603.8127542999864,605.527085699985,605.527085699985,605.527085699985,605.527085699985,605.527085699985,605.527085699985,605.527085699985,52,78,46,39,78,60,605.527085699985,607.2781683999929,,,,,,,,,,,,,,,,,,,,３３７,f,２９,2023-05-21_12h05.19.207,RL,2022.2.5,59.9940845766311,
57,44,57,57,0,100,100,100,,,,,,,,,,,None,607.2781683999929,607.2781683999929,607.2781683999929,607.2781683999929,607.2781683999929,607.2781683999929,r,0.28234440000960603,607.583936799987,607.583936799987,607.583936799987,607.583936799987,607.583936799987,607.583936799987,607.878358899994,609.7615540999977,609.7615540999977,609.7615540999977,609.7615540999977,609.7615540999977,609.7615540999977,609.745162199979,609.7615540999977,609.7615540999977,609.7615540999977,609.7615540999977,609.7615540999977,609.7615540999977,609.7615540999977,611.9258278999769,611.9258278999769,611.9258278999769,611.9258278999769,611.9258278999769,611.9258278999769,611.9258278999769,57,57,57,44,57,60,611.9258278999769,613.5939657999843,,,,,,,,,,,,,,,,,,,,３３７,f,２９,2023-05-21_12h05.19.207,RL,2022.2.5,59.9940845766311,
44,42,47,70,0,101,101,101,,,,,,,,,,,None,613.5939657999843,613.5939657999843,613.5939657999843,613.5939657999843,613.5939657999843,613.5939657999843,r,0.2248556999838911,613.8482760000043,613.8482760000043,613.8482760000043,613.8482760000043,613.8482760000043,613.8482760000043,614.127580899978,615.227335899981,615.227335899981,615.227335899981,615.227335899981,615.227335899981,615.227335899981,615.2107133999816,615.227335899981,615.227335899981,615.227335899981,615.227335899981,615.227335899981,615.227335899981,615.227335899981,616.6082891999977,616.6082891999977,616.6082891999977,616.6082891999977,616.6082891999977,616.6082891999977,616.6082891999977,44,70,47,42,70,60,616.6082891999977,618.1931785999914,,,,,,,,,,,,,,,,,,,,３３７,f,２９,2023-05-21_12h05.19.207,RL,2022.2.5,59.9940845766311,
50,37,59,74,0,102,102,102,,,,,,,,,,,None,618.1931785999914,618.1931785999914,618.1931785999914,618.1931785999914,618.1931785999914,618.1931785999914,r,0.28147529999841936,618.4944585000048,618.4944585000048,618.4944585000048,618.4944585000048,618.4944585000048,618.4944585000048,618.79356619998,620.4263995999936,620.4263995999936,620.4263995999936,620.4263995999936,620.4263995999936,620.4263995999936,620.4263995999936,620.4263995999936,620.4263995999936,620.4263995999936,620.4263995999936,620.4263995999936,620.4263995999936,620.4263995999936,622.3576691999915,622.3576691999915,622.3576691999915,622.3576691999915,622.3576691999915,622.3576691999915,622.3576691999915,50,74,59,37,74,60,622.3576691999915,624.3588392999955,,,,,,,,,,,,,,,,,,,,３３７,f,２９,2023-05-21_12h05.19.207,RL,2022.2.5,59.9940845766311,
45,31,48,76,0,103,103,103,,,,,,,,,,,None,624.3588392999955,624.3588392999955,624.3588392999955,624.3588392999955,624.3588392999955,624.3588392999955,r,0.27722270000958815,624.6592140999855,624.6592140999855,624.6592140999855,624.6592140999855,624.6592140999855,624.6592140999855,624.9422159999958,626.4750484999968,626.4750484999968,626.4750484999968,626.4750484999968,626.4750484999968,626.4750484999968,626.4585439999937,626.4750484999968,626.4750484999968,626.4750484999968,626.4750484999968,626.4750484999968,626.4750484999968,626.4750484999968,628.2898352000047,628.2898352000047,628.2898352000047,628.2898352000047,628.2898352000047,628.2898352000047,628.2898352000047,45,76,48,31,76,60,628.2898352000047,630.2241026999836,,,,,,,,,,,,,,,,,,,,３３７,f,２９,2023-05-21_12h05.19.207,RL,2022.2.5,59.9940845766311,
47,29,43,72,0,104,104,104,,,,,,,,,,,None,630.2241026999836,630.2241026999836,630.2241026999836,630.2241026999836,630.2241026999836,630.2241026999836,r,0.36563980000209995,630.6105113999802,630.6105113999802,630.6105113999802,630.6105113999802,630.6105113999802,630.6105113999802,630.9080850000028,632.0746560999833,632.0746560999833,632.0746560999833,632.0746560999833,632.0746560999833,632.0746560999833,632.0746560999833,632.0746560999833,632.0746560999833,632.0746560999833,632.0746560999833,632.0746560999833,632.0746560999833,632.0746560999833,633.5386154000007,633.5386154000007,633.5386154000007,633.5386154000007,633.5386154000007,633.5386154000007,633.5386154000007,47,72,43,29,72,60,633.5386154000007,635.2401641999895,,,,,,,,,,,,,,,,,,,,３３７,f,２９,2023-05-21_12h05.19.207,RL,2022.2.5,59.9940845766311,
58,32,59,72,0,105,105,105,,,,,,,,,,,None,635.2401641999895,635.2401641999895,635.2401641999895,635.2401641999895,635.2401641999895,635.2401641999895,r,0.3146344999840949,635.5753815999778,635.5753815999778,635.5753815999778,635.5753815999778,635.5753815999778,635.5753815999778,635.873383099999,637.8731987999927,637.8731987999927,637.8731987999927,637.8731987999927,637.8731987999927,637.8731987999927,637.8731987999927,637.8731987999927,637.8731987999927,637.8731987999927,637.8731987999927,637.8731987999927,637.8731987999927,637.8731987999927,640.1709153999982,640.1709153999982,640.1709153999982,640.1709153999982,640.1709153999982,640.1709153999982,640.1709153999982,58,72,59,32,72,60,640.1709153999982,641.805623399996,,,,,,,,,,,,,,,,,,,,３３７,f,２９,2023-05-21_12h05.19.207,RL,2022.2.5,59.9940845766311,
53,37,56,74,0,106,106,106,,,,,,,,,,,None,641.805623399996,641.805623399996,641.805623399996,641.805623399996,641.805623399996,641.805623399996,r,0.27667389999260195,642.1058939999784,642.1058939999784,642.1058939999784,642.1058939999784,642.1058939999784,642.1058939999784,642.3896134999814,644.4052283999918,644.4052283999918,644.4052283999918,644.4052283999918,644.4052283999918,644.4052283999918,644.388838599989,644.4052283999918,644.4052283999918,644.4052283999918,644.4052283999918,644.4052283999918,644.4052283999918,644.4052283999918,646.7033103999856,646.7033103999856,646.7033103999856,646.7033103999856,646.7033103999856,646.7033103999856,646.7033103999856,53,74,56,37,74,60,646.7033103999856,648.637707899994,,,,,,,,,,,,,,,,,,,,３３７,f,２９,2023-05-21_12h05.19.207,RL,2022.2.5,59.9940845766311,
42,33,62,75,0,107,107,107,,,,,,,,,,,None,648.637707899994,648.637707899994,648.637707899994,648.637707899994,648.637707899994,648.637707899994,r,0.2466829999757465,648.9049917999946,648.9049917999946,648.9049917999946,648.9049917999946,648.9049917999946,648.9049917999946,649.1879929999996,650.7879815999768,650.7879815999768,650.7879815999768,650.7879815999768,650.7879815999768,650.7879815999768,650.7710892999894,650.7879815999768,650.7879815999768,650.7879815999768,650.7879815999768,650.7879815999768,650.7879815999768,650.7879815999768,652.6688590999984,652.6688590999984,652.6688590999984,652.6688590999984,652.6688590999984,652.6688590999984,652.6688590999984,42,75,62,33,75,60,652.6688590999984,654.3703872000042,,,,,,,,,,,,,,,,,,,,３３７,f,２９,2023-05-21_12h05.19.207,RL,2022.2.5,59.9940845766311,
44,41,54,74,0,108,108,108,,,,,,,,,,,None,654.3703872000042,654.3703872000042,654.3703872000042,654.3703872000042,654.3703872000042,654.3703872000042,r,0.2853674000070896,654.694388199976,654.694388199976,654.694388199976,654.694388199976,654.694388199976,654.694388199976,654.9701938999933,656.2366511999862,656.2366511999862,656.2366511999862,656.2366511999862,656.2366511999862,656.2366511999862,656.2200946999947,656.2366511999862,656.2366511999862,656.2366511999862,656.2366511999862,656.2366511999862,656.2366511999862,656.2366511999862,657.7846985999786,657.7846985999786,657.7846985999786,657.7846985999786,657.7846985999786,657.7846985999786,657.7846985999786,44,74,54,41,74,60,657.7846985999786,659.4859878999996,,,,,,,,,,,,,,,,,,,,３３７,f,２９,2023-05-21_12h05.19.207,RL,2022.2.5,59.9940845766311,
46,43,52,77,0,109,109,109,,,,,,,,,,,None,659.4859878999996,659.4859878999996,659.4859878999996,659.4859878999996,659.4859878999996,659.4859878999996,r,0.4934652000083588,660.0028468999953,660.0028468999953,660.0028468999953,660.0028468999953,660.0028468999953,660.0028468999953,660.2859914999863,661.6022505000001,661.6022505000001,661.6022505000001,661.6022505000001,661.6022505000001,661.6022505000001,661.5855693999911,661.6022505000001,661.6022505000001,661.6022505000001,661.6022505000001,661.6022505000001,661.6022505000001,661.6022505000001,663.2005943999975,663.2005943999975,663.2005943999975,663.2005943999975,663.2005943999975,663.2005943999975,663.2005943999975,46,77,52,43,77,60,663.2005943999975,664.8015000000014,,,,,,,,,,,,,,,,,,,,３３７,f,２９,2023-05-21_12h05.19.207,RL,2022.2.5,59.9940845766311,
36,39,66,78,0,110,110,110,,,,,,,,,,,None,664.8015000000014,664.8015000000014,664.8015000000014,664.8015000000014,664.8015000000014,664.8015000000014,r,0.23258609999902546,665.0518846999912,665.0518846999912,665.0518846999912,665.0518846999912,665.0518846999912,665.0518846999912,665.3348949999781,666.3015842000023,666.3015842000023,666.3015842000023,666.3015842000023,666.3015842000023,666.3015842000023,666.2848211999808,666.3015842000023,666.3015842000023,666.3015842000023,666.3015842000023,666.3015842000023,666.3015842000023,666.3015842000023,667.549294299999,667.549294299999,667.549294299999,667.549294299999,667.549294299999,667.549294299999,667.549294299999,36,78,66,39,78,60,667.549294299999,669.4840865999868,,,,,,,,,,,,,,,,,,,,３３７,f,２９,2023-05-21_12h05.19.207,RL,2022.2.5,59.9940845766311,
36,41,50,70,0,111,111,111,,,,,,,,,,,None,669.4840865999868,669.4840865999868,669.4840865999868,669.4840865999868,669.4840865999868,669.4840865999868,r,0.3898925999819767,669.9016992999823,669.9016992999823,669.9016992999823,669.9016992999823,669.9016992999823,669.9016992999823,670.1843787999824,671.4344262999948,671.4344262999948,671.4344262999948,671.4344262999948,671.4344262999948,671.4344262999948,671.4008189000015,671.4344262999948,671.4344262999948,671.4344262999948,671.4344262999948,671.4344262999948,671.4344262999948,671.4344262999948,672.9489340999862,672.9489340999862,672.9489340999862,672.9489340999862,672.9489340999862,672.9489340999862,672.9489340999862,36,70,50,41,70,60,672.9489340999862,674.4663232000021,,,,,,,,,,,,,,,,,,,,３３７,f,２９,2023-05-21_12h05.19.207,RL,2022.2.5,59.9940845766311,
39,50,62,79,0,112,112,112,,,,,,,,,,,None,674.4663232000021,674.4663232000021,674.4663232000021,674.4663232000021,674.4663232000021,674.4663232000021,r,0.2642968999862205,674.7510432999989,674.7510432999989,674.7510432999989,674.7510432999989,674.7510432999989,674.7510432999989,675.0339709999971,676.2498290999793,676.2498290999793,676.2498290999793,676.2498290999793,676.2498290999793,676.2498290999793,676.2333274999983,676.2498290999793,676.2498290999793,676.2498290999793,676.2498290999793,676.2498290999793,676.2498290999793,676.2498290999793,677.7479626999993,677.7479626999993,677.7479626999993,677.7479626999993,677.7479626999993,677.7479626999993,677.7479626999993,39,79,62,50,79,60,677.7479626999993,679.4322922999854,,,,,,,,,,,,,,,,,,,,３３７,f,２９,2023-05-21_12h05.19.207,RL,2022.2.5,59.9940845766311,
42,31,47,68,0,113,113,113,,,,,,,,,,,None,679.4322922999854,679.4322922999854,679.4322922999854,679.4322922999854,679.4322922999854,679.4322922999854,r,0.2513600999955088,679.7176150000014,679.7176150000014,679.7176150000014,679.7176150000014,679.7176150000014,679.7176150000014,679.9992206000024,681.049059299985,681.049059299985,681.049059299985,681.049059299985,681.049059299985,681.049059299985,681.0322828999779,681.049059299985,681.049059299985,681.049059299985,681.049059299985,681.049059299985,681.049059299985,681.049059299985,682.3806094999891,682.3806094999891,682.3806094999891,682.3806094999891,682.3806094999891,682.3806094999891,682.3806094999891,42,68,47,31,68,60,682.3806094999891,684.1646843999915,,,,,,,,,,,,,,,,,,,,３３７,f,２９,2023-05-21_12h05.19.207,RL,2022.2.5,59.9940845766311,
40,32,46,71,0,114,114,114,,,,,,,,,,,None,684.1646843999915,684.1646843999915,684.1646843999915,684.1646843999915,684.1646843999915,684.1646843999915,r,0.3212617999815848,684.5179408999975,684.5179408999975,684.5179408999975,684.5179408999975,684.5179408999975,684.5179408999975,684.8150247999874,686.5313505999802,686.5313505999802,686.5313505999802,686.5313505999802,686.5313505999802,686.5313505999802,686.5313505999802,686.5313505999802,686.5313505999802,686.5313505999802,686.5313505999802,686.5313505999802,686.5313505999802,686.5313505999802,688.5463390999939,688.5463390999939,688.5463390999939,688.5463390999939,688.5463390999939,688.5463390999939,688.5463390999939,40,71,46,32,71,60,688.5463390999939,690.0804837000032,,,,,,,,,,,,,,,,,,,,３３７,f,２９,2023-05-21_12h05.19.207,RL,2022.2.5,59.9940845766311,
48,34,52,73,0,115,115,115,,,,,,,,,,,None,690.0804837000032,690.0804837000032,690.0804837000032,690.0804837000032,690.0804837000032,690.0804837000032,r,0.2692154000105802,690.3853903999843,690.3853903999843,690.3853903999843,690.3853903999843,690.3853903999843,690.3853903999843,690.664231200004,691.7304774999793,691.7304774999793,691.7304774999793,691.7304774999793,691.7304774999793,691.7304774999793,691.7141897999973,691.7304774999793,691.7304774999793,691.7304774999793,691.7304774999793,691.7304774999793,691.7304774999793,691.7304774999793,693.0785875000001,693.0785875000001,693.0785875000001,693.0785875000001,693.0785875000001,693.0785875000001,693.0785875000001,48,73,52,34,73,60,693.0785875000001,695.0296581999864,,,,,,,,,,,,,,,,,,,,３３７,f,２９,2023-05-21_12h05.19.207,RL,2022.2.5,59.9940845766311,
36,33,47,72,0,116,116,116,,,,,,,,,,,None,695.0296581999864,695.0296581999864,695.0296581999864,695.0296581999864,695.0296581999864,695.0296581999864,r,0.24639020001632161,695.297843599983,695.297843599983,695.297843599983,695.297843599983,695.297843599983,695.297843599983,695.5970175999973,697.2297585999768,697.2297585999768,697.2297585999768,697.2297585999768,697.2297585999768,697.2297585999768,697.2297585999768,697.2297585999768,697.2297585999768,697.2297585999768,697.2297585999768,697.2297585999768,697.2297585999768,697.2297585999768,699.1608084999898,699.1608084999898,699.1608084999898,699.1608084999898,699.1608084999898,699.1608084999898,699.1608084999898,36,72,47,33,72,60,699.1608084999898,700.9119726999779,,,,,,,,,,,,,,,,,,,,３３７,f,２９,2023-05-21_12h05.19.207,RL,2022.2.5,59.9940845766311,
36,33,50,62,0,117,117,117,,,,,,,,,,,None,700.9119726999779,700.9119726999779,700.9119726999779,700.9119726999779,700.9119726999779,700.9119726999779,r,0.26582280002185144,701.1955954000005,701.1955954000005,701.1955954000005,701.1955954000005,701.1955954000005,701.1955954000005,701.4786678999953,703.4115961999923,703.4115961999923,703.4115961999923,703.4115961999923,703.4115961999923,703.4115961999923,703.3950292999798,703.4115961999923,703.4115961999923,703.4115961999923,703.4115961999923,703.4115961999923,703.4115961999923,703.4115961999923,705.6264238999865,705.6264238999865,705.6264238999865,705.6264238999865,705.6264238999865,705.6264238999865,705.6264238999865,36,62,50,33,62,60,705.6264238999865,707.2104180000024,,,,,,,,,,,,,,,,,,,,３３７,f,２９,2023-05-21_12h05.19.207,RL,2022.2.5,59.9940845766311,
35,40,48,74,0,118,118,118,,,,,,,,,,,None,707.2104180000024,707.2104180000024,707.2104180000024,707.2104180000024,707.2104180000024,707.2104180000024,r,0.2796280999900773,707.5113122999901,707.5113122999901,707.5113122999901,707.5113122999901,707.5113122999901,707.5113122999901,707.8115400999959,708.8775589999859,708.8775589999859,708.8775589999859,708.8775589999859,708.8775589999859,708.8775589999859,708.8775589999859,708.8775589999859,708.8775589999859,708.8775589999859,708.8775589999859,708.8775589999859,708.8775589999859,708.8775589999859,710.2421080999775,710.2421080999775,710.2421080999775,710.2421080999775,710.2421080999775,710.2421080999775,710.2421080999775,35,74,48,40,74,60,710.2421080999775,712.0435941999895,,,,,,,,,,,,,,,,,,,,３３７,f,２９,2023-05-21_12h05.19.207,RL,2022.2.5,59.9940845766311,
34,27,55,75,0,119,119,119,,,,,,,,,,,None,712.0435941999895,712.0435941999895,712.0435941999895,712.0435941999895,712.0435941999895,712.0435941999895,r,0.24375829999917187,712.3110120999918,712.3110120999918,712.3110120999918,712.3110120999918,712.3110120999918,712.3110120999918,712.5938232999761,713.9597446999978,713.9597446999978,713.9597446999978,713.9597446999978,713.9597446999978,713.9597446999978,713.9434244000004,713.9597446999978,713.9597446999978,713.9597446999978,713.9597446999978,713.9597446999978,713.9597446999978,713.9597446999978,715.6082002999901,715.6082002999901,715.6082002999901,715.6082002999901,715.6082002999901,715.6082002999901,715.6082002999901,34,75,55,27,75,60,715.6082002999901,717.4923175000004,,,,,,,,,,,,,,,,,,,,３３７,f,２９,2023-05-21_12h05.19.207,RL,2022.2.5,59.9940845766311,
