arm1,arm2,arm3,arm4,trials.thisRepN,trials.thisTrialN,trials.thisN,trials.thisIndex,instru_img1.started,instru_resp.started,instru_resp.keys,instru_resp.rt,image_2.started,text_2.started,image_2.stopped,text_2.stopped,fixbefore_2.started,fixbefore_2.stopped,rest_response.keys,red.started,green.started,yellow.started,blue.started,choose_bandit.started,Fixation.started,choose_bandit.keys,choose_bandit.rt,black.started,red_2.started,green_2.started,yellow_2.started,blue_2.started,fixation_2.started,docs.started,black.stopped,red_2.stopped,green_2.stopped,yellow_2.stopped,blue_2.stopped,fixation_2.stopped,docs.stopped,black_com.started,reward_sub.started,reward__sub.started,red_compare.started,green_com.started,yellow_com.started,blue_com.started,black_com.stopped,reward_sub.stopped,reward__sub.stopped,red_compare.stopped,green_com.stopped,yellow_com.stopped,blue_com.stopped,rewardred,rewardyellow,rewardblue,rewardgreen,subchoose,expectation,intertrialfix.started,intertrialfix.stopped,rest_image.started,rest_response.started,rest_response.rt,image_expect_after.started,text_exp_after.started,image_expect_after.stopped,text_exp_after.stopped,bigx.started,bigx.stopped,red.stopped,green.stopped,yellow.stopped,blue.stopped,choose_bandit.stopped,Fixation.stopped,image.started,key_resp.started,key_resp.keys,key_resp.rt,participant,Gender,Age,date,expName,psychopyVersion,frameRate,
,,,,,,,,28.412188800022705,28.412188800022705,space,4.146125300001586,,,,,,,,,,,,,,,,,,,,,,,,,,,,,,,,,,,,,,,,,,,,,,,,,,,,,,,,,,,,,,,,,,,,,,,３３８,f,２４,2023-05-21_14h05.45.050,RL,2022.2.5,60.05674160805536,
29,37,64,55,0,0,0,0,,,,,32.57642040000064,32.57642040000064,37.57602239999687,37.57602239999687,37.57602239999687,38.577994899998885,None,38.577994899998885,38.577994899998885,38.577994899998885,38.577994899998885,38.577994899998885,38.577994899998885,j,0.4276609999942593,39.03298780001933,39.03298780001933,39.03298780001933,39.03298780001933,39.03298780001933,39.03298780001933,39.33849110000301,40.82609690001118,40.82609690001118,40.82609690001118,40.82609690001118,40.82609690001118,40.82609690001118,40.82609690001118,40.82609690001118,40.82609690001118,40.82609690001118,40.82609690001118,40.82609690001118,40.82609690001118,40.82609690001118,42.63664520002203,42.63664520002203,42.63664520002203,42.63664520002203,42.63664520002203,42.63664520002203,42.63664520002203,37,64,29,55,55,70,42.63664520002203,44.625670400011586,,,,,,,,,,,,,,,,,,,,３３８,f,２４,2023-05-21_14h05.45.050,RL,2022.2.5,60.05674160805536,
34,49,68,59,0,1,1,1,,,,,,,,,,,None,44.625670400011586,44.625670400011586,44.625670400011586,44.625670400011586,44.625670400011586,44.625670400011586,i,1.0877041000057943,45.74273740002536,45.74273740002536,45.74273740002536,45.74273740002536,45.74273740002536,45.74273740002536,46.02583830000367,47.97528330000932,47.97528330000932,47.97528330000932,47.97528330000932,47.97528330000932,47.97528330000932,47.958942400000524,47.97528330000932,47.97528330000932,47.97528330000932,47.97528330000932,47.97528330000932,47.97528330000932,47.97528330000932,50.206964000011794,50.206964000011794,50.206964000011794,50.206964000011794,50.206964000011794,50.206964000011794,50.206964000011794,49,68,34,59,34,70,50.206964000011794,51.82424680000986,,,,,,,,,,,,,,,,,,,,３３８,f,２４,2023-05-21_14h05.45.050,RL,2022.2.5,60.05674160805536,
30,39,58,51,0,2,2,2,,,,,,,,,,,None,51.82424680000986,51.82424680000986,51.82424680000986,51.82424680000986,51.82424680000986,51.82424680000986,j,0.36449129998800345,52.20851280001807,52.20851280001807,52.20851280001807,52.20851280001807,52.20851280001807,52.20851280001807,52.49131490002037,54.407765900017694,54.407765900017694,54.407765900017694,54.407765900017694,54.407765900017694,54.407765900017694,54.391387900017435,54.407765900017694,54.407765900017694,54.407765900017694,54.407765900017694,54.407765900017694,54.407765900017694,54.407765900017694,56.605382300011115,56.605382300011115,56.605382300011115,56.605382300011115,56.605382300011115,56.605382300011115,56.605382300011115,39,58,30,51,51,70,56.605382300011115,58.456989600003,,,,,,,,,,,,,,,,,,,,３３８,f,２４,2023-05-21_14h05.45.050,RL,2022.2.5,60.05674160805536,
32,43,54,72,0,3,3,3,,,,,,,,,,,None,58.456989600003,58.456989600003,58.456989600003,58.456989600003,58.456989600003,58.456989600003,f,1.2675292000058107,59.759321700024884,59.759321700024884,59.759321700024884,59.759321700024884,59.759321700024884,59.759321700024884,60.04012540000258,61.17343570000958,61.17343570000958,61.17343570000958,61.17343570000958,61.17343570000958,61.17343570000958,61.15669280002476,61.17343570000958,61.17343570000958,61.17343570000958,61.17343570000958,61.17343570000958,61.17343570000958,61.17343570000958,62.587729100021534,62.587729100021534,62.587729100021534,62.587729100021534,62.587729100021534,62.587729100021534,62.587729100021534,43,54,32,72,43,70,62.587729100021534,64.272844000021,,,,,,,,,,,,,,,,,,,,３３８,f,２４,2023-05-21_14h05.45.050,RL,2022.2.5,60.05674160805536,
28,36,49,61,0,4,4,4,,,,,,,,,,,None,64.272844000021,64.272844000021,64.272844000021,64.272844000021,64.272844000021,64.272844000021,i,0.956722400005674,65.25609480001731,65.25609480001731,65.25609480001731,65.25609480001731,65.25609480001731,65.25609480001731,65.53960030002054,67.12200380000286,67.12200380000286,67.12200380000286,67.12200380000286,67.12200380000286,67.12200380000286,67.10559730001842,67.12200380000286,67.12200380000286,67.12200380000286,67.12200380000286,67.12200380000286,67.12200380000286,67.12200380000286,68.987077400001,68.987077400001,68.987077400001,68.987077400001,68.987077400001,68.987077400001,68.987077400001,36,49,28,61,28,70,68.987077400001,70.52177230000962,,,,,,,,,,,,,,,,,,,,３３８,f,２４,2023-05-21_14h05.45.050,RL,2022.2.5,60.05674160805536,
20,39,51,62,0,5,5,5,,,,,,,,,,,None,70.52177230000962,70.52177230000962,70.52177230000962,70.52177230000962,70.52177230000962,70.52177230000962,f,0.36547290001180954,70.90527740001562,70.90527740001562,70.90527740001562,70.90527740001562,70.90527740001562,70.90527740001562,71.18817390000913,73.18770470001618,73.18770470001618,73.18770470001618,73.18770470001618,73.18770470001618,73.18770470001618,73.17125060001854,73.18770470001618,73.18770470001618,73.18770470001618,73.18770470001618,73.18770470001618,73.18770470001618,73.18770470001618,75.46962230000645,75.46962230000645,75.46962230000645,75.46962230000645,75.46962230000645,75.46962230000645,75.46962230000645,39,51,20,62,39,70,75.46962230000645,77.3205231000029,,,,,,,,,,,,,,,,,,,,３３８,f,２４,2023-05-21_14h05.45.050,RL,2022.2.5,60.05674160805536,
28,35,39,56,0,6,6,6,,,,,,,,,,,None,77.3205231000029,77.3205231000029,77.3205231000029,77.3205231000029,77.3205231000029,77.3205231000029,r,0.42641300000832416,77.77237370001967,77.77237370001967,77.77237370001967,77.77237370001967,77.77237370001967,77.77237370001967,78.05419740002253,79.53719860001002,79.53719860001002,79.53719860001002,79.53719860001002,79.53719860001002,79.53719860001002,79.52029430001858,79.53719860001002,79.53719860001002,79.53719860001002,79.53719860001002,79.53719860001002,79.53719860001002,79.53719860001002,81.30140570001095,81.30140570001095,81.30140570001095,81.30140570001095,81.30140570001095,81.30140570001095,81.30140570001095,35,39,28,56,39,70,81.30140570001095,83.10220850000042,,,,,,,,,,,,,,,,,,,,３３８,f,２４,2023-05-21_14h05.45.050,RL,2022.2.5,60.05674160805536,
21,32,45,67,0,7,7,7,,,,,,,,,,,None,83.10220850000042,83.10220850000042,83.10220850000042,83.10220850000042,83.10220850000042,83.10220850000042,j,0.6761780999950133,83.80614369999967,83.80614369999967,83.80614369999967,83.80614369999967,83.80614369999967,83.80614369999967,84.10285370002384,84.95216610000352,84.95216610000352,84.95216610000352,84.95216610000352,84.95216610000352,84.95216610000352,84.95216610000352,84.95216610000352,84.95216610000352,84.95216610000352,84.95216610000352,84.95216610000352,84.95216610000352,84.95216610000352,86.10066830000142,86.10066830000142,86.10066830000142,86.10066830000142,86.10066830000142,86.10066830000142,86.10066830000142,32,45,21,67,67,70,86.10066830000142,87.63525260001188,,,,,,,,,,,,,,,,,,,,３３８,f,２４,2023-05-21_14h05.45.050,RL,2022.2.5,60.05674160805536,
23,30,53,61,0,8,8,8,,,,,,,,,,,None,87.63525260001188,87.63525260001188,87.63525260001188,87.63525260001188,87.63525260001188,87.63525260001188,i,1.000330099981511,88.6690135000099,88.6690135000099,88.6690135000099,88.6690135000099,88.6690135000099,88.6690135000099,88.95223130000522,90.11826490002568,90.11826490002568,90.11826490002568,90.11826490002568,90.11826490002568,90.11826490002568,90.10153140002512,90.11826490002568,90.11826490002568,90.11826490002568,90.11826490002568,90.11826490002568,90.11826490002568,90.11826490002568,91.5661721000215,91.5661721000215,91.5661721000215,91.5661721000215,91.5661721000215,91.5661721000215,91.5661721000215,30,53,23,61,23,70,91.5661721000215,93.55056900001364,,,,,,,,,,,,,,,,,,,,３３８,f,２４,2023-05-21_14h05.45.050,RL,2022.2.5,60.05674160805536,
27,30,53,62,0,9,9,9,,,,,,,,,,,None,93.55056900001364,93.55056900001364,93.55056900001364,93.55056900001364,93.55056900001364,93.55056900001364,i,0.8430609999923036,94.4181698000175,94.4181698000175,94.4181698000175,94.4181698000175,94.4181698000175,94.4181698000175,94.70122190000257,96.48388360001263,96.48388360001263,96.48388360001263,96.48388360001263,96.48388360001263,96.48388360001263,96.46713640002417,96.48388360001263,96.48388360001263,96.48388360001263,96.48388360001263,96.48388360001263,96.48388360001263,96.48388360001263,98.54835480000474,98.54835480000474,98.54835480000474,98.54835480000474,98.54835480000474,98.54835480000474,98.54835480000474,30,53,27,62,27,70,98.54835480000474,100.48302919999696,,,,,,,,,,,,,,,,,,,,３３８,f,２４,2023-05-21_14h05.45.050,RL,2022.2.5,60.05674160805536,
30,33,55,56,0,10,10,10,,,,,,,,,,,None,100.48302919999696,100.48302919999696,100.48302919999696,100.48302919999696,100.48302919999696,100.48302919999696,f,1.0226234000001568,101.53316260001156,101.53316260001156,101.53316260001156,101.53316260001156,101.53316260001156,101.53316260001156,101.8164637000009,103.83267180001712,103.83267180001712,103.83267180001712,103.83267180001712,103.83267180001712,103.83267180001712,103.81627989999834,103.83267180001712,103.83267180001712,103.83267180001712,103.83267180001712,103.83267180001712,103.83267180001712,103.83267180001712,106.13043889999972,106.13043889999972,106.13043889999972,106.13043889999972,106.13043889999972,106.13043889999972,106.13043889999972,33,55,30,56,33,70,106.13043889999972,108.04821239999728,,,,,,,,,,,,,,,,,,,,３３８,f,２４,2023-05-21_14h05.45.050,RL,2022.2.5,60.05674160805536,
31,27,57,57,0,11,11,11,,,,,,,,,,,None,108.04821239999728,108.04821239999728,108.04821239999728,108.04821239999728,108.04821239999728,108.04821239999728,j,0.3673840000119526,108.43296800000826,108.43296800000826,108.43296800000826,108.43296800000826,108.43296800000826,108.43296800000826,108.73223990001134,110.34850710001774,110.34850710001774,110.34850710001774,110.34850710001774,110.34850710001774,110.34850710001774,110.34850710001774,110.34850710001774,110.34850710001774,110.34850710001774,110.34850710001774,110.34850710001774,110.34850710001774,110.34850710001774,112.26299860002473,112.26299860002473,112.26299860002473,112.26299860002473,112.26299860002473,112.26299860002473,112.26299860002473,27,57,31,57,57,70,112.26299860002473,113.88089480000781,,,,,,,,,,,,,,,,,,,,３３８,f,２４,2023-05-21_14h05.45.050,RL,2022.2.5,60.05674160805536,
41,29,62,64,0,12,12,12,,,,,,,,,,,None,113.88089480000781,113.88089480000781,113.88089480000781,113.88089480000781,113.88089480000781,113.88089480000781,j,0.39540090001537465,114.29869390002568,114.29869390002568,114.29869390002568,114.29869390002568,114.29869390002568,114.29869390002568,114.58116860000882,115.73042380000697,115.73042380000697,115.73042380000697,115.73042380000697,115.73042380000697,115.73042380000697,115.71368350001285,115.73042380000697,115.73042380000697,115.73042380000697,115.73042380000697,115.73042380000697,115.73042380000697,115.73042380000697,117.16201580001507,117.16201580001507,117.16201580001507,117.16201580001507,117.16201580001507,117.16201580001507,117.16201580001507,29,62,41,64,64,70,117.16201580001507,118.8965625000128,,,,,,,,,,,,,,,,,,,,３３８,f,２４,2023-05-21_14h05.45.050,RL,2022.2.5,60.05674160805536,
31,39,61,59,0,13,13,13,,,,,,,,,,,None,118.8965625000128,118.8965625000128,118.8965625000128,118.8965625000128,118.8965625000128,118.8965625000128,j,0.3701959000027273,119.29672490002122,119.29672490002122,119.29672490002122,119.29672490002122,119.29672490002122,119.29672490002122,119.58004260002053,120.8798061000125,120.8798061000125,120.8798061000125,120.8798061000125,120.8798061000125,120.8798061000125,120.86353319999762,120.8798061000125,120.8798061000125,120.8798061000125,120.8798061000125,120.8798061000125,120.8798061000125,120.8798061000125,122.46119910001289,122.46119910001289,122.46119910001289,122.46119910001289,122.46119910001289,122.46119910001289,122.46119910001289,39,61,31,59,59,70,122.46119910001289,124.07877049999661,,,,,,,,,,,,,,,,,,,,３３８,f,２４,2023-05-21_14h05.45.050,RL,2022.2.5,60.05674160805536,
34,37,68,59,0,14,14,14,,,,,,,,,,,None,124.07877049999661,124.07877049999661,124.07877049999661,124.07877049999661,124.07877049999661,124.07877049999661,j,0.28113180000218563,124.38389399999869,124.38389399999869,124.38389399999869,124.38389399999869,124.38389399999869,124.38389399999869,124.6625561999972,125.5620519000222,125.5620519000222,125.5620519000222,125.5620519000222,125.5620519000222,125.5620519000222,125.54553510001278,125.5620519000222,125.5620519000222,125.5620519000222,125.5620519000222,125.5620519000222,125.5620519000222,125.5620519000222,126.74357320001582,126.74357320001582,126.74357320001582,126.74357320001582,126.74357320001582,126.74357320001582,126.74357320001582,37,68,34,59,59,70,126.74357320001582,128.31157810002333,,,,,,,,,,,,,,,,,,,,３３８,f,２４,2023-05-21_14h05.45.050,RL,2022.2.5,60.05674160805536,
33,34,57,60,0,15,15,15,,,,,,,,,,,None,128.31157810002333,128.31157810002333,128.31157810002333,128.31157810002333,128.31157810002333,128.31157810002333,j,0.39117479999549687,128.73312420002185,128.73312420002185,128.73312420002185,128.73312420002185,128.73312420002185,128.73312420002185,129.02855710001313,130.67752260001726,130.67752260001726,130.67752260001726,130.67752260001726,130.67752260001726,130.67752260001726,130.67752260001726,130.67752260001726,130.67752260001726,130.67752260001726,130.67752260001726,130.67752260001726,130.67752260001726,130.67752260001726,132.62613730001613,132.62613730001613,132.62613730001613,132.62613730001613,132.62613730001613,132.62613730001613,132.62613730001613,34,57,33,60,60,70,132.62613730001613,134.5600390000036,,,,,,,,,,,,,,,,,,,,３３８,f,２４,2023-05-21_14h05.45.050,RL,2022.2.5,60.05674160805536,
32,37,70,62,0,16,16,16,,,,,,,,,,,None,134.5600390000036,134.5600390000036,134.5600390000036,134.5600390000036,134.5600390000036,134.5600390000036,j,0.5991825000091922,135.18184070001007,135.18184070001007,135.18184070001007,135.18184070001007,135.18184070001007,135.18184070001007,135.4607572000241,136.86023000002024,136.86023000002024,136.86023000002024,136.86023000002024,136.86023000002024,136.86023000002024,136.8439764000068,136.86023000002024,136.86023000002024,136.86023000002024,136.86023000002024,136.86023000002024,136.86023000002024,136.86023000002024,138.54171010002028,138.54171010002028,138.54171010002028,138.54171010002028,138.54171010002028,138.54171010002028,138.54171010002028,37,70,32,62,62,70,138.54171010002028,140.40906720000203,,,,,,,,,,,,,,,,,,,,３３８,f,２４,2023-05-21_14h05.45.050,RL,2022.2.5,60.05674160805536,
28,37,68,66,0,17,17,17,,,,,,,,,,,None,140.40906720000203,140.40906720000203,140.40906720000203,140.40906720000203,140.40906720000203,140.40906720000203,j,0.524475700018229,140.96418060001452,140.96418060001452,140.96418060001452,140.96418060001452,140.96418060001452,140.96418060001452,141.25982120001572,143.209096400009,143.209096400009,143.209096400009,143.209096400009,143.209096400009,143.209096400009,143.209096400009,143.209096400009,143.209096400009,143.209096400009,143.209096400009,143.209096400009,143.209096400009,143.209096400009,145.45688460001838,145.45688460001838,145.45688460001838,145.45688460001838,145.45688460001838,145.45688460001838,145.45688460001838,37,68,28,66,66,70,145.45688460001838,147.0580416000157,,,,,,,,,,,,,,,,,,,,３３８,f,２４,2023-05-21_14h05.45.050,RL,2022.2.5,60.05674160805536,
39,32,59,59,0,18,18,18,,,,,,,,,,,None,147.0580416000157,147.0580416000157,147.0580416000157,147.0580416000157,147.0580416000157,147.0580416000157,j,0.2829980000096839,147.358464000019,147.358464000019,147.358464000019,147.358464000019,147.358464000019,147.358464000019,147.65800320002018,149.22468539999682,149.22468539999682,149.22468539999682,149.22468539999682,149.22468539999682,149.22468539999682,149.22468539999682,149.22468539999682,149.22468539999682,149.22468539999682,149.22468539999682,149.22468539999682,149.22468539999682,149.22468539999682,151.08969510000315,151.08969510000315,151.08969510000315,151.08969510000315,151.08969510000315,151.08969510000315,151.08969510000315,32,59,39,59,59,70,151.08969510000315,152.92395530000795,,,,,,,,,,,,,,,,,,,,３３８,f,２４,2023-05-21_14h05.45.050,RL,2022.2.5,60.05674160805536,
29,32,68,62,0,19,19,19,,,,,,,,,,,None,152.92395530000795,152.92395530000795,152.92395530000795,152.92395530000795,152.92395530000795,152.92395530000795,j,0.32460900000296533,153.27490280001075,153.27490280001075,153.27490280001075,153.27490280001075,153.27490280001075,153.27490280001075,153.55756320001092,155.34039670001948,155.34039670001948,155.34039670001948,155.34039670001948,155.34039670001948,155.34039670001948,155.32406579999952,155.34039670001948,155.34039670001948,155.34039670001948,155.34039670001948,155.34039670001948,155.34039670001948,155.34039670001948,157.4054578000214,157.4054578000214,157.4054578000214,157.4054578000214,157.4054578000214,157.4054578000214,157.4054578000214,32,68,29,62,62,70,157.4054578000214,159.07244540000102,,,,,,,,,,,,,,,,,,,,３３８,f,２４,2023-05-21_14h05.45.050,RL,2022.2.5,60.05674160805536,
37,29,53,53,0,20,20,20,,,,,,,,,,,None,159.07244540000102,159.07244540000102,159.07244540000102,159.07244540000102,159.07244540000102,159.07244540000102,j,0.359777599980589,159.45769219999784,159.45769219999784,159.45769219999784,159.45769219999784,159.45769219999784,159.45769219999784,159.75616190000437,161.50609239999903,161.50609239999903,161.50609239999903,161.50609239999903,161.50609239999903,161.50609239999903,161.50609239999903,161.50609239999903,161.50609239999903,161.50609239999903,161.50609239999903,161.50609239999903,161.50609239999903,161.50609239999903,163.55387790000532,163.55387790000532,163.55387790000532,163.55387790000532,163.55387790000532,163.55387790000532,163.55387790000532,29,53,37,53,53,70,163.55387790000532,165.07137160000275,,,,,,,,,,,,,,,,,,,,３３８,f,２４,2023-05-21_14h05.45.050,RL,2022.2.5,60.05674160805536,
31,34,61,47,0,21,21,21,,,,,,,,,,,None,165.07137160000275,165.07137160000275,165.07137160000275,165.07137160000275,165.07137160000275,165.07137160000275,j,0.7879804999975022,165.88897520001046,165.88897520001046,165.88897520001046,165.88897520001046,165.88897520001046,165.88897520001046,166.18822530002217,167.48823580000317,167.48823580000317,167.48823580000317,167.48823580000317,167.48823580000317,167.48823580000317,167.48823580000317,167.48823580000317,167.48823580000317,167.48823580000317,167.48823580000317,167.48823580000317,167.48823580000317,167.48823580000317,169.08607700001448,169.08607700001448,169.08607700001448,169.08607700001448,169.08607700001448,169.08607700001448,169.08607700001448,34,61,31,47,47,70,169.08607700001448,170.77081370001542,,,,,,,,,,,,,,,,,,,,３３８,f,２４,2023-05-21_14h05.45.050,RL,2022.2.5,60.05674160805536,
30,33,61,55,0,22,22,22,,,,,,,,,,,None,170.77081370001542,170.77081370001542,170.77081370001542,170.77081370001542,170.77081370001542,170.77081370001542,f,0.36625419999472797,171.1545771000092,171.1545771000092,171.1545771000092,171.1545771000092,171.1545771000092,171.1545771000092,171.43800880000344,172.8705850999977,172.8705850999977,172.8705850999977,172.8705850999977,172.8705850999977,172.8705850999977,172.85424800001783,172.8705850999977,172.8705850999977,172.8705850999977,172.8705850999977,172.8705850999977,172.8705850999977,172.8705850999977,174.58518270001514,174.58518270001514,174.58518270001514,174.58518270001514,174.58518270001514,174.58518270001514,174.58518270001514,33,61,30,55,33,70,174.58518270001514,176.2697490999999,,,,,,,,,,,,,,,,,,,,３３８,f,２４,2023-05-21_14h05.45.050,RL,2022.2.5,60.05674160805536,
31,34,61,48,0,23,23,23,,,,,,,,,,,None,176.2697490999999,176.2697490999999,176.2697490999999,176.2697490999999,176.2697490999999,176.2697490999999,i,0.34756160000688396,176.63671760002035,176.63671760002035,176.63671760002035,176.63671760002035,176.63671760002035,176.63671760002035,176.92018169999938,178.20328960000188,178.20328960000188,178.20328960000188,178.20328960000188,178.20328960000188,178.20328960000188,178.186987699999,178.20328960000188,178.20328960000188,178.20328960000188,178.20328960000188,178.20328960000188,178.20328960000188,178.20328960000188,179.76751279999735,179.76751279999735,179.76751279999735,179.76751279999735,179.76751279999735,179.76751279999735,179.76751279999735,34,61,31,48,31,70,179.76751279999735,181.4357854000118,,,,,,,,,,,,,,,,,,,,３３８,f,２４,2023-05-21_14h05.45.050,RL,2022.2.5,60.05674160805536,
34,32,71,47,0,24,24,24,,,,,,,,,,,None,181.4357854000118,181.4357854000118,181.4357854000118,181.4357854000118,181.4357854000118,181.4357854000118,j,0.9019029000191949,182.37200020000455,182.37200020000455,182.37200020000455,182.37200020000455,182.37200020000455,182.37200020000455,182.65198990001227,183.902043900016,183.902043900016,183.902043900016,183.902043900016,183.902043900016,183.902043900016,183.8856558999978,183.902043900016,183.902043900016,183.902043900016,183.902043900016,183.902043900016,183.902043900016,183.902043900016,185.43339770002058,185.43339770002058,185.43339770002058,185.43339770002058,185.43339770002058,185.43339770002058,185.43339770002058,32,71,34,47,47,70,185.43339770002058,187.31801110002561,,,,,,,,,,,,,,,,,,,,３３８,f,２４,2023-05-21_14h05.45.050,RL,2022.2.5,60.05674160805536,
35,31,74,54,0,25,25,25,,,,,,,,,,,None,187.31801110002561,187.31801110002561,187.31801110002561,187.31801110002561,187.31801110002561,187.31801110002561,j,0.8053713999979664,188.1515192000079,188.1515192000079,188.1515192000079,188.1515192000079,188.1515192000079,188.1515192000079,188.43499600002542,189.36767800000962,189.36767800000962,189.36767800000962,189.36767800000962,189.36767800000962,189.36767800000962,189.35102810000535,189.36767800000962,189.36767800000962,189.36767800000962,189.36767800000962,189.36767800000962,189.36767800000962,189.36767800000962,190.58253880002303,190.58253880002303,190.58253880002303,190.58253880002303,190.58253880002303,190.58253880002303,190.58253880002303,31,74,35,54,54,70,190.58253880002303,192.40032330001122,,,,,,,,,,,,,,,,,,,,３３８,f,２４,2023-05-21_14h05.45.050,RL,2022.2.5,60.05674160805536,
44,35,67,58,0,26,26,26,,,,,,,,,,,None,192.40032330001122,192.40032330001122,192.40032330001122,192.40032330001122,192.40032330001122,192.40032330001122,j,0.33251030000974424,192.7505014000053,192.7505014000053,192.7505014000053,192.7505014000053,192.7505014000053,192.7505014000053,193.03378700002213,193.91691090000677,193.91691090000677,193.91691090000677,193.91691090000677,193.91691090000677,193.91691090000677,193.90022680000402,193.91691090000677,193.91691090000677,193.91691090000677,193.91691090000677,193.91691090000677,193.91691090000677,193.91691090000677,195.08166399999755,195.08166399999755,195.08166399999755,195.08166399999755,195.08166399999755,195.08166399999755,195.08166399999755,35,67,44,58,58,70,195.08166399999755,197.06612290002522,,,,,,,,,,,,,,,,,,,,３３８,f,２４,2023-05-21_14h05.45.050,RL,2022.2.5,60.05674160805536,
33,35,62,45,0,27,27,27,,,,,,,,,,,None,197.06612290002522,197.06612290002522,197.06612290002522,197.06612290002522,197.06612290002522,197.06612290002522,j,1.197475900000427,198.2841604000132,198.2841604000132,198.2841604000132,198.2841604000132,198.2841604000132,198.2841604000132,198.5664308000123,199.9329865000036,199.9329865000036,199.9329865000036,199.9329865000036,199.9329865000036,199.9329865000036,199.91626410000026,199.9329865000036,199.9329865000036,199.9329865000036,199.9329865000036,199.9329865000036,199.9329865000036,199.9329865000036,201.58074560001842,201.58074560001842,201.58074560001842,201.58074560001842,201.58074560001842,201.58074560001842,201.58074560001842,35,62,33,45,45,70,201.58074560001842,203.44842010000139,,,,,,,,,,,,,,,,,,,,３３８,f,２４,2023-05-21_14h05.45.050,RL,2022.2.5,60.05674160805536,
38,19,70,45,0,28,28,28,,,,,,,,,,,None,203.44842010000139,203.44842010000139,203.44842010000139,203.44842010000139,203.44842010000139,203.44842010000139,r,0.5471549000067171,204.02074659999926,204.02074659999926,204.02074659999926,204.02074659999926,204.02074659999926,204.02074659999926,204.3147830000089,205.4482454000099,205.4482454000099,205.4482454000099,205.4482454000099,205.4482454000099,205.4482454000099,205.4482454000099,205.4482454000099,205.4482454000099,205.4482454000099,205.4482454000099,205.4482454000099,205.4482454000099,205.4482454000099,206.87988910000422,206.87988910000422,206.87988910000422,206.87988910000422,206.87988910000422,206.87988910000422,206.87988910000422,19,70,38,45,70,70,206.87988910000422,208.54776330001187,,,,,,,,,,,,,,,,,,,,３３８,f,２４,2023-05-21_14h05.45.050,RL,2022.2.5,60.05674160805536,
30,35,65,43,0,29,29,29,,,,,,,,,,,None,208.54776330001187,208.54776330001187,208.54776330001187,208.54776330001187,208.54776330001187,208.54776330001187,r,1.2851098999963142,209.86880690002,209.86880690002,209.86880690002,209.86880690002,209.86880690002,209.86880690002,210.1477400000149,211.7972403000167,211.7972403000167,211.7972403000167,211.7972403000167,211.7972403000167,211.7972403000167,211.7638155000168,211.7972403000167,211.7972403000167,211.7972403000167,211.7972403000167,211.7972403000167,211.7972403000167,211.7972403000167,213.7117331000045,213.7117331000045,213.7117331000045,213.7117331000045,213.7117331000045,213.7117331000045,213.7117331000045,35,65,30,43,65,70,213.7117331000045,215.24621650000336,,,,,,,,,,,,,,,,,,,,３３８,f,２４,2023-05-21_14h05.45.050,RL,2022.2.5,60.05674160805536,
49,33,67,46,0,30,30,30,,,,,,,,,,,None,215.24621650000336,215.24621650000336,215.24621650000336,215.24621650000336,215.24621650000336,215.24621650000336,r,0.30109530000481755,215.5678942000086,215.5678942000086,215.5678942000086,215.5678942000086,215.5678942000086,215.5678942000086,215.86303480001516,217.61305400001584,217.61305400001584,217.61305400001584,217.61305400001584,217.61305400001584,217.61305400001584,217.61305400001584,217.61305400001584,217.61305400001584,217.61305400001584,217.61305400001584,217.61305400001584,217.61305400001584,217.61305400001584,219.6606287000177,219.6606287000177,219.6606287000177,219.6606287000177,219.6606287000177,219.6606287000177,219.6606287000177,33,67,49,46,67,70,219.6606287000177,221.29520420002518,,,,,,,,,,,,,,,,,,,,３３８,f,２４,2023-05-21_14h05.45.050,RL,2022.2.5,60.05674160805536,
27,34,70,37,0,31,31,31,,,,,,,,,,,None,221.29520420002518,221.29520420002518,221.29520420002518,221.29520420002518,221.29520420002518,221.29520420002518,r,0.30807920001097955,221.6311424000014,221.6311424000014,221.6311424000014,221.6311424000014,221.6311424000014,221.6311424000014,221.91244990000268,223.0785100000212,223.0785100000212,223.0785100000212,223.0785100000212,223.0785100000212,223.0785100000212,223.0620428000111,223.0785100000212,223.0785100000212,223.0785100000212,223.0785100000212,223.0785100000212,223.0785100000212,223.0785100000212,224.52703620001557,224.52703620001557,224.52703620001557,224.52703620001557,224.52703620001557,224.52703620001557,224.52703620001557,34,70,27,37,70,70,224.52703620001557,226.17768819999765,,,,,,,,,,,,,,,,,,,,３３８,f,２４,2023-05-21_14h05.45.050,RL,2022.2.5,60.05674160805536,
40,35,73,47,0,32,32,32,,,,,,,,,,,None,226.17768819999765,226.17768819999765,226.17768819999765,226.17768819999765,226.17768819999765,226.17768819999765,r,0.2268261999997776,226.42853760000435,226.42853760000435,226.42853760000435,226.42853760000435,226.42853760000435,226.42853760000435,226.71127739999793,228.39423100001295,228.39423100001295,228.39423100001295,228.39423100001295,228.39423100001295,228.39423100001295,228.3775922000059,228.39423100001295,228.39423100001295,228.39423100001295,228.39423100001295,228.39423100001295,228.39423100001295,228.39423100001295,230.3590322000091,230.3590322000091,230.3590322000091,230.3590322000091,230.3590322000091,230.3590322000091,230.3590322000091,35,73,40,47,73,70,230.3590322000091,231.893507700006,,,,,,,,,,,,,,,,,,,,３３８,f,２４,2023-05-21_14h05.45.050,RL,2022.2.5,60.05674160805536,
40,36,70,47,0,33,33,33,,,,,,,,,,,None,231.893507700006,231.893507700006,231.893507700006,231.893507700006,231.893507700006,231.893507700006,r,0.25164699999731965,232.17719100002432,232.17719100002432,232.17719100002432,232.17719100002432,232.17719100002432,232.17719100002432,232.46013710001716,233.97652920000837,233.97652920000837,233.97652920000837,233.97652920000837,233.97652920000837,233.97652920000837,233.9599401000014,233.97652920000837,233.97652920000837,233.97652920000837,233.97652920000837,233.97652920000837,233.97652920000837,233.97652920000837,235.77496330000577,235.77496330000577,235.77496330000577,235.77496330000577,235.77496330000577,235.77496330000577,235.77496330000577,36,70,40,47,70,70,235.77496330000577,237.52554180001607,,,,,,,,,,,,,,,,,,,,３３８,f,２４,2023-05-21_14h05.45.050,RL,2022.2.5,60.05674160805536,
36,22,73,37,0,34,34,34,,,,,,,,,,,None,237.52554180001607,237.52554180001607,237.52554180001607,237.52554180001607,237.52554180001607,237.52554180001607,r,0.2720502000011038,237.82702070000232,237.82702070000232,237.82702070000232,237.82702070000232,237.82702070000232,237.82702070000232,238.1093729000131,239.70941780001158,239.70941780001158,239.70941780001158,239.70941780001158,239.70941780001158,239.70941780001158,239.69271580001805,239.70941780001158,239.70941780001158,239.70941780001158,239.70941780001158,239.70941780001158,239.70941780001158,239.70941780001158,241.5904127000249,241.5904127000249,241.5904127000249,241.5904127000249,241.5904127000249,241.5904127000249,241.5904127000249,22,73,36,37,73,70,241.5904127000249,243.45786419999786,,,,,,,,,,,,,,,,,,,,３３８,f,２４,2023-05-21_14h05.45.050,RL,2022.2.5,60.05674160805536,
35,30,62,37,0,35,35,35,,,,,,,,,,,None,243.45786419999786,243.45786419999786,243.45786419999786,243.45786419999786,243.45786419999786,243.45786419999786,r,0.2546221999800764,243.74170360001153,243.74170360001153,243.74170360001153,243.74170360001153,243.74170360001153,243.74170360001153,244.02488280000398,245.54134610001347,245.54134610001347,245.54134610001347,245.54134610001347,245.54134610001347,245.54134610001347,245.52488959999755,245.54134610001347,245.54134610001347,245.54134610001347,245.54134610001347,245.54134610001347,245.54134610001347,245.54134610001347,247.33923179999692,247.33923179999692,247.33923179999692,247.33923179999692,247.33923179999692,247.33923179999692,247.33923179999692,30,62,35,37,62,70,247.33923179999692,248.95709239999996,,,,,,,,,,,,,,,,,,,,３３８,f,２４,2023-05-21_14h05.45.050,RL,2022.2.5,60.05674160805536,
35,33,68,45,0,36,36,36,,,,,,,,,,,None,248.95709239999996,248.95709239999996,248.95709239999996,248.95709239999996,248.95709239999996,248.95709239999996,r,0.5462333000032231,249.5250928000023,249.5250928000023,249.5250928000023,249.5250928000023,249.5250928000023,249.5250928000023,249.82380160002504,251.35703240000294,251.35703240000294,251.35703240000294,251.35703240000294,251.35703240000294,251.35703240000294,251.35703240000294,251.35703240000294,251.35703240000294,251.35703240000294,251.35703240000294,251.35703240000294,251.35703240000294,251.35703240000294,253.1882375999994,253.1882375999994,253.1882375999994,253.1882375999994,253.1882375999994,253.1882375999994,253.1882375999994,33,68,35,45,68,70,253.1882375999994,255.05587520002155,,,,,,,,,,,,,,,,,,,,３３８,f,２４,2023-05-21_14h05.45.050,RL,2022.2.5,60.05674160805536,
35,34,63,44,0,37,37,37,,,,,,,,,,,None,255.05587520002155,255.05587520002155,255.05587520002155,255.05587520002155,255.05587520002155,255.05587520002155,r,0.33993469999404624,255.42302129999734,255.42302129999734,255.42302129999734,255.42302129999734,255.42302129999734,255.42302129999734,255.70624310002313,257.272475100006,257.272475100006,257.272475100006,257.272475100006,257.272475100006,257.272475100006,257.25588540002354,257.272475100006,257.272475100006,257.272475100006,257.272475100006,257.272475100006,257.272475100006,257.272475100006,259.12038290000055,259.12038290000055,259.12038290000055,259.12038290000055,259.12038290000055,259.12038290000055,259.12038290000055,34,63,35,44,63,70,259.12038290000055,260.65539759999956,,,,,,,,,,,,,,,,,,,,３３８,f,２４,2023-05-21_14h05.45.050,RL,2022.2.5,60.05674160805536,
36,29,66,50,0,38,38,38,,,,,,,,,,,None,260.65539759999956,260.65539759999956,260.65539759999956,260.65539759999956,260.65539759999956,260.65539759999956,r,0.2895944000047166,260.97242510001524,260.97242510001524,260.97242510001524,260.97242510001524,260.97242510001524,260.97242510001524,261.25569990000804,262.65478340000845,262.65478340000845,262.65478340000845,262.65478340000845,262.65478340000845,262.65478340000845,262.63872010001796,262.65478340000845,262.65478340000845,262.65478340000845,262.65478340000845,262.65478340000845,262.65478340000845,262.65478340000845,264.3363875000214,264.3363875000214,264.3363875000214,264.3363875000214,264.3363875000214,264.3363875000214,264.3363875000214,29,66,36,50,66,70,264.3363875000214,266.08735929999966,,,,,,,,,,,,,,,,,,,,３３８,f,２４,2023-05-21_14h05.45.050,RL,2022.2.5,60.05674160805536,
39,32,68,42,0,39,39,39,,,,,,,,,,,None,266.08735929999966,266.08735929999966,266.08735929999966,266.08735929999966,266.08735929999966,266.08735929999966,r,0.37904770000022836,266.4895727999974,266.4895727999974,266.4895727999974,266.4895727999974,266.4895727999974,266.4895727999974,266.7711625000229,267.95383150002453,267.95383150002453,267.95383150002453,267.95383150002453,267.95383150002453,267.95383150002453,267.9373087999993,267.95383150002453,267.95383150002453,267.95383150002453,267.95383150002453,267.95383150002453,267.95383150002453,267.95383150002453,269.41886070001055,269.41886070001055,269.41886070001055,269.41886070001055,269.41886070001055,269.41886070001055,269.41886070001055,32,68,39,42,68,70,269.41886070001055,271.3862729000102,,,,,,,,,,,,,,,,,,,,３３８,f,２４,2023-05-21_14h05.45.050,RL,2022.2.5,60.05674160805536,
41,33,71,49,0,40,40,40,,,,,,,,,,,None,271.3862729000102,271.3862729000102,271.3862729000102,271.3862729000102,271.3862729000102,271.3862729000102,r,0.2402746999869123,271.65350350001245,271.65350350001245,271.65350350001245,271.65350350001245,271.65350350001245,271.65350350001245,271.9369424000033,272.8368004000222,272.8368004000222,272.8368004000222,272.8368004000222,272.8368004000222,272.8368004000222,272.8203019000066,272.8368004000222,272.8368004000222,272.8368004000222,272.8368004000222,272.8368004000222,272.8368004000222,272.8368004000222,274.01822590001393,274.01822590001393,274.01822590001393,274.01822590001393,274.01822590001393,274.01822590001393,274.01822590001393,33,71,41,49,71,70,274.01822590001393,275.7194031000254,,,,,,,,,,,,,,,,,,,,３３８,f,２４,2023-05-21_14h05.45.050,RL,2022.2.5,60.05674160805536,
38,30,56,40,0,41,41,41,,,,,,,,,,,None,275.7194031000254,275.7194031000254,275.7194031000254,275.7194031000254,275.7194031000254,275.7194031000254,r,0.3948025999998208,276.1359860000084,276.1359860000084,276.1359860000084,276.1359860000084,276.1359860000084,276.1359860000084,276.4192102000234,278.33579969999846,278.33579969999846,278.33579969999846,278.33579969999846,278.33579969999846,278.33579969999846,278.31927900001756,278.33579969999846,278.33579969999846,278.33579969999846,278.33579969999846,278.33579969999846,278.33579969999846,278.33579969999846,280.53388060000725,280.53388060000725,280.53388060000725,280.53388060000725,280.53388060000725,280.53388060000725,280.53388060000725,30,56,38,40,56,70,280.53388060000725,282.3012622000242,,,,,,,,,,,,,,,,,,,,３３８,f,２４,2023-05-21_14h05.45.050,RL,2022.2.5,60.05674160805536,
34,35,58,51,0,42,42,42,,,,,,,,,,,None,282.3012622000242,282.3012622000242,282.3012622000242,282.3012622000242,282.3012622000242,282.3012622000242,r,0.24546619999455288,282.57038580000517,282.57038580000517,282.57038580000517,282.57038580000517,282.57038580000517,282.57038580000517,282.85181210000883,284.16806980001274,284.16806980001274,284.16806980001274,284.16806980001274,284.16806980001274,284.16806980001274,284.1513912000228,284.16806980001274,284.16806980001274,284.16806980001274,284.16806980001274,284.16806980001274,284.16806980001274,284.16806980001274,285.7658299000177,285.7658299000177,285.7658299000177,285.7658299000177,285.7658299000177,285.7658299000177,285.7658299000177,35,58,34,51,58,70,285.7658299000177,287.3839783000003,,,,,,,,,,,,,,,,,,,,３３８,f,２４,2023-05-21_14h05.45.050,RL,2022.2.5,60.05674160805536,
42,34,57,44,0,43,43,43,,,,,,,,,,,None,287.3839783000003,287.3839783000003,287.3839783000003,287.3839783000003,287.3839783000003,287.3839783000003,r,0.3241983999905642,287.73553350000293,287.73553350000293,287.73553350000293,287.73553350000293,287.73553350000293,287.73553350000293,288.01724300000933,289.9506391000177,289.9506391000177,289.9506391000177,289.9506391000177,289.9506391000177,289.9506391000177,289.9338295000198,289.9506391000177,289.9506391000177,289.9506391000177,289.9506391000177,289.9506391000177,289.9506391000177,289.9506391000177,292.16499660001136,292.16499660001136,292.16499660001136,292.16499660001136,292.16499660001136,292.16499660001136,292.16499660001136,34,57,42,44,57,70,292.16499660001136,293.999452500022,,,,,,,,,,,,,,,,,,,,３３８,f,２４,2023-05-21_14h05.45.050,RL,2022.2.5,60.05674160805536,
36,32,66,48,0,44,44,44,,,,,,,,,,,None,293.999452500022,293.999452500022,293.999452500022,293.999452500022,293.999452500022,293.999452500022,r,0.32873759997892193,294.34980300001916,294.34980300001916,294.34980300001916,294.34980300001916,294.34980300001916,294.34980300001916,294.6330441000173,296.2993611000129,296.2993611000129,296.2993611000129,296.2993611000129,296.2993611000129,296.2993611000129,296.28301360001205,296.2993611000129,296.2993611000129,296.2993611000129,296.2993611000129,296.2993611000129,296.2993611000129,296.2993611000129,298.2471434000181,298.2471434000181,298.2471434000181,298.2471434000181,298.2471434000181,298.2471434000181,298.2471434000181,32,66,36,48,66,70,298.2471434000181,299.9146783000033,,,,,,,,,,,,,,,,,,,,３３８,f,２４,2023-05-21_14h05.45.050,RL,2022.2.5,60.05674160805536,
33,28,60,45,0,45,45,45,,,,,,,,,,,None,299.9146783000033,299.9146783000033,299.9146783000033,299.9146783000033,299.9146783000033,299.9146783000033,r,0.3105275999987498,300.25080970002455,300.25080970002455,300.25080970002455,300.25080970002455,300.25080970002455,300.25080970002455,300.5486889000167,301.3819204000174,301.3819204000174,301.3819204000174,301.3819204000174,301.3819204000174,301.3819204000174,301.3819204000174,301.3819204000174,301.3819204000174,301.3819204000174,301.3819204000174,301.3819204000174,301.3819204000174,301.3819204000174,302.512890300015,302.512890300015,302.512890300015,302.512890300015,302.512890300015,302.512890300015,302.512890300015,28,60,33,45,60,70,302.512890300015,304.2808617000119,,,,,,,,,,,,,,,,,,,,３３８,f,２４,2023-05-21_14h05.45.050,RL,2022.2.5,60.05674160805536,
31,32,64,50,0,46,46,46,,,,,,,,,,,None,304.2808617000119,304.2808617000119,304.2808617000119,304.2808617000119,304.2808617000119,304.2808617000119,r,0.22276539998711087,304.5320451000007,304.5320451000007,304.5320451000007,304.5320451000007,304.5320451000007,304.5320451000007,304.8146679000056,306.18076600000495,306.18076600000495,306.18076600000495,306.18076600000495,306.18076600000495,306.18076600000495,306.16539040001226,306.18076600000495,306.18076600000495,306.18076600000495,306.18076600000495,306.18076600000495,306.18076600000495,306.18076600000495,307.8285488000256,307.8285488000256,307.8285488000256,307.8285488000256,307.8285488000256,307.8285488000256,307.8285488000256,32,64,31,50,64,70,307.8285488000256,309.5631450000219,,,,,,,,,,,,,,,,,,,,３３８,f,２４,2023-05-21_14h05.45.050,RL,2022.2.5,60.05674160805536,
36,23,64,49,0,47,47,47,,,,,,,,,,,None,309.5631450000219,309.5631450000219,309.5631450000219,309.5631450000219,309.5631450000219,309.5631450000219,r,0.28520760001265444,309.88638820001506,309.88638820001506,309.88638820001506,309.88638820001506,309.88638820001506,309.88638820001506,310.1634173000057,311.8129593000049,311.8129593000049,311.8129593000049,311.8129593000049,311.8129593000049,311.8129593000049,311.7966033999983,311.8129593000049,311.8129593000049,311.8129593000049,311.8129593000049,311.8129593000049,311.8129593000049,311.8129593000049,313.7441794000042,313.7441794000042,313.7441794000042,313.7441794000042,313.7441794000042,313.7441794000042,313.7441794000042,23,64,36,49,64,70,313.7441794000042,315.29548240001895,,,,,,,,,,,,,,,,,,,,３３８,f,２４,2023-05-21_14h05.45.050,RL,2022.2.5,60.05674160805536,
36,29,67,48,0,48,48,48,,,,,,,,,,,None,315.29548240001895,315.29548240001895,315.29548240001895,315.29548240001895,315.29548240001895,315.29548240001895,r,0.549051000009058,315.86248300000443,315.86248300000443,315.86248300000443,315.86248300000443,315.86248300000443,315.86248300000443,316.1455896999978,317.8786160000018,317.8786160000018,317.8786160000018,317.8786160000018,317.8786160000018,317.8786160000018,317.8619100000069,317.8786160000018,317.8786160000018,317.8786160000018,317.8786160000018,317.8786160000018,317.8786160000018,317.8786160000018,319.8935072000022,319.8935072000022,319.8935072000022,319.8935072000022,319.8935072000022,319.8935072000022,319.8935072000022,29,67,36,48,67,70,319.8935072000022,321.5441977000155,,,,,,,,,,,,,,,,,,,,３３８,f,２４,2023-05-21_14h05.45.050,RL,2022.2.5,60.05674160805536,
40,33,67,44,0,49,49,49,,,,,,,,,,,None,321.5441977000155,321.5441977000155,321.5441977000155,321.5441977000155,321.5441977000155,321.5441977000155,r,0.22826329999952577,321.7949718000018,321.7949718000018,321.7949718000018,321.7949718000018,321.7949718000018,321.7949718000018,322.0779483000224,323.2112247000041,323.2112247000041,323.2112247000041,323.2112247000041,323.2112247000041,323.2112247000041,323.19448240002384,323.2112247000041,323.2112247000041,323.2112247000041,323.2112247000041,323.2112247000041,323.2112247000041,323.2112247000041,324.6259443000017,324.6259443000017,324.6259443000017,324.6259443000017,324.6259443000017,324.6259443000017,324.6259443000017,33,67,40,44,67,70,324.6259443000017,326.4933657000074,,,,,,,,,,,,,,,,,,,,３３８,f,２４,2023-05-21_14h05.45.050,RL,2022.2.5,60.05674160805536,
38,40,60,45,0,50,50,50,,,,,,,,,,,None,326.4933657000074,326.4933657000074,326.4933657000074,326.4933657000074,326.4933657000074,326.4933657000074,r,0.2590298999857623,326.779420100007,326.779420100007,326.779420100007,326.779420100007,326.779420100007,326.779420100007,327.0608154000074,328.91011029999936,328.91011029999936,328.91011029999936,328.91011029999936,328.91011029999936,328.91011029999936,328.8936832000036,328.91011029999936,328.91011029999936,328.91011029999936,328.91011029999936,328.91011029999936,328.91011029999936,328.91011029999936,331.04147779999766,331.04147779999766,331.04147779999766,331.04147779999766,331.04147779999766,331.04147779999766,331.04147779999766,40,60,38,45,60,70,331.04147779999766,332.9591270000092,,,,,,,,,,,,,,,,,,,,３３８,f,２４,2023-05-21_14h05.45.050,RL,2022.2.5,60.05674160805536,
40,32,76,34,0,51,51,51,,,,,,,,,,,None,332.9591270000092,332.9591270000092,332.9591270000092,332.9591270000092,332.9591270000092,332.9591270000092,r,0.6123036000062712,333.59289060000447,333.59289060000447,333.59289060000447,333.59289060000447,333.59289060000447,333.59289060000447,333.87608290000935,335.27556510001887,335.27556510001887,335.27556510001887,335.27556510001887,335.27556510001887,335.27556510001887,335.2591512000072,335.27556510001887,335.27556510001887,335.27556510001887,335.27556510001887,335.27556510001887,335.27556510001887,335.27556510001887,336.9567638000008,336.9567638000008,336.9567638000008,336.9567638000008,336.9567638000008,336.9567638000008,336.9567638000008,32,76,40,34,76,70,336.9567638000008,338.4746039000165,,,,,,,,,,,,,,,,,,,,３３８,f,２４,2023-05-21_14h05.45.050,RL,2022.2.5,60.05674160805536,
37,43,77,35,0,52,52,52,,,,,,,,,,,None,338.4746039000165,338.4746039000165,338.4746039000165,338.4746039000165,338.4746039000165,338.4746039000165,r,0.3776499000086915,338.8756510000094,338.8756510000094,338.8756510000094,338.8756510000094,338.8756510000094,338.8756510000094,339.15847620001296,341.17469320000964,341.17469320000964,341.17469320000964,341.17469320000964,341.17469320000964,341.17469320000964,341.15804490001756,341.17469320000964,341.17469320000964,341.17469320000964,341.17469320000964,341.17469320000964,341.17469320000964,341.17469320000964,343.47244480001973,343.47244480001973,343.47244480001973,343.47244480001973,343.47244480001973,343.47244480001973,343.47244480001973,43,77,37,35,77,70,343.47244480001973,345.20720520001487,,,,,,,,,,,,,,,,,,,,３３８,f,２４,2023-05-21_14h05.45.050,RL,2022.2.5,60.05674160805536,
33,33,84,34,0,53,53,53,,,,,,,,,,,None,345.20720520001487,345.20720520001487,345.20720520001487,345.20720520001487,345.20720520001487,345.20720520001487,r,0.29411269997945055,345.5244225000206,345.5244225000206,345.5244225000206,345.5244225000206,345.5244225000206,345.5244225000206,345.8240151000209,347.4571314000059,347.4571314000059,347.4571314000059,347.4571314000059,347.4571314000059,347.4571314000059,347.4571314000059,347.4571314000059,347.4571314000059,347.4571314000059,347.4571314000059,347.4571314000059,347.4571314000059,347.4571314000059,349.38829810000607,349.38829810000607,349.38829810000607,349.38829810000607,349.38829810000607,349.38829810000607,349.38829810000607,33,84,33,34,84,70,349.38829810000607,351.3394640000188,,,,,,,,,,,,,,,,,,,,３３８,f,２４,2023-05-21_14h05.45.050,RL,2022.2.5,60.05674160805536,
29,36,74,36,0,54,54,54,,,,,,,,,,,None,351.3394640000188,351.3394640000188,351.3394640000188,351.3394640000188,351.3394640000188,351.3394640000188,r,0.2912237999844365,351.6564740000176,351.6564740000176,351.6564740000176,351.6564740000176,351.6564740000176,351.6564740000176,351.9393838000251,353.872555000009,353.872555000009,353.872555000009,353.872555000009,353.872555000009,353.872555000009,353.8558476000035,353.872555000009,353.872555000009,353.872555000009,353.872555000009,353.872555000009,353.872555000009,353.872555000009,356.08711900000344,356.08711900000344,356.08711900000344,356.08711900000344,356.08711900000344,356.08711900000344,356.08711900000344,36,74,29,36,74,70,356.08711900000344,357.87133029999677,,,,,,,,,,,,,,,,,,,,３３８,f,２４,2023-05-21_14h05.45.050,RL,2022.2.5,60.05674160805536,
29,45,68,34,0,55,55,55,,,,,,,,,,,None,357.87133029999677,357.87133029999677,357.87133029999677,357.87133029999677,357.87133029999677,357.87133029999677,r,0.8795247000234667,358.7727372000227,358.7727372000227,358.7727372000227,358.7727372000227,358.7727372000227,358.7727372000227,359.05482220000704,360.02118619999965,360.02118619999965,360.02118619999965,360.02118619999965,360.02118619999965,360.02118619999965,360.0045803000103,360.02118619999965,360.02118619999965,360.02118619999965,360.02118619999965,360.02118619999965,360.02118619999965,360.02118619999965,361.2694868000108,361.2694868000108,361.2694868000108,361.2694868000108,361.2694868000108,361.2694868000108,361.2694868000108,45,68,29,34,68,70,361.2694868000108,363.1538686999993,,,,,,,,,,,,,,,,,,,,３３８,f,２４,2023-05-21_14h05.45.050,RL,2022.2.5,60.05674160805536,
28,49,66,37,0,56,56,56,,,,,,,,,,,None,363.1538686999993,363.1538686999993,363.1538686999993,363.1538686999993,363.1538686999993,363.1538686999993,r,0.35861429999931715,363.5394721000048,363.5394721000048,363.5394721000048,363.5394721000048,363.5394721000048,363.5394721000048,363.83751120002125,365.67023690001224,365.67023690001224,365.67023690001224,365.67023690001224,365.67023690001224,365.67023690001224,365.67023690001224,365.67023690001224,365.67023690001224,365.67023690001224,365.67023690001224,365.67023690001224,365.67023690001224,365.67023690001224,367.8018684000126,367.8018684000126,367.8018684000126,367.8018684000126,367.8018684000126,367.8018684000126,367.8018684000126,49,66,28,37,66,70,367.8018684000126,369.6360513000109,,,,,,,,,,,,,,,,,,,,３３８,f,２４,2023-05-21_14h05.45.050,RL,2022.2.5,60.05674160805536,
24,35,59,34,0,57,57,57,,,,,,,,,,,None,369.6360513000109,369.6360513000109,369.6360513000109,369.6360513000109,369.6360513000109,369.6360513000109,r,0.2535898999776691,369.9307498999988,369.9307498999988,369.9307498999988,369.9307498999988,369.9307498999988,369.9307498999988,370.2026888000255,371.3187961000076,371.3187961000076,371.3187961000076,371.3187961000076,371.3187961000076,371.3187961000076,371.2695633000112,371.3187961000076,371.3187961000076,371.3187961000076,371.3187961000076,371.3187961000076,371.3187961000076,371.3187961000076,372.68433950000326,372.68433950000326,372.68433950000326,372.68433950000326,372.68433950000326,372.68433950000326,372.68433950000326,35,59,24,34,59,70,372.68433950000326,374.2518290000153,,,,,,,,,,,,,,,,,,,,３３８,f,２４,2023-05-21_14h05.45.050,RL,2022.2.5,60.05674160805536,
26,38,54,39,0,58,58,58,,,,,,,,,,,None,374.2518290000153,374.2518290000153,374.2518290000153,374.2518290000153,374.2518290000153,374.2518290000153,r,0.2193455999949947,374.5061704000109,374.5061704000109,374.5061704000109,374.5061704000109,374.5061704000109,374.5061704000109,374.78585520002525,376.68553020001855,376.68553020001855,376.68553020001855,376.68553020001855,376.68553020001855,376.68553020001855,376.6685812000069,376.68553020001855,376.68553020001855,376.68553020001855,376.68553020001855,376.68553020001855,376.68553020001855,376.68553020001855,378.8664990999969,378.8664990999969,378.8664990999969,378.8664990999969,378.8664990999969,378.8664990999969,378.8664990999969,38,54,26,39,54,70,378.8664990999969,380.3841441000113,,,,,,,,,,,,,,,,,,,,３３８,f,２４,2023-05-21_14h05.45.050,RL,2022.2.5,60.05674160805536,
28,46,54,29,0,59,59,59,,,,,,,,,,,None,380.3841441000113,380.3841441000113,380.3841441000113,380.3841441000113,380.3841441000113,380.3841441000113,r,0.2803637000033632,380.68604890001006,380.68604890001006,380.68604890001006,380.68604890001006,380.68604890001006,380.68604890001006,380.9846029000182,382.73395990001154,382.73395990001154,382.73395990001154,382.73395990001154,382.73395990001154,382.73395990001154,382.73395990001154,382.73395990001154,382.73395990001154,382.73395990001154,382.73395990001154,382.73395990001154,382.73395990001154,382.73395990001154,384.7820785000222,384.7820785000222,384.7820785000222,384.7820785000222,384.7820785000222,384.7820785000222,384.7820785000222,46,54,28,29,54,70,384.7820785000222,386.73293009999907,,,,,,,,,,,,,,,,,,,,３３８,f,２４,2023-05-21_14h05.45.050,RL,2022.2.5,60.05674160805536,
24,39,59,32,0,60,60,60,,,,,,,,,,,None,386.73293009999907,386.73293009999907,386.73293009999907,386.73293009999907,386.73293009999907,386.73293009999907,f,0.8063013999781106,387.5690755000105,387.5690755000105,387.5690755000105,387.5690755000105,387.5690755000105,387.5690755000105,387.8496945000079,389.7999530000088,389.7999530000088,389.7999530000088,389.7999530000088,389.7999530000088,389.7999530000088,389.7665733000031,389.7999530000088,389.7999530000088,389.7999530000088,389.7999530000088,389.7999530000088,389.7999530000088,389.7999530000088,392.01446810000925,392.01446810000925,392.01446810000925,392.01446810000925,392.01446810000925,392.01446810000925,392.01446810000925,39,59,24,32,39,70,392.01446810000925,393.64821460001986,,,,,,,,,,,,,,,,,,,,３３８,f,２４,2023-05-21_14h05.45.050,RL,2022.2.5,60.05674160805536,
34,41,50,30,0,61,61,61,,,,,,,,,,,None,393.64821460001986,393.64821460001986,393.64821460001986,393.64821460001986,393.64821460001986,393.64821460001986,r,0.3033780999830924,393.98290610002005,393.98290610002005,393.98290610002005,393.98290610002005,393.98290610002005,393.98290610002005,394.26581530002295,395.5152742000064,395.5152742000064,395.5152742000064,395.5152742000064,395.5152742000064,395.5152742000064,395.48198350000894,395.5152742000064,395.5152742000064,395.5152742000064,395.5152742000064,395.5152742000064,395.5152742000064,395.5152742000064,397.0296862999967,397.0296862999967,397.0296862999967,397.0296862999967,397.0296862999967,397.0296862999967,397.0296862999967,41,50,34,30,50,70,397.0296862999967,399.0305883999972,,,,,,,,,,,,,,,,,,,,３３８,f,２４,2023-05-21_14h05.45.050,RL,2022.2.5,60.05674160805536,
32,47,60,23,0,62,62,62,,,,,,,,,,,None,399.0305883999972,399.0305883999972,399.0305883999972,399.0305883999972,399.0305883999972,399.0305883999972,r,0.31977410000399686,399.38581000000704,399.38581000000704,399.38581000000704,399.38581000000704,399.38581000000704,399.38581000000704,399.6646641000116,400.9143743000168,400.9143743000168,400.9143743000168,400.9143743000168,400.9143743000168,400.9143743000168,400.89799180001137,400.9143743000168,400.9143743000168,400.9143743000168,400.9143743000168,400.9143743000168,400.9143743000168,400.9143743000168,402.44592530000955,402.44592530000955,402.44592530000955,402.44592530000955,402.44592530000955,402.44592530000955,402.44592530000955,47,60,32,23,60,70,402.44592530000955,404.3303530999983,,,,,,,,,,,,,,,,,,,,３３８,f,２４,2023-05-21_14h05.45.050,RL,2022.2.5,60.05674160805536,
30,44,68,23,0,63,63,63,,,,,,,,,,,None,404.3303530999983,404.3303530999983,404.3303530999983,404.3303530999983,404.3303530999983,404.3303530999983,r,0.3342823999992106,404.6973339000251,404.6973339000251,404.6973339000251,404.6973339000251,404.6973339000251,404.6973339000251,404.98054310001316,406.1302296000067,406.1302296000067,406.1302296000067,406.1302296000067,406.1302296000067,406.1302296000067,406.1137376000115,406.1302296000067,406.1302296000067,406.1302296000067,406.1302296000067,406.1302296000067,406.1302296000067,406.1302296000067,407.5614703000174,407.5614703000174,407.5614703000174,407.5614703000174,407.5614703000174,407.5614703000174,407.5614703000174,44,68,30,23,68,70,407.5614703000174,409.1791709000245,,,,,,,,,,,,,,,,,,,,３３８,f,２４,2023-05-21_14h05.45.050,RL,2022.2.5,60.05674160805536,
29,43,63,21,0,64,64,64,,,,,,,,,,,None,409.1791709000245,409.1791709000245,409.1791709000245,409.1791709000245,409.1791709000245,409.1791709000245,r,0.3362327000068035,409.5461118000094,409.5461118000094,409.5461118000094,409.5461118000094,409.5461118000094,409.5461118000094,409.8295821000065,410.9793195000093,410.9793195000093,410.9793195000093,410.9793195000093,410.9793195000093,410.9793195000093,410.96259790001204,410.9793195000093,410.9793195000093,410.9793195000093,410.9793195000093,410.9793195000093,410.9793195000093,410.9793195000093,412.41076340002473,412.41076340002473,412.41076340002473,412.41076340002473,412.41076340002473,412.41076340002473,412.41076340002473,43,63,29,21,63,70,412.41076340002473,414.36181540001417,,,,,,,,,,,,,,,,,,,,３３８,f,２４,2023-05-21_14h05.45.050,RL,2022.2.5,60.05674160805536,
31,50,65,22,0,65,65,65,,,,,,,,,,,None,414.36181540001417,414.36181540001417,414.36181540001417,414.36181540001417,414.36181540001417,414.36181540001417,r,0.23452860000543296,414.6336436000129,414.6336436000129,414.6336436000129,414.6336436000129,414.6336436000129,414.6336436000129,414.9117986000201,415.9117893000075,415.9117893000075,415.9117893000075,415.9117893000075,415.9117893000075,415.9117893000075,415.89502690001973,415.9117893000075,415.9117893000075,415.9117893000075,415.9117893000075,415.9117893000075,415.9117893000075,415.9117893000075,417.1934487000108,417.1934487000108,417.1934487000108,417.1934487000108,417.1934487000108,417.1934487000108,417.1934487000108,50,65,31,22,65,70,417.1934487000108,419.010669100011,,,,,,,,,,,,,,,,,,,,３３８,f,２４,2023-05-21_14h05.45.050,RL,2022.2.5,60.05674160805536,
29,46,65,28,0,66,66,66,,,,,,,,,,,None,419.010669100011,419.010669100011,419.010669100011,419.010669100011,419.010669100011,419.010669100011,r,0.28628909998224117,419.33208570000716,419.33208570000716,419.33208570000716,419.33208570000716,419.33208570000716,419.33208570000716,419.6112508000224,420.79409460001625,420.79409460001625,420.79409460001625,420.79409460001625,420.79409460001625,420.79409460001625,420.7612416000047,420.79409460001625,420.79409460001625,420.79409460001625,420.79409460001625,420.79409460001625,420.79409460001625,420.79409460001625,422.2424382000172,422.2424382000172,422.2424382000172,422.2424382000172,422.2424382000172,422.2424382000172,422.2424382000172,46,65,29,28,65,70,422.2424382000172,423.94313830000465,,,,,,,,,,,,,,,,,,,,３３８,f,２４,2023-05-21_14h05.45.050,RL,2022.2.5,60.05674160805536,
34,43,69,24,0,67,67,67,,,,,,,,,,,None,423.94313830000465,423.94313830000465,423.94313830000465,423.94313830000465,423.94313830000465,423.94313830000465,r,0.35251589998370036,424.33150150001165,424.33150150001165,424.33150150001165,424.33150150001165,424.33150150001165,424.33150150001165,424.62671880002017,426.3932079000224,426.3932079000224,426.3932079000224,426.3932079000224,426.3932079000224,426.3932079000224,426.3932079000224,426.3932079000224,426.3932079000224,426.3932079000224,426.3932079000224,426.3932079000224,426.3932079000224,426.3932079000224,428.4577546000073,428.4577546000073,428.4577546000073,428.4577546000073,428.4577546000073,428.4577546000073,428.4577546000073,43,69,34,24,69,70,428.4577546000073,430.0254910000076,,,,,,,,,,,,,,,,,,,,３３８,f,２４,2023-05-21_14h05.45.050,RL,2022.2.5,60.05674160805536,
35,51,62,26,0,68,68,68,,,,,,,,,,,None,430.0254910000076,430.0254910000076,430.0254910000076,430.0254910000076,430.0254910000076,430.0254910000076,r,0.25712329999078065,430.3106053000083,430.3106053000083,430.3106053000083,430.3106053000083,430.3106053000083,430.3106053000083,430.5924515000079,432.47560330000124,432.47560330000124,432.47560330000124,432.47560330000124,432.47560330000124,432.47560330000124,432.45918810000876,432.47560330000124,432.47560330000124,432.47560330000124,432.47560330000124,432.47560330000124,432.47560330000124,432.47560330000124,434.63991670001997,434.63991670001997,434.63991670001997,434.63991670001997,434.63991670001997,434.63991670001997,434.63991670001997,51,62,35,26,62,70,434.63991670001997,436.47482840000885,,,,,,,,,,,,,,,,,,,,３３８,f,２４,2023-05-21_14h05.45.050,RL,2022.2.5,60.05674160805536,
26,44,63,28,0,69,69,69,,,,,,,,,,,None,436.47482840000885,436.47482840000885,436.47482840000885,436.47482840000885,436.47482840000885,436.47482840000885,r,0.28612979999161325,436.7925988000061,436.7925988000061,436.7925988000061,436.7925988000061,436.7925988000061,436.7925988000061,437.09161880001193,438.0076725000108,438.0076725000108,438.0076725000108,438.0076725000108,438.0076725000108,438.0076725000108,438.0076725000108,438.0076725000108,438.0076725000108,438.0076725000108,438.0076725000108,438.0076725000108,438.0076725000108,438.0076725000108,439.2230097000138,439.2230097000138,439.2230097000138,439.2230097000138,439.2230097000138,439.2230097000138,439.2230097000138,44,63,26,28,63,70,439.2230097000138,441.0236853000242,,,,,,,,,,,,,,,,,,,,３３８,f,２４,2023-05-21_14h05.45.050,RL,2022.2.5,60.05674160805536,
37,45,65,36,0,70,70,70,,,,,,,,,,,None,441.0236853000242,441.0236853000242,441.0236853000242,441.0236853000242,441.0236853000242,441.0236853000242,r,0.3316765000054147,441.3740860000253,441.3740860000253,441.3740860000253,441.3740860000253,441.3740860000253,441.3740860000253,441.6743115000136,443.32354050001595,443.32354050001595,443.32354050001595,443.32354050001595,443.32354050001595,443.32354050001595,443.32354050001595,443.32354050001595,443.32354050001595,443.32354050001595,443.32354050001595,443.32354050001595,443.32354050001595,443.32354050001595,445.27183790001436,445.27183790001436,445.27183790001436,445.27183790001436,445.27183790001436,445.27183790001436,445.27183790001436,45,65,37,36,65,70,445.27183790001436,447.03965300001437,,,,,,,,,,,,,,,,,,,,３３８,f,２４,2023-05-21_14h05.45.050,RL,2022.2.5,60.05674160805536,
40,48,60,38,0,71,71,71,,,,,,,,,,,None,447.03965300001437,447.03965300001437,447.03965300001437,447.03965300001437,447.03965300001437,447.03965300001437,r,0.2291593000118155,447.28980730002513,447.28980730002513,447.28980730002513,447.28980730002513,447.28980730002513,447.28980730002513,447.5730048000114,449.42237840002053,449.42237840002053,449.42237840002053,449.42237840002053,449.42237840002053,449.42237840002053,449.4053757000074,449.42237840002053,449.42237840002053,449.42237840002053,449.42237840002053,449.42237840002053,449.42237840002053,449.42237840002053,451.5538756000169,451.5538756000169,451.5538756000169,451.5538756000169,451.5538756000169,451.5538756000169,451.5538756000169,48,60,40,38,60,70,451.5538756000169,453.12131480002427,,,,,,,,,,,,,,,,,,,,３３８,f,２４,2023-05-21_14h05.45.050,RL,2022.2.5,60.05674160805536,
44,49,59,36,0,72,72,72,,,,,,,,,,,None,453.12131480002427,453.12131480002427,453.12131480002427,453.12131480002427,453.12131480002427,453.12131480002427,r,0.3470384000102058,453.488482500019,453.488482500019,453.488482500019,453.488482500019,453.488482500019,453.488482500019,453.7716577000101,455.28789500001585,455.28789500001585,455.28789500001585,455.28789500001585,455.28789500001585,455.28789500001585,455.2713146000169,455.28789500001585,455.28789500001585,455.28789500001585,455.28789500001585,455.28789500001585,455.28789500001585,455.28789500001585,457.0862355999998,457.0862355999998,457.0862355999998,457.0862355999998,457.0862355999998,457.0862355999998,457.0862355999998,49,59,44,36,59,70,457.0862355999998,458.9043660000025,,,,,,,,,,,,,,,,,,,,３３８,f,２４,2023-05-21_14h05.45.050,RL,2022.2.5,60.05674160805536,
44,43,61,45,0,73,73,73,,,,,,,,,,,None,458.9043660000025,458.9043660000025,458.9043660000025,458.9043660000025,458.9043660000025,458.9043660000025,r,0.4700431999808643,459.40567110001575,459.40567110001575,459.40567110001575,459.40567110001575,459.40567110001575,459.40567110001575,459.7038451000117,460.73722090001684,460.73722090001684,460.73722090001684,460.73722090001684,460.73722090001684,460.73722090001684,460.73722090001684,460.73722090001684,460.73722090001684,460.73722090001684,460.73722090001684,460.73722090001684,460.73722090001684,460.73722090001684,462.0688310000114,462.0688310000114,462.0688310000114,462.0688310000114,462.0688310000114,462.0688310000114,462.0688310000114,43,61,44,45,61,70,462.0688310000114,463.6029790000175,,,,,,,,,,,,,,,,,,,,３３８,f,２４,2023-05-21_14h05.45.050,RL,2022.2.5,60.05674160805536,
38,53,59,41,0,74,74,74,,,,,,,,,,,None,463.6029790000175,463.6029790000175,463.6029790000175,463.6029790000175,463.6029790000175,463.6029790000175,r,0.3072730000130832,463.93681010001455,463.93681010001455,463.93681010001455,463.93681010001455,463.93681010001455,463.93681010001455,464.22014520000084,466.11990109999897,466.11990109999897,466.11990109999897,466.11990109999897,466.11990109999897,466.11990109999897,466.1032778000226,466.11990109999897,466.11990109999897,466.11990109999897,466.11990109999897,466.11990109999897,466.11990109999897,466.11990109999897,468.3009523000219,468.3009523000219,468.3009523000219,468.3009523000219,468.3009523000219,468.3009523000219,468.3009523000219,53,59,38,41,59,70,468.3009523000219,470.21774079999886,,,,,,,,,,,,,,,,,,,,３３８,f,２４,2023-05-21_14h05.45.050,RL,2022.2.5,60.05674160805536,
39,36,56,42,0,75,75,75,,,,,,,,,,,q,483.06609249999747,483.06609249999747,483.06609249999747,483.06609249999747,483.06609249999747,483.06609249999747,None,,,,,,,,,,,,,,,,,,,,,,,,,,,,,,36,56,39,42,0,70,490.58036730001913,492.13165920000756,470.21774079999886,470.21774079999886,7.812521999992896,478.05127419999917,478.05127419999917,483.06609249999747,483.06609249999747,484.5669128000154,490.58036730001913,,,,,,,,,,,３３８,f,２４,2023-05-21_14h05.45.050,RL,2022.2.5,60.05674160805536,
51,47,48,41,0,76,76,76,,,,,,,,,,,None,492.13165920000756,492.13165920000756,492.13165920000756,492.13165920000756,492.13165920000756,492.13165920000756,r,0.2712208000011742,492.434614400001,492.434614400001,492.434614400001,492.434614400001,492.434614400001,492.434614400001,492.73165830000653,494.0812690000166,494.0812690000166,494.0812690000166,494.0812690000166,494.0812690000166,494.0812690000166,494.0646553999977,494.0812690000166,494.0812690000166,494.0812690000166,494.0812690000166,494.0812690000166,494.0812690000166,494.0812690000166,495.71253550000256,495.71253550000256,495.71253550000256,495.71253550000256,495.71253550000256,495.71253550000256,495.71253550000256,47,48,51,41,48,70,495.71253550000256,497.463527600019,,,,,,,,,,,,,,,,,,,,３３８,f,２４,2023-05-21_14h05.45.050,RL,2022.2.5,60.05674160805536,
42,48,50,42,0,77,77,77,,,,,,,,,,,None,497.463527600019,497.463527600019,497.463527600019,497.463527600019,497.463527600019,497.463527600019,i,0.3991817999922205,497.88251590001164,497.88251590001164,497.88251590001164,497.88251590001164,497.88251590001164,497.88251590001164,498.1810759000073,499.9305274000217,499.9305274000217,499.9305274000217,499.9305274000217,499.9305274000217,499.9305274000217,499.9305274000217,499.9305274000217,499.9305274000217,499.9305274000217,499.9305274000217,499.9305274000217,499.9305274000217,499.9305274000217,501.97818790000747,501.97818790000747,501.97818790000747,501.97818790000747,501.97818790000747,501.97818790000747,501.97818790000747,48,50,42,42,42,70,501.97818790000747,503.87964250001824,,,,,,,,,,,,,,,,,,,,３３８,f,２４,2023-05-21_14h05.45.050,RL,2022.2.5,60.05674160805536,
34,43,49,37,0,78,78,78,,,,,,,,,,,None,503.87964250001824,503.87964250001824,503.87964250001824,503.87964250001824,503.87964250001824,503.87964250001824,j,0.25454789999639615,504.1646697000251,504.1646697000251,504.1646697000251,504.1646697000251,504.1646697000251,504.1646697000251,504.4466278000036,506.4293061000062,506.4293061000062,506.4293061000062,506.4293061000062,506.4293061000062,506.4293061000062,506.41280910000205,506.4293061000062,506.4293061000062,506.4293061000062,506.4293061000062,506.4293061000062,506.4293061000062,506.4293061000062,508.69406200002413,508.69406200002413,508.69406200002413,508.69406200002413,508.69406200002413,508.69406200002413,508.69406200002413,43,49,34,37,37,70,508.69406200002413,510.3611499000108,,,,,,,,,,,,,,,,,,,,３３８,f,２４,2023-05-21_14h05.45.050,RL,2022.2.5,60.05674160805536,
36,36,43,42,0,79,79,79,,,,,,,,,,,None,510.3611499000108,510.3611499000108,510.3611499000108,510.3611499000108,510.3611499000108,510.3611499000108,f,0.24716579998494126,510.6319887000136,510.6319887000136,510.6319887000136,510.6319887000136,510.6319887000136,510.6319887000136,510.9285256000003,512.8613636000082,512.8613636000082,512.8613636000082,512.8613636000082,512.8613636000082,512.8613636000082,512.8613636000082,512.8613636000082,512.8613636000082,512.8613636000082,512.8613636000082,512.8613636000082,512.8613636000082,512.8613636000082,515.092521500017,515.092521500017,515.092521500017,515.092521500017,515.092521500017,515.092521500017,515.092521500017,36,43,36,42,36,70,515.092521500017,516.7609107000171,,,,,,,,,,,,,,,,,,,,３３８,f,２４,2023-05-21_14h05.45.050,RL,2022.2.5,60.05674160805536,
41,40,60,46,0,80,80,80,,,,,,,,,,,None,516.7609107000171,516.7609107000171,516.7609107000171,516.7609107000171,516.7609107000171,516.7609107000171,r,0.2733216999913566,517.0609419000102,517.0609419000102,517.0609419000102,517.0609419000102,517.0609419000102,517.0609419000102,517.3606366000022,519.2103372999991,519.2103372999991,519.2103372999991,519.2103372999991,519.2103372999991,519.2103372999991,519.2103372999991,519.2103372999991,519.2103372999991,519.2103372999991,519.2103372999991,519.2103372999991,519.2103372999991,519.2103372999991,521.3583199999994,521.3583199999994,521.3583199999994,521.3583199999994,521.3583199999994,521.3583199999994,521.3583199999994,40,60,41,46,60,70,521.3583199999994,523.109672200022,,,,,,,,,,,,,,,,,,,,３３８,f,２４,2023-05-21_14h05.45.050,RL,2022.2.5,60.05674160805536,
36,44,58,50,0,81,81,81,,,,,,,,,,,None,523.109672200022,523.109672200022,523.109672200022,523.109672200022,523.109672200022,523.109672200022,r,0.2485166999977082,523.3776623000158,523.3776623000158,523.3776623000158,523.3776623000158,523.3776623000158,523.3776623000158,523.6762305000157,525.0593193000241,525.0593193000241,525.0593193000241,525.0593193000241,525.0593193000241,525.0593193000241,525.0593193000241,525.0593193000241,525.0593193000241,525.0593193000241,525.0593193000241,525.0593193000241,525.0593193000241,525.0593193000241,526.7409439000185,526.7409439000185,526.7409439000185,526.7409439000185,526.7409439000185,526.7409439000185,526.7409439000185,44,58,36,50,58,70,526.7409439000185,528.4752883000183,,,,,,,,,,,,,,,,,,,,３３８,f,２４,2023-05-21_14h05.45.050,RL,2022.2.5,60.05674160805536,
42,26,48,60,0,82,82,82,,,,,,,,,,,None,528.4752883000183,528.4752883000183,528.4752883000183,528.4752883000183,528.4752883000183,528.4752883000183,r,0.2384380000003148,528.7437867000117,528.7437867000117,528.7437867000117,528.7437867000117,528.7437867000117,528.7437867000117,529.0419881000125,530.6417492000037,530.6417492000037,530.6417492000037,530.6417492000037,530.6417492000037,530.6417492000037,530.6417492000037,530.6417492000037,530.6417492000037,530.6417492000037,530.6417492000037,530.6417492000037,530.6417492000037,530.6417492000037,532.540190700005,532.540190700005,532.540190700005,532.540190700005,532.540190700005,532.540190700005,532.540190700005,26,48,42,60,48,70,532.540190700005,534.1243979000137,,,,,,,,,,,,,,,,,,,,３３８,f,２４,2023-05-21_14h05.45.050,RL,2022.2.5,60.05674160805536,
38,37,54,48,0,83,83,83,,,,,,,,,,,None,534.1243979000137,534.1243979000137,534.1243979000137,534.1243979000137,534.1243979000137,534.1243979000137,r,0.3325075000175275,534.4759247000038,534.4759247000038,534.4759247000038,534.4759247000038,534.4759247000038,534.4759247000038,534.7578942000109,536.0573472999968,536.0573472999968,536.0573472999968,536.0573472999968,536.0573472999968,536.0573472999968,536.040593600017,536.0573472999968,536.0573472999968,536.0573472999968,536.0573472999968,536.0573472999968,536.0573472999968,536.0573472999968,537.6391750000184,537.6391750000184,537.6391750000184,537.6391750000184,537.6391750000184,537.6391750000184,537.6391750000184,37,54,38,48,54,70,537.6391750000184,539.4566578000085,,,,,,,,,,,,,,,,,,,,３３８,f,２４,2023-05-21_14h05.45.050,RL,2022.2.5,60.05674160805536,
39,35,47,48,0,84,84,84,,,,,,,,,,,None,539.4566578000085,539.4566578000085,539.4566578000085,539.4566578000085,539.4566578000085,539.4566578000085,r,0.2922799999942072,539.7742511999968,539.7742511999968,539.7742511999968,539.7742511999968,539.7742511999968,539.7742511999968,540.0569510000059,541.2398168000218,541.2398168000218,541.2398168000218,541.2398168000218,541.2398168000218,541.2398168000218,541.2235272999969,541.2398168000218,541.2398168000218,541.2398168000218,541.2398168000218,541.2398168000218,541.2398168000218,541.2398168000218,542.7045388999977,542.7045388999977,542.7045388999977,542.7045388999977,542.7045388999977,542.7045388999977,542.7045388999977,35,47,39,48,47,70,542.7045388999977,544.4387087000068,,,,,,,,,,,,,,,,,,,,３３８,f,２４,2023-05-21_14h05.45.050,RL,2022.2.5,60.05674160805536,
38,29,51,57,0,85,85,85,,,,,,,,,,,None,544.4387087000068,544.4387087000068,544.4387087000068,544.4387087000068,544.4387087000068,544.4387087000068,r,0.8311065000016242,545.289677599998,545.289677599998,545.289677599998,545.289677599998,545.289677599998,545.289677599998,545.5726398999977,546.7056331000058,546.7056331000058,546.7056331000058,546.7056331000058,546.7056331000058,546.7056331000058,546.6892297000159,546.7056331000058,546.7056331000058,546.7056331000058,546.7056331000058,546.7056331000058,546.7056331000058,546.7056331000058,548.1200498000253,548.1200498000253,548.1200498000253,548.1200498000253,548.1200498000253,548.1200498000253,548.1200498000253,29,51,38,57,51,70,548.1200498000253,550.0211263000092,,,,,,,,,,,,,,,,,,,,３３８,f,２４,2023-05-21_14h05.45.050,RL,2022.2.5,60.05674160805536,
44,34,47,53,0,86,86,86,,,,,,,,,,,None,550.0211263000092,550.0211263000092,550.0211263000092,550.0211263000092,550.0211263000092,550.0211263000092,r,0.8862596999970265,550.942813200003,550.942813200003,550.942813200003,550.942813200003,550.942813200003,550.942813200003,551.2385612000071,552.6716535000014,552.6716535000014,552.6716535000014,552.6716535000014,552.6716535000014,552.6716535000014,552.6544859000132,552.6716535000014,552.6716535000014,552.6716535000014,552.6716535000014,552.6716535000014,552.6716535000014,552.6716535000014,554.3857631999999,554.3857631999999,554.3857631999999,554.3857631999999,554.3857631999999,554.3857631999999,554.3857631999999,34,47,44,53,47,70,554.3857631999999,556.3039063000178,,,,,,,,,,,,,,,,,,,,３３８,f,２４,2023-05-21_14h05.45.050,RL,2022.2.5,60.05674160805536,
44,27,50,59,0,87,87,87,,,,,,,,,,,None,556.3039063000178,556.3039063000178,556.3039063000178,556.3039063000178,556.3039063000178,556.3039063000178,f,0.472736800002167,556.8040313000092,556.8040313000092,556.8040313000092,556.8040313000092,556.8040313000092,556.8040313000092,557.0874435000005,557.9870450000162,557.9870450000162,557.9870450000162,557.9870450000162,557.9870450000162,557.9870450000162,557.9705230000254,557.9870450000162,557.9870450000162,557.9870450000162,557.9870450000162,557.9870450000162,557.9870450000162,557.9870450000162,559.1688359000254,559.1688359000254,559.1688359000254,559.1688359000254,559.1688359000254,559.1688359000254,559.1688359000254,27,50,44,59,27,70,559.1688359000254,560.886353000009,,,,,,,,,,,,,,,,,,,,３３８,f,２４,2023-05-21_14h05.45.050,RL,2022.2.5,60.05674160805536,
40,34,46,57,0,88,88,88,,,,,,,,,,,None,560.886353000009,560.886353000009,560.886353000009,560.886353000009,560.886353000009,560.886353000009,i,0.3627740000083577,561.2708849000046,561.2708849000046,561.2708849000046,561.2708849000046,561.2708849000046,561.2708849000046,561.55310010002,562.9362276000029,562.9362276000029,562.9362276000029,562.9362276000029,562.9362276000029,562.9362276000029,562.9192821000179,562.9362276000029,562.9362276000029,562.9362276000029,562.9362276000029,562.9362276000029,562.9362276000029,562.9362276000029,564.6009201999987,564.6009201999987,564.6009201999987,564.6009201999987,564.6009201999987,564.6009201999987,564.6009201999987,34,46,40,57,40,70,564.6009201999987,566.1522309000138,,,,,,,,,,,,,,,,,,,,３３８,f,２４,2023-05-21_14h05.45.050,RL,2022.2.5,60.05674160805536,
45,39,51,62,0,89,89,89,,,,,,,,,,,None,566.1522309000138,566.1522309000138,566.1522309000138,566.1522309000138,566.1522309000138,566.1522309000138,j,0.467639100010274,566.6589630000235,566.6589630000235,566.6589630000235,566.6589630000235,566.6589630000235,566.6589630000235,566.9357385000039,568.5685505000001,568.5685505000001,568.5685505000001,568.5685505000001,568.5685505000001,568.5685505000001,568.5353967999981,568.5685505000001,568.5685505000001,568.5685505000001,568.5685505000001,568.5685505000001,568.5685505000001,568.5685505000001,570.4665718000033,570.4665718000033,570.4665718000033,570.4665718000033,570.4665718000033,570.4665718000033,570.4665718000033,39,51,45,62,62,70,570.4665718000033,572.3693322000036,,,,,,,,,,,,,,,,,,,,３３８,f,２４,2023-05-21_14h05.45.050,RL,2022.2.5,60.05674160805536,
48,40,59,67,0,90,90,90,,,,,,,,,,,None,572.3693322000036,572.3693322000036,572.3693322000036,572.3693322000036,572.3693322000036,572.3693322000036,j,0.2585632000118494,572.6548913000152,572.6548913000152,572.6548913000152,572.6548913000152,572.6548913000152,572.6548913000152,572.9346811000141,574.5009672000015,574.5009672000015,574.5009672000015,574.5009672000015,574.5009672000015,574.5009672000015,574.4842091000173,574.5009672000015,574.5009672000015,574.5009672000015,574.5009672000015,574.5009672000015,574.5009672000015,574.5009672000015,576.3485282000038,576.3485282000038,576.3485282000038,576.3485282000038,576.3485282000038,576.3485282000038,576.3485282000038,40,59,48,67,67,70,576.3485282000038,578.2330144000007,,,,,,,,,,,,,,,,,,,,３３８,f,２４,2023-05-21_14h05.45.050,RL,2022.2.5,60.05674160805536,
50,29,58,64,0,91,91,91,,,,,,,,,,,None,578.2330144000007,578.2330144000007,578.2330144000007,578.2330144000007,578.2330144000007,578.2330144000007,j,0.2632181999797467,578.5171002999996,578.5171002999996,578.5171002999996,578.5171002999996,578.5171002999996,578.5171002999996,578.816816400009,579.9498637000215,579.9498637000215,579.9498637000215,579.9498637000215,579.9498637000215,579.9498637000215,579.9498637000215,579.9498637000215,579.9498637000215,579.9498637000215,579.9498637000215,579.9498637000215,579.9498637000215,579.9498637000215,581.3812024000217,581.3812024000217,581.3812024000217,581.3812024000217,581.3812024000217,581.3812024000217,581.3812024000217,29,58,50,64,64,70,581.3812024000217,583.2652624000038,,,,,,,,,,,,,,,,,,,,３３８,f,２４,2023-05-21_14h05.45.050,RL,2022.2.5,60.05674160805536,
55,31,56,74,0,92,92,92,,,,,,,,,,,None,583.2652624000038,583.2652624000038,583.2652624000038,583.2652624000038,583.2652624000038,583.2652624000038,j,0.30174639998585917,583.612918800005,583.612918800005,583.612918800005,583.612918800005,583.612918800005,583.612918800005,583.8826186000078,585.232110300014,585.232110300014,585.232110300014,585.232110300014,585.232110300014,585.232110300014,585.1988337000075,585.232110300014,585.232110300014,585.232110300014,585.232110300014,585.232110300014,585.232110300014,585.232110300014,586.8476597999979,586.8476597999979,586.8476597999979,586.8476597999979,586.8476597999979,586.8476597999979,586.8476597999979,31,56,55,74,74,70,586.8476597999979,588.8147683000134,,,,,,,,,,,,,,,,,,,,３３８,f,２４,2023-05-21_14h05.45.050,RL,2022.2.5,60.05674160805536,
55,41,46,76,0,93,93,93,,,,,,,,,,,None,588.8147683000134,588.8147683000134,588.8147683000134,588.8147683000134,588.8147683000134,588.8147683000134,j,0.24292849999619648,589.0872643000039,589.0872643000039,589.0872643000039,589.0872643000039,589.0872643000039,589.0872643000039,589.3816812000005,591.1481170000043,591.1481170000043,591.1481170000043,591.1481170000043,591.1481170000043,591.1481170000043,591.131675200013,591.1481170000043,591.1481170000043,591.1481170000043,591.1481170000043,591.1481170000043,591.1481170000043,591.1481170000043,593.1958002000174,593.1958002000174,593.1958002000174,593.1958002000174,593.1958002000174,593.1958002000174,593.1958002000174,41,46,55,76,76,70,593.1958002000174,594.780356800009,,,,,,,,,,,,,,,,,,,,３３８,f,２４,2023-05-21_14h05.45.050,RL,2022.2.5,60.05674160805536,
53,42,49,71,0,94,94,94,,,,,,,,,,,None,594.780356800009,594.780356800009,594.780356800009,594.780356800009,594.780356800009,594.780356800009,j,0.3665372999967076,595.1683824000065,595.1683824000065,595.1683824000065,595.1683824000065,595.1683824000065,595.1683824000065,595.4638470000064,596.5635863000061,596.5635863000061,596.5635863000061,596.5635863000061,596.5635863000061,596.5635863000061,596.5472767000028,596.5635863000061,596.5635863000061,596.5635863000061,596.5635863000061,596.5635863000061,596.5635863000061,596.5635863000061,597.9453282000031,597.9453282000031,597.9453282000031,597.9453282000031,597.9453282000031,597.9453282000031,597.9453282000031,42,49,53,71,71,70,597.9453282000031,599.6959345000214,,,,,,,,,,,,,,,,,,,,３３８,f,２４,2023-05-21_14h05.45.050,RL,2022.2.5,60.05674160805536,
55,37,42,68,0,95,95,95,,,,,,,,,,,None,599.6959345000214,599.6959345000214,599.6959345000214,599.6959345000214,599.6959345000214,599.6959345000214,j,0.2743934000027366,600.0010882000206,600.0010882000206,600.0010882000206,600.0010882000206,600.0010882000206,600.0010882000206,600.279747499997,601.7459913000057,601.7459913000057,601.7459913000057,601.7459913000057,601.7459913000057,601.7459913000057,601.7294950000069,601.7459913000057,601.7459913000057,601.7459913000057,601.7459913000057,601.7459913000057,601.7459913000057,601.7459913000057,603.4938861000119,603.4938861000119,603.4938861000119,603.4938861000119,603.4938861000119,603.4938861000119,603.4938861000119,37,42,55,68,68,70,603.4938861000119,605.1117641000019,,,,,,,,,,,,,,,,,,,,３３８,f,２４,2023-05-21_14h05.45.050,RL,2022.2.5,60.05674160805536,
53,37,51,61,0,96,96,96,,,,,,,,,,,None,605.1117641000019,605.1117641000019,605.1117641000019,605.1117641000019,605.1117641000019,605.1117641000019,j,0.31845520000206307,605.4744778000168,605.4744778000168,605.4744778000168,605.4744778000168,605.4744778000168,605.4744778000168,605.7454734000203,607.294878900022,607.294878900022,607.294878900022,607.294878900022,607.294878900022,607.294878900022,607.2616441000137,607.294878900022,607.294878900022,607.294878900022,607.294878900022,607.294878900022,607.294878900022,607.294878900022,609.1097759999975,609.1097759999975,609.1097759999975,609.1097759999975,609.1097759999975,609.1097759999975,609.1097759999975,37,51,53,61,61,70,609.1097759999975,610.8274657000147,,,,,,,,,,,,,,,,,,,,３３８,f,２４,2023-05-21_14h05.45.050,RL,2022.2.5,60.05674160805536,
65,44,46,67,0,97,97,97,,,,,,,,,,,None,610.8274657000147,610.8274657000147,610.8274657000147,610.8274657000147,610.8274657000147,610.8274657000147,j,0.3632147000171244,611.2112800000177,611.2112800000177,611.2112800000177,611.2112800000177,611.2112800000177,611.2112800000177,611.4944293000153,612.7440272000094,612.7440272000094,612.7440272000094,612.7440272000094,612.7440272000094,612.7440272000094,612.7270151000121,612.7440272000094,612.7440272000094,612.7440272000094,612.7440272000094,612.7440272000094,612.7440272000094,612.7440272000094,614.2759031000023,614.2759031000023,614.2759031000023,614.2759031000023,614.2759031000023,614.2759031000023,614.2759031000023,44,46,65,67,67,70,614.2759031000023,616.0602609000052,,,,,,,,,,,,,,,,,,,,３３８,f,２４,2023-05-21_14h05.45.050,RL,2022.2.5,60.05674160805536,
56,35,39,64,0,98,98,98,,,,,,,,,,,None,616.0602609000052,616.0602609000052,616.0602609000052,616.0602609000052,616.0602609000052,616.0602609000052,j,0.48970989999361336,616.5780721000046,616.5780721000046,616.5780721000046,616.5780721000046,616.5780721000046,616.5780721000046,616.8602601000166,618.7926770000195,618.7926770000195,618.7926770000195,618.7926770000195,618.7926770000195,618.7926770000195,618.7762785000086,618.7926770000195,618.7926770000195,618.7926770000195,618.7926770000195,618.7926770000195,618.7926770000195,618.7926770000195,621.0073908000195,621.0073908000195,621.0073908000195,621.0073908000195,621.0073908000195,621.0073908000195,621.0073908000195,35,39,56,64,64,70,621.0073908000195,622.7753104000003,,,,,,,,,,,,,,,,,,,,３３８,f,２４,2023-05-21_14h05.45.050,RL,2022.2.5,60.05674160805536,
52,39,46,78,0,99,99,99,,,,,,,,,,,None,622.7753104000003,622.7753104000003,622.7753104000003,622.7753104000003,622.7753104000003,622.7753104000003,j,0.40884360001655295,623.2131120999984,623.2131120999984,623.2131120999984,623.2131120999984,623.2131120999984,623.2131120999984,623.4920337000221,624.3754558000073,624.3754558000073,624.3754558000073,624.3754558000073,624.3754558000073,624.3754558000073,624.3587831000041,624.3754558000073,624.3754558000073,624.3754558000073,624.3754558000073,624.3754558000073,624.3754558000073,624.3754558000073,625.5403389999992,625.5403389999992,625.5403389999992,625.5403389999992,625.5403389999992,625.5403389999992,625.5403389999992,39,46,52,78,78,70,625.5403389999992,627.2244361000194,,,,,,,,,,,,,,,,,,,,３３８,f,２４,2023-05-21_14h05.45.050,RL,2022.2.5,60.05674160805536,
57,44,57,57,0,100,100,100,,,,,,,,,,,None,627.2244361000194,627.2244361000194,627.2244361000194,627.2244361000194,627.2244361000194,627.2244361000194,j,0.29678030000650324,627.5436270000064,627.5436270000064,627.5436270000064,627.5436270000064,627.5436270000064,627.5436270000064,627.8418965000019,629.5578267000092,629.5578267000092,629.5578267000092,629.5578267000092,629.5578267000092,629.5578267000092,629.5578267000092,629.5578267000092,629.5578267000092,629.5578267000092,629.5578267000092,629.5578267000092,629.5578267000092,629.5578267000092,631.572511300008,631.572511300008,631.572511300008,631.572511300008,631.572511300008,631.572511300008,631.572511300008,44,57,57,57,57,70,631.572511300008,633.4239428000001,,,,,,,,,,,,,,,,,,,,３３８,f,２４,2023-05-21_14h05.45.050,RL,2022.2.5,60.05674160805536,
44,42,47,70,0,101,101,101,,,,,,,,,,,None,633.4239428000001,633.4239428000001,633.4239428000001,633.4239428000001,633.4239428000001,633.4239428000001,j,0.2527663000219036,633.7179098000051,633.7179098000051,633.7179098000051,633.7179098000051,633.7179098000051,633.7179098000051,633.9904968000192,635.973659500014,635.973659500014,635.973659500014,635.973659500014,635.973659500014,635.973659500014,635.9400885000068,635.973659500014,635.973659500014,635.973659500014,635.973659500014,635.973659500014,635.973659500014,635.973659500014,638.2217638000147,638.2217638000147,638.2217638000147,638.2217638000147,638.2217638000147,638.2217638000147,638.2217638000147,42,47,44,70,70,70,638.2217638000147,640.155685900012,,,,,,,,,,,,,,,,,,,,３３８,f,２４,2023-05-21_14h05.45.050,RL,2022.2.5,60.05674160805536,
50,37,59,74,0,102,102,102,,,,,,,,,,,None,640.155685900012,640.155685900012,640.155685900012,640.155685900012,640.155685900012,640.155685900012,j,0.2697815999854356,640.4611191000149,640.4611191000149,640.4611191000149,640.4611191000149,640.4611191000149,640.4611191000149,640.7393005000195,641.6058568000153,641.6058568000153,641.6058568000153,641.6058568000153,641.6058568000153,641.6058568000153,641.5727682000143,641.6058568000153,641.6058568000153,641.6058568000153,641.6058568000153,641.6058568000153,641.6058568000153,641.6058568000153,642.7370618999994,642.7370618999994,642.7370618999994,642.7370618999994,642.7370618999994,642.7370618999994,642.7370618999994,37,59,50,74,74,70,642.7370618999994,644.4885525999998,,,,,,,,,,,,,,,,,,,,３３８,f,２４,2023-05-21_14h05.45.050,RL,2022.2.5,60.05674160805536,
45,31,48,76,0,103,103,103,,,,,,,,,,,None,644.4885525999998,644.4885525999998,644.4885525999998,644.4885525999998,644.4885525999998,644.4885525999998,j,0.33653359999880195,644.8567047000106,644.8567047000106,644.8567047000106,644.8567047000106,644.8567047000106,644.8567047000106,645.1385527000239,646.5550617999979,646.5550617999979,646.5550617999979,646.5550617999979,646.5550617999979,646.5550617999979,646.5385270999977,646.5550617999979,646.5550617999979,646.5550617999979,646.5550617999979,646.5550617999979,646.5550617999979,646.5550617999979,648.2531421000022,648.2531421000022,648.2531421000022,648.2531421000022,648.2531421000022,648.2531421000022,648.2531421000022,31,48,45,76,76,70,648.2531421000022,650.1207774000068,,,,,,,,,,,,,,,,,,,,３３８,f,２４,2023-05-21_14h05.45.050,RL,2022.2.5,60.05674160805536,
47,29,43,72,0,104,104,104,,,,,,,,,,,None,650.1207774000068,650.1207774000068,650.1207774000068,650.1207774000068,650.1207774000068,650.1207774000068,j,0.26222090001101606,650.4042716000113,650.4042716000113,650.4042716000113,650.4042716000113,650.4042716000113,650.4042716000113,650.6873178000096,652.0205856000248,652.0205856000248,652.0205856000248,652.0205856000248,652.0205856000248,652.0205856000248,652.0042026000156,652.0205856000248,652.0205856000248,652.0205856000248,652.0205856000248,652.0205856000248,652.0205856000248,652.0205856000248,653.6357218000048,653.6357218000048,653.6357218000048,653.6357218000048,653.6357218000048,653.6357218000048,653.6357218000048,29,43,47,72,72,70,653.6357218000048,655.6030768000055,,,,,,,,,,,,,,,,,,,,３３８,f,２４,2023-05-21_14h05.45.050,RL,2022.2.5,60.05674160805536,
58,32,59,72,0,105,105,105,,,,,,,,,,,None,655.6030768000055,655.6030768000055,655.6030768000055,655.6030768000055,655.6030768000055,655.6030768000055,j,0.3222431000031065,655.9532487000106,655.9532487000106,655.9532487000106,655.9532487000106,655.9532487000106,655.9532487000106,656.2364803000237,657.9027077000064,657.9027077000064,657.9027077000064,657.9027077000064,657.9027077000064,657.9027077000064,657.8863654000161,657.9027077000064,657.9027077000064,657.9027077000064,657.9027077000064,657.9027077000064,657.9027077000064,657.9027077000064,659.8510627000069,659.8510627000069,659.8510627000069,659.8510627000069,659.8510627000069,659.8510627000069,659.8510627000069,32,59,58,72,72,70,659.8510627000069,661.5184973000141,,,,,,,,,,,,,,,,,,,,３３８,f,２４,2023-05-21_14h05.45.050,RL,2022.2.5,60.05674160805536,
53,37,56,74,0,106,106,106,,,,,,,,,,,None,661.5184973000141,661.5184973000141,661.5184973000141,661.5184973000141,661.5184973000141,661.5184973000141,j,0.3328128999855835,661.8692452000105,661.8692452000105,661.8692452000105,661.8692452000105,661.8692452000105,661.8692452000105,662.1693897000223,663.9020249000168,663.9020249000168,663.9020249000168,663.9020249000168,663.9020249000168,663.9020249000168,663.9020249000168,663.9020249000168,663.9020249000168,663.9020249000168,663.9020249000168,663.9020249000168,663.9020249000168,663.9020249000168,665.9331595000112,665.9331595000112,665.9331595000112,665.9331595000112,665.9331595000112,665.9331595000112,665.9331595000112,37,56,53,74,74,70,665.9331595000112,667.5013283000153,,,,,,,,,,,,,,,,,,,,３３８,f,２４,2023-05-21_14h05.45.050,RL,2022.2.5,60.05674160805536,
42,33,62,75,0,107,107,107,,,,,,,,,,,None,667.5013283000153,667.5013283000153,667.5013283000153,667.5013283000153,667.5013283000153,667.5013283000153,j,0.4018824999802746,667.9401318000164,667.9401318000164,667.9401318000164,667.9401318000164,667.9401318000164,667.9401318000164,668.2181267999986,669.8174408000195,669.8174408000195,669.8174408000195,669.8174408000195,669.8174408000195,669.8174408000195,669.8007113000203,669.8174408000195,669.8174408000195,669.8174408000195,669.8174408000195,669.8174408000195,669.8174408000195,669.8174408000195,671.6989318999986,671.6989318999986,671.6989318999986,671.6989318999986,671.6989318999986,671.6989318999986,671.6989318999986,33,62,42,75,75,70,671.6989318999986,673.4667620999971,,,,,,,,,,,,,,,,,,,,３３８,f,２４,2023-05-21_14h05.45.050,RL,2022.2.5,60.05674160805536,
44,41,54,74,0,108,108,108,,,,,,,,,,,None,673.4667620999971,673.4667620999971,673.4667620999971,673.4667620999971,673.4667620999971,673.4667620999971,j,0.24042369998642243,673.7336802000063,673.7336802000063,673.7336802000063,673.7336802000063,673.7336802000063,673.7336802000063,674.0168182000052,675.5999946000229,675.5999946000229,675.5999946000229,675.5999946000229,675.5999946000229,675.5999946000229,675.5832232000248,675.5999946000229,675.5999946000229,675.5999946000229,675.5999946000229,675.5999946000229,675.5999946000229,675.5999946000229,677.4641476999968,677.4641476999968,677.4641476999968,677.4641476999968,677.4641476999968,677.4641476999968,677.4641476999968,41,54,44,74,74,70,677.4641476999968,679.2322978000157,,,,,,,,,,,,,,,,,,,,３３８,f,２４,2023-05-21_14h05.45.050,RL,2022.2.5,60.05674160805536,
46,43,52,77,0,109,109,109,,,,,,,,,,,None,679.2322978000157,679.2322978000157,679.2322978000157,679.2322978000157,679.2322978000157,679.2322978000157,j,0.2785943000053521,679.5327346000122,679.5327346000122,679.5327346000122,679.5327346000122,679.5327346000122,679.5327346000122,679.8157980000251,681.1987372000003,681.1987372000003,681.1987372000003,681.1987372000003,681.1987372000003,681.1987372000003,681.1823435999977,681.1987372000003,681.1987372000003,681.1987372000003,681.1987372000003,681.1987372000003,681.1987372000003,681.1987372000003,682.8636366999999,682.8636366999999,682.8636366999999,682.8636366999999,682.8636366999999,682.8636366999999,682.8636366999999,43,52,46,77,77,70,682.8636366999999,684.5147569000255,,,,,,,,,,,,,,,,,,,,３３８,f,２４,2023-05-21_14h05.45.050,RL,2022.2.5,60.05674160805536,
36,39,66,78,0,110,110,110,,,,,,,,,,,None,684.5147569000255,684.5147569000255,684.5147569000255,684.5147569000255,684.5147569000255,684.5147569000255,j,0.2766364999988582,684.8150030999968,684.8150030999968,684.8150030999968,684.8150030999968,684.8150030999968,684.8150030999968,685.0979926,686.648015600018,686.648015600018,686.648015600018,686.648015600018,686.648015600018,686.648015600018,686.6311725999985,686.648015600018,686.648015600018,686.648015600018,686.648015600018,686.648015600018,686.648015600018,686.648015600018,688.4791451000201,688.4791451000201,688.4791451000201,688.4791451000201,688.4791451000201,688.4791451000201,688.4791451000201,39,66,36,78,78,70,688.4791451000201,690.3802218000055,,,,,,,,,,,,,,,,,,,,３３８,f,２４,2023-05-21_14h05.45.050,RL,2022.2.5,60.05674160805536,
36,41,50,70,0,111,111,111,,,,,,,,,,,None,690.3802218000055,690.3802218000055,690.3802218000055,690.3802218000055,690.3802218000055,690.3802218000055,j,0.32569470000453293,690.731680900004,690.731680900004,690.731680900004,690.731680900004,690.731680900004,690.731680900004,691.0137475000229,692.1134868000227,692.1134868000227,692.1134868000227,692.1134868000227,692.1134868000227,692.1134868000227,692.0969429000106,692.1134868000227,692.1134868000227,692.1134868000227,692.1134868000227,692.1134868000227,692.1134868000227,692.1134868000227,693.4949070000148,693.4949070000148,693.4949070000148,693.4949070000148,693.4949070000148,693.4949070000148,693.4949070000148,41,50,36,70,70,70,693.4949070000148,695.2795464000083,,,,,,,,,,,,,,,,,,,,３３８,f,２４,2023-05-21_14h05.45.050,RL,2022.2.5,60.05674160805536,
39,50,62,79,0,112,112,112,,,,,,,,,,,None,695.2795464000083,695.2795464000083,695.2795464000083,695.2795464000083,695.2795464000083,695.2795464000083,j,0.3316814999852795,695.6297963999968,695.6297963999968,695.6297963999968,695.6297963999968,695.6297963999968,695.6297963999968,695.9299946000101,697.8793372000218,697.8793372000218,697.8793372000218,697.8793372000218,697.8793372000218,697.8793372000218,697.8793372000218,697.8793372000218,697.8793372000218,697.8793372000218,697.8793372000218,697.8793372000218,697.8793372000218,697.8793372000218,700.1273633000092,700.1273633000092,700.1273633000092,700.1273633000092,700.1273633000092,700.1273633000092,700.1273633000092,50,62,39,79,79,70,700.1273633000092,702.0118041000096,,,,,,,,,,,,,,,,,,,,３３８,f,２４,2023-05-21_14h05.45.050,RL,2022.2.5,60.05674160805536,
42,31,47,68,0,113,113,113,,,,,,,,,,,None,702.0118041000096,702.0118041000096,702.0118041000096,702.0118041000096,702.0118041000096,702.0118041000096,j,0.2912005999824032,702.3289617999981,702.3289617999981,702.3289617999981,702.3289617999981,702.3289617999981,702.3289617999981,702.6118413000077,704.3947410000255,704.3947410000255,704.3947410000255,704.3947410000255,704.3947410000255,704.3947410000255,704.3780341000238,704.3947410000255,704.3947410000255,704.3947410000255,704.3947410000255,704.3947410000255,704.3947410000255,704.3947410000255,706.4596405000193,706.4596405000193,706.4596405000193,706.4596405000193,706.4596405000193,706.4596405000193,706.4596405000193,31,47,42,68,68,70,706.4596405000193,708.3269474999979,,,,,,,,,,,,,,,,,,,,３３８,f,２４,2023-05-21_14h05.45.050,RL,2022.2.5,60.05674160805536,
40,32,46,71,0,114,114,114,,,,,,,,,,,None,708.3269474999979,708.3269474999979,708.3269474999979,708.3269474999979,708.3269474999979,708.3269474999979,j,0.31290300001273863,708.6617256000172,708.6617256000172,708.6617256000172,708.6617256000172,708.6617256000172,708.6617256000172,708.9607281000062,710.4438935000217,710.4438935000217,710.4438935000217,710.4438935000217,710.4438935000217,710.4438935000217,710.4438935000217,710.4438935000217,710.4438935000217,710.4438935000217,710.4438935000217,710.4438935000217,710.4438935000217,710.4438935000217,712.2253791000112,712.2253791000112,712.2253791000112,712.2253791000112,712.2253791000112,712.2253791000112,712.2253791000112,32,46,40,71,71,70,712.2253791000112,714.2261727000005,,,,,,,,,,,,,,,,,,,,３３８,f,２４,2023-05-21_14h05.45.050,RL,2022.2.5,60.05674160805536,
48,34,52,73,0,115,115,115,,,,,,,,,,,None,714.2261727000005,714.2261727000005,714.2261727000005,714.2261727000005,714.2261727000005,714.2261727000005,j,0.4283544000063557,714.6764519000135,714.6764519000135,714.6764519000135,714.6764519000135,714.6764519000135,714.6764519000135,714.959657200001,716.2928621000028,716.2928621000028,716.2928621000028,716.2928621000028,716.2928621000028,716.2928621000028,716.2762212000089,716.2928621000028,716.2928621000028,716.2928621000028,716.2928621000028,716.2928621000028,716.2928621000028,716.2928621000028,717.9070992000052,717.9070992000052,717.9070992000052,717.9070992000052,717.9070992000052,717.9070992000052,717.9070992000052,34,52,48,73,73,70,717.9070992000052,719.7417828000034,,,,,,,,,,,,,,,,,,,,３３８,f,２４,2023-05-21_14h05.45.050,RL,2022.2.5,60.05674160805536,
36,33,47,72,0,116,116,116,,,,,,,,,,,None,719.7417828000034,719.7417828000034,719.7417828000034,719.7417828000034,719.7417828000034,719.7417828000034,j,0.33730449998984113,720.1091184999968,720.1091184999968,720.1091184999968,720.1091184999968,720.1091184999968,720.1091184999968,720.4086062000133,722.2250382000057,722.2250382000057,722.2250382000057,722.2250382000057,722.2250382000057,722.2250382000057,722.2250382000057,722.2250382000057,722.2250382000057,722.2250382000057,722.2250382000057,722.2250382000057,722.2250382000057,722.2250382000057,724.3394339000224,724.3394339000224,724.3394339000224,724.3394339000224,724.3394339000224,724.3394339000224,724.3394339000224,33,47,36,72,72,70,724.3394339000224,726.1239135000214,,,,,,,,,,,,,,,,,,,,３３８,f,２４,2023-05-21_14h05.45.050,RL,2022.2.5,60.05674160805536,
36,33,50,62,0,117,117,117,,,,,,,,,,,None,726.1239135000214,726.1239135000214,726.1239135000214,726.1239135000214,726.1239135000214,726.1239135000214,j,0.35327439999673516,726.5108974000032,726.5108974000032,726.5108974000032,726.5108974000032,726.5108974000032,726.5108974000032,726.8075080999988,728.4570910000184,728.4570910000184,728.4570910000184,728.4570910000184,728.4570910000184,728.4570910000184,728.4570910000184,728.4570910000184,728.4570910000184,728.4570910000184,728.4570910000184,728.4570910000184,728.4570910000184,728.4570910000184,730.4053981000034,730.4053981000034,730.4053981000034,730.4053981000034,730.4053981000034,730.4053981000034,730.4053981000034,33,50,36,62,62,70,730.4053981000034,732.0898870000092,,,,,,,,,,,,,,,,,,,,３３８,f,２４,2023-05-21_14h05.45.050,RL,2022.2.5,60.05674160805536,
35,40,48,74,0,118,118,118,,,,,,,,,,,None,732.0898870000092,732.0898870000092,732.0898870000092,732.0898870000092,732.0898870000092,732.0898870000092,j,0.31132249999791384,732.4246082000027,732.4246082000027,732.4246082000027,732.4246082000027,732.4246082000027,732.4246082000027,732.706890100002,733.8563207999978,733.8563207999978,733.8563207999978,733.8563207999978,733.8563207999978,733.8563207999978,733.8398510999978,733.8563207999978,733.8563207999978,733.8563207999978,733.8563207999978,733.8563207999978,733.8563207999978,733.8563207999978,735.2878521000093,735.2878521000093,735.2878521000093,735.2878521000093,735.2878521000093,735.2878521000093,735.2878521000093,40,48,35,74,74,70,735.2878521000093,736.9055423000245,,,,,,,,,,,,,,,,,,,,３３８,f,２４,2023-05-21_14h05.45.050,RL,2022.2.5,60.05674160805536,
34,27,55,75,0,119,119,119,,,,,,,,,,,None,736.9055423000245,736.9055423000245,736.9055423000245,736.9055423000245,736.9055423000245,736.9055423000245,j,0.31994899999699555,737.2609877000214,737.2609877000214,737.2609877000214,737.2609877000214,737.2609877000214,737.2609877000214,737.5395794000069,738.7386630999972,738.7386630999972,738.7386630999972,738.7386630999972,738.7386630999972,738.7386630999972,738.7054447999981,738.7386630999972,738.7386630999972,738.7386630999972,738.7386630999972,738.7386630999972,738.7386630999972,738.7386630999972,740.2037026000035,740.2037026000035,740.2037026000035,740.2037026000035,740.2037026000035,740.2037026000035,740.2037026000035,27,55,34,75,75,70,740.2037026000035,742.1547540000174,,,,,,,,,,,,,,,,,,,,３３８,f,２４,2023-05-21_14h05.45.050,RL,2022.2.5,60.05674160805536,
