arm1,arm2,arm3,arm4,trials.thisRepN,trials.thisTrialN,trials.thisN,trials.thisIndex,instru_img1.started,instru_resp.started,instru_resp.keys,instru_resp.rt,image_2.started,text_2.started,image_2.stopped,text_2.stopped,fixbefore_2.started,fixbefore_2.stopped,rest_response.keys,red.started,green.started,yellow.started,blue.started,choose_bandit.started,Fixation.started,choose_bandit.keys,choose_bandit.rt,black.started,red_2.started,green_2.started,yellow_2.started,blue_2.started,fixation_2.started,docs.started,black.stopped,red_2.stopped,green_2.stopped,yellow_2.stopped,blue_2.stopped,fixation_2.stopped,docs.stopped,black_com.started,reward_sub.started,reward__sub.started,red_compare.started,green_com.started,yellow_com.started,blue_com.started,black_com.stopped,reward_sub.stopped,reward__sub.stopped,red_compare.stopped,green_com.stopped,yellow_com.stopped,blue_com.stopped,rewardred,rewardyellow,rewardblue,rewardgreen,subchoose,expectation,intertrialfix.started,intertrialfix.stopped,rest_image.started,rest_response.started,rest_response.rt,image_expect_after.started,text_exp_after.started,image_expect_after.stopped,text_exp_after.stopped,image.started,key_resp.started,key_resp.keys,key_resp.rt,participant,Gender,Age,date,expName,psychopyVersion,frameRate,
,,,,,,,,18.43286580001586,18.43286580001586,space,21.97570400001132,,,,,,,,,,,,,,,,,,,,,,,,,,,,,,,,,,,,,,,,,,,,,,,,,,,,,,,,,,,,,,,３３９,f,２３,2023-05-21_14h34.30.295,RL,2022.2.5,60.120397107149216,
29,37,53,62,0,0,0,0,,,,,40.43234300002223,40.43234300002223,45.432460600015474,45.432460600015474,45.432460600015474,46.434616100013955,None,46.434616100013955,46.434616100013955,46.434616100013955,46.434616100013955,46.434616100013955,46.434616100013955,i,0.3885561999923084,46.85921180000878,46.85921180000878,46.85921180000878,46.85921180000878,46.85921180000878,46.85921180000878,47.15024460002314,48.41694250001456,48.41694250001456,48.41694250001456,48.41694250001456,48.41694250001456,48.41694250001456,48.41694250001456,48.41694250001456,48.41694250001456,48.41694250001456,48.41694250001456,48.41694250001456,48.41694250001456,48.41694250001456,50.026825200009625,50.026825200009625,50.026825200009625,50.026825200009625,50.026825200009625,50.026825200009625,50.026825200009625,37,53,29,62,29,60,50.026825200009625,51.815351099998225,,,,,,,,,,,,３３９,f,２３,2023-05-21_14h34.30.295,RL,2022.2.5,60.120397107149216,
46,36,65,66,0,1,1,1,,,,,,,,,,,None,51.815351099998225,51.815351099998225,51.815351099998225,51.815351099998225,51.815351099998225,51.815351099998225,j,0.4515825999842491,52.30349300001399,52.30349300001399,52.30349300001399,52.30349300001399,52.30349300001399,52.30349300001399,52.59922689999803,53.89849350001896,53.89849350001896,53.89849350001896,53.89849350001896,53.89849350001896,53.89849350001896,53.89849350001896,53.89849350001896,53.89849350001896,53.89849350001896,53.89849350001896,53.89849350001896,53.89849350001896,53.89849350001896,55.49672369999462,55.49672369999462,55.49672369999462,55.49672369999462,55.49672369999462,55.49672369999462,55.49672369999462,36,65,46,66,66,60,55.49672369999462,57.430806999997,,,,,,,,,,,,３３９,f,２３,2023-05-21_14h34.30.295,RL,2022.2.5,60.120397107149216,
41,44,44,68,0,2,2,2,,,,,,,,,,,None,57.430806999997,57.430806999997,57.430806999997,57.430806999997,57.430806999997,57.430806999997,r,0.3186721999954898,57.781473300012294,57.781473300012294,57.781473300012294,57.781473300012294,57.781473300012294,57.781473300012294,58.06428839999717,59.24755749999895,59.24755749999895,59.24755749999895,59.24755749999895,59.24755749999895,59.24755749999895,59.231461400020635,59.24755749999895,59.24755749999895,59.24755749999895,59.24755749999895,59.24755749999895,59.24755749999895,59.24755749999895,60.71249080001144,60.71249080001144,60.71249080001144,60.71249080001144,60.71249080001144,60.71249080001144,60.71249080001144,44,44,41,68,44,60,60.71249080001144,62.44692830002168,,,,,,,,,,,,３３９,f,２３,2023-05-21_14h34.30.295,RL,2022.2.5,60.120397107149216,
36,44,58,72,0,3,3,3,,,,,,,,,,,None,62.44692830002168,62.44692830002168,62.44692830002168,62.44692830002168,62.44692830002168,62.44692830002168,f,0.30310399999143556,62.780573700001696,62.780573700001696,62.780573700001696,62.780573700001696,62.780573700001696,62.780573700001696,63.0643737000064,64.71365040002274,64.71365040002274,64.71365040002274,64.71365040002274,64.71365040002274,64.71365040002274,64.71365040002274,64.71365040002274,64.71365040002274,64.71365040002274,64.71365040002274,64.71365040002274,64.71365040002274,64.71365040002274,66.64475989999482,66.64475989999482,66.64475989999482,66.64475989999482,66.64475989999482,66.64475989999482,66.64475989999482,44,58,36,72,44,60,66.64475989999482,68.37909440000658,,,,,,,,,,,,３３９,f,２３,2023-05-21_14h34.30.295,RL,2022.2.5,60.120397107149216,
42,41,54,69,0,4,4,4,,,,,,,,,,,None,68.37909440000658,68.37909440000658,68.37909440000658,68.37909440000658,68.37909440000658,68.37909440000658,j,0.29601069999625906,68.69699170000968,68.69699170000968,68.69699170000968,68.69699170000968,68.69699170000968,68.69699170000968,68.97963960000197,70.11282890001894,70.11282890001894,70.11282890001894,70.11282890001894,70.11282890001894,70.11282890001894,70.09642070002155,70.11282890001894,70.11282890001894,70.11282890001894,70.11282890001894,70.11282890001894,70.11282890001894,70.11282890001894,71.52749340000446,71.52749340000446,71.52749340000446,71.52749340000446,71.52749340000446,71.52749340000446,71.52749340000446,41,54,42,69,69,60,71.52749340000446,73.26157400000375,,,,,,,,,,,,３３９,f,２３,2023-05-21_14h34.30.295,RL,2022.2.5,60.120397107149216,
43,49,50,71,0,5,5,5,,,,,,,,,,,None,73.26157400000375,73.26157400000375,73.26157400000375,73.26157400000375,73.26157400000375,73.26157400000375,j,0.3208654999907594,73.61223870000686,73.61223870000686,73.61223870000686,73.61223870000686,73.61223870000686,73.61223870000686,73.89536210001097,74.94645450002281,74.94645450002281,74.94645450002281,74.94645450002281,74.94645450002281,74.94645450002281,74.9287592000037,74.94645450002281,74.94645450002281,74.94645450002281,74.94645450002281,74.94645450002281,74.94645450002281,74.94645450002281,76.27676160002011,76.27676160002011,76.27676160002011,76.27676160002011,76.27676160002011,76.27676160002011,76.27676160002011,49,50,43,71,71,60,76.27676160002011,78.07762510000612,,,,,,,,,,,,３３９,f,２３,2023-05-21_14h34.30.295,RL,2022.2.5,60.120397107149216,
39,45,52,66,0,6,6,6,,,,,,,,,,,None,78.07762510000612,78.07762510000612,78.07762510000612,78.07762510000612,78.07762510000612,78.07762510000612,j,0.27514870002050884,78.37805960001424,78.37805960001424,78.37805960001424,78.37805960001424,78.37805960001424,78.37805960001424,78.6615376000118,80.4943440000061,80.4943440000061,80.4943440000061,80.4943440000061,80.4943440000061,80.4943440000061,80.4777052999998,80.4943440000061,80.4943440000061,80.4943440000061,80.4943440000061,80.4943440000061,80.4943440000061,80.4943440000061,82.608724300022,82.608724300022,82.608724300022,82.608724300022,82.608724300022,82.608724300022,82.608724300022,45,52,39,66,66,60,82.608724300022,84.44333540002117,,,,,,,,,,,,３３９,f,２３,2023-05-21_14h34.30.295,RL,2022.2.5,60.120397107149216,
44,45,42,64,0,7,7,7,,,,,,,,,,,None,84.44333540002117,84.44333540002117,84.44333540002117,84.44333540002117,84.44333540002117,84.44333540002117,j,0.36207519998424686,84.82705400002305,84.82705400002305,84.82705400002305,84.82705400002305,84.82705400002305,84.82705400002305,85.12672260002,86.25995840001269,86.25995840001269,86.25995840001269,86.25995840001269,86.25995840001269,86.25995840001269,86.25995840001269,86.25995840001269,86.25995840001269,86.25995840001269,86.25995840001269,86.25995840001269,86.25995840001269,86.25995840001269,87.69118860000162,87.69118860000162,87.69118860000162,87.69118860000162,87.69118860000162,87.69118860000162,87.69118860000162,45,42,44,64,64,60,87.69118860000162,89.64207329999772,,,,,,,,,,,,３３９,f,２３,2023-05-21_14h34.30.295,RL,2022.2.5,60.120397107149216,
43,40,42,66,0,8,8,8,,,,,,,,,,,None,89.64207329999772,89.64207329999772,89.64207329999772,89.64207329999772,89.64207329999772,89.64207329999772,j,0.2756400999787729,89.94343770001433,89.94343770001433,89.94343770001433,89.94343770001433,89.94343770001433,89.94343770001433,90.24220280000009,92.07535850000568,92.07535850000568,92.07535850000568,92.07535850000568,92.07535850000568,92.07535850000568,92.07535850000568,92.07535850000568,92.07535850000568,92.07535850000568,92.07535850000568,92.07535850000568,92.07535850000568,92.07535850000568,94.20719899999676,94.20719899999676,94.20719899999676,94.20719899999676,94.20719899999676,94.20719899999676,94.20719899999676,40,42,43,66,66,60,94.20719899999676,96.20767170001636,,,,,,,,,,,,３３９,f,２３,2023-05-21_14h34.30.295,RL,2022.2.5,60.120397107149216,
42,45,44,70,0,9,9,9,,,,,,,,,,,None,96.20767170001636,96.20767170001636,96.20767170001636,96.20767170001636,96.20767170001636,96.20767170001636,f,0.2989965000015218,96.52494530001422,96.52494530001422,96.52494530001422,96.52494530001422,96.52494530001422,96.52494530001422,96.80771829999867,98.59112330002245,98.59112330002245,98.59112330002245,98.59112330002245,98.59112330002245,98.59112330002245,98.57434600000852,98.59112330002245,98.59112330002245,98.59112330002245,98.59112330002245,98.59112330002245,98.59112330002245,98.59112330002245,100.65595190000022,100.65595190000022,100.65595190000022,100.65595190000022,100.65595190000022,100.65595190000022,100.65595190000022,45,44,42,70,45,60,100.65595190000022,102.25704120000592,,,,,,,,,,,,３３９,f,２３,2023-05-21_14h34.30.295,RL,2022.2.5,60.120397107149216,
45,38,40,64,0,10,10,10,,,,,,,,,,,None,102.25704120000592,102.25704120000592,102.25704120000592,102.25704120000592,102.25704120000592,102.25704120000592,r,0.29207619998487644,102.57373200001894,102.57373200001894,102.57373200001894,102.57373200001894,102.57373200001894,102.57373200001894,102.85747119999724,104.2064459999965,104.2064459999965,104.2064459999965,104.2064459999965,104.2064459999965,104.2064459999965,104.19042120000813,104.2064459999965,104.2064459999965,104.2064459999965,104.2064459999965,104.2064459999965,104.2064459999965,104.2064459999965,105.83792920000269,105.83792920000269,105.83792920000269,105.83792920000269,105.83792920000269,105.83792920000269,105.83792920000269,38,40,45,64,40,60,105.83792920000269,107.78878709999844,,,,,,,,,,,,３３９,f,２３,2023-05-21_14h34.30.295,RL,2022.2.5,60.120397107149216,
53,24,52,68,0,11,11,11,,,,,,,,,,,None,107.78878709999844,107.78878709999844,107.78878709999844,107.78878709999844,107.78878709999844,107.78878709999844,i,0.2599353000114206,108.07266890001483,108.07266890001483,108.07266890001483,108.07266890001483,108.07266890001483,108.07266890001483,108.37260679999599,109.88882280001417,109.88882280001417,109.88882280001417,109.88882280001417,109.88882280001417,109.88882280001417,109.88882280001417,109.88882280001417,109.88882280001417,109.88882280001417,109.88882280001417,109.88882280001417,109.88882280001417,109.88882280001417,111.70375960000092,111.70375960000092,111.70375960000092,111.70375960000092,111.70375960000092,111.70375960000092,111.70375960000092,24,52,53,68,53,60,111.70375960000092,113.28831420000643,,,,,,,,,,,,３３９,f,２３,2023-05-21_14h34.30.295,RL,2022.2.5,60.120397107149216,
54,44,43,60,0,12,12,12,,,,,,,,,,,None,113.28831420000643,113.28831420000643,113.28831420000643,113.28831420000643,113.28831420000643,113.28831420000643,j,0.26427269997657277,113.57417690000148,113.57417690000148,113.57417690000148,113.57417690000148,113.57417690000148,113.57417690000148,113.87193180000759,114.90473430001293,114.90473430001293,114.90473430001293,114.90473430001293,114.90473430001293,114.90473430001293,114.90473430001293,114.90473430001293,114.90473430001293,114.90473430001293,114.90473430001293,114.90473430001293,114.90473430001293,114.90473430001293,116.23667790001491,116.23667790001491,116.23667790001491,116.23667790001491,116.23667790001491,116.23667790001491,116.23667790001491,44,43,54,60,60,60,116.23667790001491,117.97046030001366,,,,,,,,,,,,３３９,f,２３,2023-05-21_14h34.30.295,RL,2022.2.5,60.120397107149216,
60,41,48,74,0,13,13,13,,,,,,,,,,,None,117.97046030001366,117.97046030001366,117.97046030001366,117.97046030001366,117.97046030001366,117.97046030001366,j,0.2789154000056442,118.27109740002197,118.27109740002197,118.27109740002197,118.27109740002197,118.27109740002197,118.27109740002197,118.55433559999801,120.07036199999857,120.07036199999857,120.07036199999857,120.07036199999857,120.07036199999857,120.07036199999857,120.05377460000454,120.07036199999857,120.07036199999857,120.07036199999857,120.07036199999857,120.07036199999857,120.07036199999857,120.07036199999857,121.8686474999995,121.8686474999995,121.8686474999995,121.8686474999995,121.8686474999995,121.8686474999995,121.8686474999995,41,48,60,74,74,60,121.8686474999995,123.65296540001873,,,,,,,,,,,,３３９,f,２３,2023-05-21_14h34.30.295,RL,2022.2.5,60.120397107149216,
58,31,46,71,0,14,14,14,,,,,,,,,,,None,123.65296540001873,123.65296540001873,123.65296540001873,123.65296540001873,123.65296540001873,123.65296540001873,j,0.4433613999863155,124.12183620000724,124.12183620000724,124.12183620000724,124.12183620000724,124.12183620000724,124.12183620000724,124.40308459999505,126.16931690002093,126.16931690002093,126.16931690002093,126.16931690002093,126.16931690002093,126.16931690002093,126.15335520001827,126.16931690002093,126.16931690002093,126.16931690002093,126.16931690002093,126.16931690002093,126.16931690002093,126.16931690002093,128.21711630001664,128.21711630001664,128.21711630001664,128.21711630001664,128.21711630001664,128.21711630001664,128.21711630001664,31,46,58,71,71,60,128.21711630001664,130.0519348999951,,,,,,,,,,,,３３９,f,２３,2023-05-21_14h34.30.295,RL,2022.2.5,60.120397107149216,
70,42,51,64,0,15,15,15,,,,,,,,,,,None,130.0519348999951,130.0519348999951,130.0519348999951,130.0519348999951,130.0519348999951,130.0519348999951,j,0.2972563999937847,130.36916620002012,130.36916620002012,130.36916620002012,130.36916620002012,130.36916620002012,130.36916620002012,130.65163370000664,132.651357499999,132.651357499999,132.651357499999,132.651357499999,132.651357499999,132.651357499999,132.6346470999997,132.651357499999,132.651357499999,132.651357499999,132.651357499999,132.651357499999,132.651357499999,132.651357499999,134.93255950001185,134.93255950001185,134.93255950001185,134.93255950001185,134.93255950001185,134.93255950001185,134.93255950001185,42,51,70,64,64,60,134.93255950001185,136.63448639999842,,,,,,,,,,,,３３９,f,２３,2023-05-21_14h34.30.295,RL,2022.2.5,60.120397107149216,
66,32,45,71,0,16,16,16,,,,,,,,,,,None,136.63448639999842,136.63448639999842,136.63448639999842,136.63448639999842,136.63448639999842,136.63448639999842,j,0.26458220000495203,136.91792570002144,136.91792570002144,136.91792570002144,136.91792570002144,136.91792570002144,136.91792570002144,137.20090920000803,138.70086360001005,138.70086360001005,138.70086360001005,138.70086360001005,138.70086360001005,138.70086360001005,138.68453349999618,138.70086360001005,138.70086360001005,138.70086360001005,138.70086360001005,138.70086360001005,138.70086360001005,138.70086360001005,140.48193310000352,140.48193310000352,140.48193310000352,140.48193310000352,140.48193310000352,140.48193310000352,140.48193310000352,32,45,66,71,71,60,140.48193310000352,142.28330599999754,,,,,,,,,,,,３３９,f,２３,2023-05-21_14h34.30.295,RL,2022.2.5,60.120397107149216,
68,47,46,69,0,17,17,17,,,,,,,,,,,None,142.28330599999754,142.28330599999754,142.28330599999754,142.28330599999754,142.28330599999754,142.28330599999754,j,0.28196269998443313,142.58349250000902,142.58349250000902,142.58349250000902,142.58349250000902,142.58349250000902,142.58349250000902,142.86669650001568,143.88306439999724,143.88306439999724,143.88306439999724,143.88306439999724,143.88306439999724,143.88306439999724,143.86633610000717,143.88306439999724,143.88306439999724,143.88306439999724,143.88306439999724,143.88306439999724,143.88306439999724,143.88306439999724,145.16457230001106,145.16457230001106,145.16457230001106,145.16457230001106,145.16457230001106,145.16457230001106,145.16457230001106,47,46,68,69,69,60,145.16457230001106,146.865340999997,,,,,,,,,,,,３３９,f,２３,2023-05-21_14h34.30.295,RL,2022.2.5,60.120397107149216,
71,36,56,71,0,18,18,18,,,,,,,,,,,None,146.865340999997,146.865340999997,146.865340999997,146.865340999997,146.865340999997,146.865340999997,j,0.3702579000091646,147.26601330001722,147.26601330001722,147.26601330001722,147.26601330001722,147.26601330001722,147.26601330001722,147.54890640001395,148.8155010000046,148.8155010000046,148.8155010000046,148.8155010000046,148.8155010000046,148.8155010000046,148.79883630000404,148.8155010000046,148.8155010000046,148.8155010000046,148.8155010000046,148.8155010000046,148.8155010000046,148.8155010000046,150.36364820000017,150.36364820000017,150.36364820000017,150.36364820000017,150.36364820000017,150.36364820000017,150.36364820000017,36,56,71,71,71,60,150.36364820000017,152.2981614000164,,,,,,,,,,,,３３９,f,２３,2023-05-21_14h34.30.295,RL,2022.2.5,60.120397107149216,
70,42,56,74,0,19,19,19,,,,,,,,,,,None,152.2981614000164,152.2981614000164,152.2981614000164,152.2981614000164,152.2981614000164,152.2981614000164,j,0.2602783000038471,152.58170660000178,152.58170660000178,152.58170660000178,152.58170660000178,152.58170660000178,152.58170660000178,152.86491140001453,154.06469290002133,154.06469290002133,154.06469290002133,154.06469290002133,154.06469290002133,154.06469290002133,154.03127910001785,154.06469290002133,154.06469290002133,154.06469290002133,154.06469290002133,154.06469290002133,154.06469290002133,154.06469290002133,155.5292956000194,155.5292956000194,155.5292956000194,155.5292956000194,155.5292956000194,155.5292956000194,155.5292956000194,42,56,70,74,74,60,155.5292956000194,157.33061800000723,,,,,,,,,,,,３３９,f,２３,2023-05-21_14h34.30.295,RL,2022.2.5,60.120397107149216,
63,40,58,80,0,20,20,20,,,,,,,,,,,None,157.33061800000723,157.33061800000723,157.33061800000723,157.33061800000723,157.33061800000723,157.33061800000723,j,0.3449193999986164,157.69753269999637,157.69753269999637,157.69753269999637,157.69753269999637,157.69753269999637,157.69753269999637,157.98077500000363,159.46348900001612,159.46348900001612,159.46348900001612,159.46348900001612,159.46348900001612,159.46348900001612,159.44711249999818,159.46348900001612,159.46348900001612,159.46348900001612,159.46348900001612,159.46348900001612,159.46348900001612,159.46348900001612,161.22867300000507,161.22867300000507,161.22867300000507,161.22867300000507,161.22867300000507,161.22867300000507,161.22867300000507,40,58,63,80,80,60,161.22867300000507,162.79606610001065,,,,,,,,,,,,３３９,f,２３,2023-05-21_14h34.30.295,RL,2022.2.5,60.120397107149216,
56,35,56,74,0,21,21,21,,,,,,,,,,,None,162.79606610001065,162.79606610001065,162.79606610001065,162.79606610001065,162.79606610001065,162.79606610001065,j,0.27332969999406487,163.0964858000225,163.0964858000225,163.0964858000225,163.0964858000225,163.0964858000225,163.0964858000225,163.3796498000156,164.44611020002048,164.44611020002048,164.44611020002048,164.44611020002048,164.44611020002048,164.44611020002048,164.42987500000163,164.44611020002048,164.44611020002048,164.44611020002048,164.44611020002048,164.44611020002048,164.44611020002048,164.44611020002048,165.79454030000488,165.79454030000488,165.79454030000488,165.79454030000488,165.79454030000488,165.79454030000488,165.79454030000488,35,56,56,74,74,60,165.79454030000488,167.52920280001126,,,,,,,,,,,,３３９,f,２３,2023-05-21_14h34.30.295,RL,2022.2.5,60.120397107149216,
59,39,61,69,0,22,22,22,,,,,,,,,,,None,167.52920280001126,167.52920280001126,167.52920280001126,167.52920280001126,167.52920280001126,167.52920280001126,j,0.2958303000195883,167.8489038000116,167.8489038000116,167.8489038000116,167.8489038000116,167.8489038000116,167.8489038000116,168.1459801000019,169.39512900001137,169.39512900001137,169.39512900001137,169.39512900001137,169.39512900001137,169.39512900001137,169.39512900001137,169.39512900001137,169.39512900001137,169.39512900001137,169.39512900001137,169.39512900001137,169.39512900001137,169.39512900001137,170.94382600000245,170.94382600000245,170.94382600000245,170.94382600000245,170.94382600000245,170.94382600000245,170.94382600000245,39,61,59,69,69,60,170.94382600000245,172.61162239999976,,,,,,,,,,,,３３９,f,２３,2023-05-21_14h34.30.295,RL,2022.2.5,60.120397107149216,
61,39,59,65,0,23,23,23,,,,,,,,,,,None,172.61162239999976,172.61162239999976,172.61162239999976,172.61162239999976,172.61162239999976,172.61162239999976,j,0.34501029999228194,172.9782737000205,172.9782737000205,172.9782737000205,172.9782737000205,172.9782737000205,172.9782737000205,173.26116730002104,175.22818800000823,175.22818800000823,175.22818800000823,175.22818800000823,175.22818800000823,175.22818800000823,175.21094069999526,175.22818800000823,175.22818800000823,175.22818800000823,175.22818800000823,175.22818800000823,175.22818800000823,175.22818800000823,177.47545030000038,177.47545030000038,177.47545030000038,177.47545030000038,177.47545030000038,177.47545030000038,177.47545030000038,39,59,61,65,65,60,177.47545030000038,179.27650570002152,,,,,,,,,,,,３３９,f,２３,2023-05-21_14h34.30.295,RL,2022.2.5,60.120397107149216,
56,36,72,70,0,24,24,24,,,,,,,,,,,None,179.27650570002152,179.27650570002152,179.27650570002152,179.27650570002152,179.27650570002152,179.27650570002152,j,0.27989220002200454,179.57709040000918,179.57709040000918,179.57709040000918,179.57709040000918,179.57709040000918,179.57709040000918,179.86000740001327,180.89315410002018,180.89315410002018,180.89315410002018,180.89315410002018,180.89315410002018,180.89315410002018,180.87669090001145,180.89315410002018,180.89315410002018,180.89315410002018,180.89315410002018,180.89315410002018,180.89315410002018,180.89315410002018,182.20788289999473,182.20788289999473,182.20788289999473,182.20788289999473,182.20788289999473,182.20788289999473,182.20788289999473,36,72,56,70,70,60,182.20788289999473,184.09249249999993,,,,,,,,,,,,３３９,f,２３,2023-05-21_14h34.30.295,RL,2022.2.5,60.120397107149216,
64,39,62,74,0,25,25,25,,,,,,,,,,,None,184.09249249999993,184.09249249999993,184.09249249999993,184.09249249999993,184.09249249999993,184.09249249999993,j,0.2828451000095811,184.3928063000203,184.3928063000203,184.3928063000203,184.3928063000203,184.3928063000203,184.3928063000203,184.67688840001938,185.5592023000063,185.5592023000063,185.5592023000063,185.5592023000063,185.5592023000063,185.5592023000063,185.5425915000087,185.5592023000063,185.5592023000063,185.5592023000063,185.5592023000063,185.5592023000063,185.5592023000063,185.5592023000063,186.72425090000615,186.72425090000615,186.72425090000615,186.72425090000615,186.72425090000615,186.72425090000615,186.72425090000615,39,62,64,74,74,60,186.72425090000615,188.5413354000193,,,,,,,,,,,,３３９,f,２３,2023-05-21_14h34.30.295,RL,2022.2.5,60.120397107149216,
67,39,70,70,0,26,26,26,,,,,,,,,,,None,188.5413354000193,188.5413354000193,188.5413354000193,188.5413354000193,188.5413354000193,188.5413354000193,j,0.28271339999628253,188.8420827999944,188.8420827999944,188.8420827999944,188.8420827999944,188.8420827999944,188.8420827999944,189.12532819999615,190.05825319999713,190.05825319999713,190.05825319999713,190.05825319999713,190.05825319999713,190.05825319999713,190.04197620000923,190.05825319999713,190.05825319999713,190.05825319999713,190.05825319999713,190.05825319999713,190.05825319999713,190.05825319999713,191.27312009999878,191.27312009999878,191.27312009999878,191.27312009999878,191.27312009999878,191.27312009999878,191.27312009999878,39,70,67,70,70,60,191.27312009999878,193.25738090000232,,,,,,,,,,,,３３９,f,２３,2023-05-21_14h34.30.295,RL,2022.2.5,60.120397107149216,
60,43,55,67,0,27,27,27,,,,,,,,,,,None,193.25738090000232,193.25738090000232,193.25738090000232,193.25738090000232,193.25738090000232,193.25738090000232,j,0.26576889998978004,193.54246910000802,193.54246910000802,193.54246910000802,193.54246910000802,193.54246910000802,193.54246910000802,193.8411472000007,195.1740284000116,195.1740284000116,195.1740284000116,195.1740284000116,195.1740284000116,195.1740284000116,195.1740284000116,195.1740284000116,195.1740284000116,195.1740284000116,195.1740284000116,195.1740284000116,195.1740284000116,195.1740284000116,196.80554170001415,196.80554170001415,196.80554170001415,196.80554170001415,196.80554170001415,196.80554170001415,196.80554170001415,43,55,60,67,67,60,196.80554170001415,198.5064433000225,,,,,,,,,,,,３３９,f,２３,2023-05-21_14h34.30.295,RL,2022.2.5,60.120397107149216,
59,56,52,60,0,28,28,28,,,,,,,,,,,None,198.5064433000225,198.5064433000225,198.5064433000225,198.5064433000225,198.5064433000225,198.5064433000225,j,0.26507130000391044,198.79043310001725,198.79043310001725,198.79043310001725,198.79043310001725,198.79043310001725,198.79043310001725,199.07373500001268,200.98960679999436,200.98960679999436,200.98960679999436,200.98960679999436,200.98960679999436,200.98960679999436,200.97377070001676,200.98960679999436,200.98960679999436,200.98960679999436,200.98960679999436,200.98960679999436,200.98960679999436,200.98960679999436,203.18780360001256,203.18780360001256,203.18780360001256,203.18780360001256,203.18780360001256,203.18780360001256,203.18780360001256,56,52,59,60,60,60,203.18780360001256,205.0888981000171,,,,,,,,,,,,３３９,f,２３,2023-05-21_14h34.30.295,RL,2022.2.5,60.120397107149216,
62,51,46,65,0,29,29,29,,,,,,,,,,,None,205.0888981000171,205.0888981000171,205.0888981000171,205.0888981000171,205.0888981000171,205.0888981000171,j,0.2770493000280112,205.39025430000038,205.39025430000038,205.39025430000038,205.39025430000038,205.39025430000038,205.39025430000038,205.67247819999466,206.93886330001988,206.93886330001988,206.93886330001988,206.93886330001988,206.93886330001988,206.93886330001988,206.9223464000097,206.93886330001988,206.93886330001988,206.93886330001988,206.93886330001988,206.93886330001988,206.93886330001988,206.93886330001988,208.48700409999583,208.48700409999583,208.48700409999583,208.48700409999583,208.48700409999583,208.48700409999583,208.48700409999583,51,46,62,65,65,60,208.48700409999583,210.3211521000194,,,,,,,,,,,,３３９,f,２３,2023-05-21_14h34.30.295,RL,2022.2.5,60.120397107149216,
51,34,39,64,0,30,30,30,,,,,,,,,,,None,210.3211521000194,210.3211521000194,210.3211521000194,210.3211521000194,210.3211521000194,210.3211521000194,j,0.27457810001214966,210.62223219999578,210.62223219999578,210.62223219999578,210.62223219999578,210.62223219999578,210.62223219999578,210.90479980001692,211.82120010000654,211.82120010000654,211.82120010000654,211.82120010000654,211.82120010000654,211.82120010000654,211.80456610000692,211.82120010000654,211.82120010000654,211.82120010000654,211.82120010000654,211.82120010000654,211.82120010000654,211.82120010000654,213.01939060000586,213.01939060000586,213.01939060000586,213.01939060000586,213.01939060000586,213.01939060000586,213.01939060000586,34,39,51,64,64,60,213.01939060000586,214.83685980000882,,,,,,,,,,,,３３９,f,２３,2023-05-21_14h34.30.295,RL,2022.2.5,60.120397107149216,
55,44,39,57,0,31,31,31,,,,,,,,,,,None,214.83685980000882,214.83685980000882,214.83685980000882,214.83685980000882,214.83685980000882,214.83685980000882,j,0.28009729998302646,215.14064670001972,215.14064670001972,215.14064670001972,215.14064670001972,215.14064670001972,215.14064670001972,215.4374025000143,216.320234600018,216.320234600018,216.320234600018,216.320234600018,216.320234600018,216.320234600018,216.3036270000157,216.320234600018,216.320234600018,216.320234600018,216.320234600018,216.320234600018,216.320234600018,216.320234600018,217.4851004999946,217.4851004999946,217.4851004999946,217.4851004999946,217.4851004999946,217.4851004999946,217.4851004999946,44,39,55,57,57,60,217.4851004999946,219.252738900017,,,,,,,,,,,,３３９,f,２３,2023-05-21_14h34.30.295,RL,2022.2.5,60.120397107149216,
51,45,46,64,0,32,32,32,,,,,,,,,,,None,219.252738900017,219.252738900017,219.252738900017,219.252738900017,219.252738900017,219.252738900017,j,0.38899060001131147,219.67025809999905,219.67025809999905,219.67025809999905,219.67025809999905,219.67025809999905,219.67025809999905,219.95299740001792,221.4366529000108,221.4366529000108,221.4366529000108,221.4366529000108,221.4366529000108,221.4366529000108,221.41960660001496,221.4366529000108,221.4366529000108,221.4366529000108,221.4366529000108,221.4366529000108,221.4366529000108,221.4366529000108,223.20095830000355,223.20095830000355,223.20095830000355,223.20095830000355,223.20095830000355,223.20095830000355,223.20095830000355,45,46,51,64,64,60,223.20095830000355,224.95199960001628,,,,,,,,,,,,３３９,f,２３,2023-05-21_14h34.30.295,RL,2022.2.5,60.120397107149216,
57,48,38,78,0,33,33,33,,,,,,,,,,,None,224.95199960001628,224.95199960001628,224.95199960001628,224.95199960001628,224.95199960001628,224.95199960001628,j,0.254302799992729,225.23560850002104,225.23560850002104,225.23560850002104,225.23560850002104,225.23560850002104,225.23560850002104,225.51906370001961,226.6357285999984,226.6357285999984,226.6357285999984,226.6357285999984,226.6357285999984,226.6357285999984,226.61870710001676,226.6357285999984,226.6357285999984,226.6357285999984,226.6357285999984,226.6357285999984,226.6357285999984,226.6357285999984,228.03366950000054,228.03366950000054,228.03366950000054,228.03366950000054,228.03366950000054,228.03366950000054,228.03366950000054,48,38,57,78,78,60,228.03366950000054,229.73439920000965,,,,,,,,,,,,３３９,f,２３,2023-05-21_14h34.30.295,RL,2022.2.5,60.120397107149216,
56,40,40,60,0,34,34,34,,,,,,,,,,,None,229.73439920000965,229.73439920000965,229.73439920000965,229.73439920000965,229.73439920000965,229.73439920000965,j,0.3219381999806501,230.08570769999642,230.08570769999642,230.08570769999642,230.08570769999642,230.08570769999642,230.08570769999642,230.38468420002027,232.03444360001595,232.03444360001595,232.03444360001595,232.03444360001595,232.03444360001595,232.03444360001595,232.03444360001595,232.03444360001595,232.03444360001595,232.03444360001595,232.03444360001595,232.03444360001595,232.03444360001595,232.03444360001595,233.98295890001464,233.98295890001464,233.98295890001464,233.98295890001464,233.98295890001464,233.98295890001464,233.98295890001464,40,40,56,60,60,60,233.98295890001464,235.98364010002115,,,,,,,,,,,,３３９,f,２３,2023-05-21_14h34.30.295,RL,2022.2.5,60.120397107149216,
60,38,41,57,0,35,35,35,,,,,,,,,,,None,235.98364010002115,235.98364010002115,235.98364010002115,235.98364010002115,235.98364010002115,235.98364010002115,j,0.30347290000645444,236.31727450000471,236.31727450000471,236.31727450000471,236.31727450000471,236.31727450000471,236.31727450000471,236.6005214000179,237.8167607000214,237.8167607000214,237.8167607000214,237.8167607000214,237.8167607000214,237.8167607000214,237.79992970000603,237.8167607000214,237.8167607000214,237.8167607000214,237.8167607000214,237.8167607000214,237.8167607000214,237.8167607000214,239.31503080000402,239.31503080000402,239.31503080000402,239.31503080000402,239.31503080000402,239.31503080000402,239.31503080000402,38,41,60,57,57,60,239.31503080000402,241.2990584000072,,,,,,,,,,,,３３９,f,２３,2023-05-21_14h34.30.295,RL,2022.2.5,60.120397107149216,
50,41,39,63,0,36,36,36,,,,,,,,,,,None,241.2990584000072,241.2990584000072,241.2990584000072,241.2990584000072,241.2990584000072,241.2990584000072,j,0.2774630000058096,241.6006223000004,241.6006223000004,241.6006223000004,241.6006223000004,241.6006223000004,241.6006223000004,241.8827706000011,242.98278270001174,242.98278270001174,242.98278270001174,242.98278270001174,242.98278270001174,242.98278270001174,242.96622660002322,242.98278270001174,242.98278270001174,242.98278270001174,242.98278270001174,242.98278270001174,242.98278270001174,242.98278270001174,244.36382190001314,244.36382190001314,244.36382190001314,244.36382190001314,244.36382190001314,244.36382190001314,244.36382190001314,41,39,50,63,63,60,244.36382190001314,245.94810540002072,,,,,,,,,,,,３３９,f,２３,2023-05-21_14h34.30.295,RL,2022.2.5,60.120397107149216,
50,44,41,68,0,37,37,37,,,,,,,,,,,None,245.94810540002072,245.94810540002072,245.94810540002072,245.94810540002072,245.94810540002072,245.94810540002072,j,0.2775266999960877,246.2494114000001,246.2494114000001,246.2494114000001,246.2494114000001,246.2494114000001,246.2494114000001,246.53175250001368,248.5482310000225,248.5482310000225,248.5482310000225,248.5482310000225,248.5482310000225,248.5482310000225,248.53129030001583,248.5482310000225,248.5482310000225,248.5482310000225,248.5482310000225,248.5482310000225,248.5482310000225,248.5482310000225,250.84607160001178,250.84607160001178,250.84607160001178,250.84607160001178,250.84607160001178,250.84607160001178,250.84607160001178,44,41,50,68,68,60,250.84607160001178,252.76355299999705,,,,,,,,,,,,３３９,f,２３,2023-05-21_14h34.30.295,RL,2022.2.5,60.120397107149216,
49,39,41,69,0,38,38,38,,,,,,,,,,,None,252.76355299999705,252.76355299999705,252.76355299999705,252.76355299999705,252.76355299999705,252.76355299999705,j,0.2627762999909464,253.0476372000121,253.0476372000121,253.0476372000121,253.0476372000121,253.0476372000121,253.0476372000121,253.33068220000132,254.78028090001317,254.78028090001317,254.78028090001317,254.78028090001317,254.78028090001317,254.78028090001317,254.76380400001653,254.78028090001317,254.78028090001317,254.78028090001317,254.78028090001317,254.78028090001317,254.78028090001317,254.78028090001317,256.5117298999976,256.5117298999976,256.5117298999976,256.5117298999976,256.5117298999976,256.5117298999976,256.5117298999976,39,41,49,69,69,60,256.5117298999976,258.429795700009,,,,,,,,,,,,３３９,f,２３,2023-05-21_14h34.30.295,RL,2022.2.5,60.120397107149216,
46,26,46,66,0,39,39,39,,,,,,,,,,,None,258.429795700009,258.429795700009,258.429795700009,258.429795700009,258.429795700009,258.429795700009,j,0.2678841000015382,258.73359220000566,258.73359220000566,258.73359220000566,258.73359220000566,258.73359220000566,258.73359220000566,259.0134965000034,260.4794432000199,260.4794432000199,260.4794432000199,260.4794432000199,260.4794432000199,260.4794432000199,260.4626314000052,260.4794432000199,260.4794432000199,260.4794432000199,260.4794432000199,260.4794432000199,260.4794432000199,260.4794432000199,262.22783560000244,262.22783560000244,262.22783560000244,262.22783560000244,262.22783560000244,262.22783560000244,262.22783560000244,26,46,46,66,66,60,262.22783560000244,264.01148660000763,,,,,,,,,,,,３３９,f,２３,2023-05-21_14h34.30.295,RL,2022.2.5,60.120397107149216,
54,33,51,69,0,40,40,40,,,,,,,,,,,None,264.01148660000763,264.01148660000763,264.01148660000763,264.01148660000763,264.01148660000763,264.01148660000763,j,0.5472410999936983,264.58030490000965,264.58030490000965,264.58030490000965,264.58030490000965,264.58030490000965,264.58030490000965,264.87905879999744,266.76190460001817,266.76190460001817,266.76190460001817,266.76190460001817,266.76190460001817,266.76190460001817,266.76190460001817,266.76190460001817,266.76190460001817,266.76190460001817,266.76190460001817,266.76190460001817,266.76190460001817,266.76190460001817,268.9431184999994,268.9431184999994,268.9431184999994,268.9431184999994,268.9431184999994,268.9431184999994,268.9431184999994,33,51,54,69,69,60,268.9431184999994,270.47747100002016,,,,,,,,,,,,３３９,f,２３,2023-05-21_14h34.30.295,RL,2022.2.5,60.120397107149216,
41,40,40,67,0,41,41,41,,,,,,,,,,,None,270.47747100002016,270.47747100002016,270.47747100002016,270.47747100002016,270.47747100002016,270.47747100002016,j,0.29763449999154545,270.8003680999973,270.8003680999973,270.8003680999973,270.8003680999973,270.8003680999973,270.8003680999973,271.0945932000177,273.0438042000169,273.0438042000169,273.0438042000169,273.0438042000169,273.0438042000169,273.0438042000169,273.0438042000169,273.0438042000169,273.0438042000169,273.0438042000169,273.0438042000169,273.0438042000169,273.0438042000169,273.0438042000169,275.2920009000227,275.2920009000227,275.2920009000227,275.2920009000227,275.2920009000227,275.2920009000227,275.2920009000227,40,40,41,67,67,60,275.2920009000227,277.07609800001956,,,,,,,,,,,,３３９,f,２３,2023-05-21_14h34.30.295,RL,2022.2.5,60.120397107149216,
49,39,38,67,0,42,42,42,,,,,,,,,,,None,277.07609800001956,277.07609800001956,277.07609800001956,277.07609800001956,277.07609800001956,277.07609800001956,j,0.2652888000011444,277.3599887000164,277.3599887000164,277.3599887000164,277.3599887000164,277.3599887000164,277.3599887000164,277.6429417000036,279.62596180001856,279.62596180001856,279.62596180001856,279.62596180001856,279.62596180001856,279.62596180001856,279.60956360001,279.62596180001856,279.62596180001856,279.62596180001856,279.62596180001856,279.62596180001856,279.62596180001856,279.62596180001856,281.8903993999993,281.8903993999993,281.8903993999993,281.8903993999993,281.8903993999993,281.8903993999993,281.8903993999993,39,38,49,67,67,60,281.8903993999993,283.5750849000178,,,,,,,,,,,,３３９,f,２３,2023-05-21_14h34.30.295,RL,2022.2.5,60.120397107149216,
54,42,47,55,0,43,43,43,,,,,,,,,,,None,283.5750849000178,283.5750849000178,283.5750849000178,283.5750849000178,283.5750849000178,283.5750849000178,j,0.3011402999982238,283.9116263000178,283.9116263000178,283.9116263000178,283.9116263000178,283.9116263000178,283.9116263000178,284.19217090000166,285.40863740001805,285.40863740001805,285.40863740001805,285.40863740001805,285.40863740001805,285.40863740001805,285.39186550001614,285.40863740001805,285.40863740001805,285.40863740001805,285.40863740001805,285.40863740001805,285.40863740001805,285.40863740001805,286.906776000018,286.906776000018,286.906776000018,286.906776000018,286.906776000018,286.906776000018,286.906776000018,42,47,54,55,55,60,286.906776000018,288.72430810000515,,,,,,,,,,,,３３９,f,２３,2023-05-21_14h34.30.295,RL,2022.2.5,60.120397107149216,
51,41,48,61,0,44,44,44,,,,,,,,,,,None,288.72430810000515,288.72430810000515,288.72430810000515,288.72430810000515,288.72430810000515,288.72430810000515,j,0.2561959000013303,289.0123259999964,289.0123259999964,289.0123259999964,289.0123259999964,289.0123259999964,289.0123259999964,289.3079651000153,290.5075751999975,290.5075751999975,290.5075751999975,290.5075751999975,290.5075751999975,290.5075751999975,290.5075751999975,290.5075751999975,290.5075751999975,290.5075751999975,290.5075751999975,290.5075751999975,290.5075751999975,290.5075751999975,292.0059028000105,292.0059028000105,292.0059028000105,292.0059028000105,292.0059028000105,292.0059028000105,292.0059028000105,41,48,51,61,61,60,292.0059028000105,293.6900738000113,,,,,,,,,,,,３３９,f,２３,2023-05-21_14h34.30.295,RL,2022.2.5,60.120397107149216,
41,38,39,64,0,45,45,45,,,,,,,,,,,None,293.6900738000113,293.6900738000113,293.6900738000113,293.6900738000113,293.6900738000113,293.6900738000113,j,0.2770392000093125,293.9904043000133,293.9904043000133,293.9904043000133,293.9904043000133,293.9904043000133,293.9904043000133,294.27346090000356,295.7232457000064,295.7232457000064,295.7232457000064,295.7232457000064,295.7232457000064,295.7232457000064,295.70651440002257,295.7232457000064,295.7232457000064,295.7232457000064,295.7232457000064,295.7232457000064,295.7232457000064,295.7232457000064,297.4546129000082,297.4546129000082,297.4546129000082,297.4546129000082,297.4546129000082,297.4546129000082,297.4546129000082,38,39,41,64,64,60,297.4546129000082,299.2723581000173,,,,,,,,,,,,３３９,f,２３,2023-05-21_14h34.30.295,RL,2022.2.5,60.120397107149216,
57,53,47,57,0,46,46,46,,,,,,,,,,,None,299.2723581000173,299.2723581000173,299.2723581000173,299.2723581000173,299.2723581000173,299.2723581000173,j,0.29569279999122955,299.58964390002075,299.58964390002075,299.58964390002075,299.58964390002075,299.58964390002075,299.58964390002075,299.8893435000209,301.5556043999968,301.5556043999968,301.5556043999968,301.5556043999968,301.5556043999968,301.5556043999968,301.5556043999968,301.5556043999968,301.5556043999968,301.5556043999968,301.5556043999968,301.5556043999968,301.5556043999968,301.5556043999968,303.5201251000108,303.5201251000108,303.5201251000108,303.5201251000108,303.5201251000108,303.5201251000108,303.5201251000108,53,47,57,57,57,60,303.5201251000108,305.0714657000208,,,,,,,,,,,,３３９,f,２３,2023-05-21_14h34.30.295,RL,2022.2.5,60.120397107149216,
53,42,43,67,0,47,47,47,,,,,,,,,,,None,305.0714657000208,305.0714657000208,305.0714657000208,305.0714657000208,305.0714657000208,305.0714657000208,j,0.30758649998460896,305.40551070001675,305.40551070001675,305.40551070001675,305.40551070001675,305.40551070001675,305.40551070001675,305.68888970001717,306.6046900000074,306.6046900000074,306.6046900000074,306.6046900000074,306.6046900000074,306.6046900000074,306.58825040000374,306.6046900000074,306.6046900000074,306.6046900000074,306.6046900000074,306.6046900000074,306.6046900000074,306.6046900000074,307.80335990001913,307.80335990001913,307.80335990001913,307.80335990001913,307.80335990001913,307.80335990001913,307.80335990001913,42,43,53,67,67,60,307.80335990001913,309.45382940000854,,,,,,,,,,,,３３９,f,２３,2023-05-21_14h34.30.295,RL,2022.2.5,60.120397107149216,
50,46,45,65,0,48,48,48,,,,,,,,,,,None,309.45382940000854,309.45382940000854,309.45382940000854,309.45382940000854,309.45382940000854,309.45382940000854,j,0.281203499995172,309.7543067000224,309.7543067000224,309.7543067000224,309.7543067000224,309.7543067000224,309.7543067000224,310.0541983000003,311.9371267000097,311.9371267000097,311.9371267000097,311.9371267000097,311.9371267000097,311.9371267000097,311.9371267000097,311.9371267000097,311.9371267000097,311.9371267000097,311.9371267000097,311.9371267000097,311.9371267000097,311.9371267000097,314.10195800001384,314.10195800001384,314.10195800001384,314.10195800001384,314.10195800001384,314.10195800001384,314.10195800001384,46,45,50,65,65,60,314.10195800001384,315.8359243000159,,,,,,,,,,,,３３９,f,２３,2023-05-21_14h34.30.295,RL,2022.2.5,60.120397107149216,
51,48,37,63,0,49,49,49,,,,,,,,,,,None,315.8359243000159,315.8359243000159,315.8359243000159,315.8359243000159,315.8359243000159,315.8359243000159,j,0.270883799996227,316.1366945000191,316.1366945000191,316.1366945000191,316.1366945000191,316.1366945000191,316.1366945000191,316.42061410000315,318.06949660001555,318.06949660001555,318.06949660001555,318.06949660001555,318.06949660001555,318.06949660001555,318.0529682000051,318.06949660001555,318.06949660001555,318.06949660001555,318.06949660001555,318.06949660001555,318.06949660001555,318.06949660001555,320.0009909000073,320.0009909000073,320.0009909000073,320.0009909000073,320.0009909000073,320.0009909000073,320.0009909000073,48,37,51,63,63,60,320.0009909000073,321.552058900008,,,,,,,,,,,,３３９,f,２３,2023-05-21_14h34.30.295,RL,2022.2.5,60.120397107149216,
56,50,43,67,0,50,50,50,,,,,,,,,,,None,321.552058900008,321.552058900008,321.552058900008,321.552058900008,321.552058900008,321.552058900008,j,0.2497731999901589,321.8190373000107,321.8190373000107,321.8190373000107,321.8190373000107,321.8190373000107,321.8190373000107,322.11886190000223,324.0183343999961,324.0183343999961,324.0183343999961,324.0183343999961,324.0183343999961,324.0183343999961,324.0183343999961,324.0183343999961,324.0183343999961,324.0183343999961,324.0183343999961,324.0183343999961,324.0183343999961,324.0183343999961,326.2163258000219,326.2163258000219,326.2163258000219,326.2163258000219,326.2163258000219,326.2163258000219,326.2163258000219,50,43,56,67,67,60,326.2163258000219,328.0339113000082,,,,,,,,,,,,３３９,f,２３,2023-05-21_14h34.30.295,RL,2022.2.5,60.120397107149216,
57,51,44,68,0,51,51,51,,,,,,,,,,,None,328.0339113000082,328.0339113000082,328.0339113000082,328.0339113000082,328.0339113000082,328.0339113000082,j,0.25803060000180267,328.3185332000139,328.3185332000139,328.3185332000139,328.3185332000139,328.3185332000139,328.3185332000139,328.6176495999971,330.0673297000176,330.0673297000176,330.0673297000176,330.0673297000176,330.0673297000176,330.0673297000176,330.0673297000176,330.0673297000176,330.0673297000176,330.0673297000176,330.0673297000176,330.0673297000176,330.0673297000176,330.0673297000176,331.81543180000153,331.81543180000153,331.81543180000153,331.81543180000153,331.81543180000153,331.81543180000153,331.81543180000153,51,44,57,68,68,60,331.81543180000153,333.68338590001804,,,,,,,,,,,,３３９,f,２３,2023-05-21_14h34.30.295,RL,2022.2.5,60.120397107149216,
48,59,41,67,0,52,52,52,,,,,,,,,,,None,333.68338590001804,333.68338590001804,333.68338590001804,333.68338590001804,333.68338590001804,333.68338590001804,j,0.2878939999791328,334.00148760000593,334.00148760000593,334.00148760000593,334.00148760000593,334.00148760000593,334.00148760000593,334.28335310000693,335.46630100000766,335.46630100000766,335.46630100000766,335.46630100000766,335.46630100000766,335.46630100000766,335.45026000001235,335.46630100000766,335.46630100000766,335.46630100000766,335.46630100000766,335.46630100000766,335.46630100000766,335.46630100000766,336.9311028000084,336.9311028000084,336.9311028000084,336.9311028000084,336.9311028000084,336.9311028000084,336.9311028000084,59,41,48,67,67,60,336.9311028000084,338.7489079000079,,,,,,,,,,,,３３９,f,２３,2023-05-21_14h34.30.295,RL,2022.2.5,60.120397107149216,
59,63,47,66,0,53,53,53,,,,,,,,,,,None,338.7489079000079,338.7489079000079,338.7489079000079,338.7489079000079,338.7489079000079,338.7489079000079,j,0.2707397999765817,339.04938189999666,339.04938189999666,339.04938189999666,339.04938189999666,339.04938189999666,339.04938189999666,339.3326141000143,341.08196640000097,341.08196640000097,341.08196640000097,341.08196640000097,341.08196640000097,341.08196640000097,341.0658909000049,341.08196640000097,341.08196640000097,341.08196640000097,341.08196640000097,341.08196640000097,341.08196640000097,341.08196640000097,343.1133441000129,343.1133441000129,343.1133441000129,343.1133441000129,343.1133441000129,343.1133441000129,343.1133441000129,63,47,59,66,66,60,343.1133441000129,344.947914999997,,,,,,,,,,,,３３９,f,２３,2023-05-21_14h34.30.295,RL,2022.2.5,60.120397107149216,
52,57,52,67,0,54,54,54,,,,,,,,,,,None,344.947914999997,344.947914999997,344.947914999997,344.947914999997,344.947914999997,344.947914999997,j,0.2939626000006683,345.2659409000189,345.2659409000189,345.2659409000189,345.2659409000189,345.2659409000189,345.2659409000189,345.54818460001843,346.897982399998,346.897982399998,346.897982399998,346.897982399998,346.897982399998,346.897982399998,346.88143959999434,346.897982399998,346.897982399998,346.897982399998,346.897982399998,346.897982399998,346.897982399998,346.897982399998,348.5294852000079,348.5294852000079,348.5294852000079,348.5294852000079,348.5294852000079,348.5294852000079,348.5294852000079,57,52,52,67,67,60,348.5294852000079,350.22993359999964,,,,,,,,,,,,３３９,f,２３,2023-05-21_14h34.30.295,RL,2022.2.5,60.120397107149216,
57,65,46,67,0,55,55,55,,,,,,,,,,,None,350.22993359999964,350.22993359999964,350.22993359999964,350.22993359999964,350.22993359999964,350.22993359999964,j,0.2638085000216961,350.51424950000364,350.51424950000364,350.51424950000364,350.51424950000364,350.51424950000364,350.51424950000364,350.7970922999957,351.98006860000896,351.98006860000896,351.98006860000896,351.98006860000896,351.98006860000896,351.98006860000896,351.9633524999954,351.98006860000896,351.98006860000896,351.98006860000896,351.98006860000896,351.98006860000896,351.98006860000896,351.98006860000896,353.44539330000407,353.44539330000407,353.44539330000407,353.44539330000407,353.44539330000407,353.44539330000407,353.44539330000407,65,46,57,67,67,60,353.44539330000407,355.07927850002307,,,,,,,,,,,,３３９,f,２３,2023-05-21_14h34.30.295,RL,2022.2.5,60.120397107149216,
47,56,50,62,0,56,56,56,,,,,,,,,,,None,355.07927850002307,355.07927850002307,355.07927850002307,355.07927850002307,355.07927850002307,355.07927850002307,j,0.2891638000146486,355.39959210000234,355.39959210000234,355.39959210000234,355.39959210000234,355.39959210000234,355.39959210000234,355.68006380001316,356.84603370001423,356.84603370001423,356.84603370001423,356.84603370001423,356.84603370001423,356.84603370001423,356.829354800022,356.84603370001423,356.84603370001423,356.84603370001423,356.84603370001423,356.84603370001423,356.84603370001423,356.84603370001423,358.2940904000134,358.2940904000134,358.2940904000134,358.2940904000134,358.2940904000134,358.2940904000134,358.2940904000134,56,50,47,62,62,60,358.2940904000134,359.8116638000065,,,,,,,,,,,,３３９,f,２３,2023-05-21_14h34.30.295,RL,2022.2.5,60.120397107149216,
49,60,54,68,0,57,57,57,,,,,,,,,,,None,359.8116638000065,359.8116638000065,359.8116638000065,359.8116638000065,359.8116638000065,359.8116638000065,j,0.2829226999892853,360.1132332000125,360.1132332000125,360.1132332000125,360.1132332000125,360.1132332000125,360.1132332000125,360.4121174000029,362.2693162000214,362.2693162000214,362.2693162000214,362.2693162000214,362.2693162000214,362.2693162000214,362.2693162000214,362.2693162000214,362.2693162000214,362.2693162000214,362.2693162000214,362.2693162000214,362.2693162000214,362.2693162000214,364.3762910000223,364.3762910000223,364.3762910000223,364.3762910000223,364.3762910000223,364.3762910000223,364.3762910000223,60,54,49,68,68,60,364.3762910000223,365.89422560000094,,,,,,,,,,,,３３９,f,２３,2023-05-21_14h34.30.295,RL,2022.2.5,60.120397107149216,
52,64,48,60,0,58,58,58,,,,,,,,,,,None,365.89422560000094,365.89422560000094,365.89422560000094,365.89422560000094,365.89422560000094,365.89422560000094,j,0.3085954000125639,366.2278504999995,366.2278504999995,366.2278504999995,366.2278504999995,366.2278504999995,366.2278504999995,366.5110463000019,368.3775904000213,368.3775904000213,368.3775904000213,368.3775904000213,368.3775904000213,368.3775904000213,368.36049260001164,368.3775904000213,368.3775904000213,368.3775904000213,368.3775904000213,368.3775904000213,368.3775904000213,368.3775904000213,370.52537990000565,370.52537990000565,370.52537990000565,370.52537990000565,370.52537990000565,370.52537990000565,370.52537990000565,64,48,52,60,60,60,370.52537990000565,372.1597175000061,,,,,,,,,,,,３３９,f,２３,2023-05-21_14h34.30.295,RL,2022.2.5,60.120397107149216,
52,57,53,55,0,59,59,59,,,,,,,,,,,None,372.1597175000061,372.1597175000061,372.1597175000061,372.1597175000061,372.1597175000061,372.1597175000061,j,0.27983210000093095,372.4604784999974,372.4604784999974,372.4604784999974,372.4604784999974,372.4604784999974,372.4604784999974,372.743389500014,374.0596926000144,374.0596926000144,374.0596926000144,374.0596926000144,374.0596926000144,374.0596926000144,374.0430215000233,374.0596926000144,374.0596926000144,374.0596926000144,374.0596926000144,374.0596926000144,374.0596926000144,374.0596926000144,375.65781880001305,375.65781880001305,375.65781880001305,375.65781880001305,375.65781880001305,375.65781880001305,375.65781880001305,57,53,52,55,55,60,375.65781880001305,377.6092131000187,,,,,,,,,,,,３３９,f,２３,2023-05-21_14h34.30.295,RL,2022.2.5,60.120397107149216,
50,55,57,58,0,60,60,60,,,,,,,,,,,None,377.6092131000187,377.6092131000187,377.6092131000187,377.6092131000187,377.6092131000187,377.6092131000187,j,0.27681730000767857,377.9104545000009,377.9104545000009,377.9104545000009,377.9104545000009,377.9104545000009,377.9104545000009,378.2090009000094,379.3920765000221,379.3920765000221,379.3920765000221,379.3920765000221,379.3920765000221,379.3920765000221,379.3920765000221,379.3920765000221,379.3920765000221,379.3920765000221,379.3920765000221,379.3920765000221,379.3920765000221,379.3920765000221,380.87338800000725,380.87338800000725,380.87338800000725,380.87338800000725,380.87338800000725,380.87338800000725,380.87338800000725,55,57,50,58,58,60,380.87338800000725,382.3914592000074,,,,,,,,,,,,３３９,f,２３,2023-05-21_14h34.30.295,RL,2022.2.5,60.120397107149216,
45,53,53,63,0,61,61,61,,,,,,,,,,,None,382.3914592000074,382.3914592000074,382.3914592000074,382.3914592000074,382.3914592000074,382.3914592000074,j,0.26958610001020133,382.69187229999807,382.69187229999807,382.69187229999807,382.69187229999807,382.69187229999807,382.69187229999807,382.97486800001934,384.64122330001555,384.64122330001555,384.64122330001555,384.64122330001555,384.64122330001555,384.64122330001555,384.6245341000031,384.64122330001555,384.64122330001555,384.64122330001555,384.64122330001555,384.64122330001555,384.64122330001555,384.64122330001555,386.5893291000102,386.5893291000102,386.5893291000102,386.5893291000102,386.5893291000102,386.5893291000102,386.5893291000102,53,53,45,63,63,60,386.5893291000102,388.55682990001515,,,,,,,,,,,,３３９,f,２３,2023-05-21_14h34.30.295,RL,2022.2.5,60.120397107149216,
49,55,40,62,0,62,62,62,,,,,,,,,,,None,388.55682990001515,388.55682990001515,388.55682990001515,388.55682990001515,388.55682990001515,388.55682990001515,j,0.4390492999809794,389.0254463000165,389.0254463000165,389.0254463000165,389.0254463000165,389.0254463000165,389.0254463000165,389.30733780001174,390.3234972000064,390.3234972000064,390.3234972000064,390.3234972000064,390.3234972000064,390.3234972000064,390.30685260001337,390.3234972000064,390.3234972000064,390.3234972000064,390.3234972000064,390.3234972000064,390.3234972000064,390.3234972000064,391.6221626000188,391.6221626000188,391.6221626000188,391.6221626000188,391.6221626000188,391.6221626000188,391.6221626000188,55,40,49,62,62,60,391.6221626000188,393.4893093999999,,,,,,,,,,,,３３９,f,２３,2023-05-21_14h34.30.295,RL,2022.2.5,60.120397107149216,
65,60,40,64,0,63,63,63,,,,,,,,,,,None,393.4893093999999,393.4893093999999,393.4893093999999,393.4893093999999,393.4893093999999,393.4893093999999,j,0.2845810999860987,393.8086595000059,393.8086595000059,393.8086595000059,393.8086595000059,393.8086595000059,393.8086595000059,394.0897196000151,395.1560715000087,395.1560715000087,395.1560715000087,395.1560715000087,395.1560715000087,395.1560715000087,395.1398432000133,395.1560715000087,395.1560715000087,395.1560715000087,395.1560715000087,395.1560715000087,395.1560715000087,395.1560715000087,396.5044305000047,396.5044305000047,396.5044305000047,396.5044305000047,396.5044305000047,396.5044305000047,396.5044305000047,60,40,65,64,64,60,396.5044305000047,398.2886167000106,,,,,,,,,,,,３３９,f,２３,2023-05-21_14h34.30.295,RL,2022.2.5,60.120397107149216,
51,48,49,64,0,64,64,64,,,,,,,,,,,None,398.2886167000106,398.2886167000106,398.2886167000106,398.2886167000106,398.2886167000106,398.2886167000106,j,0.3525420999794733,398.6722493999987,398.6722493999987,398.6722493999987,398.6722493999987,398.6722493999987,398.6722493999987,398.9560410999984,400.10541869999724,400.10541869999724,400.10541869999724,400.10541869999724,400.10541869999724,400.10541869999724,400.0889318000118,400.10541869999724,400.10541869999724,400.10541869999724,400.10541869999724,400.10541869999724,400.10541869999724,400.10541869999724,401.5364470000204,401.5364470000204,401.5364470000204,401.5364470000204,401.5364470000204,401.5364470000204,401.5364470000204,48,49,51,64,64,60,401.5364470000204,403.3879536000022,,,,,,,,,,,,３３９,f,２３,2023-05-21_14h34.30.295,RL,2022.2.5,60.120397107149216,
52,49,37,63,0,65,65,65,,,,,,,,,,,None,403.3879536000022,403.3879536000022,403.3879536000022,403.3879536000022,403.3879536000022,403.3879536000022,j,0.30564410000806674,403.72139869999955,403.72139869999955,403.72139869999955,403.72139869999955,403.72139869999955,403.72139869999955,404.02188320001005,405.6876062999945,405.6876062999945,405.6876062999945,405.6876062999945,405.6876062999945,405.6876062999945,405.6876062999945,405.6876062999945,405.6876062999945,405.6876062999945,405.6876062999945,405.6876062999945,405.6876062999945,405.6876062999945,407.651872300019,407.651872300019,407.651872300019,407.651872300019,407.651872300019,407.651872300019,407.651872300019,49,37,52,63,63,60,407.651872300019,409.3201386000146,,,,,,,,,,,,３３９,f,２３,2023-05-21_14h34.30.295,RL,2022.2.5,60.120397107149216,
51,53,45,60,0,66,66,66,,,,,,,,,,,None,409.3201386000146,409.3201386000146,409.3201386000146,409.3201386000146,409.3201386000146,409.3201386000146,j,0.27961580001283437,409.6202753999969,409.6202753999969,409.6202753999969,409.6202753999969,409.6202753999969,409.6202753999969,409.9205409999995,410.81824640001287,410.81824640001287,410.81824640001287,410.81824640001287,410.81824640001287,410.81824640001287,410.8365087000129,410.8365087000129,410.8365087000129,410.8365087000129,410.8365087000129,410.8365087000129,410.8365087000129,410.8365087000129,412.03491010001744,412.03491010001744,412.03491010001744,412.03491010001744,412.03491010001744,412.03491010001744,412.03491010001744,53,45,51,60,60,60,412.03491010001744,413.76900980001665,,,,,,,,,,,,３３９,f,２３,2023-05-21_14h34.30.295,RL,2022.2.5,60.120397107149216,
59,52,37,68,0,67,67,67,,,,,,,,,,,None,413.76900980001665,413.76900980001665,413.76900980001665,413.76900980001665,413.76900980001665,413.76900980001665,j,0.30085179998422973,414.1073114000028,414.1073114000028,414.1073114000028,414.1073114000028,414.1073114000028,414.1073114000028,414.38586270000087,415.6691943000187,415.6691943000187,415.6691943000187,415.6691943000187,415.6691943000187,415.6691943000187,415.6358629000024,415.6691943000187,415.6691943000187,415.6691943000187,415.6691943000187,415.6691943000187,415.6691943000187,415.6691943000187,417.2173160999955,417.2173160999955,417.2173160999955,417.2173160999955,417.2173160999955,417.2173160999955,417.2173160999955,52,37,59,68,68,60,417.2173160999955,418.8345720000216,,,,,,,,,,,,３３９,f,２３,2023-05-21_14h34.30.295,RL,2022.2.5,60.120397107149216,
52,54,39,57,0,68,68,68,,,,,,,,,,,None,418.8345720000216,418.8345720000216,418.8345720000216,418.8345720000216,418.8345720000216,418.8345720000216,j,0.351597100001527,419.2241908000142,419.2241908000142,419.2241908000142,419.2241908000142,419.2241908000142,419.2241908000142,419.5019914000004,421.11828100000275,421.11828100000275,421.11828100000275,421.11828100000275,421.11828100000275,421.11828100000275,421.084723500011,421.11828100000275,421.11828100000275,421.11828100000275,421.11828100000275,421.11828100000275,421.11828100000275,421.11828100000275,422.99945470000966,422.99945470000966,422.99945470000966,422.99945470000966,422.99945470000966,422.99945470000966,422.99945470000966,54,39,52,57,57,60,422.99945470000966,424.93380470000557,,,,,,,,,,,,３３９,f,２３,2023-05-21_14h34.30.295,RL,2022.2.5,60.120397107149216,
52,56,27,60,0,69,69,69,,,,,,,,,,,None,424.93380470000557,424.93380470000557,424.93380470000557,424.93380470000557,424.93380470000557,424.93380470000557,j,0.3237152999790851,425.2881873000006,425.2881873000006,425.2881873000006,425.2881873000006,425.2881873000006,425.2881873000006,425.5675107999996,426.7172241000226,426.7172241000226,426.7172241000226,426.7172241000226,426.7172241000226,426.7172241000226,426.70057640000596,426.7172241000226,426.7172241000226,426.7172241000226,426.7172241000226,426.7172241000226,426.7172241000226,426.7172241000226,428.1486769000185,428.1486769000185,428.1486769000185,428.1486769000185,428.1486769000185,428.1486769000185,428.1486769000185,56,27,52,60,60,60,428.1486769000185,429.7165406999993,,,,,,,,,,,,３３９,f,２３,2023-05-21_14h34.30.295,RL,2022.2.5,60.120397107149216,
56,52,39,65,0,70,70,70,,,,,,,,,,,None,429.7165406999993,429.7165406999993,429.7165406999993,429.7165406999993,429.7165406999993,429.7165406999993,j,0.3159100000048056,430.0513312999974,430.0513312999974,430.0513312999974,430.0513312999974,430.0513312999974,430.0513312999974,430.3339701000077,432.34945629999856,432.34945629999856,432.34945629999856,432.34945629999856,432.34945629999856,432.34945629999856,432.33282770001097,432.34945629999856,432.34945629999856,432.34945629999856,432.34945629999856,432.34945629999856,432.34945629999856,432.34945629999856,434.647635900008,434.647635900008,434.647635900008,434.647635900008,434.647635900008,434.647635900008,434.647635900008,52,39,56,65,65,60,434.647635900008,436.19863550001173,,,,,,,,,,,,３３９,f,２３,2023-05-21_14h34.30.295,RL,2022.2.5,60.120397107149216,
50,53,35,58,0,71,71,71,,,,,,,,,,,None,436.19863550001173,436.19863550001173,436.19863550001173,436.19863550001173,436.19863550001173,436.19863550001173,j,0.25125579998712055,436.4849339000066,436.4849339000066,436.4849339000066,436.4849339000066,436.4849339000066,436.4849339000066,436.76548050000565,438.5151162999973,438.5151162999973,438.5151162999973,438.5151162999973,438.5151162999973,438.5151162999973,438.49855950000347,438.5151162999973,438.5151162999973,438.5151162999973,438.5151162999973,438.5151162999973,438.5151162999973,438.5151162999973,440.5297233000165,440.5297233000165,440.5297233000165,440.5297233000165,440.5297233000165,440.5297233000165,440.5297233000165,53,35,50,58,58,60,440.5297233000165,442.11423680000007,,,,,,,,,,,,３３９,f,２３,2023-05-21_14h34.30.295,RL,2022.2.5,60.120397107149216,
49,48,41,66,0,72,72,72,,,,,,,,,,,None,442.11423680000007,442.11423680000007,442.11423680000007,442.11423680000007,442.11423680000007,442.11423680000007,j,0.25927280000178143,442.3982585000049,442.3982585000049,442.3982585000049,442.3982585000049,442.3982585000049,442.3982585000049,442.681344200013,444.3805522000184,444.3805522000184,444.3805522000184,444.3805522000184,444.3805522000184,444.3805522000184,444.3639976000122,444.3805522000184,444.3805522000184,444.3805522000184,444.3805522000184,444.3805522000184,444.3805522000184,444.3805522000184,446.36190600000555,446.36190600000555,446.36190600000555,446.36190600000555,446.36190600000555,446.36190600000555,446.36190600000555,48,41,49,66,66,60,446.36190600000555,448.26330849999795,,,,,,,,,,,,３３９,f,２３,2023-05-21_14h34.30.295,RL,2022.2.5,60.120397107149216,
48,55,35,64,0,73,73,73,,,,,,,,,,,None,448.26330849999795,448.26330849999795,448.26330849999795,448.26330849999795,448.26330849999795,448.26330849999795,j,0.24240680001094006,448.5303266000119,448.5303266000119,448.5303266000119,448.5303266000119,448.5303266000119,448.5303266000119,448.81380490001175,450.57966920000035,450.57966920000035,450.57966920000035,450.57966920000035,450.57966920000035,450.57966920000035,450.56332180000027,450.57966920000035,450.57966920000035,450.57966920000035,450.57966920000035,450.57966920000035,450.57966920000035,450.57966920000035,452.6278188000142,452.6278188000142,452.6278188000142,452.6278188000142,452.6278188000142,452.6278188000142,452.6278188000142,55,35,48,64,64,60,452.6278188000142,454.595862999995,,,,,,,,,,,,３３９,f,２３,2023-05-21_14h34.30.295,RL,2022.2.5,60.120397107149216,
59,53,43,55,0,74,74,74,,,,,,,,,,,None,454.595862999995,454.595862999995,454.595862999995,454.595862999995,454.595862999995,454.595862999995,j,0.28080179999233223,454.89941460001864,454.89941460001864,454.89941460001864,454.89941460001864,454.89941460001864,454.89941460001864,455.1957053000224,456.6456335000112,456.6456335000112,456.6456335000112,456.6456335000112,456.6456335000112,456.6456335000112,456.6456335000112,456.6456335000112,456.6456335000112,456.6456335000112,456.6456335000112,456.6456335000112,456.6456335000112,456.6456335000112,458.39359479999985,458.39359479999985,458.39359479999985,458.39359479999985,458.39359479999985,458.39359479999985,458.39359479999985,53,43,59,55,55,60,458.39359479999985,460.1768451000098,,,,,,,,,,,,３３９,f,２３,2023-05-21_14h34.30.295,RL,2022.2.5,60.120397107149216,
50,53,38,61,0,75,75,75,,,,,,,,,,,q,486.8397096999979,486.8397096999979,486.8397096999979,486.8397096999979,486.8397096999979,486.8397096999979,i,0.3365596000221558,487.2109321000171,487.2109321000171,487.2109321000171,487.2109321000171,487.2109321000171,487.2109321000171,487.49014010000974,488.83963840000797,488.83963840000797,488.83963840000797,488.83963840000797,488.83963840000797,488.83963840000797,488.8229893000098,488.83963840000797,488.83963840000797,488.83963840000797,488.83963840000797,488.83963840000797,488.83963840000797,488.83963840000797,490.4714529000048,490.4714529000048,490.4714529000048,490.4714529000048,490.4714529000048,490.4714529000048,490.4714529000048,53,38,50,61,50,60,490.4714529000048,492.0222926000133,460.1768451000098,460.1768451000098,21.619999900023686,481.82480390000273,481.82480390000273,486.8397096999979,486.8397096999979,,,,,３３９,f,２３,2023-05-21_14h34.30.295,RL,2022.2.5,60.120397107149216,
50,51,37,68,0,76,76,76,,,,,,,,,,,None,492.0222926000133,492.0222926000133,492.0222926000133,492.0222926000133,492.0222926000133,492.0222926000133,r,0.3042113999836147,492.3558806000219,492.3558806000219,492.3558806000219,492.3558806000219,492.3558806000219,492.3558806000219,492.6392507000128,494.239224000019,494.239224000019,494.239224000019,494.239224000019,494.239224000019,494.239224000019,494.2223636000126,494.239224000019,494.239224000019,494.239224000019,494.239224000019,494.239224000019,494.239224000019,494.239224000019,496.1202477000188,496.1202477000188,496.1202477000188,496.1202477000188,496.1202477000188,496.1202477000188,496.1202477000188,51,37,50,68,37,60,496.1202477000188,497.7713837000192,,,,,,,,,,,,３３９,f,２３,2023-05-21_14h34.30.295,RL,2022.2.5,60.120397107149216,
55,46,44,61,0,77,77,77,,,,,,,,,,,None,497.7713837000192,497.7713837000192,497.7713837000192,497.7713837000192,497.7713837000192,497.7713837000192,f,0.3009606999985408,498.112844999996,498.112844999996,498.112844999996,498.112844999996,498.112844999996,498.112844999996,498.4049087000021,500.2378663000127,500.2378663000127,500.2378663000127,500.2378663000127,500.2378663000127,500.2378663000127,500.22144870000193,500.2378663000127,500.2378663000127,500.2378663000127,500.2378663000127,500.2378663000127,500.2378663000127,500.2378663000127,502.3528077000228,502.3528077000228,502.3528077000228,502.3528077000228,502.3528077000228,502.3528077000228,502.3528077000228,46,44,55,61,46,60,502.3528077000228,503.97028830001364,,,,,,,,,,,,３３９,f,２３,2023-05-21_14h34.30.295,RL,2022.2.5,60.120397107149216,
52,56,42,71,0,78,78,78,,,,,,,,,,,None,503.97028830001364,503.97028830001364,503.97028830001364,503.97028830001364,503.97028830001364,503.97028830001364,j,0.2430554999737069,504.23993670000345,504.23993670000345,504.23993670000345,504.23993670000345,504.23993670000345,504.23993670000345,504.53767170000356,506.36986780000734,506.36986780000734,506.36986780000734,506.36986780000734,506.36986780000734,506.36986780000734,506.36986780000734,506.36986780000734,506.36986780000734,506.36986780000734,506.36986780000734,506.36986780000734,506.36986780000734,506.36986780000734,508.5014924000134,508.5014924000134,508.5014924000134,508.5014924000134,508.5014924000134,508.5014924000134,508.5014924000134,56,42,52,71,71,60,508.5014924000134,510.4527044999995,,,,,,,,,,,,３３９,f,２３,2023-05-21_14h34.30.295,RL,2022.2.5,60.120397107149216,
61,44,47,64,0,79,79,79,,,,,,,,,,,None,510.4527044999995,510.4527044999995,510.4527044999995,510.4527044999995,510.4527044999995,510.4527044999995,j,0.29082399999606423,510.76944060000824,510.76944060000824,510.76944060000824,510.76944060000824,510.76944060000824,510.76944060000824,511.0692012000072,512.7524725999974,512.7524725999974,512.7524725999974,512.7524725999974,512.7524725999974,512.7524725999974,512.7524725999974,512.7524725999974,512.7524725999974,512.7524725999974,512.7524725999974,512.7524725999974,512.7524725999974,512.7524725999974,514.7340935000102,514.7340935000102,514.7340935000102,514.7340935000102,514.7340935000102,514.7340935000102,514.7340935000102,44,47,61,64,64,60,514.7340935000102,516.5682731000124,,,,,,,,,,,,３３９,f,２３,2023-05-21_14h34.30.295,RL,2022.2.5,60.120397107149216,
55,56,49,66,0,80,80,80,,,,,,,,,,,None,516.5682731000124,516.5682731000124,516.5682731000124,516.5682731000124,516.5682731000124,516.5682731000124,j,0.29897580001852475,516.8852495000174,516.8852495000174,516.8852495000174,516.8852495000174,516.8852495000174,516.8852495000174,517.1680594000209,518.6510992000112,518.6510992000112,518.6510992000112,518.6510992000112,518.6510992000112,518.6510992000112,518.6351771000191,518.6510992000112,518.6510992000112,518.6510992000112,518.6510992000112,518.6510992000112,518.6510992000112,518.6510992000112,520.4160506000044,520.4160506000044,520.4160506000044,520.4160506000044,520.4160506000044,520.4160506000044,520.4160506000044,56,49,55,66,66,60,520.4160506000044,522.2172620000201,,,,,,,,,,,,３３９,f,２３,2023-05-21_14h34.30.295,RL,2022.2.5,60.120397107149216,
57,49,38,67,0,81,81,81,,,,,,,,,,,None,522.2172620000201,522.2172620000201,522.2172620000201,522.2172620000201,522.2172620000201,522.2172620000201,j,0.2627734999987297,522.502258100023,522.502258100023,522.502258100023,522.502258100023,522.502258100023,522.502258100023,522.8009081000055,524.4839429999993,524.4839429999993,524.4839429999993,524.4839429999993,524.4839429999993,524.4839429999993,524.4839429999993,524.4839429999993,524.4839429999993,524.4839429999993,524.4839429999993,524.4839429999993,524.4839429999993,524.4839429999993,526.4651298999961,526.4651298999961,526.4651298999961,526.4651298999961,526.4651298999961,526.4651298999961,526.4651298999961,49,38,57,67,67,60,526.4651298999961,528.3493539000046,,,,,,,,,,,,３３９,f,２３,2023-05-21_14h34.30.295,RL,2022.2.5,60.120397107149216,
51,62,28,73,0,82,82,82,,,,,,,,,,,None,528.3493539000046,528.3493539000046,528.3493539000046,528.3493539000046,528.3493539000046,528.3493539000046,j,0.2795662000135053,528.6507718000212,528.6507718000212,528.6507718000212,528.6507718000212,528.6507718000212,528.6507718000212,528.9498265000002,530.4661077000201,530.4661077000201,530.4661077000201,530.4661077000201,530.4661077000201,530.4661077000201,530.4661077000201,530.4661077000201,530.4661077000201,530.4661077000201,530.4661077000201,530.4661077000201,530.4661077000201,530.4661077000201,532.2807445000217,532.2807445000217,532.2807445000217,532.2807445000217,532.2807445000217,532.2807445000217,532.2807445000217,62,28,51,73,73,60,532.2807445000217,533.9985673000047,,,,,,,,,,,,３３９,f,２３,2023-05-21_14h34.30.295,RL,2022.2.5,60.120397107149216,
48,63,42,64,0,83,83,83,,,,,,,,,,,None,533.9985673000047,533.9985673000047,533.9985673000047,533.9985673000047,533.9985673000047,533.9985673000047,j,0.3472808999940753,534.3653877000033,534.3653877000033,534.3653877000033,534.3653877000033,534.3653877000033,534.3653877000033,534.6489271000028,536.0649394000066,536.0649394000066,536.0649394000066,536.0649394000066,536.0649394000066,536.0649394000066,536.0484164000081,536.0649394000066,536.0649394000066,536.0649394000066,536.0649394000066,536.0649394000066,536.0649394000066,536.0649394000066,537.7633963999979,537.7633963999979,537.7633963999979,537.7633963999979,537.7633963999979,537.7633963999979,537.7633963999979,63,42,48,64,64,60,537.7633963999979,539.3971523000218,,,,,,,,,,,,３３９,f,２３,2023-05-21_14h34.30.295,RL,2022.2.5,60.120397107149216,
53,54,38,70,0,84,84,84,,,,,,,,,,,None,539.3971523000218,539.3971523000218,539.3971523000218,539.3971523000218,539.3971523000218,539.3971523000218,j,0.3930302000080701,539.8165633000026,539.8165633000026,539.8165633000026,539.8165633000026,539.8165633000026,539.8165633000026,540.0975060000201,541.7473447000084,541.7473447000084,541.7473447000084,541.7473447000084,541.7473447000084,541.7473447000084,541.731598000013,541.7473447000084,541.7473447000084,541.7473447000084,541.7473447000084,541.7473447000084,541.7473447000084,541.7473447000084,543.6620646000083,543.6620646000083,543.6620646000083,543.6620646000083,543.6620646000083,543.6620646000083,543.6620646000083,54,38,53,70,70,60,543.6620646000083,545.3797294000105,,,,,,,,,,,,３３９,f,２３,2023-05-21_14h34.30.295,RL,2022.2.5,60.120397107149216,
49,54,23,64,0,85,85,85,,,,,,,,,,,None,545.3797294000105,545.3797294000105,545.3797294000105,545.3797294000105,545.3797294000105,545.3797294000105,j,0.28270760001032613,545.6799696999951,545.6799696999951,545.6799696999951,545.6799696999951,545.6799696999951,545.6799696999951,545.9635552999971,547.3960685000056,547.3960685000056,547.3960685000056,547.3960685000056,547.3960685000056,547.3960685000056,547.380369999999,547.3960685000056,547.3960685000056,547.3960685000056,547.3960685000056,547.3960685000056,547.3960685000056,547.3960685000056,549.1109114999999,549.1109114999999,549.1109114999999,549.1109114999999,549.1109114999999,549.1109114999999,549.1109114999999,54,23,49,64,64,60,549.1109114999999,550.6954918999982,,,,,,,,,,,,３３９,f,２３,2023-05-21_14h34.30.295,RL,2022.2.5,60.120397107149216,
51,51,39,75,0,86,86,86,,,,,,,,,,,None,550.6954918999982,550.6954918999982,550.6954918999982,550.6954918999982,550.6954918999982,550.6954918999982,j,0.33082590001868084,551.0467441000219,551.0467441000219,551.0467441000219,551.0467441000219,551.0467441000219,551.0467441000219,551.3293409000034,552.6785144000023,552.6785144000023,552.6785144000023,552.6785144000023,552.6785144000023,552.6785144000023,552.661738099996,552.6785144000023,552.6785144000023,552.6785144000023,552.6785144000023,552.6785144000023,552.6785144000023,552.6785144000023,554.3102989000035,554.3102989000035,554.3102989000035,554.3102989000035,554.3102989000035,554.3102989000035,554.3102989000035,51,39,51,75,75,60,554.3102989000035,555.9948862000019,,,,,,,,,,,,３３９,f,２３,2023-05-21_14h34.30.295,RL,2022.2.5,60.120397107149216,
47,44,38,68,0,87,87,87,,,,,,,,,,,None,555.9948862000019,555.9948862000019,555.9948862000019,555.9948862000019,555.9948862000019,555.9948862000019,j,0.3207592999970075,556.3468074999982,556.3468074999982,556.3468074999982,556.3468074999982,556.3468074999982,556.3468074999982,556.6449307000148,557.5445237999957,557.5445237999957,557.5445237999957,557.5445237999957,557.5445237999957,557.5445237999957,557.5445237999957,557.5445237999957,557.5445237999957,557.5445237999957,557.5445237999957,557.5445237999957,557.5445237999957,557.5445237999957,558.7431882999954,558.7431882999954,558.7431882999954,558.7431882999954,558.7431882999954,558.7431882999954,558.7431882999954,44,38,47,68,68,60,558.7431882999954,560.3272115,,,,,,,,,,,,３３９,f,２３,2023-05-21_14h34.30.295,RL,2022.2.5,60.120397107149216,
49,38,39,67,0,88,88,88,,,,,,,,,,,None,560.3272115,560.3272115,560.3272115,560.3272115,560.3272115,560.3272115,j,0.42831529999966733,560.7800445000175,560.7800445000175,560.7800445000175,560.7800445000175,560.7800445000175,560.7800445000175,561.0776387000224,562.1939396999951,562.1939396999951,562.1939396999951,562.1939396999951,562.1939396999951,562.1939396999951,562.1939396999951,562.1939396999951,562.1939396999951,562.1939396999951,562.1939396999951,562.1939396999951,562.1939396999951,562.1939396999951,563.608768200007,563.608768200007,563.608768200007,563.608768200007,563.608768200007,563.608768200007,563.608768200007,38,39,49,67,67,60,563.608768200007,565.1430086000182,,,,,,,,,,,,３３９,f,２３,2023-05-21_14h34.30.295,RL,2022.2.5,60.120397107149216,
46,50,29,77,0,89,89,89,,,,,,,,,,,None,565.1430086000182,565.1430086000182,565.1430086000182,565.1430086000182,565.1430086000182,565.1430086000182,j,0.3211909999954514,565.4946854000154,565.4946854000154,565.4946854000154,565.4946854000154,565.4946854000154,565.4946854000154,565.7764327000186,567.4093251000158,567.4093251000158,567.4093251000158,567.4093251000158,567.4093251000158,567.4093251000158,567.3927242000063,567.4093251000158,567.4093251000158,567.4093251000158,567.4093251000158,567.4093251000158,567.4093251000158,567.4093251000158,569.3240880999947,569.3240880999947,569.3240880999947,569.3240880999947,569.3240880999947,569.3240880999947,569.3240880999947,50,29,46,77,77,60,569.3240880999947,570.9919664000045,,,,,,,,,,,,３３９,f,２３,2023-05-21_14h34.30.295,RL,2022.2.5,60.120397107149216,
47,47,32,68,0,90,90,90,,,,,,,,,,,None,570.9919664000045,570.9919664000045,570.9919664000045,570.9919664000045,570.9919664000045,570.9919664000045,j,0.41768000001320615,571.4491317000065,571.4491317000065,571.4491317000065,571.4491317000065,571.4491317000065,571.4491317000065,571.7258336000086,572.9249969999946,572.9249969999946,572.9249969999946,572.9249969999946,572.9249969999946,572.9249969999946,572.891610599996,572.9249969999946,572.9249969999946,572.9249969999946,572.9249969999946,572.9249969999946,572.9249969999946,572.9249969999946,574.3900510999956,574.3900510999956,574.3900510999956,574.3900510999956,574.3900510999956,574.3900510999956,574.3900510999956,47,32,47,68,68,60,574.3900510999956,575.9408387000149,,,,,,,,,,,,３３９,f,２３,2023-05-21_14h34.30.295,RL,2022.2.5,60.120397107149216,
56,40,41,70,0,91,91,91,,,,,,,,,,,None,575.9408387000149,575.9408387000149,575.9408387000149,575.9408387000149,575.9408387000149,575.9408387000149,j,0.28355130000272766,576.2426531999954,576.2426531999954,576.2426531999954,576.2426531999954,576.2426531999954,576.2426531999954,576.5415178000112,577.7576433000213,577.7576433000213,577.7576433000213,577.7576433000213,577.7576433000213,577.7576433000213,577.7576433000213,577.7576433000213,577.7576433000213,577.7576433000213,577.7576433000213,577.7576433000213,577.7576433000213,577.7576433000213,579.2724822000018,579.2724822000018,579.2724822000018,579.2724822000018,579.2724822000018,579.2724822000018,579.2724822000018,40,41,56,70,70,60,579.2724822000018,580.9901469000033,,,,,,,,,,,,３３９,f,２３,2023-05-21_14h34.30.295,RL,2022.2.5,60.120397107149216,
67,48,36,62,0,92,92,92,,,,,,,,,,,None,580.9901469000033,580.9901469000033,580.9901469000033,580.9901469000033,580.9901469000033,580.9901469000033,j,0.3369415999914054,581.3596079999988,581.3596079999988,581.3596079999988,581.3596079999988,581.3596079999988,581.3596079999988,581.6567451000155,582.4735667000059,582.4735667000059,582.4735667000059,582.4735667000059,582.4735667000059,582.4735667000059,582.4735667000059,582.4735667000059,582.4735667000059,582.4735667000059,582.4735667000059,582.4735667000059,582.4735667000059,582.4735667000059,583.5883528999984,583.5883528999984,583.5883528999984,583.5883528999984,583.5883528999984,583.5883528999984,583.5883528999984,48,36,67,62,62,60,583.5883528999984,585.1059119999991,,,,,,,,,,,,３３９,f,２３,2023-05-21_14h34.30.295,RL,2022.2.5,60.120397107149216,
54,40,38,61,0,93,93,93,,,,,,,,,,,None,585.1059119999991,585.1059119999991,585.1059119999991,585.1059119999991,585.1059119999991,585.1059119999991,j,0.35194929997669533,585.4985517000023,585.4985517000023,585.4985517000023,585.4985517000023,585.4985517000023,585.4985517000023,585.7730672000034,586.6559170999972,586.6559170999972,586.6559170999972,586.6559170999972,586.6559170999972,586.6559170999972,586.6227455000044,586.6559170999972,586.6559170999972,586.6559170999972,586.6559170999972,586.6559170999972,586.6559170999972,586.6559170999972,587.8041423000104,587.8041423000104,587.8041423000104,587.8041423000104,587.8041423000104,587.8041423000104,587.8041423000104,40,38,54,61,61,60,587.8041423000104,589.3550907000026,,,,,,,,,,,,３３９,f,２３,2023-05-21_14h34.30.295,RL,2022.2.5,60.120397107149216,
60,44,26,69,0,94,94,94,,,,,,,,,,,None,589.3550907000026,589.3550907000026,589.3550907000026,589.3550907000026,589.3550907000026,589.3550907000026,j,0.3796264999837149,589.7572738000017,589.7572738000017,589.7572738000017,589.7572738000017,589.7572738000017,589.7572738000017,590.0391211000097,591.8886283000174,591.8886283000174,591.8886283000174,591.8886283000174,591.8886283000174,591.8886283000174,591.8719315000053,591.8886283000174,591.8886283000174,591.8886283000174,591.8886283000174,591.8886283000174,591.8886283000174,591.8886283000174,594.0201996999967,594.0201996999967,594.0201996999967,594.0201996999967,594.0201996999967,594.0201996999967,594.0201996999967,44,26,60,69,69,60,594.0201996999967,596.0045070000051,,,,,,,,,,,,３３９,f,２３,2023-05-21_14h34.30.295,RL,2022.2.5,60.120397107149216,
63,49,16,63,0,95,95,95,,,,,,,,,,,None,596.0045070000051,596.0045070000051,596.0045070000051,596.0045070000051,596.0045070000051,596.0045070000051,j,0.3549152000050526,596.3891132000135,596.3891132000135,596.3891132000135,596.3891132000135,596.3891132000135,596.3891132000135,596.6713023000048,598.1540860999958,598.1540860999958,598.1540860999958,598.1540860999958,598.1540860999958,598.1540860999958,598.1380448999989,598.1540860999958,598.1540860999958,598.1540860999958,598.1540860999958,598.1540860999958,598.1540860999958,598.1540860999958,599.9189923000231,599.9189923000231,599.9189923000231,599.9189923000231,599.9189923000231,599.9189923000231,599.9189923000231,49,16,63,63,63,60,599.9189923000231,601.7529865000106,,,,,,,,,,,,３３９,f,２３,2023-05-21_14h34.30.295,RL,2022.2.5,60.120397107149216,
63,48,24,76,0,96,96,96,,,,,,,,,,,None,601.7529865000106,601.7529865000106,601.7529865000106,601.7529865000106,601.7529865000106,601.7529865000106,j,0.3756377999961842,602.1534556999977,602.1534556999977,602.1534556999977,602.1534556999977,602.1534556999977,602.1534556999977,602.4368456999946,603.8195991000102,603.8195991000102,603.8195991000102,603.8195991000102,603.8195991000102,603.8195991000102,603.8029819000221,603.8195991000102,603.8195991000102,603.8195991000102,603.8195991000102,603.8195991000102,603.8195991000102,603.8195991000102,605.484710699995,605.484710699995,605.484710699995,605.484710699995,605.484710699995,605.484710699995,605.484710699995,48,24,63,76,76,60,605.484710699995,607.2356812000216,,,,,,,,,,,,３３９,f,２３,2023-05-21_14h34.30.295,RL,2022.2.5,60.120397107149216,
71,57,28,67,0,97,97,97,,,,,,,,,,,None,607.2356812000216,607.2356812000216,607.2356812000216,607.2356812000216,607.2356812000216,607.2356812000216,j,0.32289060001494363,607.5873728000151,607.5873728000151,607.5873728000151,607.5873728000151,607.5873728000151,607.5873728000151,607.885994900018,609.1687879000092,609.1687879000092,609.1687879000092,609.1687879000092,609.1687879000092,609.1687879000092,609.1687879000092,609.1687879000092,609.1687879000092,609.1687879000092,609.1687879000092,609.1687879000092,609.1687879000092,609.1687879000092,610.750366799999,610.750366799999,610.750366799999,610.750366799999,610.750366799999,610.750366799999,610.750366799999,57,28,71,67,67,60,610.750366799999,612.384349800006,,,,,,,,,,,,３３９,f,２３,2023-05-21_14h34.30.295,RL,2022.2.5,60.120397107149216,
65,43,28,68,0,98,98,98,,,,,,,,,,,None,612.384349800006,612.384349800006,612.384349800006,612.384349800006,612.384349800006,612.384349800006,j,0.33914650001679547,612.7533873000066,612.7533873000066,612.7533873000066,612.7533873000066,612.7533873000066,612.7533873000066,613.0353353999963,614.3179969000048,614.3179969000048,614.3179969000048,614.3179969000048,614.3179969000048,614.3179969000048,614.3012764000159,614.3179969000048,614.3179969000048,614.3179969000048,614.3179969000048,614.3179969000048,614.3179969000048,614.3179969000048,615.8830224999983,615.8830224999983,615.8830224999983,615.8830224999983,615.8830224999983,615.8830224999983,615.8830224999983,43,28,65,68,68,60,615.8830224999983,617.6501544000057,,,,,,,,,,,,３３９,f,２３,2023-05-21_14h34.30.295,RL,2022.2.5,60.120397107149216,
71,49,26,65,0,99,99,99,,,,,,,,,,,None,617.6501544000057,617.6501544000057,617.6501544000057,617.6501544000057,617.6501544000057,617.6501544000057,j,0.3122561000054702,617.9842620000127,617.9842620000127,617.9842620000127,617.9842620000127,617.9842620000127,617.9842620000127,618.2842464999994,619.5836779999954,619.5836779999954,619.5836779999954,619.5836779999954,619.5836779999954,619.5836779999954,619.5836779999954,619.5836779999954,619.5836779999954,619.5836779999954,619.5836779999954,619.5836779999954,619.5836779999954,619.5836779999954,621.1824273999955,621.1824273999955,621.1824273999955,621.1824273999955,621.1824273999955,621.1824273999955,621.1824273999955,49,26,71,65,65,60,621.1824273999955,623.0495381000219,,,,,,,,,,,,３３９,f,２３,2023-05-21_14h34.30.295,RL,2022.2.5,60.120397107149216,
71,52,30,56,0,100,100,100,,,,,,,,,,,None,623.0495381000219,623.0495381000219,623.0495381000219,623.0495381000219,623.0495381000219,623.0495381000219,j,0.2966413000249304,623.3664506000059,623.3664506000059,623.3664506000059,623.3664506000059,623.3664506000059,623.3664506000059,623.6663242000213,625.2995174000098,625.2995174000098,625.2995174000098,625.2995174000098,625.2995174000098,625.2995174000098,625.2995174000098,625.2995174000098,625.2995174000098,625.2995174000098,625.2995174000098,625.2995174000098,625.2995174000098,625.2995174000098,627.2312485000002,627.2312485000002,627.2312485000002,627.2312485000002,627.2312485000002,627.2312485000002,627.2312485000002,52,30,71,56,56,60,627.2312485000002,629.014957700012,,,,,,,,,,,,３３９,f,２３,2023-05-21_14h34.30.295,RL,2022.2.5,60.120397107149216,
59,50,32,63,0,101,101,101,,,,,,,,,,,None,629.014957700012,629.014957700012,629.014957700012,629.014957700012,629.014957700012,629.014957700012,j,0.2957950000127312,629.3339940000151,629.3339940000151,629.3339940000151,629.3339940000151,629.3339940000151,629.3339940000151,629.6156118000217,631.5314989000035,631.5314989000035,631.5314989000035,631.5314989000035,631.5314989000035,631.5314989000035,631.4982997000043,631.5314989000035,631.5314989000035,631.5314989000035,631.5314989000035,631.5314989000035,631.5314989000035,631.5314989000035,633.7129870000063,633.7129870000063,633.7129870000063,633.7129870000063,633.7129870000063,633.7129870000063,633.7129870000063,50,32,59,63,63,60,633.7129870000063,635.5470641000138,,,,,,,,,,,,３３９,f,２３,2023-05-21_14h34.30.295,RL,2022.2.5,60.120397107149216,
58,61,30,56,0,102,102,102,,,,,,,,,,,None,635.5470641000138,635.5470641000138,635.5470641000138,635.5470641000138,635.5470641000138,635.5470641000138,j,0.2713424999965355,635.8477055999974,635.8477055999974,635.8477055999974,635.8477055999974,635.8477055999974,635.8477055999974,636.1310899000091,637.2138939000142,637.2138939000142,637.2138939000142,637.2138939000142,637.2138939000142,637.2138939000142,637.1972490000189,637.2138939000142,637.2138939000142,637.2138939000142,637.2138939000142,637.2138939000142,637.2138939000142,637.2138939000142,638.5788122000231,638.5788122000231,638.5788122000231,638.5788122000231,638.5788122000231,638.5788122000231,638.5788122000231,61,30,58,56,56,60,638.5788122000231,640.496515100007,,,,,,,,,,,,３３９,f,２３,2023-05-21_14h34.30.295,RL,2022.2.5,60.120397107149216,
60,58,27,67,0,103,103,103,,,,,,,,,,,None,640.496515100007,640.496515100007,640.496515100007,640.496515100007,640.496515100007,640.496515100007,j,0.2936069999996107,640.8140677000047,640.8140677000047,640.8140677000047,640.8140677000047,640.8140677000047,640.8140677000047,641.096601600002,642.1463495000207,642.1463495000207,642.1463495000207,642.1463495000207,642.1463495000207,642.1463495000207,642.129894200014,642.1463495000207,642.1463495000207,642.1463495000207,642.1463495000207,642.1463495000207,642.1463495000207,642.1463495000207,643.477973800007,643.477973800007,643.477973800007,643.477973800007,643.477973800007,643.477973800007,643.477973800007,58,27,60,67,67,60,643.477973800007,645.3792855000065,,,,,,,,,,,,３３９,f,２３,2023-05-21_14h34.30.295,RL,2022.2.5,60.120397107149216,
63,59,29,67,0,104,104,104,,,,,,,,,,,None,645.3792855000065,645.3792855000065,645.3792855000065,645.3792855000065,645.3792855000065,645.3792855000065,j,0.30391919999965467,645.7128532000061,645.7128532000061,645.7128532000061,645.7128532000061,645.7128532000061,645.7128532000061,645.9958191000042,647.6955661000102,647.6955661000102,647.6955661000102,647.6955661000102,647.6955661000102,647.6955661000102,647.6788159999996,647.6955661000102,647.6955661000102,647.6955661000102,647.6955661000102,647.6955661000102,647.6955661000102,647.6955661000102,649.6769701000012,649.6769701000012,649.6769701000012,649.6769701000012,649.6769701000012,649.6769701000012,649.6769701000012,59,29,63,67,67,60,649.6769701000012,651.5609917000111,,,,,,,,,,,,３３９,f,２３,2023-05-21_14h34.30.295,RL,2022.2.5,60.120397107149216,
66,59,40,65,0,105,105,105,,,,,,,,,,,None,651.5609917000111,651.5609917000111,651.5609917000111,651.5609917000111,651.5609917000111,651.5609917000111,j,0.3291251999908127,651.9115718000103,651.9115718000103,651.9115718000103,651.9115718000103,651.9115718000103,651.9115718000103,652.195093700022,653.8443993999972,653.8443993999972,653.8443993999972,653.8443993999972,653.8443993999972,653.8443993999972,653.8282769000216,653.8443993999972,653.8443993999972,653.8443993999972,653.8443993999972,653.8443993999972,653.8443993999972,653.8443993999972,655.7761500000197,655.7761500000197,655.7761500000197,655.7761500000197,655.7761500000197,655.7761500000197,655.7761500000197,59,40,66,65,65,60,655.7761500000197,657.510145600012,,,,,,,,,,,,３３９,f,２３,2023-05-21_14h34.30.295,RL,2022.2.5,60.120397107149216,
66,68,34,67,0,106,106,106,,,,,,,,,,,None,657.510145600012,657.510145600012,657.510145600012,657.510145600012,657.510145600012,657.510145600012,j,0.2668339000083506,657.7938880000147,657.7938880000147,657.7938880000147,657.7938880000147,657.7938880000147,657.7938880000147,658.0936349999974,659.1603219000099,659.1603219000099,659.1603219000099,659.1603219000099,659.1603219000099,659.1603219000099,659.1603219000099,659.1603219000099,659.1603219000099,659.1603219000099,659.1603219000099,659.1603219000099,659.1603219000099,659.1603219000099,660.5251658000052,660.5251658000052,660.5251658000052,660.5251658000052,660.5251658000052,660.5251658000052,660.5251658000052,68,34,66,67,67,60,660.5251658000052,662.1428464000055,,,,,,,,,,,,３３９,f,２３,2023-05-21_14h34.30.295,RL,2022.2.5,60.120397107149216,
57,51,29,62,0,107,107,107,,,,,,,,,,,None,662.1428464000055,662.1428464000055,662.1428464000055,662.1428464000055,662.1428464000055,662.1428464000055,j,0.300634799990803,662.4766654999985,662.4766654999985,662.4766654999985,662.4766654999985,662.4766654999985,662.4766654999985,662.759552500007,664.6259651000146,664.6259651000146,664.6259651000146,664.6259651000146,664.6259651000146,664.6259651000146,664.6096169000084,664.6259651000146,664.6259651000146,664.6259651000146,664.6259651000146,664.6259651000146,664.6259651000146,664.6259651000146,666.7739408000198,666.7739408000198,666.7739408000198,666.7739408000198,666.7739408000198,666.7739408000198,666.7739408000198,51,29,57,62,62,60,666.7739408000198,668.7084591000166,,,,,,,,,,,,３３９,f,２３,2023-05-21_14h34.30.295,RL,2022.2.5,60.120397107149216,
64,61,36,65,0,108,108,108,,,,,,,,,,,None,668.7084591000166,668.7084591000166,668.7084591000166,668.7084591000166,668.7084591000166,668.7084591000166,j,0.30188129999442026,669.0479156000074,669.0479156000074,669.0479156000074,669.0479156000074,669.0479156000074,669.0479156000074,669.3416991000122,670.7912941999966,670.7912941999966,670.7912941999966,670.7912941999966,670.7912941999966,670.7912941999966,670.7912941999966,670.7912941999966,670.7912941999966,670.7912941999966,670.7912941999966,670.7912941999966,670.7912941999966,670.7912941999966,672.5397198999999,672.5397198999999,672.5397198999999,672.5397198999999,672.5397198999999,672.5397198999999,672.5397198999999,61,36,64,65,65,60,672.5397198999999,674.390254900005,,,,,,,,,,,,３３９,f,２３,2023-05-21_14h34.30.295,RL,2022.2.5,60.120397107149216,
66,62,23,69,0,109,109,109,,,,,,,,,,,None,674.390254900005,674.390254900005,674.390254900005,674.390254900005,674.390254900005,674.390254900005,j,0.32535090000601485,674.7410744000226,674.7410744000226,674.7410744000226,674.7410744000226,674.7410744000226,674.7410744000226,675.0242328000022,676.9739531000087,676.9739531000087,676.9739531000087,676.9739531000087,676.9739531000087,676.9739531000087,676.9571067000215,676.9739531000087,676.9739531000087,676.9739531000087,676.9739531000087,676.9739531000087,676.9739531000087,676.9739531000087,679.204970300023,679.204970300023,679.204970300023,679.204970300023,679.204970300023,679.204970300023,679.204970300023,62,23,66,69,69,60,679.204970300023,681.1058007999964,,,,,,,,,,,,３３９,f,２３,2023-05-21_14h34.30.295,RL,2022.2.5,60.120397107149216,
64,47,34,64,0,110,110,110,,,,,,,,,,,None,681.1058007999964,681.1058007999964,681.1058007999964,681.1058007999964,681.1058007999964,681.1058007999964,j,0.255193999997573,681.3927015000081,681.3927015000081,681.3927015000081,681.3927015000081,681.3927015000081,681.3927015000081,681.6897288000036,683.605799300014,683.605799300014,683.605799300014,683.605799300014,683.605799300014,683.605799300014,683.605799300014,683.605799300014,683.605799300014,683.605799300014,683.605799300014,683.605799300014,683.605799300014,683.605799300014,685.8210063000151,685.8210063000151,685.8210063000151,685.8210063000151,685.8210063000151,685.8210063000151,685.8210063000151,47,34,64,64,64,60,685.8210063000151,687.4547169000143,,,,,,,,,,,,３３９,f,２３,2023-05-21_14h34.30.295,RL,2022.2.5,60.120397107149216,
61,58,28,64,0,111,111,111,,,,,,,,,,,None,687.4547169000143,687.4547169000143,687.4547169000143,687.4547169000143,687.4547169000143,687.4547169000143,j,0.2773775999958161,687.755510100018,687.755510100018,687.755510100018,687.755510100018,687.755510100018,687.755510100018,688.038504600001,689.7380028000043,689.7380028000043,689.7380028000043,689.7380028000043,689.7380028000043,689.7380028000043,689.7215351000195,689.7380028000043,689.7380028000043,689.7380028000043,689.7380028000043,689.7380028000043,689.7380028000043,689.7380028000043,691.7196872000059,691.7196872000059,691.7196872000059,691.7196872000059,691.7196872000059,691.7196872000059,691.7196872000059,58,28,61,64,64,60,691.7196872000059,693.4205915000057,,,,,,,,,,,,３３９,f,２３,2023-05-21_14h34.30.295,RL,2022.2.5,60.120397107149216,
59,46,34,62,0,112,112,112,,,,,,,,,,,None,693.4205915000057,693.4205915000057,693.4205915000057,693.4205915000057,693.4205915000057,693.4205915000057,j,0.29615939999348484,693.7391493000032,693.7391493000032,693.7391493000032,693.7391493000032,693.7391493000032,693.7391493000032,694.0212766000186,695.9540781000105,695.9540781000105,695.9540781000105,695.9540781000105,695.9540781000105,695.9540781000105,695.9373980000091,695.9540781000105,695.9540781000105,695.9540781000105,695.9540781000105,695.9540781000105,695.9540781000105,695.9540781000105,698.1685659000068,698.1685659000068,698.1685659000068,698.1685659000068,698.1685659000068,698.1685659000068,698.1685659000068,46,34,59,62,62,60,698.1685659000068,700.1193872000149,,,,,,,,,,,,３３９,f,２３,2023-05-21_14h34.30.295,RL,2022.2.5,60.120397107149216,
68,63,28,66,0,113,113,113,,,,,,,,,,,None,700.1193872000149,700.1193872000149,700.1193872000149,700.1193872000149,700.1193872000149,700.1193872000149,j,0.29181720002088696,700.4364627000177,700.4364627000177,700.4364627000177,700.4364627000177,700.4364627000177,700.4364627000177,700.719855400006,702.4191213000158,702.4191213000158,702.4191213000158,702.4191213000158,702.4191213000158,702.4191213000158,702.402235400019,702.4191213000158,702.4191213000158,702.4191213000158,702.4191213000158,702.4191213000158,702.4191213000158,702.4191213000158,704.4005796000129,704.4005796000129,704.4005796000129,704.4005796000129,704.4005796000129,704.4005796000129,704.4005796000129,63,28,68,66,66,60,704.4005796000129,706.352129100007,,,,,,,,,,,,３３９,f,２３,2023-05-21_14h34.30.295,RL,2022.2.5,60.120397107149216,
62,51,21,61,0,114,114,114,,,,,,,,,,,None,706.352129100007,706.352129100007,706.352129100007,706.352129100007,706.352129100007,706.352129100007,j,0.31941109997569583,706.7028731000028,706.7028731000028,706.7028731000028,706.7028731000028,706.7028731000028,706.7028731000028,706.9856345000153,707.8517545000068,707.8517545000068,707.8517545000068,707.8517545000068,707.8517545000068,707.8517545000068,707.8350939000084,707.8517545000068,707.8517545000068,707.8517545000068,707.8517545000068,707.8517545000068,707.8517545000068,707.8517545000068,709.000024900015,709.000024900015,709.000024900015,709.000024900015,709.000024900015,709.000024900015,709.000024900015,51,21,62,61,61,60,709.000024900015,710.7509105000063,,,,,,,,,,,,３３９,f,２３,2023-05-21_14h34.30.295,RL,2022.2.5,60.120397107149216,
68,46,25,68,0,115,115,115,,,,,,,,,,,None,710.7509105000063,710.7509105000063,710.7509105000063,710.7509105000063,710.7509105000063,710.7509105000063,j,0.29732109999167733,711.0688932000194,711.0688932000194,711.0688932000194,711.0688932000194,711.0688932000194,711.0688932000194,711.3677144999965,712.2343006000156,712.2343006000156,712.2343006000156,712.2343006000156,712.2343006000156,712.2343006000156,712.2343006000156,712.2343006000156,712.2343006000156,712.2343006000156,712.2343006000156,712.2343006000156,712.2343006000156,712.2343006000156,713.3988977000117,713.3988977000117,713.3988977000117,713.3988977000117,713.3988977000117,713.3988977000117,713.3988977000117,46,25,68,68,68,60,713.3988977000117,715.0665840000147,,,,,,,,,,,,３３９,f,２３,2023-05-21_14h34.30.295,RL,2022.2.5,60.120397107149216,
60,54,27,69,0,116,116,116,,,,,,,,,,,None,715.0665840000147,715.0665840000147,715.0665840000147,715.0665840000147,715.0665840000147,715.0665840000147,j,0.30100300000049174,715.4020424000046,715.4020424000046,715.4020424000046,715.4020424000046,715.4020424000046,715.4020424000046,715.6837070000183,717.5835069000022,717.5835069000022,717.5835069000022,717.5835069000022,717.5835069000022,717.5835069000022,717.5671011999948,717.5835069000022,717.5835069000022,717.5835069000022,717.5835069000022,717.5835069000022,717.5835069000022,717.5835069000022,719.7645916000183,719.7645916000183,719.7645916000183,719.7645916000183,719.7645916000183,719.7645916000183,719.7645916000183,54,27,60,69,69,60,719.7645916000183,721.6654660000058,,,,,,,,,,,,３３９,f,２３,2023-05-21_14h34.30.295,RL,2022.2.5,60.120397107149216,
65,45,31,63,0,117,117,117,,,,,,,,,,,None,721.6654660000058,721.6654660000058,721.6654660000058,721.6654660000058,721.6654660000058,721.6654660000058,j,0.38089259999105707,722.067143000022,722.067143000022,722.067143000022,722.067143000022,722.067143000022,722.067143000022,722.3493740000122,723.4655595000077,723.4655595000077,723.4655595000077,723.4655595000077,723.4655595000077,723.4655595000077,723.4493077000079,723.4655595000077,723.4655595000077,723.4655595000077,723.4655595000077,723.4655595000077,723.4655595000077,723.4655595000077,724.8635987000016,724.8635987000016,724.8635987000016,724.8635987000016,724.8635987000016,724.8635987000016,724.8635987000016,45,31,65,63,63,60,724.8635987000016,726.4983900000225,,,,,,,,,,,,３３９,f,２３,2023-05-21_14h34.30.295,RL,2022.2.5,60.120397107149216,
69,53,30,63,0,118,118,118,,,,,,,,,,,None,726.4983900000225,726.4983900000225,726.4983900000225,726.4983900000225,726.4983900000225,726.4983900000225,j,0.4006394000025466,726.9343509000028,726.9343509000028,726.9343509000028,726.9343509000028,726.9343509000028,726.9343509000028,727.2149324000056,729.0645481999964,729.0645481999964,729.0645481999964,729.0645481999964,729.0645481999964,729.0645481999964,729.047986599995,729.0645481999964,729.0645481999964,729.0645481999964,729.0645481999964,729.0645481999964,729.0645481999964,729.0645481999964,731.1960604000196,731.1960604000196,731.1960604000196,731.1960604000196,731.1960604000196,731.1960604000196,731.1960604000196,53,30,69,63,63,60,731.1960604000196,733.0805031000054,,,,,,,,,,,,３３９,f,２３,2023-05-21_14h34.30.295,RL,2022.2.5,60.120397107149216,
58,57,19,58,0,119,119,119,,,,,,,,,,,None,733.0805031000054,733.0805031000054,733.0805031000054,733.0805031000054,733.0805031000054,733.0805031000054,j,0.3012682000116911,733.4172226999945,733.4172226999945,733.4172226999945,733.4172226999945,733.4172226999945,733.4172226999945,733.6975721000053,735.0302807000116,735.0302807000116,735.0302807000116,735.0302807000116,735.0302807000116,735.0302807000116,735.01377770002,735.0302807000116,735.0302807000116,735.0302807000116,735.0302807000116,735.0302807000116,735.0302807000116,735.0302807000116,736.6452384000004,736.6452384000004,736.6452384000004,736.6452384000004,736.6452384000004,736.6452384000004,736.6452384000004,57,19,58,58,58,60,736.6452384000004,738.4629535000131,,,,,,,,,,,,３３９,f,２３,2023-05-21_14h34.30.295,RL,2022.2.5,60.120397107149216,
50,53,37,50,0,120,120,120,,,,,,,,,,,None,738.4629535000131,738.4629535000131,738.4629535000131,738.4629535000131,738.4629535000131,738.4629535000131,j,0.3268392000172753,738.8133457000076,738.8133457000076,738.8133457000076,738.8133457000076,738.8133457000076,738.8133457000076,739.1128966000106,741.012764700019,741.012764700019,741.012764700019,741.012764700019,741.012764700019,741.012764700019,741.012764700019,741.012764700019,741.012764700019,741.012764700019,741.012764700019,741.012764700019,741.012764700019,741.012764700019,743.2107460999978,743.2107460999978,743.2107460999978,743.2107460999978,743.2107460999978,743.2107460999978,743.2107460999978,53,37,50,50,50,60,743.2107460999978,745.1782595000113,,,,,,,,,,,,３３９,f,２３,2023-05-21_14h34.30.295,RL,2022.2.5,60.120397107149216,
