arm1,arm2,arm3,arm4,trials.thisRepN,trials.thisTrialN,trials.thisN,trials.thisIndex,instru_img1.started,instru_resp.started,instru_resp.keys,instru_resp.rt,image_2.started,text_2.started,fixbefore_2.started,rest_response.keys,red.started,green.started,yellow.started,blue.started,choose_bandit.started,Fixation.started,choose_bandit.keys,choose_bandit.rt,black.started,red_2.started,green_2.started,yellow_2.started,blue_2.started,fixation_2.started,docs.started,black.stopped,red_2.stopped,green_2.stopped,yellow_2.stopped,blue_2.stopped,fixation_2.stopped,docs.stopped,black_com.started,reward_sub.started,reward__sub.started,red_compare.started,green_com.started,yellow_com.started,blue_com.started,black_com.stopped,reward_sub.stopped,reward__sub.stopped,red_compare.stopped,green_com.stopped,yellow_com.stopped,blue_com.stopped,rewardred,rewardyellow,rewardblue,rewardgreen,subchoose,expectation,intertrialfix.started,intertrialfix.stopped,rest_image.started,rest_response.started,rest_response.rt,image_expect_after.started,text_exp_after.started,image_expect_after.stopped,text_exp_after.stopped,bigx.started,bigx.stopped,image.started,key_resp.started,key_resp.keys,key_resp.rt,participant,Gender,Age,date,expName,psychopyVersion,frameRate,
,,,,,,,,17.860158900002716,17.860158900002716,space,5.165665500011528,,,,,,,,,,,,,,,,,,,,,,,,,,,,,,,,,,,,,,,,,,,,,,,,,,,,,,,,,,,,,,３４０,f,２２,2023-05-21_15h13.20.673,RL,2022.2.5,60.01205042415398,
29,37,53,62,0,0,0,0,,,,,23.05887169999187,23.05887169999187,28.068812099983916,None,29.07237459998578,29.07237459998578,29.07237459998578,29.07237459998578,29.07237459998578,29.07237459998578,j,0.4242406999983359,29.527960300009,29.527960300009,29.527960300009,29.527960300009,29.527960300009,29.527960300009,29.82020749998628,31.105584100005217,31.105584100005217,31.105584100005217,31.105584100005217,31.105584100005217,31.105584100005217,31.105584100005217,31.105584100005217,31.105584100005217,31.105584100005217,31.105584100005217,31.105584100005217,31.105584100005217,31.105584100005217,32.730317999987165,32.730317999987165,32.730317999987165,32.730317999987165,32.730317999987165,32.730317999987165,32.730317999987165,29,53,62,37,37,70,32.730317999987165,34.43643480000901,,,,,,,,,,,,,,３４０,f,２２,2023-05-21_15h13.20.673,RL,2022.2.5,60.01205042415398,
46,36,65,66,0,1,1,1,,,,,,,,None,34.43643480000901,34.43643480000901,34.43643480000901,34.43643480000901,34.43643480000901,34.43643480000901,j,0.5925989999959711,35.05415999999968,35.05415999999968,35.05415999999968,35.05415999999968,35.05415999999968,35.05415999999968,35.33632510001189,36.71913199999835,36.71913199999835,36.71913199999835,36.71913199999835,36.71913199999835,36.71913199999835,36.70217179998872,36.71913199999835,36.71913199999835,36.71913199999835,36.71913199999835,36.71913199999835,36.71913199999835,36.71913199999835,38.38398720000987,38.38398720000987,38.38398720000987,38.38398720000987,38.38398720000987,38.38398720000987,38.38398720000987,46,65,66,36,36,70,38.38398720000987,40.33501249999972,,,,,,,,,,,,,,３４０,f,２２,2023-05-21_15h13.20.673,RL,2022.2.5,60.01205042415398,
41,44,44,68,0,2,2,2,,,,,,,,None,40.33501249999972,40.33501249999972,40.33501249999972,40.33501249999972,40.33501249999972,40.33501249999972,i,0.3408711000229232,40.70206819998566,40.70206819998566,40.70206819998566,40.70206819998566,40.70206819998566,40.70206819998566,40.98527760000434,42.35151639999822,42.35151639999822,42.35151639999822,42.35151639999822,42.35151639999822,42.35151639999822,42.33465010000509,42.35151639999822,42.35151639999822,42.35151639999822,42.35151639999822,42.35151639999822,42.35151639999822,42.35151639999822,43.9997110000113,43.9997110000113,43.9997110000113,43.9997110000113,43.9997110000113,43.9997110000113,43.9997110000113,41,44,68,44,68,70,43.9997110000113,45.800647399999434,,,,,,,,,,,,,,３４０,f,２２,2023-05-21_15h13.20.673,RL,2022.2.5,60.01205042415398,
36,44,58,72,0,3,3,3,,,,,,,,None,45.800647399999434,45.800647399999434,45.800647399999434,45.800647399999434,45.800647399999434,45.800647399999434,i,0.381243000010727,46.20230050000828,46.20230050000828,46.20230050000828,46.20230050000828,46.20230050000828,46.20230050000828,46.48410530001274,47.683988400007365,47.683988400007365,47.683988400007365,47.683988400007365,47.683988400007365,47.683988400007365,47.66755310000735,47.683988400007365,47.683988400007365,47.683988400007365,47.683988400007365,47.683988400007365,47.683988400007365,47.683988400007365,49.165322299988475,49.165322299988475,49.165322299988475,49.165322299988475,49.165322299988475,49.165322299988475,49.165322299988475,36,58,72,44,72,70,49.165322299988475,51.04970659999526,,,,,,,,,,,,,,３４０,f,２２,2023-05-21_15h13.20.673,RL,2022.2.5,60.01205042415398,
42,41,54,69,0,4,4,4,,,,,,,,None,51.04970659999526,51.04970659999526,51.04970659999526,51.04970659999526,51.04970659999526,51.04970659999526,i,0.5526682999916375,51.63753999999608,51.63753999999608,51.63753999999608,51.63753999999608,51.63753999999608,51.63753999999608,51.933239999983925,52.96651080000447,52.96651080000447,52.96651080000447,52.96651080000447,52.96651080000447,52.96651080000447,52.96651080000447,52.96651080000447,52.96651080000447,52.96651080000447,52.96651080000447,52.96651080000447,52.96651080000447,52.96651080000447,54.298013799998444,54.298013799998444,54.298013799998444,54.298013799998444,54.298013799998444,54.298013799998444,54.298013799998444,42,54,69,41,69,70,54.298013799998444,55.93249690000084,,,,,,,,,,,,,,３４０,f,２２,2023-05-21_15h13.20.673,RL,2022.2.5,60.01205042415398,
43,49,50,71,0,5,5,5,,,,,,,,None,55.93249690000084,55.93249690000084,55.93249690000084,55.93249690000084,55.93249690000084,55.93249690000084,i,0.6546514999936335,56.61596749999444,56.61596749999444,56.61596749999444,56.61596749999444,56.61596749999444,56.61596749999444,56.8988837999932,58.73184200000833,58.73184200000833,58.73184200000833,58.73184200000833,58.73184200000833,58.73184200000833,58.71566290000919,58.73184200000833,58.73184200000833,58.73184200000833,58.73184200000833,58.73184200000833,58.73184200000833,58.73184200000833,60.84660319998511,60.84660319998511,60.84660319998511,60.84660319998511,60.84660319998511,60.84660319998511,60.84660319998511,43,50,71,49,71,70,60.84660319998511,62.79816859998391,,,,,,,,,,,,,,３４０,f,２２,2023-05-21_15h13.20.673,RL,2022.2.5,60.01205042415398,
39,45,52,66,0,6,6,6,,,,,,,,None,62.79816859998391,62.79816859998391,62.79816859998391,62.79816859998391,62.79816859998391,62.79816859998391,i,0.5752811999991536,63.398038499988616,63.398038499988616,63.398038499988616,63.398038499988616,63.398038499988616,63.398038499988616,63.68122219998622,65.09759299998404,65.09759299998404,65.09759299998404,65.09759299998404,65.09759299998404,65.09759299998404,65.08125960000325,65.09759299998404,65.09759299998404,65.09759299998404,65.09759299998404,65.09759299998404,65.09759299998404,65.09759299998404,66.79591399998753,66.79591399998753,66.79591399998753,66.79591399998753,66.79591399998753,66.79591399998753,66.79591399998753,39,52,66,45,66,70,66.79591399998753,68.76370360000874,,,,,,,,,,,,,,３４０,f,２２,2023-05-21_15h13.20.673,RL,2022.2.5,60.01205042415398,
44,45,42,64,0,7,7,7,,,,,,,,None,68.76370360000874,68.76370360000874,68.76370360000874,68.76370360000874,68.76370360000874,68.76370360000874,f,0.6411770999839064,69.43031649998738,69.43031649998738,69.43031649998738,69.43031649998738,69.43031649998738,69.43031649998738,69.73006830000668,70.91315519998898,70.91315519998898,70.91315519998898,70.91315519998898,70.91315519998898,70.91315519998898,70.91315519998898,70.91315519998898,70.91315519998898,70.91315519998898,70.91315519998898,70.91315519998898,70.91315519998898,70.91315519998898,72.39480670000194,72.39480670000194,72.39480670000194,72.39480670000194,72.39480670000194,72.39480670000194,72.39480670000194,44,42,64,45,44,70,72.39480670000194,74.26278879999882,,,,,,,,,,,,,,３４０,f,２２,2023-05-21_15h13.20.673,RL,2022.2.5,60.01205042415398,
43,40,42,66,0,8,8,8,,,,,,,,None,74.26278879999882,74.26278879999882,74.26278879999882,74.26278879999882,74.26278879999882,74.26278879999882,i,0.341068899986567,74.63196369999787,74.63196369999787,74.63196369999787,74.63196369999787,74.63196369999787,74.63196369999787,74.91252710000845,75.94583569999668,75.94583569999668,75.94583569999668,75.94583569999668,75.94583569999668,75.94583569999668,75.92949569999473,75.94583569999668,75.94583569999668,75.94583569999668,75.94583569999668,75.94583569999668,75.94583569999668,75.94583569999668,77.26079959998606,77.26079959998606,77.26079959998606,77.26079959998606,77.26079959998606,77.26079959998606,77.26079959998606,43,42,66,40,66,70,77.26079959998606,78.94457940000575,,,,,,,,,,,,,,３４０,f,２２,2023-05-21_15h13.20.673,RL,2022.2.5,60.01205042415398,
42,45,44,70,0,9,9,9,,,,,,,,None,78.94457940000575,78.94457940000575,78.94457940000575,78.94457940000575,78.94457940000575,78.94457940000575,r,0.4234779999824241,79.3974057000014,79.3974057000014,79.3974057000014,79.3974057000014,79.3974057000014,79.3974057000014,79.695487399993,81.26154909998877,81.26154909998877,81.26154909998877,81.26154909998877,81.26154909998877,81.26154909998877,81.26154909998877,81.26154909998877,81.26154909998877,81.26154909998877,81.26154909998877,81.26154909998877,81.26154909998877,81.26154909998877,83.12653400001,83.12653400001,83.12653400001,83.12653400001,83.12653400001,83.12653400001,83.12653400001,42,44,70,45,44,70,83.12653400001,84.74381119999452,,,,,,,,,,,,,,３４０,f,２２,2023-05-21_15h13.20.673,RL,2022.2.5,60.01205042415398,
45,38,40,64,0,10,10,10,,,,,,,,None,84.74381119999452,84.74381119999452,84.74381119999452,84.74381119999452,84.74381119999452,84.74381119999452,i,0.3355740000260994,85.11413390000234,85.11413390000234,85.11413390000234,85.11413390000234,85.11413390000234,85.11413390000234,85.39431090001017,87.02729180001188,87.02729180001188,87.02729180001188,87.02729180001188,87.02729180001188,87.02729180001188,87.01113229998737,87.02729180001188,87.02729180001188,87.02729180001188,87.02729180001188,87.02729180001188,87.02729180001188,87.02729180001188,88.9422113999899,88.9422113999899,88.9422113999899,88.9422113999899,88.9422113999899,88.9422113999899,88.9422113999899,45,40,64,38,64,70,88.9422113999899,90.85923380000168,,,,,,,,,,,,,,３４０,f,２２,2023-05-21_15h13.20.673,RL,2022.2.5,60.01205042415398,
53,24,52,68,0,11,11,11,,,,,,,,None,90.85923380000168,90.85923380000168,90.85923380000168,90.85923380000168,90.85923380000168,90.85923380000168,i,0.3017618000158109,91.20032450000872,91.20032450000872,91.20032450000872,91.20032450000872,91.20032450000872,91.20032450000872,91.49308019998716,92.90934829998878,92.90934829998878,92.90934829998878,92.90934829998878,92.90934829998878,92.90934829998878,92.90934829998878,92.90934829998878,92.90934829998878,92.90934829998878,92.90934829998878,92.90934829998878,92.90934829998878,92.90934829998878,94.62396420000005,94.62396420000005,94.62396420000005,94.62396420000005,94.62396420000005,94.62396420000005,94.62396420000005,53,52,68,24,68,70,94.62396420000005,96.25842070000363,,,,,,,,,,,,,,３４０,f,２２,2023-05-21_15h13.20.673,RL,2022.2.5,60.01205042415398,
54,44,43,60,0,12,12,12,,,,,,,,None,96.25842070000363,96.25842070000363,96.25842070000363,96.25842070000363,96.25842070000363,96.25842070000363,i,0.38062840001657605,96.65928890000214,96.65928890000214,96.65928890000214,96.65928890000214,96.65928890000214,96.65928890000214,96.94249019998824,98.85819239998818,98.85819239998818,98.85819239998818,98.85819239998818,98.85819239998818,98.85819239998818,98.84149950000574,98.85819239998818,98.85819239998818,98.85819239998818,98.85819239998818,98.85819239998818,98.85819239998818,98.85819239998818,101.05619139998453,101.05619139998453,101.05619139998453,101.05619139998453,101.05619139998453,101.05619139998453,101.05619139998453,54,43,60,44,60,70,101.05619139998453,102.89058959999238,,,,,,,,,,,,,,３４０,f,２２,2023-05-21_15h13.20.673,RL,2022.2.5,60.01205042415398,
60,41,48,74,0,13,13,13,,,,,,,,None,102.89058959999238,102.89058959999238,102.89058959999238,102.89058959999238,102.89058959999238,102.89058959999238,i,0.29549889999907464,103.20786789999693,103.20786789999693,103.20786789999693,103.20786789999693,103.20786789999693,103.20786789999693,103.49089849999291,105.15734730000258,105.15734730000258,105.15734730000258,105.15734730000258,105.15734730000258,105.15734730000258,105.14055609999923,105.15734730000258,105.15734730000258,105.15734730000258,105.15734730000258,105.15734730000258,105.15734730000258,105.15734730000258,107.10546869999962,107.10546869999962,107.10546869999962,107.10546869999962,107.10546869999962,107.10546869999962,107.10546869999962,60,48,74,41,74,70,107.10546869999962,109.056711000012,,,,,,,,,,,,,,３４０,f,２２,2023-05-21_15h13.20.673,RL,2022.2.5,60.01205042415398,
58,31,46,71,0,14,14,14,,,,,,,,None,109.056711000012,109.056711000012,109.056711000012,109.056711000012,109.056711000012,109.056711000012,i,0.4673766999912914,109.5625088000088,109.5625088000088,109.5625088000088,109.5625088000088,109.5625088000088,109.5625088000088,109.8398434999981,111.18962799999281,111.18962799999281,111.18962799999281,111.18962799999281,111.18962799999281,111.18962799999281,111.17284670000663,111.18962799999281,111.18962799999281,111.18962799999281,111.18962799999281,111.18962799999281,111.18962799999281,111.18962799999281,112.82133479998447,112.82133479998447,112.82133479998447,112.82133479998447,112.82133479998447,112.82133479998447,112.82133479998447,58,46,71,31,71,70,112.82133479998447,114.57178999998723,,,,,,,,,,,,,,３４０,f,２２,2023-05-21_15h13.20.673,RL,2022.2.5,60.01205042415398,
70,42,51,64,0,15,15,15,,,,,,,,None,114.57178999998723,114.57178999998723,114.57178999998723,114.57178999998723,114.57178999998723,114.57178999998723,i,0.3842788999900222,114.99536319999606,114.99536319999606,114.99536319999606,114.99536319999606,114.99536319999606,114.99536319999606,115.27237580000656,116.80551080001169,116.80551080001169,116.80551080001169,116.80551080001169,116.80551080001169,116.80551080001169,116.77214119999553,116.80551080001169,116.80551080001169,116.80551080001169,116.80551080001169,116.80551080001169,116.80551080001169,116.80551080001169,118.60333700000774,118.60333700000774,118.60333700000774,118.60333700000774,118.60333700000774,118.60333700000774,118.60333700000774,70,51,64,42,64,70,118.60333700000774,120.2544682000007,,,,,,,,,,,,,,３４０,f,２２,2023-05-21_15h13.20.673,RL,2022.2.5,60.01205042415398,
66,32,45,71,0,16,16,16,,,,,,,,None,120.2544682000007,120.2544682000007,120.2544682000007,120.2544682000007,120.2544682000007,120.2544682000007,i,0.4120338999782689,120.68778810001095,120.68778810001095,120.68778810001095,120.68778810001095,120.68778810001095,120.68778810001095,120.9878413999977,122.93764129999909,122.93764129999909,122.93764129999909,122.93764129999909,122.93764129999909,122.93764129999909,122.93764129999909,122.93764129999909,122.93764129999909,122.93764129999909,122.93764129999909,122.93764129999909,122.93764129999909,122.93764129999909,125.18537940000533,125.18537940000533,125.18537940000533,125.18537940000533,125.18537940000533,125.18537940000533,125.18537940000533,66,45,71,32,71,70,125.18537940000533,127.15320609998889,,,,,,,,,,,,,,３４０,f,２２,2023-05-21_15h13.20.673,RL,2022.2.5,60.01205042415398,
68,47,46,69,0,17,17,17,,,,,,,,None,127.15320609998889,127.15320609998889,127.15320609998889,127.15320609998889,127.15320609998889,127.15320609998889,i,0.30966840000473894,127.48700769999414,127.48700769999414,127.48700769999414,127.48700769999414,127.48700769999414,127.48700769999414,127.77005590000772,129.41972330000135,129.41972330000135,129.41972330000135,129.41972330000135,129.41972330000135,129.41972330000135,129.40299669999513,129.41972330000135,129.41972330000135,129.41972330000135,129.41972330000135,129.41972330000135,129.41972330000135,129.41972330000135,131.35106250000536,131.35106250000536,131.35106250000536,131.35106250000536,131.35106250000536,131.35106250000536,131.35106250000536,68,46,69,47,69,70,131.35106250000536,133.35230880000745,,,,,,,,,,,,,,３４０,f,２２,2023-05-21_15h13.20.673,RL,2022.2.5,60.01205042415398,
71,36,56,71,0,18,18,18,,,,,,,,None,133.35230880000745,133.35230880000745,133.35230880000745,133.35230880000745,133.35230880000745,133.35230880000745,i,0.36043770000105724,133.73595830000704,133.73595830000704,133.73595830000704,133.73595830000704,133.73595830000704,133.73595830000704,134.01944929998717,134.9691512999998,134.9691512999998,134.9691512999998,134.9691512999998,134.9691512999998,134.9691512999998,134.95227599999635,134.9691512999998,134.9691512999998,134.9691512999998,134.9691512999998,134.9691512999998,134.9691512999998,134.9691512999998,136.20081179999397,136.20081179999397,136.20081179999397,136.20081179999397,136.20081179999397,136.20081179999397,136.20081179999397,71,56,71,36,71,70,136.20081179999397,137.8012388999923,,,,,,,,,,,,,,３４０,f,２２,2023-05-21_15h13.20.673,RL,2022.2.5,60.01205042415398,
70,42,56,74,0,19,19,19,,,,,,,,None,137.8012388999923,137.8012388999923,137.8012388999923,137.8012388999923,137.8012388999923,137.8012388999923,j,0.944242800003849,138.76893660001224,138.76893660001224,138.76893660001224,138.76893660001224,138.76893660001224,138.76893660001224,139.051873599994,139.95150669998839,139.95150669998839,139.95150669998839,139.95150669998839,139.95150669998839,139.95150669998839,139.93510840000818,139.95150669998839,139.95150669998839,139.95150669998839,139.95150669998839,139.95150669998839,139.95150669998839,139.95150669998839,141.1326207999955,141.1326207999955,141.1326207999955,141.1326207999955,141.1326207999955,141.1326207999955,141.1326207999955,70,56,74,42,42,70,141.1326207999955,143.03404689999297,,,,,,,,,,,,,,３４０,f,２２,2023-05-21_15h13.20.673,RL,2022.2.5,60.01205042415398,
63,40,58,80,0,20,20,20,,,,,,,,None,143.03404689999297,143.03404689999297,143.03404689999297,143.03404689999297,143.03404689999297,143.03404689999297,i,0.3236214999924414,143.38412539998535,143.38412539998535,143.38412539998535,143.38412539998535,143.38412539998535,143.38412539998535,143.6841499999864,145.433678100002,145.433678100002,145.433678100002,145.433678100002,145.433678100002,145.433678100002,145.433678100002,145.433678100002,145.433678100002,145.433678100002,145.433678100002,145.433678100002,145.433678100002,145.433678100002,147.48150769999484,147.48150769999484,147.48150769999484,147.48150769999484,147.48150769999484,147.48150769999484,147.48150769999484,63,58,80,40,80,70,147.48150769999484,149.3987393999996,,,,,,,,,,,,,,３４０,f,２２,2023-05-21_15h13.20.673,RL,2022.2.5,60.01205042415398,
56,35,56,74,0,21,21,21,,,,,,,,None,149.3987393999996,149.3987393999996,149.3987393999996,149.3987393999996,149.3987393999996,149.3987393999996,i,0.4392024999833666,149.87057749999803,149.87057749999803,149.87057749999803,149.87057749999803,149.87057749999803,149.87057749999803,150.16613060000236,151.5661592000106,151.5661592000106,151.5661592000106,151.5661592000106,151.5661592000106,151.5661592000106,151.5661592000106,151.5661592000106,151.5661592000106,151.5661592000106,151.5661592000106,151.5661592000106,151.5661592000106,151.5661592000106,153.26392950001173,153.26392950001173,153.26392950001173,153.26392950001173,153.26392950001173,153.26392950001173,153.26392950001173,56,56,74,35,74,70,153.26392950001173,154.96499320000294,,,,,,,,,,,,,,３４０,f,２２,2023-05-21_15h13.20.673,RL,2022.2.5,60.01205042415398,
59,39,61,69,0,22,22,22,,,,,,,,None,154.96499320000294,154.96499320000294,154.96499320000294,154.96499320000294,154.96499320000294,154.96499320000294,i,0.3640198999783024,155.34889130000374,155.34889130000374,155.34889130000374,155.34889130000374,155.34889130000374,155.34889130000374,155.63169750000816,157.131424399995,157.131424399995,157.131424399995,157.131424399995,157.131424399995,157.131424399995,157.11531890000333,157.131424399995,157.131424399995,157.131424399995,157.131424399995,157.131424399995,157.131424399995,157.131424399995,158.9134345999919,158.9134345999919,158.9134345999919,158.9134345999919,158.9134345999919,158.9134345999919,158.9134345999919,59,61,69,39,69,70,158.9134345999919,160.64715559998876,,,,,,,,,,,,,,３４０,f,２２,2023-05-21_15h13.20.673,RL,2022.2.5,60.01205042415398,
61,39,59,65,0,23,23,23,,,,,,,,None,160.64715559998876,160.64715559998876,160.64715559998876,160.64715559998876,160.64715559998876,160.64715559998876,i,0.3790397999982815,161.05018349998863,161.05018349998863,161.05018349998863,161.05018349998863,161.05018349998863,161.05018349998863,161.33068089999142,162.36356850000448,162.36356850000448,162.36356850000448,162.36356850000448,162.36356850000448,162.36356850000448,162.347760500008,162.36356850000448,162.36356850000448,162.36356850000448,162.36356850000448,162.36356850000448,162.36356850000448,162.36356850000448,163.67864659999032,163.67864659999032,163.67864659999032,163.67864659999032,163.67864659999032,163.67864659999032,163.67864659999032,61,59,65,39,65,70,163.67864659999032,165.4465055000037,,,,,,,,,,,,,,３４０,f,２２,2023-05-21_15h13.20.673,RL,2022.2.5,60.01205042415398,
56,36,72,70,0,24,24,24,,,,,,,,None,165.4465055000037,165.4465055000037,165.4465055000037,165.4465055000037,165.4465055000037,165.4465055000037,i,0.3130012000037823,165.7828606000112,165.7828606000112,165.7828606000112,165.7828606000112,165.7828606000112,165.7828606000112,166.0632151000027,167.32971120000002,167.32971120000002,167.32971120000002,167.32971120000002,167.32971120000002,167.32971120000002,167.31325129998731,167.32971120000002,167.32971120000002,167.32971120000002,167.32971120000002,167.32971120000002,167.32971120000002,167.32971120000002,168.87825869998778,168.87825869998778,168.87825869998778,168.87825869998778,168.87825869998778,168.87825869998778,168.87825869998778,56,72,70,36,70,70,168.87825869998778,170.7624816999887,,,,,,,,,,,,,,３４０,f,２２,2023-05-21_15h13.20.673,RL,2022.2.5,60.01205042415398,
64,39,62,74,0,25,25,25,,,,,,,,None,170.7624816999887,170.7624816999887,170.7624816999887,170.7624816999887,170.7624816999887,170.7624816999887,i,0.3100939999858383,171.09579329998815,171.09579329998815,171.09579329998815,171.09579329998815,171.09579329998815,171.09579329998815,171.37918170000194,172.27899990000878,172.27899990000878,172.27899990000878,172.27899990000878,172.27899990000878,172.27899990000878,172.26240659999894,172.27899990000878,172.27899990000878,172.27899990000878,172.27899990000878,172.27899990000878,172.27899990000878,172.27899990000878,173.46083989998442,173.46083989998442,173.46083989998442,173.46083989998442,173.46083989998442,173.46083989998442,173.46083989998442,64,62,74,39,74,70,173.46083989998442,175.4280662999954,,,,,,,,,,,,,,３４０,f,２２,2023-05-21_15h13.20.673,RL,2022.2.5,60.01205042415398,
67,39,70,70,0,26,26,26,,,,,,,,None,175.4280662999954,175.4280662999954,175.4280662999954,175.4280662999954,175.4280662999954,175.4280662999954,i,0.37153740000212565,175.82892299999367,175.82892299999367,175.82892299999367,175.82892299999367,175.82892299999367,175.82892299999367,176.11227209999925,177.19490440000664,177.19490440000664,177.19490440000664,177.19490440000664,177.19490440000664,177.19490440000664,177.1780815999955,177.19490440000664,177.19490440000664,177.19490440000664,177.19490440000664,177.19490440000664,177.19490440000664,177.19490440000664,178.55971130001126,178.55971130001126,178.55971130001126,178.55971130001126,178.55971130001126,178.55971130001126,178.55971130001126,67,70,70,39,70,70,178.55971130001126,180.1441366999934,,,,,,,,,,,,,,３４０,f,２２,2023-05-21_15h13.20.673,RL,2022.2.5,60.01205042415398,
60,43,55,67,0,27,27,27,,,,,,,,None,180.1441366999934,180.1441366999934,180.1441366999934,180.1441366999934,180.1441366999934,180.1441366999934,i,0.30674820000422187,180.4776380000112,180.4776380000112,180.4776380000112,180.4776380000112,180.4776380000112,180.4776380000112,180.76057419998688,182.4273118999845,182.4273118999845,182.4273118999845,182.4273118999845,182.4273118999845,182.4273118999845,182.41050560001167,182.4273118999845,182.4273118999845,182.4273118999845,182.4273118999845,182.4273118999845,182.4273118999845,182.4273118999845,184.37501349998638,184.37501349998638,184.37501349998638,184.37501349998638,184.37501349998638,184.37501349998638,184.37501349998638,60,55,67,43,67,70,184.37501349998638,185.92628749998403,,,,,,,,,,,,,,３４０,f,２２,2023-05-21_15h13.20.673,RL,2022.2.5,60.01205042415398,
59,56,52,60,0,28,28,28,,,,,,,,None,185.92628749998403,185.92628749998403,185.92628749998403,185.92628749998403,185.92628749998403,185.92628749998403,i,0.3632408000121359,186.3108079000085,186.3108079000085,186.3108079000085,186.3108079000085,186.3108079000085,186.3108079000085,186.60977439998533,188.04308730000048,188.04308730000048,188.04308730000048,188.04308730000048,188.04308730000048,188.04308730000048,188.04308730000048,188.04308730000048,188.04308730000048,188.04308730000048,188.04308730000048,188.04308730000048,188.04308730000048,188.04308730000048,189.774751799996,189.774751799996,189.774751799996,189.774751799996,189.774751799996,189.774751799996,189.774751799996,59,52,60,56,60,70,189.774751799996,191.40871600000537,,,,,,,,,,,,,,３４０,f,２２,2023-05-21_15h13.20.673,RL,2022.2.5,60.01205042415398,
62,51,46,65,0,29,29,29,,,,,,,,None,191.40871600000537,191.40871600000537,191.40871600000537,191.40871600000537,191.40871600000537,191.40871600000537,i,0.31591340000159107,191.74252110000816,191.74252110000816,191.74252110000816,191.74252110000816,191.74252110000816,191.74252110000816,192.0253923999844,193.82510580000235,193.82510580000235,193.82510580000235,193.82510580000235,193.82510580000235,193.82510580000235,193.80843919998733,193.82510580000235,193.82510580000235,193.82510580000235,193.82510580000235,193.82510580000235,193.82510580000235,193.82510580000235,195.9066179000074,195.9066179000074,195.9066179000074,195.9066179000074,195.9066179000074,195.9066179000074,195.9066179000074,62,46,65,51,65,70,195.9066179000074,197.4242738999892,,,,,,,,,,,,,,３４０,f,２２,2023-05-21_15h13.20.673,RL,2022.2.5,60.01205042415398,
51,34,39,64,0,30,30,30,,,,,,,,None,197.4242738999892,197.4242738999892,197.4242738999892,197.4242738999892,197.4242738999892,197.4242738999892,i,0.4926481999864336,197.94276760000503,197.94276760000503,197.94276760000503,197.94276760000503,197.94276760000503,197.94276760000503,198.24167930000112,199.9740477000014,199.9740477000014,199.9740477000014,199.9740477000014,199.9740477000014,199.9740477000014,199.9740477000014,199.9740477000014,199.9740477000014,199.9740477000014,199.9740477000014,199.9740477000014,199.9740477000014,199.9740477000014,202.00543630000902,202.00543630000902,202.00543630000902,202.00543630000902,202.00543630000902,202.00543630000902,202.00543630000902,51,39,64,34,64,70,202.00543630000902,203.5228186000022,,,,,,,,,,,,,,３４０,f,２２,2023-05-21_15h13.20.673,RL,2022.2.5,60.01205042415398,
55,44,39,57,0,31,31,31,,,,,,,,None,203.5228186000022,203.5228186000022,203.5228186000022,203.5228186000022,203.5228186000022,203.5228186000022,i,0.33211190000292845,203.87377679999918,203.87377679999918,203.87377679999918,203.87377679999918,203.87377679999918,203.87377679999918,204.15659080000478,205.7563351999852,205.7563351999852,205.7563351999852,205.7563351999852,205.7563351999852,205.7563351999852,205.73979600000894,205.7563351999852,205.7563351999852,205.7563351999852,205.7563351999852,205.7563351999852,205.7563351999852,205.7563351999852,207.63767259998713,207.63767259998713,207.63767259998713,207.63767259998713,207.63767259998713,207.63767259998713,207.63767259998713,55,39,57,44,57,70,207.63767259998713,209.47195109998574,,,,,,,,,,,,,,３４０,f,２２,2023-05-21_15h13.20.673,RL,2022.2.5,60.01205042415398,
51,45,46,64,0,32,32,32,,,,,,,,None,209.47195109998574,209.47195109998574,209.47195109998574,209.47195109998574,209.47195109998574,209.47195109998574,r,0.385376999998698,209.89401839999482,209.89401839999482,209.89401839999482,209.89401839999482,209.89401839999482,209.89401839999482,210.1723617000098,211.8887080999848,211.8887080999848,211.8887080999848,211.8887080999848,211.8887080999848,211.8887080999848,211.87200440000743,211.8887080999848,211.8887080999848,211.8887080999848,211.8887080999848,211.8887080999848,211.8887080999848,211.8887080999848,213.8867074000009,213.8867074000009,213.8867074000009,213.8867074000009,213.8867074000009,213.8867074000009,213.8867074000009,51,46,64,45,46,70,213.8867074000009,215.57114260000526,,,,,,,,,,,,,,３４０,f,２２,2023-05-21_15h13.20.673,RL,2022.2.5,60.01205042415398,
57,48,38,78,0,33,33,33,,,,,,,,None,215.57114260000526,215.57114260000526,215.57114260000526,215.57114260000526,215.57114260000526,215.57114260000526,f,0.31181549999746494,215.90501889999723,215.90501889999723,215.90501889999723,215.90501889999723,215.90501889999723,215.90501889999723,216.1885253000073,217.02093810000224,217.02093810000224,217.02093810000224,217.02093810000224,217.02093810000224,217.02093810000224,217.00464299999294,217.02093810000224,217.02093810000224,217.02093810000224,217.02093810000224,217.02093810000224,217.02093810000224,217.02093810000224,218.1361145999981,218.1361145999981,218.1361145999981,218.1361145999981,218.1361145999981,218.1361145999981,218.1361145999981,57,38,78,48,57,70,218.1361145999981,220.07013420001022,,,,,,,,,,,,,,３４０,f,２２,2023-05-21_15h13.20.673,RL,2022.2.5,60.01205042415398,
56,40,40,60,0,34,34,34,,,,,,,,None,220.07013420001022,220.07013420001022,220.07013420001022,220.07013420001022,220.07013420001022,220.07013420001022,f,0.32612899999367073,220.42074269999284,220.42074269999284,220.42074269999284,220.42074269999284,220.42074269999284,220.42074269999284,220.7040194000001,221.97038240000256,221.97038240000256,221.97038240000256,221.97038240000256,221.97038240000256,221.97038240000256,221.95378609999898,221.97038240000256,221.97038240000256,221.97038240000256,221.97038240000256,221.97038240000256,221.97038240000256,221.97038240000256,223.51815029999125,223.51815029999125,223.51815029999125,223.51815029999125,223.51815029999125,223.51815029999125,223.51815029999125,56,40,60,40,56,70,223.51815029999125,225.36911930001224,,,,,,,,,,,,,,３４０,f,２２,2023-05-21_15h13.20.673,RL,2022.2.5,60.01205042415398,
60,38,41,57,0,35,35,35,,,,,,,,None,225.36911930001224,225.36911930001224,225.36911930001224,225.36911930001224,225.36911930001224,225.36911930001224,f,0.28837089997250587,225.6872469999944,225.6872469999944,225.6872469999944,225.6872469999944,225.6872469999944,225.6872469999944,225.98637979998603,227.46938739999314,227.46938739999314,227.46938739999314,227.46938739999314,227.46938739999314,227.46938739999314,227.46938739999314,227.46938739999314,227.46938739999314,227.46938739999314,227.46938739999314,227.46938739999314,227.46938739999314,227.46938739999314,229.25054969999474,229.25054969999474,229.25054969999474,229.25054969999474,229.25054969999474,229.25054969999474,229.25054969999474,60,41,57,38,60,70,229.25054969999474,231.23482139999396,,,,,,,,,,,,,,３４０,f,２２,2023-05-21_15h13.20.673,RL,2022.2.5,60.01205042415398,
50,41,39,63,0,36,36,36,,,,,,,,None,231.23482139999396,231.23482139999396,231.23482139999396,231.23482139999396,231.23482139999396,231.23482139999396,f,0.3292457000061404,231.58729699999094,231.58729699999094,231.58729699999094,231.58729699999094,231.58729699999094,231.58729699999094,231.86889799998607,233.71806970000034,233.71806970000034,233.71806970000034,233.71806970000034,233.71806970000034,233.71806970000034,233.7017121000099,233.71806970000034,233.71806970000034,233.71806970000034,233.71806970000034,233.71806970000034,233.71806970000034,233.71806970000034,235.84943480000948,235.84943480000948,235.84943480000948,235.84943480000948,235.84943480000948,235.84943480000948,235.84943480000948,50,39,63,41,50,70,235.84943480000948,237.5005702000053,,,,,,,,,,,,,,３４０,f,２２,2023-05-21_15h13.20.673,RL,2022.2.5,60.01205042415398,
50,44,41,68,0,37,37,37,,,,,,,,None,237.5005702000053,237.5005702000053,237.5005702000053,237.5005702000053,237.5005702000053,237.5005702000053,f,0.373060500016436,237.90181790001225,237.90181790001225,237.90181790001225,237.90181790001225,237.90181790001225,237.90181790001225,238.2009812000033,239.85055649999413,239.85055649999413,239.85055649999413,239.85055649999413,239.85055649999413,239.85055649999413,239.85055649999413,239.85055649999413,239.85055649999413,239.85055649999413,239.85055649999413,239.85055649999413,239.85055649999413,239.85055649999413,241.79870509999455,241.79870509999455,241.79870509999455,241.79870509999455,241.79870509999455,241.79870509999455,241.79870509999455,50,41,68,44,50,70,241.79870509999455,243.49958050000714,,,,,,,,,,,,,,３４０,f,２２,2023-05-21_15h13.20.673,RL,2022.2.5,60.01205042415398,
49,39,41,69,0,38,38,38,,,,,,,,None,243.49958050000714,243.49958050000714,243.49958050000714,243.49958050000714,243.49958050000714,243.49958050000714,f,0.7864475999958813,244.31810720000067,244.31810720000067,244.31810720000067,244.31810720000067,244.31810720000067,244.31810720000067,244.60024540001177,245.63306490000105,245.63306490000105,245.63306490000105,245.63306490000105,245.63306490000105,245.63306490000105,245.6163133000082,245.63306490000105,245.63306490000105,245.63306490000105,245.63306490000105,245.63306490000105,245.63306490000105,245.63306490000105,246.94737829998485,246.94737829998485,246.94737829998485,246.94737829998485,246.94737829998485,246.94737829998485,246.94737829998485,49,41,69,39,49,70,246.94737829998485,248.86501430001226,,,,,,,,,,,,,,３４０,f,２２,2023-05-21_15h13.20.673,RL,2022.2.5,60.01205042415398,
46,26,46,66,0,39,39,39,,,,,,,,None,248.86501430001226,248.86501430001226,248.86501430001226,248.86501430001226,248.86501430001226,248.86501430001226,i,0.3035516999952961,249.20014390000142,249.20014390000142,249.20014390000142,249.20014390000142,249.20014390000142,249.20014390000142,249.49902349998592,251.46503369999118,251.46503369999118,251.46503369999118,251.46503369999118,251.46503369999118,251.46503369999118,251.46503369999118,251.46503369999118,251.46503369999118,251.46503369999118,251.46503369999118,251.46503369999118,251.46503369999118,251.46503369999118,253.73005199999898,253.73005199999898,253.73005199999898,253.73005199999898,253.73005199999898,253.73005199999898,253.73005199999898,46,46,66,26,66,70,253.73005199999898,255.33075379999354,,,,,,,,,,,,,,３４０,f,２２,2023-05-21_15h13.20.673,RL,2022.2.5,60.01205042415398,
54,33,51,69,0,40,40,40,,,,,,,,None,255.33075379999354,255.33075379999354,255.33075379999354,255.33075379999354,255.33075379999354,255.33075379999354,i,0.3305170999956317,255.6820643999963,255.6820643999963,255.6820643999963,255.6820643999963,255.6820643999963,255.6820643999963,255.98114129999885,257.34797279999475,257.34797279999475,257.34797279999475,257.34797279999475,257.34797279999475,257.34797279999475,257.34797279999475,257.34797279999475,257.34797279999475,257.34797279999475,257.34797279999475,257.34797279999475,257.34797279999475,257.34797279999475,259.0125207999954,259.0125207999954,259.0125207999954,259.0125207999954,259.0125207999954,259.0125207999954,259.0125207999954,54,51,69,33,69,70,259.0125207999954,260.91341189999366,,,,,,,,,,,,,,３４０,f,２２,2023-05-21_15h13.20.673,RL,2022.2.5,60.01205042415398,
41,40,40,67,0,41,41,41,,,,,,,,None,260.91341189999366,260.91341189999366,260.91341189999366,260.91341189999366,260.91341189999366,260.91341189999366,i,0.33977199997752905,261.28326970001217,261.28326970001217,261.28326970001217,261.28326970001217,261.28326970001217,261.28326970001217,261.5638214999926,262.8132869999972,262.8132869999972,262.8132869999972,262.8132869999972,262.8132869999972,262.8132869999972,262.7799831999873,262.8132869999972,262.8132869999972,262.8132869999972,262.8132869999972,262.8132869999972,262.8132869999972,262.8132869999972,264.3281915000116,264.3281915000116,264.3281915000116,264.3281915000116,264.3281915000116,264.3281915000116,264.3281915000116,41,40,67,40,67,70,264.3281915000116,265.9956178999855,,,,,,,,,,,,,,３４０,f,２２,2023-05-21_15h13.20.673,RL,2022.2.5,60.01205042415398,
49,39,38,67,0,42,42,42,,,,,,,,None,265.9956178999855,265.9956178999855,265.9956178999855,265.9956178999855,265.9956178999855,265.9956178999855,i,0.38449880000553094,266.4181869000022,266.4181869000022,266.4181869000022,266.4181869000022,266.4181869000022,266.4181869000022,266.71268269998836,267.67918000000645,267.67918000000645,267.67918000000645,267.67918000000645,267.67918000000645,267.67918000000645,267.66281300000264,267.67918000000645,267.67918000000645,267.67918000000645,267.67918000000645,267.67918000000645,267.67918000000645,267.67918000000645,268.9272393999854,268.9272393999854,268.9272393999854,268.9272393999854,268.9272393999854,268.9272393999854,268.9272393999854,49,38,67,39,67,70,268.9272393999854,270.8448553000053,,,,,,,,,,,,,,３４０,f,２２,2023-05-21_15h13.20.673,RL,2022.2.5,60.01205042415398,
54,42,47,55,0,43,43,43,,,,,,,,None,270.8448553000053,270.8448553000053,270.8448553000053,270.8448553000053,270.8448553000053,270.8448553000053,i,0.3801876000070479,271.2468513000058,271.2468513000058,271.2468513000058,271.2468513000058,271.2468513000058,271.2468513000058,271.5285511999973,273.37794959999155,273.37794959999155,273.37794959999155,273.37794959999155,273.37794959999155,273.37794959999155,273.36166429999867,273.37794959999155,273.37794959999155,273.37794959999155,273.37794959999155,273.37794959999155,273.37794959999155,273.37794959999155,275.50936319999164,275.50936319999164,275.50936319999164,275.50936319999164,275.50936319999164,275.50936319999164,275.50936319999164,54,47,55,42,55,70,275.50936319999164,277.24391180000384,,,,,,,,,,,,,,３４０,f,２２,2023-05-21_15h13.20.673,RL,2022.2.5,60.01205042415398,
51,41,48,61,0,44,44,44,,,,,,,,None,277.24391180000384,277.24391180000384,277.24391180000384,277.24391180000384,277.24391180000384,277.24391180000384,i,0.3511780999833718,277.6316914999916,277.6316914999916,277.6316914999916,277.6316914999916,277.6316914999916,277.6316914999916,277.9109754000092,278.8102649000066,278.8102649000066,278.8102649000066,278.8102649000066,278.8102649000066,278.8102649000066,278.79367929999717,278.8102649000066,278.8102649000066,278.8102649000066,278.8102649000066,278.8102649000066,278.8102649000066,278.8102649000066,279.99197339999955,279.99197339999955,279.99197339999955,279.99197339999955,279.99197339999955,279.99197339999955,279.99197339999955,51,48,61,41,61,70,279.99197339999955,281.9596281000122,,,,,,,,,,,,,,３４０,f,２２,2023-05-21_15h13.20.673,RL,2022.2.5,60.01205042415398,
41,38,39,64,0,45,45,45,,,,,,,,None,281.9596281000122,281.9596281000122,281.9596281000122,281.9596281000122,281.9596281000122,281.9596281000122,i,0.5160034000000451,282.49503749998985,282.49503749998985,282.49503749998985,282.49503749998985,282.49503749998985,282.49503749998985,282.7766319999937,283.8429199999955,283.8429199999955,283.8429199999955,283.8429199999955,283.8429199999955,283.8429199999955,283.8267216999957,283.8429199999955,283.8429199999955,283.8429199999955,283.8429199999955,283.8429199999955,283.8429199999955,283.8429199999955,285.1909454000124,285.1909454000124,285.1909454000124,285.1909454000124,285.1909454000124,285.1909454000124,285.1909454000124,41,39,64,38,64,70,285.1909454000124,287.09199799998896,,,,,,,,,,,,,,３４０,f,２２,2023-05-21_15h13.20.673,RL,2022.2.5,60.01205042415398,
57,53,47,57,0,46,46,46,,,,,,,,None,287.09199799998896,287.09199799998896,287.09199799998896,287.09199799998896,287.09199799998896,287.09199799998896,i,0.31480029999511316,287.4260021999944,287.4260021999944,287.4260021999944,287.4260021999944,287.4260021999944,287.4260021999944,287.70905689999927,289.4919605999894,289.4919605999894,289.4919605999894,289.4919605999894,289.4919605999894,289.4919605999894,289.47506850000354,289.4919605999894,289.4919605999894,289.4919605999894,289.4919605999894,289.4919605999894,289.4919605999894,289.4919605999894,291.556461900007,291.556461900007,291.556461900007,291.556461900007,291.556461900007,291.556461900007,291.556461900007,57,47,57,53,57,70,291.556461900007,293.39121609998983,,,,,,,,,,,,,,３４０,f,２２,2023-05-21_15h13.20.673,RL,2022.2.5,60.01205042415398,
53,42,43,67,0,47,47,47,,,,,,,,None,293.39121609998983,293.39121609998983,293.39121609998983,293.39121609998983,293.39121609998983,293.39121609998983,i,0.615388999984134,294.0279012999963,294.0279012999963,294.0279012999963,294.0279012999963,294.0279012999963,294.0279012999963,294.32434900000226,295.8410426999908,295.8410426999908,295.8410426999908,295.8410426999908,295.8410426999908,295.8410426999908,295.8242118000053,295.8410426999908,295.8410426999908,295.8410426999908,295.8410426999908,295.8410426999908,295.8410426999908,295.8410426999908,297.6395072999876,297.6395072999876,297.6395072999876,297.6395072999876,297.6395072999876,297.6395072999876,297.6395072999876,53,43,67,42,67,70,297.6395072999876,299.4562416000117,,,,,,,,,,,,,,３４０,f,２２,2023-05-21_15h13.20.673,RL,2022.2.5,60.01205042415398,
50,46,45,65,0,48,48,48,,,,,,,,None,299.4562416000117,299.4562416000117,299.4562416000117,299.4562416000117,299.4562416000117,299.4562416000117,i,0.4624947000120301,299.9402066000039,299.9402066000039,299.9402066000039,299.9402066000039,299.9402066000039,299.9402066000039,300.2235876999912,301.37324240000453,301.37324240000453,301.37324240000453,301.37324240000453,301.37324240000453,301.37324240000453,301.3568321999919,301.37324240000453,301.37324240000453,301.37324240000453,301.37324240000453,301.37324240000453,301.37324240000453,301.37324240000453,302.80481470000814,302.80481470000814,302.80481470000814,302.80481470000814,302.80481470000814,302.80481470000814,302.80481470000814,50,45,65,46,65,70,302.80481470000814,304.6722646999988,,,,,,,,,,,,,,３４０,f,２２,2023-05-21_15h13.20.673,RL,2022.2.5,60.01205042415398,
51,48,37,63,0,49,49,49,,,,,,,,None,304.6722646999988,304.6722646999988,304.6722646999988,304.6722646999988,304.6722646999988,304.6722646999988,i,0.15172349999193102,304.86166409999714,304.86166409999714,304.86166409999714,304.86166409999714,304.86166409999714,304.86166409999714,305.139657599997,306.72212260001106,306.72212260001106,306.72212260001106,306.72212260001106,306.72212260001106,306.72212260001106,306.688763299986,306.72212260001106,306.72212260001106,306.72212260001106,306.72212260001106,306.72212260001106,306.72212260001106,306.72212260001106,308.5705866999924,308.5705866999924,308.5705866999924,308.5705866999924,308.5705866999924,308.5705866999924,308.5705866999924,51,37,63,48,63,70,308.5705866999924,310.33772929999395,,,,,,,,,,,,,,３４０,f,２２,2023-05-21_15h13.20.673,RL,2022.2.5,60.01205042415398,
56,50,43,67,0,50,50,50,,,,,,,,None,310.33772929999395,310.33772929999395,310.33772929999395,310.33772929999395,310.33772929999395,310.33772929999395,i,0.30236310002510436,310.674866699992,310.674866699992,310.674866699992,310.674866699992,310.674866699992,310.674866699992,310.954716200009,312.0715252000082,312.0715252000082,312.0715252000082,312.0715252000082,312.0715252000082,312.0715252000082,312.0546342000016,312.0715252000082,312.0715252000082,312.0715252000082,312.0715252000082,312.0715252000082,312.0715252000082,312.0715252000082,313.4699499999988,313.4699499999988,313.4699499999988,313.4699499999988,313.4699499999988,313.4699499999988,313.4699499999988,56,43,67,50,67,70,313.4699499999988,315.2536442000128,,,,,,,,,,,,,,３４０,f,２２,2023-05-21_15h13.20.673,RL,2022.2.5,60.01205042415398,
57,51,44,68,0,51,51,51,,,,,,,,None,315.2536442000128,315.2536442000128,315.2536442000128,315.2536442000128,315.2536442000128,315.2536442000128,i,0.6277393000200391,315.90410630000406,315.90410630000406,315.90410630000406,315.90410630000406,315.90410630000406,315.90410630000406,316.1874922999996,317.08739579998655,317.08739579998655,317.08739579998655,317.08739579998655,317.08739579998655,317.08739579998655,317.07030640001176,317.08739579998655,317.08739579998655,317.08739579998655,317.08739579998655,317.08739579998655,317.08739579998655,317.08739579998655,318.26858390000416,318.26858390000416,318.26858390000416,318.26858390000416,318.26858390000416,318.26858390000416,318.26858390000416,57,44,68,51,68,70,318.26858390000416,319.96974599998794,,,,,,,,,,,,,,３４０,f,２２,2023-05-21_15h13.20.673,RL,2022.2.5,60.01205042415398,
48,59,41,67,0,52,52,52,,,,,,,,None,319.96974599998794,319.96974599998794,319.96974599998794,319.96974599998794,319.96974599998794,319.96974599998794,i,0.38434140000026673,320.39319599999,320.39319599999,320.39319599999,320.39319599999,320.39319599999,320.39319599999,320.6698061999923,322.6528671999986,322.6528671999986,322.6528671999986,322.6528671999986,322.6528671999986,322.6528671999986,322.6362041000102,322.6528671999986,322.6528671999986,322.6528671999986,322.6528671999986,322.6528671999986,322.6528671999986,322.6528671999986,324.9175220000034,324.9175220000034,324.9175220000034,324.9175220000034,324.9175220000034,324.9175220000034,324.9175220000034,48,41,67,59,67,70,324.9175220000034,326.5853739999875,,,,,,,,,,,,,,３４０,f,２２,2023-05-21_15h13.20.673,RL,2022.2.5,60.01205042415398,
59,63,47,66,0,53,53,53,,,,,,,,None,326.5853739999875,326.5853739999875,326.5853739999875,326.5853739999875,326.5853739999875,326.5853739999875,i,0.3686308999895118,326.997904799995,326.997904799995,326.997904799995,326.997904799995,326.997904799995,326.997904799995,327.2685916000046,328.1851703999855,328.1851703999855,328.1851703999855,328.1851703999855,328.1851703999855,328.1851703999855,328.15174719999777,328.1851703999855,328.1851703999855,328.1851703999855,328.1851703999855,328.1851703999855,328.1851703999855,328.1851703999855,329.3665949999995,329.3665949999995,329.3665949999995,329.3665949999995,329.3665949999995,329.3665949999995,329.3665949999995,59,47,66,63,66,70,329.3665949999995,330.9843144000042,,,,,,,,,,,,,,３４０,f,２２,2023-05-21_15h13.20.673,RL,2022.2.5,60.01205042415398,
52,57,52,67,0,54,54,54,,,,,,,,None,330.9843144000042,330.9843144000042,330.9843144000042,330.9843144000042,330.9843144000042,330.9843144000042,i,0.5702306999883149,331.58711039999616,331.58711039999616,331.58711039999616,331.58711039999616,331.58711039999616,331.58711039999616,331.86834280000767,333.0513429999992,333.0513429999992,333.0513429999992,333.0513429999992,333.0513429999992,333.0513429999992,333.0345587999909,333.0513429999992,333.0513429999992,333.0513429999992,333.0513429999992,333.0513429999992,333.0513429999992,333.0513429999992,334.5158245000057,334.5158245000057,334.5158245000057,334.5158245000057,334.5158245000057,334.5158245000057,334.5158245000057,52,52,67,57,67,70,334.5158245000057,336.1998769000056,,,,,,,,,,,,,,３４０,f,２２,2023-05-21_15h13.20.673,RL,2022.2.5,60.01205042415398,
57,65,46,67,0,55,55,55,,,,,,,,None,336.1998769000056,336.1998769000056,336.1998769000056,336.1998769000056,336.1998769000056,336.1998769000056,i,0.3404623999958858,336.5696759999846,336.5696759999846,336.5696759999846,336.5696759999846,336.5696759999846,336.5696759999846,336.85050030000275,338.1169249000086,338.1169249000086,338.1169249000086,338.1169249000086,338.1169249000086,338.1169249000086,338.10014759999467,338.1169249000086,338.1169249000086,338.1169249000086,338.1169249000086,338.1169249000086,338.1169249000086,338.1169249000086,339.6651941000018,339.6651941000018,339.6651941000018,339.6651941000018,339.6651941000018,339.6651941000018,339.6651941000018,57,46,67,65,67,70,339.6651941000018,341.5488922999939,,,,,,,,,,,,,,３４０,f,２２,2023-05-21_15h13.20.673,RL,2022.2.5,60.01205042415398,
47,56,50,62,0,56,56,56,,,,,,,,None,341.5488922999939,341.5488922999939,341.5488922999939,341.5488922999939,341.5488922999939,341.5488922999939,i,0.3421876000065822,341.91655389999505,341.91655389999505,341.91655389999505,341.91655389999505,341.91655389999505,341.91655389999505,342.1997401000117,343.1659312999982,343.1659312999982,343.1659312999982,343.1659312999982,343.1659312999982,343.1659312999982,343.14955639999243,343.1659312999982,343.1659312999982,343.1659312999982,343.1659312999982,343.1659312999982,343.1659312999982,343.1659312999982,344.4140565000125,344.4140565000125,344.4140565000125,344.4140565000125,344.4140565000125,344.4140565000125,344.4140565000125,47,50,62,56,62,70,344.4140565000125,346.01542069998686,,,,,,,,,,,,,,３４０,f,２２,2023-05-21_15h13.20.673,RL,2022.2.5,60.01205042415398,
49,60,54,68,0,57,57,57,,,,,,,,None,346.01542069998686,346.01542069998686,346.01542069998686,346.01542069998686,346.01542069998686,346.01542069998686,i,0.5152545000019018,346.55093950001174,346.55093950001174,346.55093950001174,346.55093950001174,346.55093950001174,346.55093950001174,346.8322912000003,348.4704941000091,348.4704941000091,348.4704941000091,348.4704941000091,348.4704941000091,348.4704941000091,348.41504160000477,348.4704941000091,348.4704941000091,348.4704941000091,348.4704941000091,348.4704941000091,348.4704941000091,348.4704941000091,350.34668180000153,350.34668180000153,350.34668180000153,350.34668180000153,350.34668180000153,350.34668180000153,350.34668180000153,49,54,68,60,68,70,350.34668180000153,352.030986400001,,,,,,,,,,,,,,３４０,f,２２,2023-05-21_15h13.20.673,RL,2022.2.5,60.01205042415398,
52,64,48,60,0,58,58,58,,,,,,,,None,352.030986400001,352.030986400001,352.030986400001,352.030986400001,352.030986400001,352.030986400001,i,0.31146670001908205,352.3644718999858,352.3644718999858,352.3644718999858,352.3644718999858,352.3644718999858,352.3644718999858,352.647859699995,353.94745800000965,353.94745800000965,353.94745800000965,353.94745800000965,353.94745800000965,353.94745800000965,353.9311478000018,353.94745800000965,353.94745800000965,353.94745800000965,353.94745800000965,353.94745800000965,353.94745800000965,353.94745800000965,355.5286974000046,355.5286974000046,355.5286974000046,355.5286974000046,355.5286974000046,355.5286974000046,355.5286974000046,52,48,60,64,60,70,355.5286974000046,357.3632309999957,,,,,,,,,,,,,,３４０,f,２２,2023-05-21_15h13.20.673,RL,2022.2.5,60.01205042415398,
52,57,53,55,0,59,59,59,,,,,,,,None,357.3632309999957,357.3632309999957,357.3632309999957,357.3632309999957,357.3632309999957,357.3632309999957,i,0.6095159999968018,357.9969676999899,357.9969676999899,357.9969676999899,357.9969676999899,357.9969676999899,357.9969676999899,358.29672969999956,359.67957720000413,359.67957720000413,359.67957720000413,359.67957720000413,359.67957720000413,359.67957720000413,359.67957720000413,359.67957720000413,359.67957720000413,359.67957720000413,359.67957720000413,359.67957720000413,359.67957720000413,359.67957720000413,361.36114610001096,361.36114610001096,361.36114610001096,361.36114610001096,361.36114610001096,361.36114610001096,361.36114610001096,52,53,55,57,55,70,361.36114610001096,362.9290783999895,,,,,,,,,,,,,,３４０,f,２２,2023-05-21_15h13.20.673,RL,2022.2.5,60.01205042415398,
50,55,57,58,0,60,60,60,,,,,,,,None,362.9290783999895,362.9290783999895,362.9290783999895,362.9290783999895,362.9290783999895,362.9290783999895,i,0.41106449998915195,363.36261179999565,363.36261179999565,363.36261179999565,363.36261179999565,363.36261179999565,363.36261179999565,363.6461871000065,364.47890019998886,364.47890019998886,364.47890019998886,364.47890019998886,364.47890019998886,364.47890019998886,364.46230079999077,364.47890019998886,364.47890019998886,364.47890019998886,364.47890019998886,364.47890019998886,364.47890019998886,364.47890019998886,365.59362050000345,365.59362050000345,365.59362050000345,365.59362050000345,365.59362050000345,365.59362050000345,365.59362050000345,50,57,58,55,58,70,365.59362050000345,367.52805120000266,,,,,,,,,,,,,,３４０,f,２２,2023-05-21_15h13.20.673,RL,2022.2.5,60.01205042415398,
45,53,53,63,0,61,61,61,,,,,,,,None,367.52805120000266,367.52805120000266,367.52805120000266,367.52805120000266,367.52805120000266,367.52805120000266,i,0.328994799987413,367.8791828000103,367.8791828000103,367.8791828000103,367.8791828000103,367.8791828000103,367.8791828000103,368.17827699999907,369.9112616000057,369.9112616000057,369.9112616000057,369.9112616000057,369.9112616000057,369.9112616000057,369.9112616000057,369.9112616000057,369.9112616000057,369.9112616000057,369.9112616000057,369.9112616000057,369.9112616000057,369.9112616000057,371.9425620000111,371.9425620000111,371.9425620000111,371.9425620000111,371.9425620000111,371.9425620000111,371.9425620000111,45,53,63,53,63,70,371.9425620000111,373.8768333999906,,,,,,,,,,,,,,３４０,f,２２,2023-05-21_15h13.20.673,RL,2022.2.5,60.01205042415398,
49,55,40,62,0,62,62,62,,,,,,,,None,373.8768333999906,373.8768333999906,373.8768333999906,373.8768333999906,373.8768333999906,373.8768333999906,i,0.4666070999810472,374.36077199998545,374.36077199998545,374.36077199998545,374.36077199998545,374.36077199998545,374.36077199998545,374.6608123999904,376.5435058999865,376.5435058999865,376.5435058999865,376.5435058999865,376.5435058999865,376.5435058999865,376.5435058999865,376.5435058999865,376.5435058999865,376.5435058999865,376.5435058999865,376.5435058999865,376.5435058999865,376.5435058999865,378.7246072999842,378.7246072999842,378.7246072999842,378.7246072999842,378.7246072999842,378.7246072999842,378.7246072999842,49,40,62,55,62,70,378.7246072999842,380.42580389999785,,,,,,,,,,,,,,３４０,f,２２,2023-05-21_15h13.20.673,RL,2022.2.5,60.01205042415398,
65,60,40,64,0,63,63,63,,,,,,,,None,380.42580389999785,380.42580389999785,380.42580389999785,380.42580389999785,380.42580389999785,380.42580389999785,i,0.40137140001752414,380.8673115000129,380.8673115000129,380.8673115000129,380.8673115000129,380.8673115000129,380.8673115000129,381.1428886000067,383.1589859999949,383.1589859999949,383.1589859999949,383.1589859999949,383.1589859999949,383.1589859999949,383.1258619999862,383.1589859999949,383.1589859999949,383.1589859999949,383.1589859999949,383.1589859999949,383.1589859999949,383.1589859999949,385.44022530000075,385.44022530000075,385.44022530000075,385.44022530000075,385.44022530000075,385.44022530000075,385.44022530000075,65,40,64,60,64,70,385.44022530000075,387.02476229998865,,,,,,,,,,,,,,３４０,f,２２,2023-05-21_15h13.20.673,RL,2022.2.5,60.01205042415398,
51,48,49,64,0,64,64,64,,,,,,,,None,387.02476229998865,387.02476229998865,387.02476229998865,387.02476229998865,387.02476229998865,387.02476229998865,i,0.41076189998420887,387.45830219998606,387.45830219998606,387.45830219998606,387.45830219998606,387.45830219998606,387.45830219998606,387.74187820000225,389.4747340999893,389.4747340999893,389.4747340999893,389.4747340999893,389.4747340999893,389.4747340999893,389.45818009998766,389.4747340999893,389.4747340999893,389.4747340999893,389.4747340999893,389.4747340999893,389.4747340999893,389.4747340999893,391.4891500000085,391.4891500000085,391.4891500000085,391.4891500000085,391.4891500000085,391.4891500000085,391.4891500000085,51,49,64,48,64,70,391.4891500000085,393.47356370001216,,,,,,,,,,,,,,３４０,f,２２,2023-05-21_15h13.20.673,RL,2022.2.5,60.01205042415398,
52,49,37,63,0,65,65,65,,,,,,,,None,393.47356370001216,393.47356370001216,393.47356370001216,393.47356370001216,393.47356370001216,393.47356370001216,i,0.4124174000171479,393.90862629999174,393.90862629999174,393.90862629999174,393.90862629999174,393.90862629999174,393.90862629999174,394.19059969999944,396.2066330999951,396.2066330999951,396.2066330999951,396.2066330999951,396.2066330999951,396.2066330999951,396.1902194999857,396.2066330999951,396.2066330999951,396.2066330999951,396.2066330999951,396.2066330999951,396.2066330999951,396.2066330999951,398.4880406000011,398.4880406000011,398.4880406000011,398.4880406000011,398.4880406000011,398.4880406000011,398.4880406000011,52,37,63,49,63,70,398.4880406000011,400.3554606999969,,,,,,,,,,,,,,３４０,f,２２,2023-05-21_15h13.20.673,RL,2022.2.5,60.01205042415398,
51,53,45,60,0,66,66,66,,,,,,,,None,400.3554606999969,400.3554606999969,400.3554606999969,400.3554606999969,400.3554606999969,400.3554606999969,i,0.5859360999893397,400.9764656999905,400.9764656999905,400.9764656999905,400.9764656999905,400.9764656999905,400.9764656999905,401.2558694999898,402.3388876999961,402.3388876999961,402.3388876999961,402.3388876999961,402.3388876999961,402.3388876999961,402.3222428000008,402.3388876999961,402.3388876999961,402.3388876999961,402.3388876999961,402.3388876999961,402.3388876999961,402.3388876999961,403.6875131999841,403.6875131999841,403.6875131999841,403.6875131999841,403.6875131999841,403.6875131999841,403.6875131999841,51,45,60,53,60,70,403.6875131999841,405.221464000002,,,,,,,,,,,,,,３４０,f,２２,2023-05-21_15h13.20.673,RL,2022.2.5,60.01205042415398,
59,52,37,68,0,67,67,67,,,,,,,,None,405.221464000002,405.221464000002,405.221464000002,405.221464000002,405.221464000002,405.221464000002,i,0.599412499985192,405.8422642000078,405.8422642000078,405.8422642000078,405.8422642000078,405.8422642000078,405.8422642000078,406.1379575000028,407.4215266999963,407.4215266999963,407.4215266999963,407.4215266999963,407.4215266999963,407.4215266999963,407.4051244999864,407.4215266999963,407.4215266999963,407.4215266999963,407.4215266999963,407.4215266999963,407.4215266999963,407.4215266999963,408.9860042000073,408.9860042000073,408.9860042000073,408.9860042000073,408.9860042000073,408.9860042000073,408.9860042000073,59,37,68,52,68,70,408.9860042000073,410.6041922000004,,,,,,,,,,,,,,３４０,f,２２,2023-05-21_15h13.20.673,RL,2022.2.5,60.01205042415398,
52,54,39,57,0,68,68,68,,,,,,,,None,410.6041922000004,410.6041922000004,410.6041922000004,410.6041922000004,410.6041922000004,410.6041922000004,i,0.32896789998630993,410.95808589999797,410.95808589999797,410.95808589999797,410.95808589999797,410.95808589999797,410.95808589999797,411.23779730001115,412.08719319998636,412.08719319998636,412.08719319998636,412.08719319998636,412.08719319998636,412.08719319998636,412.07062879999285,412.08719319998636,412.08719319998636,412.08719319998636,412.08719319998636,412.08719319998636,412.08719319998636,412.08719319998636,413.21892610000214,413.21892610000214,413.21892610000214,413.21892610000214,413.21892610000214,413.21892610000214,413.21892610000214,52,39,57,54,57,70,413.21892610000214,415.2195819999906,,,,,,,,,,,,,,３４０,f,２２,2023-05-21_15h13.20.673,RL,2022.2.5,60.01205042415398,
52,56,27,60,0,69,69,69,,,,,,,,None,415.2195819999906,415.2195819999906,415.2195819999906,415.2195819999906,415.2195819999906,415.2195819999906,i,0.4124329000187572,415.6546856999921,415.6546856999921,415.6546856999921,415.6546856999921,415.6546856999921,415.6546856999921,415.95331240000087,417.0028808999923,417.0028808999923,417.0028808999923,417.0028808999923,417.0028808999923,417.0028808999923,417.0028808999923,417.0028808999923,417.0028808999923,417.0028808999923,417.0028808999923,417.0028808999923,417.0028808999923,417.0028808999923,418.35156129999086,418.35156129999086,418.35156129999086,418.35156129999086,418.35156129999086,418.35156129999086,418.35156129999086,52,27,60,56,60,70,418.35156129999086,419.9191460000002,,,,,,,,,,,,,,３４０,f,２２,2023-05-21_15h13.20.673,RL,2022.2.5,60.01205042415398,
56,52,39,65,0,70,70,70,,,,,,,,None,419.9191460000002,419.9191460000002,419.9191460000002,419.9191460000002,419.9191460000002,419.9191460000002,i,0.42470989999128506,420.3703547999903,420.3703547999903,420.3703547999903,420.3703547999903,420.3703547999903,420.3703547999903,420.65249569999287,422.58545149999554,422.58545149999554,422.58545149999554,422.58545149999554,422.58545149999554,422.58545149999554,422.5519409000117,422.58545149999554,422.58545149999554,422.58545149999554,422.58545149999554,422.58545149999554,422.58545149999554,422.58545149999554,424.78361670000595,424.78361670000595,424.78361670000595,424.78361670000595,424.78361670000595,424.78361670000595,424.78361670000595,56,39,65,52,65,70,424.78361670000595,426.4845193999936,,,,,,,,,,,,,,３４０,f,２２,2023-05-21_15h13.20.673,RL,2022.2.5,60.01205042415398,
50,53,35,58,0,71,71,71,,,,,,,,None,426.4845193999936,426.4845193999936,426.4845193999936,426.4845193999936,426.4845193999936,426.4845193999936,i,0.37554979999549687,426.8862344000081,426.8862344000081,426.8862344000081,426.8862344000081,426.8862344000081,426.8862344000081,427.1844832999923,428.56813050000346,428.56813050000346,428.56813050000346,428.56813050000346,428.56813050000346,428.56813050000346,428.56813050000346,428.56813050000346,428.56813050000346,428.56813050000346,428.56813050000346,428.56813050000346,428.56813050000346,428.56813050000346,430.24891500000376,430.24891500000376,430.24891500000376,430.24891500000376,430.24891500000376,430.24891500000376,430.24891500000376,50,35,58,53,58,70,430.24891500000376,432.20031799998833,,,,,,,,,,,,,,３４０,f,２２,2023-05-21_15h13.20.673,RL,2022.2.5,60.01205042415398,
49,48,41,66,0,72,72,72,,,,,,,,None,432.20031799998833,432.20031799998833,432.20031799998833,432.20031799998833,432.20031799998833,432.20031799998833,i,0.3978841000061948,432.6171272000065,432.6171272000065,432.6171272000065,432.6171272000065,432.6171272000065,432.6171272000065,432.91692099999636,433.94993239999167,433.94993239999167,433.94993239999167,433.94993239999167,433.94993239999167,433.94993239999167,433.94993239999167,433.94993239999167,433.94993239999167,433.94993239999167,433.94993239999167,433.94993239999167,433.94993239999167,433.94993239999167,435.2819412999961,435.2819412999961,435.2819412999961,435.2819412999961,435.2819412999961,435.2819412999961,435.2819412999961,49,41,66,48,66,70,435.2819412999961,437.11606450000545,,,,,,,,,,,,,,３４０,f,２２,2023-05-21_15h13.20.673,RL,2022.2.5,60.01205042415398,
48,55,35,64,0,73,73,73,,,,,,,,None,437.11606450000545,437.11606450000545,437.11606450000545,437.11606450000545,437.11606450000545,437.11606450000545,i,0.3954375000030268,437.5331071999972,437.5331071999972,437.5331071999972,437.5331071999972,437.5331071999972,437.5331071999972,437.81601619999856,439.7823700000008,439.7823700000008,439.7823700000008,439.7823700000008,439.7823700000008,439.7823700000008,439.76585669998894,439.7823700000008,439.7823700000008,439.7823700000008,439.7823700000008,439.7823700000008,439.7823700000008,439.7823700000008,442.03017380001256,442.03017380001256,442.03017380001256,442.03017380001256,442.03017380001256,442.03017380001256,442.03017380001256,48,35,64,55,64,70,442.03017380001256,443.7312869000016,,,,,,,,,,,,,,３４０,f,２２,2023-05-21_15h13.20.673,RL,2022.2.5,60.01205042415398,
59,53,43,55,0,74,74,74,,,,,,,,None,443.7312869000016,443.7312869000016,443.7312869000016,443.7312869000016,443.7312869000016,443.7312869000016,i,0.3274993000086397,444.081803100009,444.081803100009,444.081803100009,444.081803100009,444.081803100009,444.081803100009,444.3651875999931,446.1151394000044,446.1151394000044,446.1151394000044,446.1151394000044,446.1151394000044,446.1151394000044,446.0981827999931,446.1151394000044,446.1151394000044,446.1151394000044,446.1151394000044,446.1151394000044,446.1151394000044,446.1151394000044,448.1458868999907,448.1458868999907,448.1458868999907,448.1458868999907,448.1458868999907,448.1458868999907,448.1458868999907,59,43,55,53,55,70,448.1458868999907,449.6792872000078,,,,,,,,,,,,,,３４０,f,２２,2023-05-21_15h13.20.673,RL,2022.2.5,60.01205042415398,
50,53,38,61,0,75,75,75,,,,,,,,q,461.57841960000223,461.57841960000223,461.57841960000223,461.57841960000223,461.57841960000223,461.57841960000223,None,,,,,,,,,,,,,,,,,,,,,,,,,,,,,,50,38,61,53,0,70,469.0925336999935,470.92675449998933,449.6792872000078,449.6792872000078,6.854655300005106,456.56330420001177,456.56330420001177,461.57841960000223,461.57841960000223,463.08264479998616,469.0925336999935,,,,,３４０,f,２２,2023-05-21_15h13.20.673,RL,2022.2.5,60.01205042415398,
50,51,37,68,0,76,76,76,,,,,,,,None,470.92675449998933,470.92675449998933,470.92675449998933,470.92675449998933,470.92675449998933,470.92675449998933,r,0.37976770001114346,471.33382179998443,471.33382179998443,471.33382179998443,471.33382179998443,471.33382179998443,471.33382179998443,471.6271202999924,472.6932569000055,472.6932569000055,472.6932569000055,472.6932569000055,472.6932569000055,472.6932569000055,472.6770322000084,472.6932569000055,472.6932569000055,472.6932569000055,472.6932569000055,472.6932569000055,472.6932569000055,472.6932569000055,474.04153660000884,474.04153660000884,474.04153660000884,474.04153660000884,474.04153660000884,474.04153660000884,474.04153660000884,50,37,68,51,37,70,474.04153660000884,475.7757125000062,,,,,,,,,,,,,,３４０,f,２２,2023-05-21_15h13.20.673,RL,2022.2.5,60.01205042415398,
55,46,44,61,0,77,77,77,,,,,,,,None,475.7757125000062,475.7757125000062,475.7757125000062,475.7757125000062,475.7757125000062,475.7757125000062,j,0.3803038999903947,476.1792148000095,476.1792148000095,476.1792148000095,476.1792148000095,476.1792148000095,476.1792148000095,476.45936219999567,477.4257537999947,477.4257537999947,477.4257537999947,477.4257537999947,477.4257537999947,477.4257537999947,477.40915099999984,477.4257537999947,477.4257537999947,477.4257537999947,477.4257537999947,477.4257537999947,477.4257537999947,477.4257537999947,478.674041899998,478.674041899998,478.674041899998,478.674041899998,478.674041899998,478.674041899998,478.674041899998,55,44,61,46,46,70,478.674041899998,480.2084649000026,,,,,,,,,,,,,,３４０,f,２２,2023-05-21_15h13.20.673,RL,2022.2.5,60.01205042415398,
52,56,42,71,0,78,78,78,,,,,,,,None,480.2084649000026,480.2084649000026,480.2084649000026,480.2084649000026,480.2084649000026,480.2084649000026,f,0.47499419999076054,480.7087828000076,480.7087828000076,480.7087828000076,480.7087828000076,480.7087828000076,480.7087828000076,481.008488499996,482.70862069999566,482.70862069999566,482.70862069999566,482.70862069999566,482.70862069999566,482.70862069999566,482.70862069999566,482.70862069999566,482.70862069999566,482.70862069999566,482.70862069999566,482.70862069999566,482.70862069999566,482.70862069999566,484.7062491000106,484.7062491000106,484.7062491000106,484.7062491000106,484.7062491000106,484.7062491000106,484.7062491000106,52,42,71,56,52,70,484.7062491000106,486.57441629999084,,,,,,,,,,,,,,３４０,f,２２,2023-05-21_15h13.20.673,RL,2022.2.5,60.01205042415398,
61,44,47,64,0,79,79,79,,,,,,,,None,486.57441629999084,486.57441629999084,486.57441629999084,486.57441629999084,486.57441629999084,486.57441629999084,f,0.34580549999373034,486.9423328000121,486.9423328000121,486.9423328000121,486.9423328000121,486.9423328000121,486.9423328000121,487.2406704000023,488.9739651999844,488.9739651999844,488.9739651999844,488.9739651999844,488.9739651999844,488.9739651999844,488.9739651999844,488.9739651999844,488.9739651999844,488.9739651999844,488.9739651999844,488.9739651999844,488.9739651999844,488.9739651999844,491.00572879999527,491.00572879999527,491.00572879999527,491.00572879999527,491.00572879999527,491.00572879999527,491.00572879999527,61,47,64,44,61,70,491.00572879999527,492.6898116999946,,,,,,,,,,,,,,３４０,f,２２,2023-05-21_15h13.20.673,RL,2022.2.5,60.01205042415398,
55,56,49,66,0,80,80,80,,,,,,,,None,492.6898116999946,492.6898116999946,492.6898116999946,492.6898116999946,492.6898116999946,492.6898116999946,f,0.539216299977852,493.25892520000343,493.25892520000343,493.25892520000343,493.25892520000343,493.25892520000343,493.25892520000343,493.5396083999949,494.5896036000049,494.5896036000049,494.5896036000049,494.5896036000049,494.5896036000049,494.5896036000049,494.573417800013,494.5896036000049,494.5896036000049,494.5896036000049,494.5896036000049,494.5896036000049,494.5896036000049,494.5896036000049,495.92108500000904,495.92108500000904,495.92108500000904,495.92108500000904,495.92108500000904,495.92108500000904,495.92108500000904,55,49,66,56,55,70,495.92108500000904,497.5058010999928,,,,,,,,,,,,,,３４０,f,２２,2023-05-21_15h13.20.673,RL,2022.2.5,60.01205042415398,
57,49,38,67,0,81,81,81,,,,,,,,None,497.5058010999928,497.5058010999928,497.5058010999928,497.5058010999928,497.5058010999928,497.5058010999928,f,0.3788695000112057,497.9060872000118,497.9060872000118,497.9060872000118,497.9060872000118,497.9060872000118,497.9060872000118,498.18892849999247,499.68882710000616,499.68882710000616,499.68882710000616,499.68882710000616,499.68882710000616,499.68882710000616,499.6722170999856,499.68882710000616,499.68882710000616,499.68882710000616,499.68882710000616,499.68882710000616,499.68882710000616,499.68882710000616,501.4699862000125,501.4699862000125,501.4699862000125,501.4699862000125,501.4699862000125,501.4699862000125,501.4699862000125,57,38,67,49,57,70,501.4699862000125,503.4214217000117,,,,,,,,,,,,,,３４０,f,２２,2023-05-21_15h13.20.673,RL,2022.2.5,60.01205042415398,
51,62,28,73,0,82,82,82,,,,,,,,None,503.4214217000117,503.4214217000117,503.4214217000117,503.4214217000117,503.4214217000117,503.4214217000117,f,0.3776320999895688,503.8217514999851,503.8217514999851,503.8217514999851,503.8217514999851,503.8217514999851,503.8217514999851,504.1051993999863,505.1711476999917,505.1711476999917,505.1711476999917,505.1711476999917,505.1711476999917,505.1711476999917,505.1549052000046,505.1711476999917,505.1711476999917,505.1711476999917,505.1711476999917,505.1711476999917,505.1711476999917,505.1711476999917,506.5189223999914,506.5189223999914,506.5189223999914,506.5189223999914,506.5189223999914,506.5189223999914,506.5189223999914,51,28,73,62,51,70,506.5189223999914,508.3202377000125,,,,,,,,,,,,,,３４０,f,２２,2023-05-21_15h13.20.673,RL,2022.2.5,60.01205042415398,
48,63,42,64,0,83,83,83,,,,,,,,None,508.3202377000125,508.3202377000125,508.3202377000125,508.3202377000125,508.3202377000125,508.3202377000125,f,0.3773228000209201,508.7218171999848,508.7218171999848,508.7218171999848,508.7218171999848,508.7218171999848,508.7218171999848,509.02017770000384,510.4870089000033,510.4870089000033,510.4870089000033,510.4870089000033,510.4870089000033,510.4870089000033,510.4870089000033,510.4870089000033,510.4870089000033,510.4870089000033,510.4870089000033,510.4870089000033,510.4870089000033,510.4870089000033,512.2520314999856,512.2520314999856,512.2520314999856,512.2520314999856,512.2520314999856,512.2520314999856,512.2520314999856,48,42,64,63,48,70,512.2520314999856,513.8360912000062,,,,,,,,,,,,,,３４０,f,２２,2023-05-21_15h13.20.673,RL,2022.2.5,60.01205042415398,
53,54,38,70,0,84,84,84,,,,,,,,None,513.8360912000062,513.8360912000062,513.8360912000062,513.8360912000062,513.8360912000062,513.8360912000062,i,0.34625179998693056,514.2029394000128,514.2029394000128,514.2029394000128,514.2029394000128,514.2029394000128,514.2029394000128,514.5032053999894,515.5359070000122,515.5359070000122,515.5359070000122,515.5359070000122,515.5359070000122,515.5359070000122,515.5359070000122,515.5359070000122,515.5359070000122,515.5359070000122,515.5359070000122,515.5359070000122,515.5359070000122,515.5359070000122,516.8676753999898,516.8676753999898,516.8676753999898,516.8676753999898,516.8676753999898,516.8676753999898,516.8676753999898,53,38,70,54,70,70,516.8676753999898,518.7848969000042,,,,,,,,,,,,,,３４０,f,２２,2023-05-21_15h13.20.673,RL,2022.2.5,60.01205042415398,
49,54,23,64,0,85,85,85,,,,,,,,None,518.7848969000042,518.7848969000042,518.7848969000042,518.7848969000042,518.7848969000042,518.7848969000042,i,0.29165199998533353,519.102138599992,519.102138599992,519.102138599992,519.102138599992,519.102138599992,519.102138599992,519.3852990999876,521.101565799996,521.101565799996,521.101565799996,521.101565799996,521.101565799996,521.101565799996,521.0851375999919,521.101565799996,521.101565799996,521.101565799996,521.101565799996,521.101565799996,521.101565799996,521.101565799996,523.0997691999946,523.0997691999946,523.0997691999946,523.0997691999946,523.0997691999946,523.0997691999946,523.0997691999946,49,23,64,54,64,70,523.0997691999946,524.6342623000091,,,,,,,,,,,,,,３４０,f,２２,2023-05-21_15h13.20.673,RL,2022.2.5,60.01205042415398,
51,51,39,75,0,86,86,86,,,,,,,,None,524.6342623000091,524.6342623000091,524.6342623000091,524.6342623000091,524.6342623000091,524.6342623000091,i,0.33860260000801645,525.0025881000038,525.0025881000038,525.0025881000038,525.0025881000038,525.0025881000038,525.0025881000038,525.2842821000086,526.4839781000046,526.4839781000046,526.4839781000046,526.4839781000046,526.4839781000046,526.4839781000046,526.4671167999913,526.4839781000046,526.4839781000046,526.4839781000046,526.4839781000046,526.4839781000046,526.4839781000046,526.4839781000046,527.9655875999888,527.9655875999888,527.9655875999888,527.9655875999888,527.9655875999888,527.9655875999888,527.9655875999888,51,39,75,51,75,70,527.9655875999888,529.5329319000011,,,,,,,,,,,,,,３４０,f,２２,2023-05-21_15h13.20.673,RL,2022.2.5,60.01205042415398,
47,44,38,68,0,87,87,87,,,,,,,,None,529.5329319000011,529.5329319000011,529.5329319000011,529.5329319000011,529.5329319000011,529.5329319000011,i,0.47182150001754053,530.0336677999876,530.0336677999876,530.0336677999876,530.0336677999876,530.0336677999876,530.0336677999876,530.3165706,531.4664586999861,531.4664586999861,531.4664586999861,531.4664586999861,531.4664586999861,531.4664586999861,531.4496649999928,531.4664586999861,531.4664586999861,531.4664586999861,531.4664586999861,531.4664586999861,531.4664586999861,531.4664586999861,532.8979764000105,532.8979764000105,532.8979764000105,532.8979764000105,532.8979764000105,532.8979764000105,532.8979764000105,47,38,68,44,68,70,532.8979764000105,534.6822660999896,,,,,,,,,,,,,,３４０,f,２２,2023-05-21_15h13.20.673,RL,2022.2.5,60.01205042415398,
49,38,39,67,0,88,88,88,,,,,,,,None,534.6822660999896,534.6822660999896,534.6822660999896,534.6822660999896,534.6822660999896,534.6822660999896,i,0.4290727000043262,535.1332721000072,535.1332721000072,535.1332721000072,535.1332721000072,535.1332721000072,535.1332721000072,535.4328229000093,536.4322355999902,536.4322355999902,536.4322355999902,536.4322355999902,536.4322355999902,536.4322355999902,536.4322355999902,536.4322355999902,536.4322355999902,536.4322355999902,536.4322355999902,536.4322355999902,536.4322355999902,536.4322355999902,537.7301731999905,537.7301731999905,537.7301731999905,537.7301731999905,537.7301731999905,537.7301731999905,537.7301731999905,49,39,67,38,67,70,537.7301731999905,539.5648695999989,,,,,,,,,,,,,,３４０,f,２２,2023-05-21_15h13.20.673,RL,2022.2.5,60.01205042415398,
46,50,29,77,0,89,89,89,,,,,,,,None,539.5648695999989,539.5648695999989,539.5648695999989,539.5648695999989,539.5648695999989,539.5648695999989,i,0.33475429998361506,539.9399830999901,539.9399830999901,539.9399830999901,539.9399830999901,539.9399830999901,539.9399830999901,540.2150739000062,542.1645051999949,542.1645051999949,542.1645051999949,542.1645051999949,542.1645051999949,542.1645051999949,542.1311685999972,542.1645051999949,542.1645051999949,542.1645051999949,542.1645051999949,542.1645051999949,542.1645051999949,542.1645051999949,544.3792557999841,544.3792557999841,544.3792557999841,544.3792557999841,544.3792557999841,544.3792557999841,544.3792557999841,46,29,77,50,77,70,544.3792557999841,546.0303063000028,,,,,,,,,,,,,,３４０,f,２２,2023-05-21_15h13.20.673,RL,2022.2.5,60.01205042415398,
47,47,32,68,0,90,90,90,,,,,,,,None,546.0303063000028,546.0303063000028,546.0303063000028,546.0303063000028,546.0303063000028,546.0303063000028,i,0.2970779000024777,546.3472871000122,546.3472871000122,546.3472871000122,546.3472871000122,546.3472871000122,546.3472871000122,546.6476804999984,548.3308510000061,548.3308510000061,548.3308510000061,548.3308510000061,548.3308510000061,548.3308510000061,548.3308510000061,548.3308510000061,548.3308510000061,548.3308510000061,548.3308510000061,548.3308510000061,548.3308510000061,548.3308510000061,550.3113990999991,550.3113990999991,550.3113990999991,550.3113990999991,550.3113990999991,550.3113990999991,550.3113990999991,47,32,68,47,68,70,550.3113990999991,552.0956310000038,,,,,,,,,,,,,,３４０,f,２２,2023-05-21_15h13.20.673,RL,2022.2.5,60.01205042415398,
56,40,41,70,0,91,91,91,,,,,,,,None,552.0956310000038,552.0956310000038,552.0956310000038,552.0956310000038,552.0956310000038,552.0956310000038,i,0.3656755000120029,552.4813300000096,552.4813300000096,552.4813300000096,552.4813300000096,552.4813300000096,552.4813300000096,552.762939600012,554.4790329000098,554.4790329000098,554.4790329000098,554.4790329000098,554.4790329000098,554.4790329000098,554.4628219000006,554.4790329000098,554.4790329000098,554.4790329000098,554.4790329000098,554.4790329000098,554.4790329000098,554.4790329000098,556.4769036000071,556.4769036000071,556.4769036000071,556.4769036000071,556.4769036000071,556.4769036000071,556.4769036000071,56,41,70,40,70,70,556.4769036000071,558.4282347999979,,,,,,,,,,,,,,３４０,f,２２,2023-05-21_15h13.20.673,RL,2022.2.5,60.01205042415398,
67,48,36,62,0,92,92,92,,,,,,,,None,558.4282347999979,558.4282347999979,558.4282347999979,558.4282347999979,558.4282347999979,558.4282347999979,i,0.41428510000696406,558.8619088999985,558.8619088999985,558.8619088999985,558.8619088999985,558.8619088999985,558.8619088999985,559.1454368999985,560.3780980999873,560.3780980999873,560.3780980999873,560.3780980999873,560.3780980999873,560.3780980999873,560.361481800006,560.3780980999873,560.3780980999873,560.3780980999873,560.3780980999873,560.3780980999873,560.3780980999873,560.3780980999873,561.8929672999948,561.8929672999948,561.8929672999948,561.8929672999948,561.8929672999948,561.8929672999948,561.8929672999948,67,36,62,48,62,70,561.8929672999948,563.427082499984,,,,,,,,,,,,,,３４０,f,２２,2023-05-21_15h13.20.673,RL,2022.2.5,60.01205042415398,
54,40,38,61,0,93,93,93,,,,,,,,None,563.427082499984,563.427082499984,563.427082499984,563.427082499984,563.427082499984,563.427082499984,i,0.3753910000086762,563.8278031999944,563.8278031999944,563.8278031999944,563.8278031999944,563.8278031999944,563.8278031999944,564.1108028999879,565.6605077999993,565.6605077999993,565.6605077999993,565.6605077999993,565.6605077999993,565.6605077999993,565.6439986999903,565.6605077999993,565.6605077999993,565.6605077999993,565.6605077999993,565.6605077999993,565.6605077999993,565.6605077999993,567.4918431999977,567.4918431999977,567.4918431999977,567.4918431999977,567.4918431999977,567.4918431999977,567.4918431999977,54,38,61,40,61,70,567.4918431999977,569.1094740999979,,,,,,,,,,,,,,３４０,f,２２,2023-05-21_15h13.20.673,RL,2022.2.5,60.01205042415398,
60,44,26,69,0,94,94,94,,,,,,,,None,569.1094740999979,569.1094740999979,569.1094740999979,569.1094740999979,569.1094740999979,569.1094740999979,i,0.33208880000165664,569.4616356999904,569.4616356999904,569.4616356999904,569.4616356999904,569.4616356999904,569.4616356999904,569.7600588999921,571.1096535999968,571.1096535999968,571.1096535999968,571.1096535999968,571.1096535999968,571.1096535999968,571.1096535999968,571.1096535999968,571.1096535999968,571.1096535999968,571.1096535999968,571.1096535999968,571.1096535999968,571.1096535999968,572.7578481000091,572.7578481000091,572.7578481000091,572.7578481000091,572.7578481000091,572.7578481000091,572.7578481000091,60,26,69,44,69,70,572.7578481000091,574.6924876999983,,,,,,,,,,,,,,３４０,f,２２,2023-05-21_15h13.20.673,RL,2022.2.5,60.01205042415398,
63,49,16,63,0,95,95,95,,,,,,,,None,574.6924876999983,574.6924876999983,574.6924876999983,574.6924876999983,574.6924876999983,574.6924876999983,i,0.8183218000049237,575.5476761999889,575.5476761999889,575.5476761999889,575.5476761999889,575.5476761999889,575.5476761999889,575.825531999988,577.2917009000084,577.2917009000084,577.2917009000084,577.2917009000084,577.2917009000084,577.2917009000084,577.2586202000093,577.2917009000084,577.2917009000084,577.2917009000084,577.2917009000084,577.2917009000084,577.2917009000084,577.2917009000084,579.0229101000004,579.0229101000004,579.0229101000004,579.0229101000004,579.0229101000004,579.0229101000004,579.0229101000004,63,16,63,49,63,70,579.0229101000004,581.0243896000029,,,,,,,,,,,,,,３４０,f,２２,2023-05-21_15h13.20.673,RL,2022.2.5,60.01205042415398,
63,48,24,76,0,96,96,96,,,,,,,,None,581.0243896000029,581.0243896000029,581.0243896000029,581.0243896000029,581.0243896000029,581.0243896000029,i,0.4064020000223536,581.4580204999947,581.4580204999947,581.4580204999947,581.4580204999947,581.4580204999947,581.4580204999947,581.7411747000006,583.7075517000048,583.7075517000048,583.7075517000048,583.7075517000048,583.7075517000048,583.7075517000048,583.6909608999849,583.7075517000048,583.7075517000048,583.7075517000048,583.7075517000048,583.7075517000048,583.7075517000048,583.7075517000048,585.9551407000108,585.9551407000108,585.9551407000108,585.9551407000108,585.9551407000108,585.9551407000108,585.9551407000108,63,24,76,48,76,70,585.9551407000108,587.5729698000068,,,,,,,,,,,,,,３４０,f,２２,2023-05-21_15h13.20.673,RL,2022.2.5,60.01205042415398,
71,57,28,67,0,97,97,97,,,,,,,,None,587.5729698000068,587.5729698000068,587.5729698000068,587.5729698000068,587.5729698000068,587.5729698000068,i,0.44284570001764223,588.0440979000123,588.0440979000123,588.0440979000123,588.0440979000123,588.0440979000123,588.0440979000123,588.3400715999887,590.272896200011,590.272896200011,590.272896200011,590.272896200011,590.272896200011,590.272896200011,590.272896200011,590.272896200011,590.272896200011,590.272896200011,590.272896200011,590.272896200011,590.272896200011,590.272896200011,592.5041619999975,592.5041619999975,592.5041619999975,592.5041619999975,592.5041619999975,592.5041619999975,592.5041619999975,71,28,67,57,67,70,592.5041619999975,594.3887650000106,,,,,,,,,,,,,,３４０,f,２２,2023-05-21_15h13.20.673,RL,2022.2.5,60.01205042415398,
65,43,28,68,0,98,98,98,,,,,,,,None,594.3887650000106,594.3887650000106,594.3887650000106,594.3887650000106,594.3887650000106,594.3887650000106,i,0.5787109000084456,594.992231399985,594.992231399985,594.992231399985,594.992231399985,594.992231399985,594.992231399985,595.2721468000091,596.9717272999987,596.9717272999987,596.9717272999987,596.9717272999987,596.9717272999987,596.9717272999987,596.9550928999961,596.9717272999987,596.9717272999987,596.9717272999987,596.9717272999987,596.9717272999987,596.9717272999987,596.9717272999987,598.9533343999938,598.9533343999938,598.9533343999938,598.9533343999938,598.9533343999938,598.9533343999938,598.9533343999938,65,28,68,43,68,70,598.9533343999938,600.6541636000038,,,,,,,,,,,,,,３４０,f,２２,2023-05-21_15h13.20.673,RL,2022.2.5,60.01205042415398,
71,49,26,65,0,99,99,99,,,,,,,,None,600.6541636000038,600.6541636000038,600.6541636000038,600.6541636000038,600.6541636000038,600.6541636000038,i,1.1452256000193302,601.8210006000008,601.8210006000008,601.8210006000008,601.8210006000008,601.8210006000008,601.8210006000008,602.1211628000019,603.5378925999976,603.5378925999976,603.5378925999976,603.5378925999976,603.5378925999976,603.5378925999976,603.5378925999976,603.5378925999976,603.5378925999976,603.5378925999976,603.5378925999976,603.5378925999976,603.5378925999976,603.5378925999976,605.2521284999966,605.2521284999966,605.2521284999966,605.2521284999966,605.2521284999966,605.2521284999966,605.2521284999966,71,26,65,49,65,70,605.2521284999966,606.9862725999847,,,,,,,,,,,,,,３４０,f,２２,2023-05-21_15h13.20.673,RL,2022.2.5,60.01205042415398,
71,52,30,56,0,100,100,100,,,,,,,,None,606.9862725999847,606.9862725999847,606.9862725999847,606.9862725999847,606.9862725999847,606.9862725999847,i,0.41168359998846427,607.4232465999958,607.4232465999958,607.4232465999958,607.4232465999958,607.4232465999958,607.4232465999958,607.7031635000021,609.019703900005,609.019703900005,609.019703900005,609.019703900005,609.019703900005,609.019703900005,608.9866387000075,609.019703900005,609.019703900005,609.019703900005,609.019703900005,609.019703900005,609.019703900005,609.019703900005,610.6013357999909,610.6013357999909,610.6013357999909,610.6013357999909,610.6013357999909,610.6013357999909,610.6013357999909,71,30,56,52,56,70,610.6013357999909,612.2191495999868,,,,,,,,,,,,,,３４０,f,２２,2023-05-21_15h13.20.673,RL,2022.2.5,60.01205042415398,
59,50,32,63,0,101,101,101,,,,,,,,None,612.2191495999868,612.2191495999868,612.2191495999868,612.2191495999868,612.2191495999868,612.2191495999868,i,0.37192349997349083,612.6200364000106,612.6200364000106,612.6200364000106,612.6200364000106,612.6200364000106,612.6200364000106,612.9027859999915,613.8357729999989,613.8357729999989,613.8357729999989,613.8357729999989,613.8357729999989,613.8357729999989,613.819367499993,613.8357729999989,613.8357729999989,613.8357729999989,613.8357729999989,613.8357729999989,613.8357729999989,613.8357729999989,615.0504391999857,615.0504391999857,615.0504391999857,615.0504391999857,615.0504391999857,615.0504391999857,615.0504391999857,59,32,63,50,63,70,615.0504391999857,617.001887099992,,,,,,,,,,,,,,３４０,f,２２,2023-05-21_15h13.20.673,RL,2022.2.5,60.01205042415398,
58,61,30,56,0,102,102,102,,,,,,,,None,617.001887099992,617.001887099992,617.001887099992,617.001887099992,617.001887099992,617.001887099992,i,0.6670028000080492,617.7043027000036,617.7043027000036,617.7043027000036,617.7043027000036,617.7043027000036,617.7043027000036,617.9849001000111,619.6677170000039,619.6677170000039,619.6677170000039,619.6677170000039,619.6677170000039,619.6677170000039,619.6512084999995,619.6677170000039,619.6677170000039,619.6677170000039,619.6677170000039,619.6677170000039,619.6677170000039,619.6677170000039,621.632972499996,621.632972499996,621.632972499996,621.632972499996,621.632972499996,621.632972499996,621.632972499996,58,30,56,61,56,70,621.632972499996,623.5671742999984,,,,,,,,,,,,,,３４０,f,２２,2023-05-21_15h13.20.673,RL,2022.2.5,60.01205042415398,
60,58,27,67,0,103,103,103,,,,,,,,None,623.5671742999984,623.5671742999984,623.5671742999984,623.5671742999984,623.5671742999984,623.5671742999984,i,0.6052388999960385,624.2051968000014,624.2051968000014,624.2051968000014,624.2051968000014,624.2051968000014,624.2051968000014,624.4839614999946,625.5169128999987,625.5169128999987,625.5169128999987,625.5169128999987,625.5169128999987,625.5169128999987,625.4837657999888,625.5169128999987,625.5169128999987,625.5169128999987,625.5169128999987,625.5169128999987,625.5169128999987,625.5169128999987,626.814996400004,626.814996400004,626.814996400004,626.814996400004,626.814996400004,626.814996400004,626.814996400004,60,27,67,58,67,70,626.814996400004,628.7995464999985,,,,,,,,,,,,,,３４０,f,２２,2023-05-21_15h13.20.673,RL,2022.2.5,60.01205042415398,
63,59,29,67,0,104,104,104,,,,,,,,None,628.7995464999985,628.7995464999985,628.7995464999985,628.7995464999985,628.7995464999985,628.7995464999985,i,0.6580590000085067,629.4849428999878,629.4849428999878,629.4849428999878,629.4849428999878,629.4849428999878,629.4849428999878,629.7828688999871,631.3492782000103,631.3492782000103,631.3492782000103,631.3492782000103,631.3492782000103,631.3492782000103,631.3492782000103,631.3492782000103,631.3492782000103,631.3492782000103,631.3492782000103,631.3492782000103,631.3492782000103,631.3492782000103,633.2137377999898,633.2137377999898,633.2137377999898,633.2137377999898,633.2137377999898,633.2137377999898,633.2137377999898,63,29,67,59,67,70,633.2137377999898,635.1650101999985,,,,,,,,,,,,,,３４０,f,２２,2023-05-21_15h13.20.673,RL,2022.2.5,60.01205042415398,
66,59,40,65,0,105,105,105,,,,,,,,None,635.1650101999985,635.1650101999985,635.1650101999985,635.1650101999985,635.1650101999985,635.1650101999985,i,0.5126252000045497,635.700654299988,635.700654299988,635.700654299988,635.700654299988,635.700654299988,635.700654299988,635.9987894000078,637.2479791000078,637.2479791000078,637.2479791000078,637.2479791000078,637.2479791000078,637.2479791000078,637.2479791000078,637.2479791000078,637.2479791000078,637.2479791000078,637.2479791000078,637.2479791000078,637.2479791000078,637.2479791000078,638.7794626000104,638.7794626000104,638.7794626000104,638.7794626000104,638.7794626000104,638.7794626000104,638.7794626000104,66,40,65,59,65,70,638.7794626000104,640.5974637999898,,,,,,,,,,,,,,３４０,f,２２,2023-05-21_15h13.20.673,RL,2022.2.5,60.01205042415398,
66,68,34,67,0,106,106,106,,,,,,,,None,640.5974637999898,640.5974637999898,640.5974637999898,640.5974637999898,640.5974637999898,640.5974637999898,i,0.5373494999948889,641.1656346000091,641.1656346000091,641.1656346000091,641.1656346000091,641.1656346000091,641.1656346000091,641.4640357999888,643.2472191000124,643.2472191000124,643.2472191000124,643.2472191000124,643.2472191000124,643.2472191000124,643.2472191000124,643.2472191000124,643.2472191000124,643.2472191000124,643.2472191000124,643.2472191000124,643.2472191000124,643.2472191000124,645.3284077999997,645.3284077999997,645.3284077999997,645.3284077999997,645.3284077999997,645.3284077999997,645.3284077999997,66,34,67,68,67,70,645.3284077999997,646.8461342999944,,,,,,,,,,,,,,３４０,f,２２,2023-05-21_15h13.20.673,RL,2022.2.5,60.01205042415398,
57,51,29,62,0,107,107,107,,,,,,,,None,646.8461342999944,646.8461342999944,646.8461342999944,646.8461342999944,646.8461342999944,646.8461342999944,i,0.4799940999946557,647.3466503999953,647.3466503999953,647.3466503999953,647.3466503999953,647.3466503999953,647.3466503999953,647.6462210000027,649.5624329999846,649.5624329999846,649.5624329999846,649.5624329999846,649.5624329999846,649.5624329999846,649.5624329999846,649.5624329999846,649.5624329999846,649.5624329999846,649.5624329999846,649.5624329999846,649.5624329999846,649.5624329999846,651.7770980999921,651.7770980999921,651.7770980999921,651.7770980999921,651.7770980999921,651.7770980999921,651.7770980999921,57,29,62,51,62,70,651.7770980999921,653.3947859999898,,,,,,,,,,,,,,３４０,f,２２,2023-05-21_15h13.20.673,RL,2022.2.5,60.01205042415398,
64,61,36,65,0,108,108,108,,,,,,,,None,653.3947859999898,653.3947859999898,653.3947859999898,653.3947859999898,653.3947859999898,653.3947859999898,i,0.46077469998272136,653.8789074000088,653.8789074000088,653.8789074000088,653.8789074000088,653.8789074000088,653.8789074000088,654.1620256000024,655.8284905999899,655.8284905999899,655.8284905999899,655.8284905999899,655.8284905999899,655.8284905999899,655.8118253999855,655.8284905999899,655.8284905999899,655.8284905999899,655.8284905999899,655.8284905999899,655.8284905999899,655.8284905999899,657.7760866000026,657.7760866000026,657.7760866000026,657.7760866000026,657.7760866000026,657.7760866000026,657.7760866000026,64,36,65,61,65,70,657.7760866000026,659.6103721999971,,,,,,,,,,,,,,３４０,f,２２,2023-05-21_15h13.20.673,RL,2022.2.5,60.01205042415398,
66,62,23,69,0,109,109,109,,,,,,,,None,659.6103721999971,659.6103721999971,659.6103721999971,659.6103721999971,659.6103721999971,659.6103721999971,i,0.43018739999388345,660.0619889000081,660.0619889000081,660.0619889000081,660.0619889000081,660.0619889000081,660.0619889000081,660.3445190000057,661.7771438999916,661.7771438999916,661.7771438999916,661.7771438999916,661.7771438999916,661.7771438999916,661.7604060999874,661.7771438999916,661.7771438999916,661.7771438999916,661.7771438999916,661.7771438999916,661.7771438999916,661.7771438999916,663.4921998000063,663.4921998000063,663.4921998000063,663.4921998000063,663.4921998000063,663.4921998000063,663.4921998000063,66,23,69,62,69,70,663.4921998000063,665.4427032000094,,,,,,,,,,,,,,３４０,f,２２,2023-05-21_15h13.20.673,RL,2022.2.5,60.01205042415398,
64,47,34,64,0,110,110,110,,,,,,,,None,665.4427032000094,665.4427032000094,665.4427032000094,665.4427032000094,665.4427032000094,665.4427032000094,i,0.3242729000048712,665.7933641999844,665.7933641999844,665.7933641999844,665.7933641999844,665.7933641999844,665.7933641999844,666.0763589999988,667.2095788999868,667.2095788999868,667.2095788999868,667.2095788999868,667.2095788999868,667.2095788999868,667.1933410000056,667.2095788999868,667.2095788999868,667.2095788999868,667.2095788999868,667.2095788999868,667.2095788999868,667.2095788999868,668.6242426999961,668.6242426999961,668.6242426999961,668.6242426999961,668.6242426999961,668.6242426999961,668.6242426999961,64,34,64,47,64,70,668.6242426999961,670.2751859999844,,,,,,,,,,,,,,３４０,f,２２,2023-05-21_15h13.20.673,RL,2022.2.5,60.01205042415398,
61,58,28,64,0,111,111,111,,,,,,,,None,670.2751859999844,670.2751859999844,670.2751859999844,670.2751859999844,670.2751859999844,670.2751859999844,i,0.3306672000035178,670.6256473000103,670.6256473000103,670.6256473000103,670.6256473000103,670.6256473000103,670.6256473000103,670.9093109999958,672.1756698999961,672.1756698999961,672.1756698999961,672.1756698999961,672.1756698999961,672.1756698999961,672.1586091000063,672.1756698999961,672.1756698999961,672.1756698999961,672.1756698999961,672.1756698999961,672.1756698999961,672.1756698999961,673.7234204999986,673.7234204999986,673.7234204999986,673.7234204999986,673.7234204999986,673.7234204999986,673.7234204999986,61,28,64,58,64,70,673.7234204999986,675.2413293999853,,,,,,,,,,,,,,３４０,f,２２,2023-05-21_15h13.20.673,RL,2022.2.5,60.01205042415398,
59,46,34,62,0,112,112,112,,,,,,,,None,675.2413293999853,675.2413293999853,675.2413293999853,675.2413293999853,675.2413293999853,675.2413293999853,i,0.47914869998930953,675.7429618999886,675.7429618999886,675.7429618999886,675.7429618999886,675.7429618999886,675.7429618999886,676.0247663999908,677.1914555999974,677.1914555999974,677.1914555999974,677.1914555999974,677.1914555999974,677.1914555999974,677.175081399997,677.1914555999974,677.1914555999974,677.1914555999974,677.1914555999974,677.1914555999974,677.1914555999974,677.1914555999974,678.6391131999844,678.6391131999844,678.6391131999844,678.6391131999844,678.6391131999844,678.6391131999844,678.6391131999844,59,34,62,46,62,70,678.6391131999844,680.5569738000049,,,,,,,,,,,,,,３４０,f,２２,2023-05-21_15h13.20.673,RL,2022.2.5,60.01205042415398,
68,63,28,66,0,113,113,113,,,,,,,,None,680.5569738000049,680.5569738000049,680.5569738000049,680.5569738000049,680.5569738000049,680.5569738000049,i,0.37631819999660365,680.958500400011,680.958500400011,680.958500400011,680.958500400011,680.958500400011,680.958500400011,681.2403462000075,682.6404032999999,682.6404032999999,682.6404032999999,682.6404032999999,682.6404032999999,682.6404032999999,682.6236672000086,682.6404032999999,682.6404032999999,682.6404032999999,682.6404032999999,682.6404032999999,682.6404032999999,682.6404032999999,684.3216250000114,684.3216250000114,684.3216250000114,684.3216250000114,684.3216250000114,684.3216250000114,684.3216250000114,68,28,66,63,66,70,684.3216250000114,686.0726490000088,,,,,,,,,,,,,,３４０,f,２２,2023-05-21_15h13.20.673,RL,2022.2.5,60.01205042415398,
62,51,21,61,0,114,114,114,,,,,,,,None,686.0726490000088,686.0726490000088,686.0726490000088,686.0726490000088,686.0726490000088,686.0726490000088,i,0.4682446999941021,686.574406700005,686.574406700005,686.574406700005,686.574406700005,686.574406700005,686.574406700005,686.8559974000091,688.17246229999,688.17246229999,688.17246229999,688.17246229999,688.17246229999,688.17246229999,688.1558802000072,688.17246229999,688.17246229999,688.17246229999,688.17246229999,688.17246229999,688.17246229999,688.17246229999,689.7705263000098,689.7705263000098,689.7705263000098,689.7705263000098,689.7705263000098,689.7705263000098,689.7705263000098,62,21,61,51,61,70,689.7705263000098,691.6215185000037,,,,,,,,,,,,,,３４０,f,２２,2023-05-21_15h13.20.673,RL,2022.2.5,60.01205042415398,
68,46,25,68,0,115,115,115,,,,,,,,None,691.6215185000037,691.6215185000037,691.6215185000037,691.6215185000037,691.6215185000037,691.6215185000037,i,0.3972068000002764,692.0396028000105,692.0396028000105,692.0396028000105,692.0396028000105,692.0396028000105,692.0396028000105,692.3219675,693.8880915000045,693.8880915000045,693.8880915000045,693.8880915000045,693.8880915000045,693.8880915000045,693.8552933000028,693.8880915000045,693.8880915000045,693.8880915000045,693.8880915000045,693.8880915000045,693.8880915000045,693.8880915000045,695.7195118000091,695.7195118000091,695.7195118000091,695.7195118000091,695.7195118000091,695.7195118000091,695.7195118000091,68,25,68,46,68,70,695.7195118000091,697.3374683999864,,,,,,,,,,,,,,３４０,f,２２,2023-05-21_15h13.20.673,RL,2022.2.5,60.01205042415398,
60,54,27,69,0,116,116,116,,,,,,,,None,697.3374683999864,697.3374683999864,697.3374683999864,697.3374683999864,697.3374683999864,697.3374683999864,i,0.423300599999493,697.7876729000127,697.7876729000127,697.7876729000127,697.7876729000127,697.7876729000127,697.7876729000127,698.0708586999972,699.2706962999946,699.2706962999946,699.2706962999946,699.2706962999946,699.2706962999946,699.2706962999946,699.2540753000067,699.2706962999946,699.2706962999946,699.2706962999946,699.2706962999946,699.2706962999946,699.2706962999946,699.2706962999946,700.7518141999899,700.7518141999899,700.7518141999899,700.7518141999899,700.7518141999899,700.7518141999899,700.7518141999899,60,27,69,54,69,70,700.7518141999899,702.3195925999898,,,,,,,,,,,,,,３４０,f,２２,2023-05-21_15h13.20.673,RL,2022.2.5,60.01205042415398,
65,45,31,63,0,117,117,117,,,,,,,,None,702.3195925999898,702.3195925999898,702.3195925999898,702.3195925999898,702.3195925999898,702.3195925999898,i,0.365548800007673,702.7049836000078,702.7049836000078,702.7049836000078,702.7049836000078,702.7049836000078,702.7049836000078,703.0032369999972,704.7030565000023,704.7030565000023,704.7030565000023,704.7030565000023,704.7030565000023,704.7030565000023,704.7030565000023,704.7030565000023,704.7030565000023,704.7030565000023,704.7030565000023,704.7030565000023,704.7030565000023,704.7030565000023,706.7008455999894,706.7008455999894,706.7008455999894,706.7008455999894,706.7008455999894,706.7008455999894,706.7008455999894,65,31,63,45,63,70,706.7008455999894,708.2690602999937,,,,,,,,,,,,,,３４０,f,２２,2023-05-21_15h13.20.673,RL,2022.2.5,60.01205042415398,
69,53,30,63,0,118,118,118,,,,,,,,None,708.2690602999937,708.2690602999937,708.2690602999937,708.2690602999937,708.2690602999937,708.2690602999937,i,0.6348360999836586,708.9372582999931,708.9372582999931,708.9372582999931,708.9372582999931,708.9372582999931,708.9372582999931,709.2192674000107,710.4686241000018,710.4686241000018,710.4686241000018,710.4686241000018,710.4686241000018,710.4686241000018,710.4520661999995,710.4686241000018,710.4686241000018,710.4686241000018,710.4686241000018,710.4686241000018,710.4686241000018,710.4686241000018,712.0002988000051,712.0002988000051,712.0002988000051,712.0002988000051,712.0002988000051,712.0002988000051,712.0002988000051,69,30,63,53,63,70,712.0002988000051,713.8841268999968,,,,,,,,,,,,,,３４０,f,２２,2023-05-21_15h13.20.673,RL,2022.2.5,60.01205042415398,
58,57,19,58,0,119,119,119,,,,,,,,None,713.8841268999968,713.8841268999968,713.8841268999968,713.8841268999968,713.8841268999968,713.8841268999968,i,1.13685660000192,715.0538108999899,715.0538108999899,715.0538108999899,715.0538108999899,715.0538108999899,715.0538108999899,715.3347660999862,716.2009751999867,716.2009751999867,716.2009751999867,716.2009751999867,716.2009751999867,716.2009751999867,716.1842490999843,716.2009751999867,716.2009751999867,716.2009751999867,716.2009751999867,716.2009751999867,716.2009751999867,716.2009751999867,717.3488531000039,717.3488531000039,717.3488531000039,717.3488531000039,717.3488531000039,717.3488531000039,717.3488531000039,58,19,58,57,58,70,717.3488531000039,718.9838494999858,,,,,,,,,,,,,,３４０,f,２２,2023-05-21_15h13.20.673,RL,2022.2.5,60.01205042415398,
50,53,37,50,0,120,120,120,,,,,,,,None,718.9838494999858,718.9838494999858,718.9838494999858,718.9838494999858,718.9838494999858,718.9838494999858,i,0.46401769999647513,719.4673558000068,719.4673558000068,719.4673558000068,719.4673558000068,719.4673558000068,719.4673558000068,719.7509074000118,721.0001011999848,721.0001011999848,721.0001011999848,721.0001011999848,721.0001011999848,721.0001011999848,720.9834961000015,721.0001011999848,721.0001011999848,721.0001011999848,721.0001011999848,721.0001011999848,721.0001011999848,721.0001011999848,722.531759400008,722.531759400008,722.531759400008,722.531759400008,722.531759400008,722.531759400008,722.531759400008,50,37,50,53,50,70,722.531759400008,724.5159440999851,,,,,,,,,,,,,,３４０,f,２２,2023-05-21_15h13.20.673,RL,2022.2.5,60.01205042415398,
60,56,39,55,0,121,121,121,,,,,,,,None,724.5159440999851,724.5159440999851,724.5159440999851,724.5159440999851,724.5159440999851,724.5159440999851,i,0.28853869999875315,724.8347001000075,724.8347001000075,724.8347001000075,724.8347001000075,724.8347001000075,724.8347001000075,725.1164270000008,727.0323143999849,727.0323143999849,727.0323143999849,727.0323143999849,727.0323143999849,727.0323143999849,727.0161724000063,727.0323143999849,727.0323143999849,727.0323143999849,727.0323143999849,727.0323143999849,727.0323143999849,727.0323143999849,729.230427100003,729.230427100003,729.230427100003,729.230427100003,729.230427100003,729.230427100003,729.230427100003,60,39,55,56,55,70,729.230427100003,730.8149846000015,,,,,,,,,,,,,,３４０,f,２２,2023-05-21_15h13.20.673,RL,2022.2.5,60.01205042415398,
