arm1,arm2,arm3,arm4,trials.thisRepN,trials.thisTrialN,trials.thisN,trials.thisIndex,instru_img1.started,instru_resp.started,instru_resp.keys,instru_resp.rt,image_2.started,text_2.started,image_2.stopped,text_2.stopped,fixbefore_2.started,fixbefore_2.stopped,rest_response.keys,red.started,green.started,yellow.started,blue.started,choose_bandit.started,Fixation.started,choose_bandit.keys,choose_bandit.rt,black.started,red_2.started,green_2.started,yellow_2.started,blue_2.started,fixation_2.started,docs.started,docs.stopped,black.stopped,red_2.stopped,green_2.stopped,yellow_2.stopped,blue_2.stopped,fixation_2.stopped,black_com.started,reward_sub.started,reward__sub.started,red_compare.started,green_com.started,yellow_com.started,blue_com.started,black_com.stopped,reward_sub.stopped,reward__sub.stopped,red_compare.stopped,green_com.stopped,yellow_com.stopped,blue_com.stopped,rewardred,rewardyellow,rewardblue,rewardgreen,subchoose,expectation,intertrialfix.started,intertrialfix.stopped,rest_image.started,rest_response.started,rest_response.rt,image_expect_after.started,text_exp_after.started,image_expect_after.stopped,text_exp_after.stopped,image.started,key_resp.started,key_resp.keys,key_resp.rt,participant,Gender,Age,date,expName,psychopyVersion,frameRate,
,,,,,,,,11.59395450001466,11.59395450001466,space,7.164578600000823,,,,,,,,,,,,,,,,,,,,,,,,,,,,,,,,,,,,,,,,,,,,,,,,,,,,,,,,,,,,,,,３４１,f,１９,2023-05-21_15h37.40.886,RL,2022.2.5,60.192809600810406,
26,48,57,68,0,0,0,0,,,,,18.77734810000402,18.77734810000402,23.777114500000607,23.777114500000607,23.777114500000607,24.78024429999641,None,24.78024429999641,24.78024429999641,24.78024429999641,24.78024429999641,24.78024429999641,24.78024429999641,j,0.382293300004676,25.199480000010226,25.199480000010226,25.199480000010226,25.199480000010226,25.199480000010226,25.199480000010226,25.478185300016776,26.877673000009963,26.895739800005686,26.895739800005686,26.895739800005686,26.895739800005686,26.895739800005686,26.895739800005686,26.895739800005686,26.895739800005686,26.895739800005686,26.895739800005686,26.895739800005686,26.895739800005686,26.895739800005686,28.641368500015233,28.641368500015233,28.641368500015233,28.641368500015233,28.641368500015233,28.641368500015233,28.641368500015233,57,68,48,26,26,60,28.641368500015233,30.56055419999757,,,,,,,,,,,,３４１,f,１９,2023-05-21_15h37.40.886,RL,2022.2.5,60.192809600810406,
30,53,55,68,0,1,1,1,,,,,,,,,,,None,30.56055419999757,30.56055419999757,30.56055419999757,30.56055419999757,30.56055419999757,30.56055419999757,f,0.2933660999988206,30.879039299994474,30.879039299994474,30.879039299994474,30.879039299994474,30.879039299994474,30.879039299994474,31.177451499999734,32.293811100011226,32.293811100011226,32.293811100011226,32.293811100011226,32.293811100011226,32.293811100011226,32.293811100011226,32.293811100011226,32.293811100011226,32.293811100011226,32.293811100011226,32.293811100011226,32.293811100011226,32.293811100011226,33.708619100012584,33.708619100012584,33.708619100012584,33.708619100012584,33.708619100012584,33.708619100012584,33.708619100012584,55,68,53,30,55,60,33.708619100012584,35.592880800017156,,,,,,,,,,,,３４１,f,１９,2023-05-21_15h37.40.886,RL,2022.2.5,60.192809600810406,
35,64,55,75,0,2,2,2,,,,,,,,,,,None,35.592880800017156,35.592880800017156,35.592880800017156,35.592880800017156,35.592880800017156,35.592880800017156,r,0.29282649999368005,35.910408600000665,35.910408600000665,35.910408600000665,35.910408600000665,35.910408600000665,35.910408600000665,36.193248600000516,38.159528899996076,38.176133700006176,38.176133700006176,38.176133700006176,38.176133700006176,38.176133700006176,38.176133700006176,38.176133700006176,38.176133700006176,38.176133700006176,38.176133700006176,38.176133700006176,38.176133700006176,38.176133700006176,40.44080720000784,40.44080720000784,40.44080720000784,40.44080720000784,40.44080720000784,40.44080720000784,40.44080720000784,55,75,64,35,75,60,40.44080720000784,42.275602900015656,,,,,,,,,,,,３４１,f,１９,2023-05-21_15h37.40.886,RL,2022.2.5,60.192809600810406,
33,55,52,70,0,3,3,3,,,,,,,,,,,None,42.275602900015656,42.275602900015656,42.275602900015656,42.275602900015656,42.275602900015656,42.275602900015656,i,0.2629319000116084,42.56305630001589,42.56305630001589,42.56305630001589,42.56305630001589,42.56305630001589,42.56305630001589,42.85861200001091,44.208653400011826,44.208653400011826,44.208653400011826,44.208653400011826,44.208653400011826,44.208653400011826,44.208653400011826,44.208653400011826,44.208653400011826,44.208653400011826,44.208653400011826,44.208653400011826,44.208653400011826,44.208653400011826,45.85666580000543,45.85666580000543,45.85666580000543,45.85666580000543,45.85666580000543,45.85666580000543,45.85666580000543,52,70,55,33,55,60,45.85666580000543,47.54059380001854,,,,,,,,,,,,３４１,f,１９,2023-05-21_15h37.40.886,RL,2022.2.5,60.192809600810406,
31,53,49,67,0,4,4,4,,,,,,,,,,,None,47.54059380001854,47.54059380001854,47.54059380001854,47.54059380001854,47.54059380001854,47.54059380001854,f,0.32780080000520684,47.893800899997586,47.893800899997586,47.893800899997586,47.893800899997586,47.893800899997586,47.893800899997586,48.17437350002001,49.024778099992545,49.040561500005424,49.040561500005424,49.040561500005424,49.040561500005424,49.040561500005424,49.040561500005424,49.040561500005424,49.040561500005424,49.040561500005424,49.040561500005424,49.040561500005424,49.040561500005424,49.040561500005424,50.18908390001161,50.18908390001161,50.18908390001161,50.18908390001161,50.18908390001161,50.18908390001161,50.18908390001161,49,67,53,31,49,60,50.18908390001161,52.123548900010064,,,,,,,,,,,,３４１,f,１９,2023-05-21_15h37.40.886,RL,2022.2.5,60.192809600810406,
24,65,53,61,0,5,5,5,,,,,,,,,,,None,52.123548900010064,52.123548900010064,52.123548900010064,52.123548900010064,52.123548900010064,52.123548900010064,f,0.34046949999174103,52.49084720000974,52.49084720000974,52.49084720000974,52.49084720000974,52.49084720000974,52.49084720000974,52.77341769999475,54.389852299995255,54.4062794999918,54.4062794999918,54.4062794999918,54.4062794999918,54.4062794999918,54.4062794999918,54.4062794999918,54.4062794999918,54.4062794999918,54.4062794999918,54.4062794999918,54.4062794999918,54.4062794999918,56.32137170000351,56.32137170000351,56.32137170000351,56.32137170000351,56.32137170000351,56.32137170000351,56.32137170000351,53,61,65,24,53,60,56.32137170000351,58.188763300015125,,,,,,,,,,,,３４１,f,１９,2023-05-21_15h37.40.886,RL,2022.2.5,60.192809600810406,
12,58,47,67,0,6,6,6,,,,,,,,,,,None,58.188763300015125,58.188763300015125,58.188763300015125,58.188763300015125,58.188763300015125,58.188763300015125,r,0.27740629998152144,58.490812100004405,58.490812100004405,58.490812100004405,58.490812100004405,58.490812100004405,58.490812100004405,58.78938130001188,59.72259170000325,59.72259170000325,59.72259170000325,59.72259170000325,59.72259170000325,59.72259170000325,59.72259170000325,59.72259170000325,59.72259170000325,59.72259170000325,59.72259170000325,59.72259170000325,59.72259170000325,59.72259170000325,60.95395270001609,60.95395270001609,60.95395270001609,60.95395270001609,60.95395270001609,60.95395270001609,60.95395270001609,47,67,58,12,67,60,60.95395270001609,62.67206710000755,,,,,,,,,,,,３４１,f,１９,2023-05-21_15h37.40.886,RL,2022.2.5,60.192809600810406,
19,65,54,62,0,7,7,7,,,,,,,,,,,None,62.67206710000755,62.67206710000755,62.67206710000755,62.67206710000755,62.67206710000755,62.67206710000755,r,0.3788811000122223,63.07345300001907,63.07345300001907,63.07345300001907,63.07345300001907,63.07345300001907,63.07345300001907,63.37160640000366,64.22124220000114,64.22124220000114,64.22124220000114,64.22124220000114,64.22124220000114,64.22124220000114,64.22124220000114,64.22124220000114,64.22124220000114,64.22124220000114,64.22124220000114,64.22124220000114,64.22124220000114,64.22124220000114,65.36986550001893,65.36986550001893,65.36986550001893,65.36986550001893,65.36986550001893,65.36986550001893,65.36986550001893,54,62,65,19,62,60,65.36986550001893,66.88751850000699,,,,,,,,,,,,３４１,f,１９,2023-05-21_15h37.40.886,RL,2022.2.5,60.192809600810406,
31,66,47,65,0,8,8,8,,,,,,,,,,,None,66.88751850000699,66.88751850000699,66.88751850000699,66.88751850000699,66.88751850000699,66.88751850000699,r,0.30689589999383315,67.22127280000132,67.22127280000132,67.22127280000132,67.22127280000132,67.22127280000132,67.22127280000132,67.52101630001562,68.90435650001746,68.90435650001746,68.90435650001746,68.90435650001746,68.90435650001746,68.90435650001746,68.90435650001746,68.90435650001746,68.90435650001746,68.90435650001746,68.90435650001746,68.90435650001746,68.90435650001746,68.90435650001746,70.58552059999784,70.58552059999784,70.58552059999784,70.58552059999784,70.58552059999784,70.58552059999784,70.58552059999784,47,65,66,31,65,60,70.58552059999784,72.16998390000663,,,,,,,,,,,,３４１,f,１９,2023-05-21_15h37.40.886,RL,2022.2.5,60.192809600810406,
22,60,46,61,0,9,9,9,,,,,,,,,,,None,72.16998390000663,72.16998390000663,72.16998390000663,72.16998390000663,72.16998390000663,72.16998390000663,r,0.2636724000039976,72.4538515000022,72.4538515000022,72.4538515000022,72.4538515000022,72.4538515000022,72.4538515000022,72.73698129999684,73.63703320000786,73.65321429999312,73.65321429999312,73.65321429999312,73.65321429999312,73.65321429999312,73.65321429999312,73.65321429999312,73.65321429999312,73.65321429999312,73.65321429999312,73.65321429999312,73.65321429999312,73.65321429999312,74.85168469999917,74.85168469999917,74.85168469999917,74.85168469999917,74.85168469999917,74.85168469999917,74.85168469999917,46,61,60,22,61,60,74.85168469999917,76.73612940000021,,,,,,,,,,,,３４１,f,１９,2023-05-21_15h37.40.886,RL,2022.2.5,60.192809600810406,
20,63,54,51,0,10,10,10,,,,,,,,,,,None,76.73612940000021,76.73612940000021,76.73612940000021,76.73612940000021,76.73612940000021,76.73612940000021,r,0.2397966999851633,77.00294219999341,77.00294219999341,77.00294219999341,77.00294219999341,77.00294219999341,77.00294219999341,77.30274199999985,78.60260350001045,78.60260350001045,78.60260350001045,78.60260350001045,78.60260350001045,78.60260350001045,78.60260350001045,78.60260350001045,78.60260350001045,78.60260350001045,78.60260350001045,78.60260350001045,78.60260350001045,78.60260350001045,80.20083810001961,80.20083810001961,80.20083810001961,80.20083810001961,80.20083810001961,80.20083810001961,80.20083810001961,54,51,63,20,51,60,80.20083810001961,81.93505430000369,,,,,,,,,,,,３４１,f,１９,2023-05-21_15h37.40.886,RL,2022.2.5,60.192809600810406,
35,71,49,57,0,11,11,11,,,,,,,,,,,None,81.93505430000369,81.93505430000369,81.93505430000369,81.93505430000369,81.93505430000369,81.93505430000369,i,0.2146812000137288,82.16976079999586,82.16976079999586,82.16976079999586,82.16976079999586,82.16976079999586,82.16976079999586,82.452054399997,83.48502240001108,83.50152150000213,83.50152150000213,83.50152150000213,83.50152150000213,83.50152150000213,83.50152150000213,83.50152150000213,83.50152150000213,83.50152150000213,83.50152150000213,83.50152150000213,83.50152150000213,83.50152150000213,84.83338920000824,84.83338920000824,84.83338920000824,84.83338920000824,84.83338920000824,84.83338920000824,84.83338920000824,49,57,71,35,71,60,84.83338920000824,86.48442860000068,,,,,,,,,,,,３４１,f,１９,2023-05-21_15h37.40.886,RL,2022.2.5,60.192809600810406,
30,69,53,59,0,12,12,12,,,,,,,,,,,None,86.48442860000068,86.48442860000068,86.48442860000068,86.48442860000068,86.48442860000068,86.48442860000068,i,0.3953837999724783,86.90252550001605,86.90252550001605,86.90252550001605,86.90252550001605,86.90252550001605,86.90252550001605,87.1842856000003,88.03399490000447,88.0505947000056,88.0505947000056,88.0505947000056,88.0505947000056,88.0505947000056,88.0505947000056,88.0505947000056,88.0505947000056,88.0505947000056,88.0505947000056,88.0505947000056,88.0505947000056,88.0505947000056,89.19893010001397,89.19893010001397,89.19893010001397,89.19893010001397,89.19893010001397,89.19893010001397,89.19893010001397,53,59,69,30,69,60,89.19893010001397,91.01666779999505,,,,,,,,,,,,３４１,f,１９,2023-05-21_15h37.40.886,RL,2022.2.5,60.192809600810406,
17,60,50,50,0,13,13,13,,,,,,,,,,,None,91.01666779999505,91.01666779999505,91.01666779999505,91.01666779999505,91.01666779999505,91.01666779999505,i,0.35144699999364093,91.4058394000167,91.4058394000167,91.4058394000167,91.4058394000167,91.4058394000167,91.4058394000167,91.70024780000676,93.38300180001534,93.38300180001534,93.38300180001534,93.38300180001534,93.38300180001534,93.38300180001534,93.38300180001534,93.38300180001534,93.38300180001534,93.38300180001534,93.38300180001534,93.38300180001534,93.38300180001534,93.38300180001534,95.36470289999852,95.36470289999852,95.36470289999852,95.36470289999852,95.36470289999852,95.36470289999852,95.36470289999852,50,50,60,17,60,60,95.36470289999852,96.89931090001483,,,,,,,,,,,,３４１,f,１９,2023-05-21_15h37.40.886,RL,2022.2.5,60.192809600810406,
26,57,54,55,0,14,14,14,,,,,,,,,,,None,96.89931090001483,96.89931090001483,96.89931090001483,96.89931090001483,96.89931090001483,96.89931090001483,f,0.21193140000104904,97.13423150000744,97.13423150000744,97.13423150000744,97.13423150000744,97.13423150000744,97.13423150000744,97.43245310001657,99.04918960001669,99.04918960001669,99.04918960001669,99.04918960001669,99.04918960001669,99.04918960001669,99.04918960001669,99.04918960001669,99.04918960001669,99.04918960001669,99.04918960001669,99.04918960001669,99.04918960001669,99.04918960001669,100.96404360001907,100.96404360001907,100.96404360001907,100.96404360001907,100.96404360001907,100.96404360001907,100.96404360001907,54,55,57,26,54,60,100.96404360001907,102.8142891000025,,,,,,,,,,,,３４１,f,１９,2023-05-21_15h37.40.886,RL,2022.2.5,60.192809600810406,
24,60,50,56,0,15,15,15,,,,,,,,,,,None,102.8142891000025,102.8142891000025,102.8142891000025,102.8142891000025,102.8142891000025,102.8142891000025,r,0.03848940000170842,102.88715270001558,102.88715270001558,102.88715270001558,102.88715270001558,102.88715270001558,102.88715270001558,103.18172819999745,104.08135369999218,104.08135369999218,104.08135369999218,104.08135369999218,104.08135369999218,104.08135369999218,104.08135369999218,104.08135369999218,104.08135369999218,104.08135369999218,104.08135369999218,104.08135369999218,104.08135369999218,104.08135369999218,105.27962060002028,105.27962060002028,105.27962060002028,105.27962060002028,105.27962060002028,105.27962060002028,105.27962060002028,50,56,60,24,56,60,105.27962060002028,106.8805132000125,,,,,,,,,,,,３４１,f,１９,2023-05-21_15h37.40.886,RL,2022.2.5,60.192809600810406,
24,59,51,51,0,16,16,16,,,,,,,,,,,None,106.8805132000125,106.8805132000125,106.8805132000125,106.8805132000125,106.8805132000125,106.8805132000125,i,0.21154630000819452,107.11479690001579,107.11479690001579,107.11479690001579,107.11479690001579,107.11479690001579,107.11479690001579,107.41426180000417,108.83050290000392,108.83050290000392,108.83050290000392,108.83050290000392,108.83050290000392,108.83050290000392,108.83050290000392,108.83050290000392,108.83050290000392,108.83050290000392,108.83050290000392,108.83050290000392,108.83050290000392,108.83050290000392,110.54556679999223,110.54556679999223,110.54556679999223,110.54556679999223,110.54556679999223,110.54556679999223,110.54556679999223,51,51,59,24,59,60,110.54556679999223,112.51321440000902,,,,,,,,,,,,３４１,f,１９,2023-05-21_15h37.40.886,RL,2022.2.5,60.192809600810406,
15,64,53,56,0,17,17,17,,,,,,,,,,,None,112.51321440000902,112.51321440000902,112.51321440000902,112.51321440000902,112.51321440000902,112.51321440000902,i,0.2585125000041444,112.8006612000172,112.8006612000172,112.8006612000172,112.8006612000172,112.8006612000172,112.8006612000172,113.09661569999298,114.71315150000737,114.72960380002041,114.72960380002041,114.72960380002041,114.72960380002041,114.72960380002041,114.72960380002041,114.72960380002041,114.72960380002041,114.72960380002041,114.72960380002041,114.72960380002041,114.72960380002041,114.72960380002041,116.64425640000263,116.64425640000263,116.64425640000263,116.64425640000263,116.64425640000263,116.64425640000263,116.64425640000263,53,56,64,15,64,60,116.64425640000263,118.42865519999759,,,,,,,,,,,,３４１,f,１９,2023-05-21_15h37.40.886,RL,2022.2.5,60.192809600810406,
27,72,52,55,0,18,18,18,,,,,,,,,,,None,118.42865519999759,118.42865519999759,118.42865519999759,118.42865519999759,118.42865519999759,118.42865519999759,r,0.29271159999188967,118.74568920000456,118.74568920000456,118.74568920000456,118.74568920000456,118.74568920000456,118.74568920000456,119.04541570000583,121.01186460000463,121.01186460000463,121.01186460000463,121.01186460000463,121.01186460000463,121.01186460000463,121.01186460000463,121.01186460000463,121.01186460000463,121.01186460000463,121.01186460000463,121.01186460000463,121.01186460000463,121.01186460000463,123.27681470001698,123.27681470001698,123.27681470001698,123.27681470001698,123.27681470001698,123.27681470001698,123.27681470001698,52,55,72,27,55,60,123.27681470001698,125.14429870000458,,,,,,,,,,,,３４１,f,１９,2023-05-21_15h37.40.886,RL,2022.2.5,60.192809600810406,
31,69,51,63,0,19,19,19,,,,,,,,,,,None,125.14429870000458,125.14429870000458,125.14429870000458,125.14429870000458,125.14429870000458,125.14429870000458,i,0.19282510000630282,125.36246999999275,125.36246999999275,125.36246999999275,125.36246999999275,125.36246999999275,125.36246999999275,125.66141530001187,127.22787309999694,127.22787309999694,127.22787309999694,127.22787309999694,127.22787309999694,127.22787309999694,127.22787309999694,127.22787309999694,127.22787309999694,127.22787309999694,127.22787309999694,127.22787309999694,127.22787309999694,127.22787309999694,129.09205000000657,129.09205000000657,129.09205000000657,129.09205000000657,129.09205000000657,129.09205000000657,129.09205000000657,51,63,69,31,69,60,129.09205000000657,130.64373989999876,,,,,,,,,,,,３４１,f,１９,2023-05-21_15h37.40.886,RL,2022.2.5,60.192809600810406,
30,67,47,52,0,20,20,20,,,,,,,,,,,None,130.64373989999876,130.64373989999876,130.64373989999876,130.64373989999876,130.64373989999876,130.64373989999876,i,0.586197099997662,131.26265809999313,131.26265809999313,131.26265809999313,131.26265809999313,131.26265809999313,131.26265809999313,131.5602165000164,132.57636520001688,132.57636520001688,132.57636520001688,132.57636520001688,132.57636520001688,132.57636520001688,132.57636520001688,132.57636520001688,132.57636520001688,132.57636520001688,132.57636520001688,132.57636520001688,132.57636520001688,132.57636520001688,133.8911117000098,133.8911117000098,133.8911117000098,133.8911117000098,133.8911117000098,133.8911117000098,133.8911117000098,47,52,67,30,67,60,133.8911117000098,135.742087599996,,,,,,,,,,,,３４１,f,１９,2023-05-21_15h37.40.886,RL,2022.2.5,60.192809600810406,
27,59,49,55,0,21,21,21,,,,,,,,,,,None,135.742087599996,135.742087599996,135.742087599996,135.742087599996,135.742087599996,135.742087599996,i,0.2524707999837119,136.0320588000177,136.0320588000177,136.0320588000177,136.0320588000177,136.0320588000177,136.0320588000177,136.32617300000857,138.25874839999597,138.25874839999597,138.25874839999597,138.25874839999597,138.25874839999597,138.25874839999597,138.25874839999597,138.25874839999597,138.25874839999597,138.25874839999597,138.25874839999597,138.25874839999597,138.25874839999597,138.25874839999597,140.4899992000137,140.4899992000137,140.4899992000137,140.4899992000137,140.4899992000137,140.4899992000137,140.4899992000137,49,55,59,27,59,60,140.4899992000137,142.00808200001484,,,,,,,,,,,,３４１,f,１９,2023-05-21_15h37.40.886,RL,2022.2.5,60.192809600810406,
29,68,49,54,0,22,22,22,,,,,,,,,,,None,142.00808200001484,142.00808200001484,142.00808200001484,142.00808200001484,142.00808200001484,142.00808200001484,f,0.24279129999922588,142.2762017000059,142.2762017000059,142.2762017000059,142.2762017000059,142.2762017000059,142.2762017000059,142.5578199000156,144.5243803000194,144.54083959999844,144.54083959999844,144.54083959999844,144.54083959999844,144.54083959999844,144.54083959999844,144.54083959999844,144.54083959999844,144.54083959999844,144.54083959999844,144.54083959999844,144.54083959999844,144.54083959999844,146.80544230001396,146.80544230001396,146.80544230001396,146.80544230001396,146.80544230001396,146.80544230001396,146.80544230001396,49,54,68,29,49,60,146.80544230001396,148.39002029999392,,,,,,,,,,,,３４１,f,１９,2023-05-21_15h37.40.886,RL,2022.2.5,60.192809600810406,
28,70,45,54,0,23,23,23,,,,,,,,,,,None,148.39002029999392,148.39002029999392,148.39002029999392,148.39002029999392,148.39002029999392,148.39002029999392,i,0.25702809999347664,148.6739676000143,148.6739676000143,148.6739676000143,148.6739676000143,148.6739676000143,148.6739676000143,148.957094900019,150.80706250001094,150.8233545999974,150.8233545999974,150.8233545999974,150.8233545999974,150.8233545999974,150.8233545999974,150.8233545999974,150.8233545999974,150.8233545999974,150.8233545999974,150.8233545999974,150.8233545999974,150.8233545999974,152.97104170001694,152.97104170001694,152.97104170001694,152.97104170001694,152.97104170001694,152.97104170001694,152.97104170001694,45,54,70,28,70,60,152.97104170001694,154.65572149999207,,,,,,,,,,,,３４１,f,１９,2023-05-21_15h37.40.886,RL,2022.2.5,60.192809600810406,
20,68,40,60,0,24,24,24,,,,,,,,,,,None,154.65572149999207,154.65572149999207,154.65572149999207,154.65572149999207,154.65572149999207,154.65572149999207,r,0.23046829999657348,154.90736529999413,154.90736529999413,154.90736529999413,154.90736529999413,154.90736529999413,154.90736529999413,155.18902839999646,156.2559051999997,156.27253330001258,156.27253330001258,156.27253330001258,156.27253330001258,156.27253330001258,156.27253330001258,156.27253330001258,156.27253330001258,156.27253330001258,156.27253330001258,156.27253330001258,156.27253330001258,156.27253330001258,157.63678130001063,157.63678130001063,157.63678130001063,157.63678130001063,157.63678130001063,157.63678130001063,157.63678130001063,40,60,68,20,60,60,157.63678130001063,159.63803970001754,,,,,,,,,,,,３４１,f,１９,2023-05-21_15h37.40.886,RL,2022.2.5,60.192809600810406,
37,64,44,54,0,25,25,25,,,,,,,,,,,None,159.63803970001754,159.63803970001754,159.63803970001754,159.63803970001754,159.63803970001754,159.63803970001754,r,0.07807610000600107,159.7407269999967,159.7407269999967,159.7407269999967,159.7407269999967,159.7407269999967,159.7407269999967,160.0380669000151,161.9712661000085,161.9712661000085,161.9712661000085,161.9712661000085,161.9712661000085,161.9712661000085,161.9712661000085,161.9712661000085,161.9712661000085,161.9712661000085,161.9712661000085,161.9712661000085,161.9712661000085,161.9712661000085,164.20266229999834,164.20266229999834,164.20266229999834,164.20266229999834,164.20266229999834,164.20266229999834,164.20266229999834,44,54,64,37,54,60,164.20266229999834,165.8872450000199,,,,,,,,,,,,３４１,f,１９,2023-05-21_15h37.40.886,RL,2022.2.5,60.192809600810406,
30,70,44,48,0,26,26,26,,,,,,,,,,,None,165.8872450000199,165.8872450000199,165.8872450000199,165.8872450000199,165.8872450000199,165.8872450000199,i,0.2264759999816306,166.13954150001518,166.13954150001518,166.13954150001518,166.13954150001518,166.13954150001518,166.13954150001518,166.42086330000893,167.65389670000877,167.67050750000635,167.67050750000635,167.67050750000635,167.67050750000635,167.67050750000635,167.67050750000635,167.67050750000635,167.67050750000635,167.67050750000635,167.67050750000635,167.67050750000635,167.67050750000635,167.67050750000635,169.20191790000536,169.20191790000536,169.20191790000536,169.20191790000536,169.20191790000536,169.20191790000536,169.20191790000536,44,48,70,30,70,60,169.20191790000536,171.1029405000154,,,,,,,,,,,,３４１,f,１９,2023-05-21_15h37.40.886,RL,2022.2.5,60.192809600810406,
40,66,45,45,0,27,27,27,,,,,,,,,,,None,171.1029405000154,171.1029405000154,171.1029405000154,171.1029405000154,171.1029405000154,171.1029405000154,r,0.27040750000742264,171.40518390000216,171.40518390000216,171.40518390000216,171.40518390000216,171.40518390000216,171.40518390000216,171.68624529999215,172.81951470000786,172.83583359999466,172.83583359999466,172.83583359999466,172.83583359999466,172.83583359999466,172.83583359999466,172.83583359999466,172.83583359999466,172.83583359999466,172.83583359999466,172.83583359999466,172.83583359999466,172.83583359999466,174.26731870000367,174.26731870000367,174.26731870000367,174.26731870000367,174.26731870000367,174.26731870000367,174.26731870000367,45,45,66,40,45,60,174.26731870000367,176.15179689999786,,,,,,,,,,,,３４１,f,１９,2023-05-21_15h37.40.886,RL,2022.2.5,60.192809600810406,
38,65,51,48,0,28,28,28,,,,,,,,,,,None,176.15179689999786,176.15179689999786,176.15179689999786,176.15179689999786,176.15179689999786,176.15179689999786,f,0.3472129000001587,176.52017970001907,176.52017970001907,176.52017970001907,176.52017970001907,176.52017970001907,176.52017970001907,176.81879700001446,178.16835610001,178.16835610001,178.16835610001,178.16835610001,178.16835610001,178.16835610001,178.16835610001,178.16835610001,178.16835610001,178.16835610001,178.16835610001,178.16835610001,178.16835610001,178.16835610001,179.8169876000029,179.8169876000029,179.8169876000029,179.8169876000029,179.8169876000029,179.8169876000029,179.8169876000029,51,48,65,38,51,60,179.8169876000029,181.6677575999929,,,,,,,,,,,,３４１,f,１９,2023-05-21_15h37.40.886,RL,2022.2.5,60.192809600810406,
32,59,46,56,0,29,29,29,,,,,,,,,,,None,181.6677575999929,181.6677575999929,181.6677575999929,181.6677575999929,181.6677575999929,181.6677575999929,i,0.20268409998971038,181.90499989999807,181.90499989999807,181.90499989999807,181.90499989999807,181.90499989999807,181.90499989999807,182.20105790000525,183.70079350000015,183.70079350000015,183.70079350000015,183.70079350000015,183.70079350000015,183.70079350000015,183.70079350000015,183.70079350000015,183.70079350000015,183.70079350000015,183.70079350000015,183.70079350000015,183.70079350000015,183.70079350000015,185.49902859999565,185.49902859999565,185.49902859999565,185.49902859999565,185.49902859999565,185.49902859999565,185.49902859999565,46,56,59,32,59,60,185.49902859999565,187.13324190001003,,,,,,,,,,,,３４１,f,１９,2023-05-21_15h37.40.886,RL,2022.2.5,60.192809600810406,
38,67,49,55,0,30,30,30,,,,,,,,,,,None,187.13324190001003,187.13324190001003,187.13324190001003,187.13324190001003,187.13324190001003,187.13324190001003,j,0.21838329997262917,187.38788140000543,187.38788140000543,187.38788140000543,187.38788140000543,187.38788140000543,187.38788140000543,187.6670648000145,188.5999439000152,188.6163593000092,188.6163593000092,188.6163593000092,188.6163593000092,188.6163593000092,188.6163593000092,188.6163593000092,188.6163593000092,188.6163593000092,188.6163593000092,188.6163593000092,188.6163593000092,188.6163593000092,189.8483450000058,189.8483450000058,189.8483450000058,189.8483450000058,189.8483450000058,189.8483450000058,189.8483450000058,49,55,67,38,38,60,189.8483450000058,191.66617790001328,,,,,,,,,,,,３４１,f,１９,2023-05-21_15h37.40.886,RL,2022.2.5,60.192809600810406,
46,64,42,56,0,31,31,31,,,,,,,,,,,None,191.66617790001328,191.66617790001328,191.66617790001328,191.66617790001328,191.66617790001328,191.66617790001328,f,0.245444200001657,191.93560940001043,191.93560940001043,191.93560940001043,191.93560940001043,191.93560940001043,191.93560940001043,192.2160256000061,193.2823149000178,193.29914700001245,193.29914700001245,193.29914700001245,193.29914700001245,193.29914700001245,193.29914700001245,193.29914700001245,193.29914700001245,193.29914700001245,193.29914700001245,193.29914700001245,193.29914700001245,193.29914700001245,194.66423670001677,194.66423670001677,194.66423670001677,194.66423670001677,194.66423670001677,194.66423670001677,194.66423670001677,42,56,64,46,42,60,194.66423670001677,196.54830450000009,,,,,,,,,,,,３４１,f,１９,2023-05-21_15h37.40.886,RL,2022.2.5,60.192809600810406,
46,64,43,63,0,32,32,32,,,,,,,,,,,None,196.54830450000009,196.54830450000009,196.54830450000009,196.54830450000009,196.54830450000009,196.54830450000009,i,0.2909677999850828,196.86529680000967,196.86529680000967,196.86529680000967,196.86529680000967,196.86529680000967,196.86529680000967,197.14885280001909,198.03176340000937,198.04827950001345,198.04827950001345,198.04827950001345,198.04827950001345,198.04827950001345,198.04827950001345,198.04827950001345,198.04827950001345,198.04827950001345,198.04827950001345,198.04827950001345,198.04827950001345,198.04827950001345,199.22986069999752,199.22986069999752,199.22986069999752,199.22986069999752,199.22986069999752,199.22986069999752,199.22986069999752,43,63,64,46,64,60,199.22986069999752,200.7479045999935,,,,,,,,,,,,３４１,f,１９,2023-05-21_15h37.40.886,RL,2022.2.5,60.192809600810406,
40,62,43,54,0,33,33,33,,,,,,,,,,,None,200.7479045999935,200.7479045999935,200.7479045999935,200.7479045999935,200.7479045999935,200.7479045999935,r,0.2528924999933224,201.03425990001415,201.03425990001415,201.03425990001415,201.03425990001415,201.03425990001415,201.03425990001415,201.31447040001513,202.9641324999975,202.9806130999932,202.9806130999932,202.9806130999932,202.9806130999932,202.9806130999932,202.9806130999932,202.9806130999932,202.9806130999932,202.9806130999932,202.9806130999932,202.9806130999932,202.9806130999932,202.9806130999932,204.92892830001074,204.92892830001074,204.92892830001074,204.92892830001074,204.92892830001074,204.92892830001074,204.92892830001074,43,54,62,40,54,60,204.92892830001074,206.86332740000216,,,,,,,,,,,,３４１,f,１９,2023-05-21_15h37.40.886,RL,2022.2.5,60.192809600810406,
39,67,43,62,0,34,34,34,,,,,,,,,,,None,206.86332740000216,206.86332740000216,206.86332740000216,206.86332740000216,206.86332740000216,206.86332740000216,r,0.1999677999992855,207.08005099999718,207.08005099999718,207.08005099999718,207.08005099999718,207.08005099999718,207.08005099999718,207.38007590000052,208.96327130001737,208.96327130001737,208.96327130001737,208.96327130001737,208.96327130001737,208.96327130001737,208.96327130001737,208.96327130001737,208.96327130001737,208.96327130001737,208.96327130001737,208.96327130001737,208.96327130001737,208.96327130001737,210.8443993999972,210.8443993999972,210.8443993999972,210.8443993999972,210.8443993999972,210.8443993999972,210.8443993999972,43,62,67,39,62,60,210.8443993999972,212.4792310000048,,,,,,,,,,,,３４１,f,１９,2023-05-21_15h37.40.886,RL,2022.2.5,60.192809600810406,
41,68,51,56,0,35,35,35,,,,,,,,,,,None,212.4792310000048,212.4792310000048,212.4792310000048,212.4792310000048,212.4792310000048,212.4792310000048,r,0.23753849999047816,212.74781130001065,212.74781130001065,212.74781130001065,212.74781130001065,212.74781130001065,212.74781130001065,213.0289608000021,214.32913960001315,214.34544350000215,214.34544350000215,214.34544350000215,214.34544350000215,214.34544350000215,214.34544350000215,214.34544350000215,214.34544350000215,214.34544350000215,214.34544350000215,214.34544350000215,214.34544350000215,214.34544350000215,215.92694649999612,215.92694649999612,215.92694649999612,215.92694649999612,215.92694649999612,215.92694649999612,215.92694649999612,51,56,68,41,56,60,215.92694649999612,217.6781913000159,,,,,,,,,,,,３４１,f,１９,2023-05-21_15h37.40.886,RL,2022.2.5,60.192809600810406,
47,62,46,61,0,36,36,36,,,,,,,,,,,None,217.6781913000159,217.6781913000159,217.6781913000159,217.6781913000159,217.6781913000159,217.6781913000159,i,0.2704649000079371,217.97909370000707,217.97909370000707,217.97909370000707,217.97909370000707,217.97909370000707,217.97909370000707,218.2782029999944,220.09459220001008,220.09459220001008,220.09459220001008,220.09459220001008,220.09459220001008,220.09459220001008,220.09459220001008,220.09459220001008,220.09459220001008,220.09459220001008,220.09459220001008,220.09459220001008,220.09459220001008,220.09459220001008,222.20921870000893,222.20921870000893,222.20921870000893,222.20921870000893,222.20921870000893,222.20921870000893,222.20921870000893,46,61,62,47,62,60,222.20921870000893,224.09371370001463,,,,,,,,,,,,３４１,f,１９,2023-05-21_15h37.40.886,RL,2022.2.5,60.192809600810406,
42,65,50,57,0,37,37,37,,,,,,,,,,,None,224.09371370001463,224.09371370001463,224.09371370001463,224.09371370001463,224.09371370001463,224.09371370001463,i,0.27559910001582466,224.3950673000072,224.3950673000072,224.3950673000072,224.3950673000072,224.3950673000072,224.3950673000072,224.67724109999835,225.71055170000182,225.72685400000773,225.72685400000773,225.72685400000773,225.72685400000773,225.72685400000773,225.72685400000773,225.72685400000773,225.72685400000773,225.72685400000773,225.72685400000773,225.72685400000773,225.72685400000773,225.72685400000773,227.05853169999318,227.05853169999318,227.05853169999318,227.05853169999318,227.05853169999318,227.05853169999318,227.05853169999318,50,57,65,42,65,60,227.05853169999318,228.90976410001167,,,,,,,,,,,,３４１,f,１９,2023-05-21_15h37.40.886,RL,2022.2.5,60.192809600810406,
48,68,52,55,0,38,38,38,,,,,,,,,,,None,228.90976410001167,228.90976410001167,228.90976410001167,228.90976410001167,228.90976410001167,228.90976410001167,i,0.2553860000043642,229.19705459999386,229.19705459999386,229.19705459999386,229.19705459999386,229.19705459999386,229.19705459999386,229.4763573000091,230.5931671000144,230.6095936000056,230.6095936000056,230.6095936000056,230.6095936000056,230.6095936000056,230.6095936000056,230.6095936000056,230.6095936000056,230.6095936000056,230.6095936000056,230.6095936000056,230.6095936000056,230.6095936000056,232.02380300001823,232.02380300001823,232.02380300001823,232.02380300001823,232.02380300001823,232.02380300001823,232.02380300001823,52,55,68,48,68,60,232.02380300001823,233.67535420000786,,,,,,,,,,,,３４１,f,１９,2023-05-21_15h37.40.886,RL,2022.2.5,60.192809600810406,
36,71,47,63,0,39,39,39,,,,,,,,,,,None,233.67535420000786,233.67535420000786,233.67535420000786,233.67535420000786,233.67535420000786,233.67535420000786,r,0.38384369999403134,234.07941570002004,234.07941570002004,234.07941570002004,234.07941570002004,234.07941570002004,234.07941570002004,234.37530519999564,236.19172830000753,236.19172830000753,236.19172830000753,236.19172830000753,236.19172830000753,236.19172830000753,236.19172830000753,236.19172830000753,236.19172830000753,236.19172830000753,236.19172830000753,236.19172830000753,236.19172830000753,236.19172830000753,238.30655249999836,238.30655249999836,238.30655249999836,238.30655249999836,238.30655249999836,238.30655249999836,238.30655249999836,47,63,71,36,63,60,238.30655249999836,239.97442869999213,,,,,,,,,,,,３４１,f,１９,2023-05-21_15h37.40.886,RL,2022.2.5,60.192809600810406,
43,63,52,58,0,40,40,40,,,,,,,,,,,None,239.97442869999213,239.97442869999213,239.97442869999213,239.97442869999213,239.97442869999213,239.97442869999213,r,0.24817520001670346,240.2458409999963,240.2458409999963,240.2458409999963,240.2458409999963,240.2458409999963,240.2458409999963,240.5406001000083,242.05748940000194,242.05748940000194,242.05748940000194,242.05748940000194,242.05748940000194,242.05748940000194,242.05748940000194,242.05748940000194,242.05748940000194,242.05748940000194,242.05748940000194,242.05748940000194,242.05748940000194,242.05748940000194,243.87222610000754,243.87222610000754,243.87222610000754,243.87222610000754,243.87222610000754,243.87222610000754,243.87222610000754,52,58,63,43,58,60,243.87222610000754,245.6233742000186,,,,,,,,,,,,３４１,f,１９,2023-05-21_15h37.40.886,RL,2022.2.5,60.192809600810406,
47,59,46,54,0,41,41,41,,,,,,,,,,,None,245.6233742000186,245.6233742000186,245.6233742000186,245.6233742000186,245.6233742000186,245.6233742000186,i,0.3108207000186667,245.95685829999275,245.95685829999275,245.95685829999275,245.95685829999275,245.95685829999275,245.95685829999275,246.24020940001355,247.2732184000197,247.28956669999752,247.28956669999752,247.28956669999752,247.28956669999752,247.28956669999752,247.28956669999752,247.28956669999752,247.28956669999752,247.28956669999752,247.28956669999752,247.28956669999752,247.28956669999752,247.28956669999752,248.62111300000106,248.62111300000106,248.62111300000106,248.62111300000106,248.62111300000106,248.62111300000106,248.62111300000106,46,54,59,47,59,60,248.62111300000106,250.23926299999584,,,,,,,,,,,,３４１,f,１９,2023-05-21_15h37.40.886,RL,2022.2.5,60.192809600810406,
55,57,51,59,0,42,42,42,,,,,,,,,,,None,250.23926299999584,250.23926299999584,250.23926299999584,250.23926299999584,250.23926299999584,250.23926299999584,i,0.3425464000029024,250.60599229999934,250.60599229999934,250.60599229999934,250.60599229999934,250.60599229999934,250.60599229999934,250.88907930001733,252.8719406000164,252.88877859999775,252.88877859999775,252.88877859999775,252.88877859999775,252.88877859999775,252.88877859999775,252.88877859999775,252.88877859999775,252.88877859999775,252.88877859999775,252.88877859999775,252.88877859999775,252.88877859999775,255.1699948000023,255.1699948000023,255.1699948000023,255.1699948000023,255.1699948000023,255.1699948000023,255.1699948000023,51,59,57,55,57,60,255.1699948000023,257.02125839999644,,,,,,,,,,,,３４１,f,１９,2023-05-21_15h37.40.886,RL,2022.2.5,60.192809600810406,
45,53,52,61,0,43,43,43,,,,,,,,,,,None,257.02125839999644,257.02125839999644,257.02125839999644,257.02125839999644,257.02125839999644,257.02125839999644,i,0.2530232999997679,257.3152786999999,257.3152786999999,257.3152786999999,257.3152786999999,257.3152786999999,257.3152786999999,257.60486160000437,259.22074310001335,259.22074310001335,259.22074310001335,259.22074310001335,259.22074310001335,259.22074310001335,259.22074310001335,259.22074310001335,259.22074310001335,259.22074310001335,259.22074310001335,259.22074310001335,259.22074310001335,259.22074310001335,261.13573599999654,261.13573599999654,261.13573599999654,261.13573599999654,261.13573599999654,261.13573599999654,261.13573599999654,52,61,53,45,53,60,261.13573599999654,262.8869740999944,,,,,,,,,,,,３４１,f,１９,2023-05-21_15h37.40.886,RL,2022.2.5,60.192809600810406,
48,62,51,62,0,44,44,44,,,,,,,,,,,None,262.8869740999944,262.8869740999944,262.8869740999944,262.8869740999944,262.8869740999944,262.8869740999944,f,0.3574829999997746,263.27143409999553,263.27143409999553,263.27143409999553,263.27143409999553,263.27143409999553,263.27143409999553,263.57067670000833,265.3365377000009,265.3365377000009,265.3365377000009,265.3365377000009,265.3365377000009,265.3365377000009,265.3365377000009,265.3365377000009,265.3365377000009,265.3365377000009,265.3365377000009,265.3365377000009,265.3365377000009,265.3365377000009,267.40119820000837,267.40119820000837,267.40119820000837,267.40119820000837,267.40119820000837,267.40119820000837,267.40119820000837,51,62,62,48,51,60,267.40119820000837,269.0523208999948,,,,,,,,,,,,３４１,f,１９,2023-05-21_15h37.40.886,RL,2022.2.5,60.192809600810406,
57,50,57,56,0,45,45,45,,,,,,,,,,,None,269.0523208999948,269.0523208999948,269.0523208999948,269.0523208999948,269.0523208999948,269.0523208999948,r,0.28899070000625215,269.3696011000138,269.3696011000138,269.3696011000138,269.3696011000138,269.3696011000138,269.3696011000138,269.6526720999973,270.8024769000185,270.81900449999375,270.81900449999375,270.81900449999375,270.81900449999375,270.81900449999375,270.81900449999375,270.81900449999375,270.81900449999375,270.81900449999375,270.81900449999375,270.81900449999375,270.81900449999375,270.81900449999375,272.2668115000124,272.2668115000124,272.2668115000124,272.2668115000124,272.2668115000124,272.2668115000124,272.2668115000124,57,56,50,57,56,60,272.2668115000124,274.1014808000182,,,,,,,,,,,,３４１,f,１９,2023-05-21_15h37.40.886,RL,2022.2.5,60.192809600810406,
57,51,54,58,0,46,46,46,,,,,,,,,,,None,274.1014808000182,274.1014808000182,274.1014808000182,274.1014808000182,274.1014808000182,274.1014808000182,i,0.3937388999911491,274.5183859000099,274.5183859000099,274.5183859000099,274.5183859000099,274.5183859000099,274.5183859000099,274.8181897000177,276.7676532000187,276.7676532000187,276.7676532000187,276.7676532000187,276.7676532000187,276.7676532000187,276.7676532000187,276.7676532000187,276.7676532000187,276.7676532000187,276.7676532000187,276.7676532000187,276.7676532000187,276.7676532000187,279.01566989999264,279.01566989999264,279.01566989999264,279.01566989999264,279.01566989999264,279.01566989999264,279.01566989999264,54,58,51,57,51,60,279.01566989999264,280.95044079999207,,,,,,,,,,,,３４１,f,１９,2023-05-21_15h37.40.886,RL,2022.2.5,60.192809600810406,
60,58,66,55,0,47,47,47,,,,,,,,,,,None,280.95044079999207,280.95044079999207,280.95044079999207,280.95044079999207,280.95044079999207,280.95044079999207,r,0.40120809999643825,281.3884887000022,281.3884887000022,281.3884887000022,281.3884887000022,281.3884887000022,281.3884887000022,281.6671789000102,282.60077089999686,282.6171384000045,282.6171384000045,282.6171384000045,282.6171384000045,282.6171384000045,282.6171384000045,282.6171384000045,282.6171384000045,282.6171384000045,282.6171384000045,282.6171384000045,282.6171384000045,282.6171384000045,283.8486855000083,283.8486855000083,283.8486855000083,283.8486855000083,283.8486855000083,283.8486855000083,283.8486855000083,66,55,58,60,55,60,283.8486855000083,285.5993352000078,,,,,,,,,,,,３４１,f,１９,2023-05-21_15h37.40.886,RL,2022.2.5,60.192809600810406,
50,58,61,59,0,48,48,48,,,,,,,,,,,None,285.5993352000078,285.5993352000078,285.5993352000078,285.5993352000078,285.5993352000078,285.5993352000078,f,0.689013299997896,286.318958799995,286.318958799995,286.318958799995,286.318958799995,286.318958799995,286.318958799995,286.61610670000664,287.6825941000134,287.6825941000134,287.6825941000134,287.6825941000134,287.6825941000134,287.6825941000134,287.6825941000134,287.6825941000134,287.6825941000134,287.6825941000134,287.6825941000134,287.6825941000134,287.6825941000134,287.6825941000134,289.0476817000017,289.0476817000017,289.0476817000017,289.0476817000017,289.0476817000017,289.0476817000017,289.0476817000017,61,59,58,50,61,60,289.0476817000017,290.81515569999465,,,,,,,,,,,,３４１,f,１９,2023-05-21_15h37.40.886,RL,2022.2.5,60.192809600810406,
56,60,55,59,0,49,49,49,,,,,,,,,,,None,290.81515569999465,290.81515569999465,290.81515569999465,290.81515569999465,290.81515569999465,290.81515569999465,f,0.5271157000097446,291.36832579999464,291.36832579999464,291.36832579999464,291.36832579999464,291.36832579999464,291.36832579999464,291.6488760999928,293.18182060000254,293.19820600000094,293.19820600000094,293.19820600000094,293.19820600000094,293.19820600000094,293.19820600000094,293.19820600000094,293.19820600000094,293.19820600000094,293.19820600000094,293.19820600000094,293.19820600000094,293.19820600000094,295.02948850000394,295.02948850000394,295.02948850000394,295.02948850000394,295.02948850000394,295.02948850000394,295.02948850000394,55,59,60,56,55,60,295.02948850000394,297.0310019000026,,,,,,,,,,,,３４１,f,１９,2023-05-21_15h37.40.886,RL,2022.2.5,60.192809600810406,
54,65,59,49,0,50,50,50,,,,,,,,,,,None,297.0310019000026,297.0310019000026,297.0310019000026,297.0310019000026,297.0310019000026,297.0310019000026,i,0.2552289000013843,297.31581960001495,297.31581960001495,297.31581960001495,297.31581960001495,297.31581960001495,297.31581960001495,297.59777230001055,299.2479064000072,299.26414340001065,299.26414340001065,299.26414340001065,299.26414340001065,299.26414340001065,299.26414340001065,299.26414340001065,299.26414340001065,299.26414340001065,299.26414340001065,299.26414340001065,299.26414340001065,299.26414340001065,301.2118669000047,301.2118669000047,301.2118669000047,301.2118669000047,301.2118669000047,301.2118669000047,301.2118669000047,59,49,65,54,65,60,301.2118669000047,303.12964530001045,,,,,,,,,,,,３４１,f,１９,2023-05-21_15h37.40.886,RL,2022.2.5,60.192809600810406,
57,61,60,48,0,51,51,51,,,,,,,,,,,None,303.12964530001045,303.12964530001045,303.12964530001045,303.12964530001045,303.12964530001045,303.12964530001045,i,0.2677562000171747,303.43461150000803,303.43461150000803,303.43461150000803,303.43461150000803,303.43461150000803,303.43461150000803,303.7134164000163,305.4294454000192,305.46291220001876,305.46291220001876,305.46291220001876,305.46291220001876,305.46291220001876,305.46291220001876,305.46291220001876,305.46291220001876,305.46291220001876,305.46291220001876,305.46291220001876,305.46291220001876,305.46291220001876,307.4781329999969,307.4781329999969,307.4781329999969,307.4781329999969,307.4781329999969,307.4781329999969,307.4781329999969,60,48,61,57,61,60,307.4781329999969,309.1456934000016,,,,,,,,,,,,３４１,f,１９,2023-05-21_15h37.40.886,RL,2022.2.5,60.192809600810406,
55,60,62,50,0,52,52,52,,,,,,,,,,,None,309.1456934000016,309.1456934000016,309.1456934000016,309.1456934000016,309.1456934000016,309.1456934000016,r,0.32123980001779273,309.49731710000196,309.49731710000196,309.49731710000196,309.49731710000196,309.49731710000196,309.49731710000196,309.79560380001203,311.79502469999716,311.79502469999716,311.79502469999716,311.79502469999716,311.79502469999716,311.79502469999716,311.79502469999716,311.79502469999716,311.79502469999716,311.79502469999716,311.79502469999716,311.79502469999716,311.79502469999716,311.79502469999716,314.09305950001,314.09305950001,314.09305950001,314.09305950001,314.09305950001,314.09305950001,314.09305950001,62,50,60,55,50,60,314.09305950001,315.6776153999963,,,,,,,,,,,,３４１,f,１９,2023-05-21_15h37.40.886,RL,2022.2.5,60.192809600810406,
54,66,59,42,0,53,53,53,,,,,,,,,,,None,315.6776153999963,315.6776153999963,315.6776153999963,315.6776153999963,315.6776153999963,315.6776153999963,f,0.39035620001959614,316.09462099999655,316.09462099999655,316.09462099999655,316.09462099999655,316.09462099999655,316.09462099999655,316.3778597000055,317.69445390001056,317.71103130001575,317.71103130001575,317.71103130001575,317.71103130001575,317.71103130001575,317.71103130001575,317.71103130001575,317.71103130001575,317.71103130001575,317.71103130001575,317.71103130001575,317.71103130001575,317.71103130001575,319.32539559999714,319.32539559999714,319.32539559999714,319.32539559999714,319.32539559999714,319.32539559999714,319.32539559999714,59,42,66,54,59,60,319.32539559999714,321.1767463000142,,,,,,,,,,,,３４１,f,１９,2023-05-21_15h37.40.886,RL,2022.2.5,60.192809600810406,
49,67,58,46,0,54,54,54,,,,,,,,,,,None,321.1767463000142,321.1767463000142,321.1767463000142,321.1767463000142,321.1767463000142,321.1767463000142,i,0.22716419998323545,321.4272436000174,321.4272436000174,321.4272436000174,321.4272436000174,321.4272436000174,321.4272436000174,321.710129700019,322.6099424000131,322.6267771999992,322.6267771999992,322.6267771999992,322.6267771999992,322.6267771999992,322.6267771999992,322.6267771999992,322.6267771999992,322.6267771999992,322.6267771999992,322.6267771999992,322.6267771999992,322.6267771999992,323.82491560000926,323.82491560000926,323.82491560000926,323.82491560000926,323.82491560000926,323.82491560000926,323.82491560000926,58,46,67,49,67,60,323.82491560000926,325.7760785999999,,,,,,,,,,,,３４１,f,１９,2023-05-21_15h37.40.886,RL,2022.2.5,60.192809600810406,
52,61,67,48,0,55,55,55,,,,,,,,,,,None,325.7760785999999,325.7760785999999,325.7760785999999,325.7760785999999,325.7760785999999,325.7760785999999,i,0.2843124000064563,326.1008101000043,326.1008101000043,326.1008101000043,326.1008101000043,326.1008101000043,326.1008101000043,326.3759175000014,327.5261632000038,327.54284989999724,327.54284989999724,327.54284989999724,327.54284989999724,327.54284989999724,327.54284989999724,327.54284989999724,327.54284989999724,327.54284989999724,327.54284989999724,327.54284989999724,327.54284989999724,327.54284989999724,328.99034630000824,328.99034630000824,328.99034630000824,328.99034630000824,328.99034630000824,328.99034630000824,328.99034630000824,67,48,61,52,61,60,328.99034630000824,330.6416477000166,,,,,,,,,,,,３４１,f,１９,2023-05-21_15h37.40.886,RL,2022.2.5,60.192809600810406,
44,72,59,48,0,56,56,56,,,,,,,,,,,None,330.6416477000166,330.6416477000166,330.6416477000166,330.6416477000166,330.6416477000166,330.6416477000166,f,0.27949070002068765,330.94196440000087,330.94196440000087,330.94196440000087,330.94196440000087,330.94196440000087,330.94196440000087,331.24187019999954,332.9414151000092,332.9414151000092,332.9414151000092,332.9414151000092,332.9414151000092,332.9414151000092,332.9414151000092,332.9414151000092,332.9414151000092,332.9414151000092,332.9414151000092,332.9414151000092,332.9414151000092,332.9414151000092,334.93982630001847,334.93982630001847,334.93982630001847,334.93982630001847,334.93982630001847,334.93982630001847,334.93982630001847,59,48,72,44,59,60,334.93982630001847,336.6902916000108,,,,,,,,,,,,３４１,f,１９,2023-05-21_15h37.40.886,RL,2022.2.5,60.192809600810406,
43,72,61,49,0,57,57,57,,,,,,,,,,,None,336.6902916000108,336.6902916000108,336.6902916000108,336.6902916000108,336.6902916000108,336.6902916000108,i,0.2629498999740463,336.9780673000205,336.9780673000205,336.9780673000205,336.9780673000205,336.9780673000205,336.9780673000205,337.2742861000006,338.3944938000059,338.3944938000059,338.3944938000059,338.3944938000059,338.3944938000059,338.3944938000059,338.3944938000059,338.3944938000059,338.3944938000059,338.3944938000059,338.3944938000059,338.3944938000059,338.3944938000059,338.3944938000059,339.77185419999296,339.77185419999296,339.77185419999296,339.77185419999296,339.77185419999296,339.77185419999296,339.77185419999296,61,49,72,43,72,60,339.77185419999296,341.30637090001255,,,,,,,,,,,,３４１,f,１９,2023-05-21_15h37.40.886,RL,2022.2.5,60.192809600810406,
42,73,53,46,0,58,58,58,,,,,,,,,,,None,341.30637090001255,341.30637090001255,341.30637090001255,341.30637090001255,341.30637090001255,341.30637090001255,r,0.7920340000127908,342.12489090001327,342.12489090001327,342.12489090001327,342.12489090001327,342.12489090001327,342.12489090001327,342.42316229999415,344.33960969999316,344.33960969999316,344.33960969999316,344.33960969999316,344.33960969999316,344.33960969999316,344.33960969999316,344.33960969999316,344.33960969999316,344.33960969999316,344.33960969999316,344.33960969999316,344.33960969999316,344.33960969999316,346.5542431999929,346.5542431999929,346.5542431999929,346.5542431999929,346.5542431999929,346.5542431999929,346.5542431999929,53,46,73,42,46,60,346.5542431999929,348.2382492000179,,,,,,,,,,,,３４１,f,１９,2023-05-21_15h37.40.886,RL,2022.2.5,60.192809600810406,
37,81,57,52,0,59,59,59,,,,,,,,,,,None,348.2382492000179,348.2382492000179,348.2382492000179,348.2382492000179,348.2382492000179,348.2382492000179,j,0.23005330000887625,348.48905629999354,348.48905629999354,348.48905629999354,348.48905629999354,348.48905629999354,348.48905629999354,348.7723479999986,350.38872270000866,350.40572589999647,350.40572589999647,350.40572589999647,350.40572589999647,350.40572589999647,350.40572589999647,350.40572589999647,350.40572589999647,350.40572589999647,350.40572589999647,350.40572589999647,350.40572589999647,350.40572589999647,352.32002390001435,352.32002390001435,352.32002390001435,352.32002390001435,352.32002390001435,352.32002390001435,352.32002390001435,57,52,81,37,37,60,352.32002390001435,354.0875874000194,,,,,,,,,,,,３４１,f,１９,2023-05-21_15h37.40.886,RL,2022.2.5,60.192809600810406,
40,71,56,43,0,60,60,60,,,,,,,,,,,None,354.0875874000194,354.0875874000194,354.0875874000194,354.0875874000194,354.0875874000194,354.0875874000194,i,0.23188829998252913,354.33872150001116,354.33872150001116,354.33872150001116,354.33872150001116,354.33872150001116,354.33872150001116,354.6216919000144,356.18734699999914,356.2043909000058,356.2043909000058,356.2043909000058,356.2043909000058,356.2043909000058,356.2043909000058,356.2043909000058,356.2043909000058,356.2043909000058,356.2043909000058,356.2043909000058,356.2043909000058,356.2043909000058,358.0686796999944,358.0686796999944,358.0686796999944,358.0686796999944,358.0686796999944,358.0686796999944,358.0686796999944,56,43,71,40,71,60,358.0686796999944,359.7700958000205,,,,,,,,,,,,３４１,f,１９,2023-05-21_15h37.40.886,RL,2022.2.5,60.192809600810406,
50,64,53,42,0,61,61,61,,,,,,,,,,,None,359.7700958000205,359.7700958000205,359.7700958000205,359.7700958000205,359.7700958000205,359.7700958000205,i,0.3029296000022441,360.1062329999986,360.1062329999986,360.1062329999986,360.1062329999986,360.1062329999986,360.1062329999986,360.38667979999445,362.0529356000188,362.0696434999991,362.0696434999991,362.0696434999991,362.0696434999991,362.0696434999991,362.0696434999991,362.0696434999991,362.0696434999991,362.0696434999991,362.0696434999991,362.0696434999991,362.0696434999991,362.0696434999991,364.0341024000081,364.0341024000081,364.0341024000081,364.0341024000081,364.0341024000081,364.0341024000081,364.0341024000081,53,42,64,50,64,60,364.0341024000081,365.71890020000865,,,,,,,,,,,,３４１,f,１９,2023-05-21_15h37.40.886,RL,2022.2.5,60.192809600810406,
42,54,55,39,0,62,62,62,,,,,,,,,,,None,365.71890020000865,365.71890020000865,365.71890020000865,365.71890020000865,365.71890020000865,365.71890020000865,f,0.28785779999452643,366.03809010001714,366.03809010001714,366.03809010001714,366.03809010001714,366.03809010001714,366.03809010001714,366.3359913000022,367.7855844000005,367.7855844000005,367.7855844000005,367.7855844000005,367.7855844000005,367.7855844000005,367.7855844000005,367.7855844000005,367.7855844000005,367.7855844000005,367.7855844000005,367.7855844000005,367.7855844000005,367.7855844000005,369.5335322000028,369.5335322000028,369.5335322000028,369.5335322000028,369.5335322000028,369.5335322000028,369.5335322000028,55,39,54,42,55,60,369.5335322000028,371.40104789999896,,,,,,,,,,,,３４１,f,１９,2023-05-21_15h37.40.886,RL,2022.2.5,60.192809600810406,
36,57,52,38,0,63,63,63,,,,,,,,,,,None,371.40104789999896,371.40104789999896,371.40104789999896,371.40104789999896,371.40104789999896,371.40104789999896,i,0.2567980000167154,371.68722720001824,371.68722720001824,371.68722720001824,371.68722720001824,371.68722720001824,371.68722720001824,371.9684233000153,373.1177665000141,373.13444240001263,373.13444240001263,373.13444240001263,373.13444240001263,373.13444240001263,373.13444240001263,373.13444240001263,373.13444240001263,373.13444240001263,373.13444240001263,373.13444240001263,373.13444240001263,373.13444240001263,374.58301760000177,374.58301760000177,374.58301760000177,374.58301760000177,374.58301760000177,374.58301760000177,374.58301760000177,52,38,57,36,57,60,374.58301760000177,376.43343239999376,,,,,,,,,,,,３４１,f,１９,2023-05-21_15h37.40.886,RL,2022.2.5,60.192809600810406,
44,61,45,39,0,64,64,64,,,,,,,,,,,None,376.43343239999376,376.43343239999376,376.43343239999376,376.43343239999376,376.43343239999376,376.43343239999376,r,0.30265729999518953,376.7717116000131,376.7717116000131,376.7717116000131,376.7717116000131,376.7717116000131,376.7717116000131,377.05078770002,378.96682729999884,378.9835742000141,378.9835742000141,378.9835742000141,378.9835742000141,378.9835742000141,378.9835742000141,378.9835742000141,378.9835742000141,378.9835742000141,378.9835742000141,378.9835742000141,378.9835742000141,378.9835742000141,381.1981298000028,381.1981298000028,381.1981298000028,381.1981298000028,381.1981298000028,381.1981298000028,381.1981298000028,45,39,61,44,39,60,381.1981298000028,382.79896740001277,,,,,,,,,,,,３４１,f,１９,2023-05-21_15h37.40.886,RL,2022.2.5,60.192809600810406,
43,65,55,37,0,65,65,65,,,,,,,,,,,None,382.79896740001277,382.79896740001277,382.79896740001277,382.79896740001277,382.79896740001277,382.79896740001277,f,0.24924899998586625,383.0664633999986,383.0664633999986,383.0664633999986,383.0664633999986,383.0664633999986,383.0664633999986,383.3497134000063,385.0325098000176,385.0490991999977,385.0490991999977,385.0490991999977,385.0490991999977,385.0490991999977,385.0490991999977,385.0490991999977,385.0490991999977,385.0490991999977,385.0490991999977,385.0490991999977,385.0490991999977,385.0490991999977,387.0303721000091,387.0303721000091,387.0303721000091,387.0303721000091,387.0303721000091,387.0303721000091,387.0303721000091,55,37,65,43,55,60,387.0303721000091,388.86520349999773,,,,,,,,,,,,３４１,f,１９,2023-05-21_15h37.40.886,RL,2022.2.5,60.192809600810406,
38,52,52,31,0,66,66,66,,,,,,,,,,,None,388.86520349999773,388.86520349999773,388.86520349999773,388.86520349999773,388.86520349999773,388.86520349999773,i,0.28909020000719465,389.1818297000136,389.1818297000136,389.1818297000136,389.1818297000136,389.1818297000136,389.1818297000136,389.46557270002086,390.415072600008,390.4316606000066,390.4316606000066,390.4316606000066,390.4316606000066,390.4316606000066,390.4316606000066,390.4316606000066,390.4316606000066,390.4316606000066,390.4316606000066,390.4316606000066,390.4316606000066,390.4316606000066,391.6796030999976,391.6796030999976,391.6796030999976,391.6796030999976,391.6796030999976,391.6796030999976,391.6796030999976,52,31,52,38,52,60,391.6796030999976,393.31409749999875,,,,,,,,,,,,３４１,f,１９,2023-05-21_15h37.40.886,RL,2022.2.5,60.192809600810406,
41,60,52,30,0,67,67,67,,,,,,,,,,,None,393.31409749999875,393.31409749999875,393.31409749999875,393.31409749999875,393.31409749999875,393.31409749999875,i,0.4448032999935094,393.7819182999956,393.7819182999956,393.7819182999956,393.7819182999956,393.7819182999956,393.7819182999956,394.0643612999993,395.5974150999973,395.6142600000021,395.6142600000021,395.6142600000021,395.6142600000021,395.6142600000021,395.6142600000021,395.6142600000021,395.6142600000021,395.6142600000021,395.6142600000021,395.6142600000021,395.6142600000021,395.6142600000021,397.44545210001525,397.44545210001525,397.44545210001525,397.44545210001525,397.44545210001525,397.44545210001525,397.44545210001525,52,30,60,41,60,60,397.44545210001525,399.1467659000191,,,,,,,,,,,,３４１,f,１９,2023-05-21_15h37.40.886,RL,2022.2.5,60.192809600810406,
37,61,55,31,0,68,68,68,,,,,,,,,,,None,399.1467659000191,399.1467659000191,399.1467659000191,399.1467659000191,399.1467659000191,399.1467659000191,f,0.28800929998396896,399.46348430000944,399.46348430000944,399.46348430000944,399.46348430000944,399.46348430000944,399.46348430000944,399.7467553000024,401.1129728000087,401.12973899999633,401.12973899999633,401.12973899999633,401.12973899999633,401.12973899999633,401.12973899999633,401.12973899999633,401.12973899999633,401.12973899999633,401.12973899999633,401.12973899999633,401.12973899999633,401.12973899999633,402.79444080000394,402.79444080000394,402.79444080000394,402.79444080000394,402.79444080000394,402.79444080000394,402.79444080000394,55,31,61,37,55,60,402.79444080000394,404.5789568000182,,,,,,,,,,,,３４１,f,１９,2023-05-21_15h37.40.886,RL,2022.2.5,60.192809600810406,
38,61,60,32,0,69,69,69,,,,,,,,,,,None,404.5789568000182,404.5789568000182,404.5789568000182,404.5789568000182,404.5789568000182,404.5789568000182,i,0.2437991999904625,404.84721860001446,404.84721860001446,404.84721860001446,404.84721860001446,404.84721860001446,404.84721860001446,405.1457928000018,406.9618606000149,406.9618606000149,406.9618606000149,406.9618606000149,406.9618606000149,406.9618606000149,406.9618606000149,406.9618606000149,406.9618606000149,406.9618606000149,406.9618606000149,406.9618606000149,406.9618606000149,406.9618606000149,409.0767683000013,409.0767683000013,409.0767683000013,409.0767683000013,409.0767683000013,409.0767683000013,409.0767683000013,60,32,61,38,61,60,409.0767683000013,410.87826060000225,,,,,,,,,,,,３４１,f,１９,2023-05-21_15h37.40.886,RL,2022.2.5,60.192809600810406,
40,62,51,25,0,70,70,70,,,,,,,,,,,None,410.87826060000225,410.87826060000225,410.87826060000225,410.87826060000225,410.87826060000225,410.87826060000225,i,0.30093669999041595,411.2163722999976,411.2163722999976,411.2163722999976,411.2163722999976,411.2163722999976,411.2163722999976,411.5116621000052,413.01081360000535,413.01081360000535,413.01081360000535,413.01081360000535,413.01081360000535,413.01081360000535,413.01081360000535,413.01081360000535,413.01081360000535,413.01081360000535,413.01081360000535,413.01081360000535,413.01081360000535,413.01081360000535,414.8088298999937,414.8088298999937,414.8088298999937,414.8088298999937,414.8088298999937,414.8088298999937,414.8088298999937,51,25,62,40,62,60,414.8088298999937,416.8105262000172,,,,,,,,,,,,３４１,f,１９,2023-05-21_15h37.40.886,RL,2022.2.5,60.192809600810406,
31,61,68,29,0,71,71,71,,,,,,,,,,,None,416.8105262000172,416.8105262000172,416.8105262000172,416.8105262000172,416.8105262000172,416.8105262000172,i,0.24912990001030266,417.07822660001693,417.07822660001693,417.07822660001693,417.07822660001693,417.07822660001693,417.07822660001693,417.3603066999931,418.9264269999985,418.94314499999746,418.94314499999746,418.94314499999746,418.94314499999746,418.94314499999746,418.94314499999746,418.94314499999746,418.94314499999746,418.94314499999746,418.94314499999746,418.94314499999746,418.94314499999746,418.94314499999746,420.808194000012,420.808194000012,420.808194000012,420.808194000012,420.808194000012,420.808194000012,420.808194000012,68,29,61,31,61,60,420.808194000012,422.4924232000194,,,,,,,,,,,,３４１,f,１９,2023-05-21_15h37.40.886,RL,2022.2.5,60.192809600810406,
43,60,59,25,0,72,72,72,,,,,,,,,,,None,422.4924232000194,422.4924232000194,422.4924232000194,422.4924232000194,422.4924232000194,422.4924232000194,i,0.27121940001961775,422.79435330000706,422.79435330000706,422.79435330000706,422.79435330000706,422.79435330000706,422.79435330000706,423.092673200008,424.0256136000098,424.0256136000098,424.0256136000098,424.0256136000098,424.0256136000098,424.0256136000098,424.0256136000098,424.0256136000098,424.0256136000098,424.0256136000098,424.0256136000098,424.0256136000098,424.0256136000098,424.0256136000098,425.25686310001765,425.25686310001765,425.25686310001765,425.25686310001765,425.25686310001765,425.25686310001765,425.25686310001765,59,25,60,43,60,60,425.25686310001765,427.0750759000075,,,,,,,,,,,,３４１,f,１９,2023-05-21_15h37.40.886,RL,2022.2.5,60.192809600810406,
37,74,60,18,0,73,73,73,,,,,,,,,,,None,427.0750759000075,427.0750759000075,427.0750759000075,427.0750759000075,427.0750759000075,427.0750759000075,i,0.2474017000058666,427.3420386000071,427.3420386000071,427.3420386000071,427.3420386000071,427.3420386000071,427.3420386000071,427.6253529000096,429.19186849999824,429.20823650000966,429.20823650000966,429.20823650000966,429.20823650000966,429.20823650000966,429.20823650000966,429.20823650000966,429.20823650000966,429.20823650000966,429.20823650000966,429.20823650000966,429.20823650000966,429.20823650000966,431.0730208000168,431.0730208000168,431.0730208000168,431.0730208000168,431.0730208000168,431.0730208000168,431.0730208000168,60,18,74,37,74,60,431.0730208000168,432.77362160000484,,,,,,,,,,,,３４１,f,１９,2023-05-21_15h37.40.886,RL,2022.2.5,60.192809600810406,
32,68,64,27,0,74,74,74,,,,,,,,,,,None,432.77362160000484,432.77362160000484,432.77362160000484,432.77362160000484,432.77362160000484,432.77362160000484,i,0.34578639999381267,433.14203030001954,433.14203030001954,433.14203030001954,433.14203030001954,433.14203030001954,433.14203030001954,433.42431910001324,434.25763510001707,434.2742603000079,434.2742603000079,434.2742603000079,434.2742603000079,434.2742603000079,434.2742603000079,434.2742603000079,434.2742603000079,434.2742603000079,434.2742603000079,434.2742603000079,434.2742603000079,434.2742603000079,435.40513990001637,435.40513990001637,435.40513990001637,435.40513990001637,435.40513990001637,435.40513990001637,435.40513990001637,64,27,68,32,68,60,435.40513990001637,437.1720667000045,,,,,,,,,,,,３４１,f,１９,2023-05-21_15h37.40.886,RL,2022.2.5,60.192809600810406,
51,67,49,28,0,75,75,75,,,,,,,,,,,q,450.7542757000192,450.7542757000192,450.7542757000192,450.7542757000192,450.7542757000192,450.7542757000192,i,0.7759298000019044,451.559382300009,451.559382300009,451.559382300009,451.559382300009,451.559382300009,451.559382300009,451.83803000001353,453.3707957000006,453.40427860000636,453.40427860000636,453.40427860000636,453.40427860000636,453.40427860000636,453.40427860000636,453.40427860000636,453.40427860000636,453.40427860000636,453.40427860000636,453.40427860000636,453.40427860000636,453.40427860000636,455.2355213999981,455.2355213999981,455.2355213999981,455.2355213999981,455.2355213999981,455.2355213999981,455.2355213999981,49,28,67,51,67,60,455.2355213999981,457.1867168000026,437.1720667000045,437.1720667000045,8.533711199997924,445.7390248000156,445.7390248000156,450.7542757000192,450.7542757000192,,,,,３４１,f,１９,2023-05-21_15h37.40.886,RL,2022.2.5,60.192809600810406,
38,69,52,22,0,76,76,76,,,,,,,,,,,None,457.1867168000026,457.1867168000026,457.1867168000026,457.1867168000026,457.1867168000026,457.1867168000026,i,0.26189299998804927,457.4700928000093,457.4700928000093,457.4700928000093,457.4700928000093,457.4700928000093,457.4700928000093,457.75357520001126,458.58629700000165,458.602973800007,458.602973800007,458.602973800007,458.602973800007,458.602973800007,458.602973800007,458.602973800007,458.602973800007,458.602973800007,458.602973800007,458.602973800007,458.602973800007,458.602973800007,459.7345423999941,459.7345423999941,459.7345423999941,459.7345423999941,459.7345423999941,459.7345423999941,459.7345423999941,52,22,69,38,69,60,459.7345423999941,461.55266879999544,,,,,,,,,,,,３４１,f,１９,2023-05-21_15h37.40.886,RL,2022.2.5,60.192809600810406,
32,64,58,17,0,77,77,77,,,,,,,,,,,None,461.55266879999544,461.55266879999544,461.55266879999544,461.55266879999544,461.55266879999544,461.55266879999544,i,0.2546866000047885,461.83696549999877,461.83696549999877,461.83696549999877,461.83696549999877,461.83696549999877,461.83696549999877,462.11878320001415,463.4191991999978,463.45221240000683,463.45221240000683,463.45221240000683,463.45221240000683,463.45221240000683,463.45221240000683,463.45221240000683,463.45221240000683,463.45221240000683,463.45221240000683,463.45221240000683,463.45221240000683,463.45221240000683,465.05029080001987,465.05029080001987,465.05029080001987,465.05029080001987,465.05029080001987,465.05029080001987,465.05029080001987,58,17,64,32,64,60,465.05029080001987,466.70114789999207,,,,,,,,,,,,３４１,f,１９,2023-05-21_15h37.40.886,RL,2022.2.5,60.192809600810406,
31,67,64,17,0,78,78,78,,,,,,,,,,,None,466.70114789999207,466.70114789999207,466.70114789999207,466.70114789999207,466.70114789999207,466.70114789999207,i,0.19766309999977238,466.9186634999933,466.9186634999933,466.9186634999933,466.9186634999933,466.9186634999933,466.9186634999933,467.20152490001055,468.18472059999476,468.20183460001135,468.20183460001135,468.20183460001135,468.20183460001135,468.20183460001135,468.20183460001135,468.20183460001135,468.20183460001135,468.20183460001135,468.20183460001135,468.20183460001135,468.20183460001135,468.20183460001135,469.48264729999937,469.48264729999937,469.48264729999937,469.48264729999937,469.48264729999937,469.48264729999937,469.48264729999937,64,17,67,31,67,60,469.48264729999937,471.4002574000042,,,,,,,,,,,,３４１,f,１９,2023-05-21_15h37.40.886,RL,2022.2.5,60.192809600810406,
38,61,50,25,0,79,79,79,,,,,,,,,,,None,471.4002574000042,471.4002574000042,471.4002574000042,471.4002574000042,471.4002574000042,471.4002574000042,i,0.23132140000234358,471.65223390000756,471.65223390000756,471.65223390000756,471.65223390000756,471.65223390000756,471.65223390000756,471.93395890001557,472.9008595000196,472.91748269999516,472.91748269999516,472.91748269999516,472.91748269999516,472.91748269999516,472.91748269999516,472.91748269999516,472.91748269999516,472.91748269999516,472.91748269999516,472.91748269999516,472.91748269999516,472.91748269999516,474.1820926000073,474.1820926000073,474.1820926000073,474.1820926000073,474.1820926000073,474.1820926000073,474.1820926000073,50,25,61,38,61,60,474.1820926000073,475.7997358000139,,,,,,,,,,,,３４１,f,１９,2023-05-21_15h37.40.886,RL,2022.2.5,60.192809600810406,
31,71,52,18,0,80,80,80,,,,,,,,,,,None,475.7997358000139,475.7997358000139,475.7997358000139,475.7997358000139,475.7997358000139,475.7997358000139,r,0.20884840001235716,476.03397250000853,476.03397250000853,476.03397250000853,476.03397250000853,476.03397250000853,476.03397250000853,476.31705240000156,478.04970120001235,478.0662644999975,478.0662644999975,478.0662644999975,478.0662644999975,478.0662644999975,478.0662644999975,478.0662644999975,478.0662644999975,478.0662644999975,478.0662644999975,478.0662644999975,478.0662644999975,478.0662644999975,480.0977613000141,480.0977613000141,480.0977613000141,480.0977613000141,480.0977613000141,480.0977613000141,480.0977613000141,52,18,71,31,18,60,480.0977613000141,481.9315448999987,,,,,,,,,,,,３４１,f,１９,2023-05-21_15h37.40.886,RL,2022.2.5,60.192809600810406,
37,66,52,18,0,81,81,81,,,,,,,,,,,None,481.9315448999987,481.9315448999987,481.9315448999987,481.9315448999987,481.9315448999987,481.9315448999987,f,0.22883780000847764,482.18258870000136,482.18258870000136,482.18258870000136,482.18258870000136,482.18258870000136,482.18258870000136,482.46534300001804,483.56566930000554,483.5821469000075,483.5821469000075,483.5821469000075,483.5821469000075,483.5821469000075,483.5821469000075,483.5821469000075,483.5821469000075,483.5821469000075,483.5821469000075,483.5821469000075,483.5821469000075,483.5821469000075,484.98043009999674,484.98043009999674,484.98043009999674,484.98043009999674,484.98043009999674,484.98043009999674,484.98043009999674,52,18,66,37,52,60,484.98043009999674,486.93160139999236,,,,,,,,,,,,３４１,f,１９,2023-05-21_15h37.40.886,RL,2022.2.5,60.192809600810406,
41,65,57,31,0,82,82,82,,,,,,,,,,,None,486.93160139999236,486.93160139999236,486.93160139999236,486.93160139999236,486.93160139999236,486.93160139999236,i,0.22857969999313354,487.1817136000027,487.1817136000027,487.1817136000027,487.1817136000027,487.1817136000027,487.1817136000027,487.46448270001565,488.7648603999987,488.78119579999475,488.78119579999475,488.78119579999475,488.78119579999475,488.78119579999475,488.78119579999475,488.78119579999475,488.78119579999475,488.78119579999475,488.78119579999475,488.78119579999475,488.78119579999475,488.78119579999475,490.3794484999962,490.3794484999962,490.3794484999962,490.3794484999962,490.3794484999962,490.3794484999962,490.3794484999962,57,31,65,41,65,60,490.3794484999962,491.9467026999919,,,,,,,,,,,,３４１,f,１９,2023-05-21_15h37.40.886,RL,2022.2.5,60.192809600810406,
41,64,45,17,0,83,83,83,,,,,,,,,,,None,491.9467026999919,491.9467026999919,491.9467026999919,491.9467026999919,491.9467026999919,491.9467026999919,j,0.21173509999061935,492.18263220001245,492.18263220001245,492.18263220001245,492.18263220001245,492.18263220001245,492.18263220001245,492.46389020001516,493.33036049999646,493.3469902999932,493.3469902999932,493.3469902999932,493.3469902999932,493.3469902999932,493.3469902999932,493.3469902999932,493.3469902999932,493.3469902999932,493.3469902999932,493.3469902999932,493.3469902999932,493.3469902999932,494.51204230001895,494.51204230001895,494.51204230001895,494.51204230001895,494.51204230001895,494.51204230001895,494.51204230001895,45,17,64,41,41,60,494.51204230001895,496.44646780000767,,,,,,,,,,,,３４１,f,１９,2023-05-21_15h37.40.886,RL,2022.2.5,60.192809600810406,
39,64,39,25,0,84,84,84,,,,,,,,,,,None,496.44646780000767,496.44646780000767,496.44646780000767,496.44646780000767,496.44646780000767,496.44646780000767,i,0.07619319998775609,496.55085410000174,496.55085410000174,496.55085410000174,496.55085410000174,496.55085410000174,496.55085410000174,496.8467835000192,497.6965676000109,497.6965676000109,497.6965676000109,497.6965676000109,497.6965676000109,497.6965676000109,497.6965676000109,497.6965676000109,497.6965676000109,497.6965676000109,497.6965676000109,497.6965676000109,497.6965676000109,497.6965676000109,498.84455660000094,498.84455660000094,498.84455660000094,498.84455660000094,498.84455660000094,498.84455660000094,498.84455660000094,39,25,64,39,64,60,498.84455660000094,500.76201900001615,,,,,,,,,,,,３４１,f,１９,2023-05-21_15h37.40.886,RL,2022.2.5,60.192809600810406,
53,64,52,14,0,85,85,85,,,,,,,,,,,None,500.76201900001615,500.76201900001615,500.76201900001615,500.76201900001615,500.76201900001615,500.76201900001615,i,0.22724889998789877,501.0157678000105,501.0157678000105,501.0157678000105,501.0157678000105,501.0157678000105,501.0157678000105,501.29560189999756,502.91187250000075,502.9284606000001,502.9284606000001,502.9284606000001,502.9284606000001,502.9284606000001,502.9284606000001,502.9284606000001,502.9284606000001,502.9284606000001,502.9284606000001,502.9284606000001,502.9284606000001,502.9284606000001,504.8432931000134,504.8432931000134,504.8432931000134,504.8432931000134,504.8432931000134,504.8432931000134,504.8432931000134,52,14,64,53,64,60,504.8432931000134,506.52784090000205,,,,,,,,,,,,３４１,f,１９,2023-05-21_15h37.40.886,RL,2022.2.5,60.192809600810406,
40,62,48,15,0,86,86,86,,,,,,,,,,,None,506.52784090000205,506.52784090000205,506.52784090000205,506.52784090000205,506.52784090000205,506.52784090000205,i,0.19353280001087114,506.7462005999987,506.7462005999987,506.7462005999987,506.7462005999987,506.7462005999987,506.7462005999987,507.0445455000154,507.9946307000064,507.9946307000064,507.9946307000064,507.9946307000064,507.9946307000064,507.9946307000064,507.9946307000064,507.9946307000064,507.9946307000064,507.9946307000064,507.9946307000064,507.9946307000064,507.9946307000064,507.9946307000064,509.24257910001324,509.24257910001324,509.24257910001324,509.24257910001324,509.24257910001324,509.24257910001324,509.24257910001324,48,15,62,40,62,60,509.24257910001324,511.2105029000086,,,,,,,,,,,,３４１,f,１９,2023-05-21_15h37.40.886,RL,2022.2.5,60.192809600810406,
43,66,45,18,0,87,87,87,,,,,,,,,,,None,511.2105029000086,511.2105029000086,511.2105029000086,511.2105029000086,511.2105029000086,511.2105029000086,i,0.29062339998199604,511.5273911000113,511.5273911000113,511.5273911000113,511.5273911000113,511.5273911000113,511.5273911000113,511.8102934000199,512.9601154999982,512.9768953000021,512.9768953000021,512.9768953000021,512.9768953000021,512.9768953000021,512.9768953000021,512.9768953000021,512.9768953000021,512.9768953000021,512.9768953000021,512.9768953000021,512.9768953000021,512.9768953000021,514.4248751999985,514.4248751999985,514.4248751999985,514.4248751999985,514.4248751999985,514.4248751999985,514.4248751999985,45,18,66,43,66,60,514.4248751999985,516.2761566000117,,,,,,,,,,,,３４１,f,１９,2023-05-21_15h37.40.886,RL,2022.2.5,60.192809600810406,
45,62,52,23,0,88,88,88,,,,,,,,,,,None,516.2761566000117,516.2761566000117,516.2761566000117,516.2761566000117,516.2761566000117,516.2761566000117,i,0.24737299999105744,516.5439920999925,516.5439920999925,516.5439920999925,516.5439920999925,516.5439920999925,516.5439920999925,516.8430826000113,518.175970500015,518.175970500015,518.175970500015,518.175970500015,518.175970500015,518.175970500015,518.175970500015,518.175970500015,518.175970500015,518.175970500015,518.175970500015,518.175970500015,518.175970500015,518.175970500015,519.8075262000202,519.8075262000202,519.8075262000202,519.8075262000202,519.8075262000202,519.8075262000202,519.8075262000202,52,23,62,45,62,60,519.8075262000202,521.7416768000112,,,,,,,,,,,,３４１,f,１９,2023-05-21_15h37.40.886,RL,2022.2.5,60.192809600810406,
49,65,53,19,0,89,89,89,,,,,,,,,,,None,521.7416768000112,521.7416768000112,521.7416768000112,521.7416768000112,521.7416768000112,521.7416768000112,i,0.2466400999983307,522.0105347000062,522.0105347000062,522.0105347000062,522.0105347000062,522.0105347000062,522.0105347000062,522.2924118000083,523.2083738000074,523.2249369000201,523.2249369000201,523.2249369000201,523.2249369000201,523.2249369000201,523.2249369000201,523.2249369000201,523.2249369000201,523.2249369000201,523.2249369000201,523.2249369000201,523.2249369000201,523.2249369000201,524.4399255000171,524.4399255000171,524.4399255000171,524.4399255000171,524.4399255000171,524.4399255000171,524.4399255000171,53,19,65,49,65,60,524.4399255000171,526.2911503000068,,,,,,,,,,,,３４１,f,１９,2023-05-21_15h37.40.886,RL,2022.2.5,60.192809600810406,
45,62,45,17,0,90,90,90,,,,,,,,,,,None,526.2911503000068,526.2911503000068,526.2911503000068,526.2911503000068,526.2911503000068,526.2911503000068,i,0.2497991000127513,526.5590826999978,526.5590826999978,526.5590826999978,526.5590826999978,526.5590826999978,526.5590826999978,526.8579718999972,528.4242117000103,528.4242117000103,528.4242117000103,528.4242117000103,528.4242117000103,528.4242117000103,528.4242117000103,528.4242117000103,528.4242117000103,528.4242117000103,528.4242117000103,528.4242117000103,528.4242117000103,528.4242117000103,530.2887021999923,530.2887021999923,530.2887021999923,530.2887021999923,530.2887021999923,530.2887021999923,530.2887021999923,45,17,62,45,62,60,530.2887021999923,531.8731604000204,,,,,,,,,,,,３４１,f,１９,2023-05-21_15h37.40.886,RL,2022.2.5,60.192809600810406,
42,57,49,16,0,91,91,91,,,,,,,,,,,None,531.8731604000204,531.8731604000204,531.8731604000204,531.8731604000204,531.8731604000204,531.8731604000204,i,0.323288199986564,532.2237521000206,532.2237521000206,532.2237521000206,532.2237521000206,532.2237521000206,532.2237521000206,532.5069413000019,534.3731334000186,534.3900230000145,534.3900230000145,534.3900230000145,534.3900230000145,534.3900230000145,534.3900230000145,534.3900230000145,534.3900230000145,534.3900230000145,534.3900230000145,534.3900230000145,534.3900230000145,534.3900230000145,536.554550300003,536.554550300003,536.554550300003,536.554550300003,536.554550300003,536.554550300003,536.554550300003,49,16,57,42,57,60,536.554550300003,538.5053316999984,,,,,,,,,,,,３４１,f,１９,2023-05-21_15h37.40.886,RL,2022.2.5,60.192809600810406,
45,65,50,16,0,92,92,92,,,,,,,,,,,None,538.5053316999984,538.5053316999984,538.5053316999984,538.5053316999984,538.5053316999984,538.5053316999984,f,0.23501879998366348,538.7769131000096,538.7769131000096,538.7769131000096,538.7769131000096,538.7769131000096,538.7769131000096,539.0557048000046,540.2892584000074,540.3054455000092,540.3054455000092,540.3054455000092,540.3054455000092,540.3054455000092,540.3054455000092,540.3054455000092,540.3054455000092,540.3054455000092,540.3054455000092,540.3054455000092,540.3054455000092,540.3054455000092,541.8369012000039,541.8369012000039,541.8369012000039,541.8369012000039,541.8369012000039,541.8369012000039,541.8369012000039,50,16,65,45,50,60,541.8369012000039,543.8377150000015,,,,,,,,,,,,３４１,f,１９,2023-05-21_15h37.40.886,RL,2022.2.5,60.192809600810406,
51,70,49,24,0,93,93,93,,,,,,,,,,,None,543.8377150000015,543.8377150000015,543.8377150000015,543.8377150000015,543.8377150000015,543.8377150000015,j,0.2202458999818191,544.0926124000107,544.0926124000107,544.0926124000107,544.0926124000107,544.0926124000107,544.0926124000107,544.3714942999941,545.7212408000196,545.7380681000068,545.7380681000068,545.7380681000068,545.7380681000068,545.7380681000068,545.7380681000068,545.7380681000068,545.7380681000068,545.7380681000068,545.7380681000068,545.7380681000068,545.7380681000068,545.7380681000068,547.3858720000135,547.3858720000135,547.3858720000135,547.3858720000135,547.3858720000135,547.3858720000135,547.3858720000135,49,24,70,51,51,60,547.3858720000135,549.0536959000165,,,,,,,,,,,,３４１,f,１９,2023-05-21_15h37.40.886,RL,2022.2.5,60.192809600810406,
51,64,48,25,0,94,94,94,,,,,,,,,,,None,549.0536959000165,549.0536959000165,549.0536959000165,549.0536959000165,549.0536959000165,549.0536959000165,i,0.23859100000117905,549.3209508,549.3209508,549.3209508,549.3209508,549.3209508,549.3209508,549.6041357000067,551.1371424999961,551.153744100011,551.153744100011,551.153744100011,551.153744100011,551.153744100011,551.153744100011,551.153744100011,551.153744100011,551.153744100011,551.153744100011,551.153744100011,551.153744100011,551.153744100011,552.9847147999972,552.9847147999972,552.9847147999972,552.9847147999972,552.9847147999972,552.9847147999972,552.9847147999972,48,25,64,51,64,60,552.9847147999972,554.9693945000181,,,,,,,,,,,,３４１,f,１９,2023-05-21_15h37.40.886,RL,2022.2.5,60.192809600810406,
52,69,56,26,0,95,95,95,,,,,,,,,,,None,554.9693945000181,554.9693945000181,554.9693945000181,554.9693945000181,554.9693945000181,554.9693945000181,i,0.2314061000070069,555.2196079000132,555.2196079000132,555.2196079000132,555.2196079000132,555.2196079000132,555.2196079000132,555.5036428000021,557.0193608000118,557.0359925999946,557.0359925999946,557.0359925999946,557.0359925999946,557.0359925999946,557.0359925999946,557.0359925999946,557.0359925999946,557.0359925999946,557.0359925999946,557.0359925999946,557.0359925999946,557.0359925999946,558.8507225000067,558.8507225000067,558.8507225000067,558.8507225000067,558.8507225000067,558.8507225000067,558.8507225000067,56,26,69,52,69,60,558.8507225000067,560.6852091000183,,,,,,,,,,,,３４１,f,１９,2023-05-21_15h37.40.886,RL,2022.2.5,60.192809600810406,
54,65,54,25,0,96,96,96,,,,,,,,,,,None,560.6852091000183,560.6852091000183,560.6852091000183,560.6852091000183,560.6852091000183,560.6852091000183,i,0.3024403000017628,561.0249949000136,561.0249949000136,561.0249949000136,561.0249949000136,561.0249949000136,561.0249949000136,561.3020801999955,562.7186137000099,562.734849600005,562.734849600005,562.734849600005,562.734849600005,562.734849600005,562.734849600005,562.734849600005,562.734849600005,562.734849600005,562.734849600005,562.734849600005,562.734849600005,562.734849600005,564.4494682000077,564.4494682000077,564.4494682000077,564.4494682000077,564.4494682000077,564.4494682000077,564.4494682000077,54,25,65,54,65,60,564.4494682000077,566.3343195000198,,,,,,,,,,,,３４１,f,１９,2023-05-21_15h37.40.886,RL,2022.2.5,60.192809600810406,
52,74,53,27,0,97,97,97,,,,,,,,,,,None,566.3343195000198,566.3343195000198,566.3343195000198,566.3343195000198,566.3343195000198,566.3343195000198,i,0.3069662000052631,566.6677845999948,566.6677845999948,566.6677845999948,566.6677845999948,566.6677845999948,566.6677845999948,566.9511070000008,567.7674127999926,567.7839683000057,567.7839683000057,567.7839683000057,567.7839683000057,567.7839683000057,567.7839683000057,567.7839683000057,567.7839683000057,567.7839683000057,567.7839683000057,567.7839683000057,567.7839683000057,567.7839683000057,568.8987780000025,568.8987780000025,568.8987780000025,568.8987780000025,568.8987780000025,568.8987780000025,568.8987780000025,53,27,74,52,74,60,568.8987780000025,570.5663201000134,,,,,,,,,,,,３４１,f,１９,2023-05-21_15h37.40.886,RL,2022.2.5,60.192809600810406,
50,68,54,24,0,98,98,98,,,,,,,,,,,None,570.5663201000134,570.5663201000134,570.5663201000134,570.5663201000134,570.5663201000134,570.5663201000134,i,0.31753089997801,570.900252899999,570.900252899999,570.900252899999,570.900252899999,570.900252899999,570.900252899999,571.2002109000168,572.966360099992,572.966360099992,572.966360099992,572.966360099992,572.966360099992,572.966360099992,572.966360099992,572.966360099992,572.966360099992,572.966360099992,572.966360099992,572.966360099992,572.966360099992,572.966360099992,575.0308368999977,575.0308368999977,575.0308368999977,575.0308368999977,575.0308368999977,575.0308368999977,575.0308368999977,54,24,68,50,68,60,575.0308368999977,576.7152891000151,,,,,,,,,,,,３４１,f,１９,2023-05-21_15h37.40.886,RL,2022.2.5,60.192809600810406,
41,68,54,21,0,99,99,99,,,,,,,,,,,None,576.7152891000151,576.7152891000151,576.7152891000151,576.7152891000151,576.7152891000151,576.7152891000151,i,0.19698259999859147,576.9339285000169,576.9339285000169,576.9339285000169,576.9339285000169,576.9339285000169,576.9339285000169,577.2325693000166,578.6988788000017,578.6988788000017,578.6988788000017,578.6988788000017,578.6988788000017,578.6988788000017,578.6988788000017,578.6988788000017,578.6988788000017,578.6988788000017,578.6988788000017,578.6988788000017,578.6988788000017,578.6988788000017,580.4639732000069,580.4639732000069,580.4639732000069,580.4639732000069,580.4639732000069,580.4639732000069,580.4639732000069,54,21,68,41,68,60,580.4639732000069,582.464792600018,,,,,,,,,,,,３４１,f,１９,2023-05-21_15h37.40.886,RL,2022.2.5,60.192809600810406,
41,67,55,18,0,100,100,100,,,,,,,,,,,None,582.464792600018,582.464792600018,582.464792600018,582.464792600018,582.464792600018,582.464792600018,i,0.21292780002113432,582.6980836000002,582.6980836000002,582.6980836000002,582.6980836000002,582.6980836000002,582.6980836000002,582.9819083000184,584.3980293000059,584.4145594000001,584.4145594000001,584.4145594000001,584.4145594000001,584.4145594000001,584.4145594000001,584.4145594000001,584.4145594000001,584.4145594000001,584.4145594000001,584.4145594000001,584.4145594000001,584.4145594000001,586.1293533999997,586.1293533999997,586.1293533999997,586.1293533999997,586.1293533999997,586.1293533999997,586.1293533999997,55,18,67,41,67,60,586.1293533999997,587.8637998000195,,,,,,,,,,,,３４１,f,１９,2023-05-21_15h37.40.886,RL,2022.2.5,60.192809600810406,
44,73,56,25,0,101,101,101,,,,,,,,,,,None,587.8637998000195,587.8637998000195,587.8637998000195,587.8637998000195,587.8637998000195,587.8637998000195,i,0.3939826999849174,588.2806163000059,588.2806163000059,588.2806163000059,588.2806163000059,588.2806163000059,588.2806163000059,588.5807596000086,590.3301466999983,590.3301466999983,590.3301466999983,590.3301466999983,590.3301466999983,590.3301466999983,590.3301466999983,590.3301466999983,590.3301466999983,590.3301466999983,590.3301466999983,590.3301466999983,590.3301466999983,590.3301466999983,592.37830880002,592.37830880002,592.37830880002,592.37830880002,592.37830880002,592.37830880002,592.37830880002,56,25,73,44,73,60,592.37830880002,594.2959094000107,,,,,,,,,,,,３４１,f,１９,2023-05-21_15h37.40.886,RL,2022.2.5,60.192809600810406,
45,72,54,20,0,102,102,102,,,,,,,,,,,None,594.2959094000107,594.2959094000107,594.2959094000107,594.2959094000107,594.2959094000107,594.2959094000107,i,0.31812350000836886,594.6509731000115,594.6509731000115,594.6509731000115,594.6509731000115,594.6509731000115,594.6509731000115,594.9295241000073,596.562539400009,596.5789502999978,596.5789502999978,596.5789502999978,596.5789502999978,596.5789502999978,596.5789502999978,596.5789502999978,596.5789502999978,596.5789502999978,596.5789502999978,596.5789502999978,596.5789502999978,596.5789502999978,598.5106500000111,598.5106500000111,598.5106500000111,598.5106500000111,598.5106500000111,598.5106500000111,598.5106500000111,54,20,72,45,72,60,598.5106500000111,600.3279694000084,,,,,,,,,,,,３４１,f,１９,2023-05-21_15h37.40.886,RL,2022.2.5,60.192809600810406,
45,77,54,37,0,103,103,103,,,,,,,,,,,None,600.3279694000084,600.3279694000084,600.3279694000084,600.3279694000084,600.3279694000084,600.3279694000084,i,0.32008740000310354,600.6828251999978,600.6828251999978,600.6828251999978,600.6828251999978,600.6828251999978,600.6828251999978,600.9618660999986,602.5113355999929,602.544778600015,602.544778600015,602.544778600015,602.544778600015,602.544778600015,602.544778600015,602.544778600015,602.544778600015,602.544778600015,602.544778600015,602.544778600015,602.544778600015,602.544778600015,604.4094523999956,604.4094523999956,604.4094523999956,604.4094523999956,604.4094523999956,604.4094523999956,604.4094523999956,54,37,77,45,77,60,604.4094523999956,606.3272164000082,,,,,,,,,,,,３４１,f,１９,2023-05-21_15h37.40.886,RL,2022.2.5,60.192809600810406,
40,79,50,23,0,104,104,104,,,,,,,,,,,None,606.3272164000082,606.3272164000082,606.3272164000082,606.3272164000082,606.3272164000082,606.3272164000082,i,0.2544798000017181,606.6148654000135,606.6148654000135,606.6148654000135,606.6148654000135,606.6148654000135,606.6148654000135,606.9107375000021,607.9439420000126,607.9439420000126,607.9439420000126,607.9439420000126,607.9439420000126,607.9439420000126,607.9439420000126,607.9439420000126,607.9439420000126,607.9439420000126,607.9439420000126,607.9439420000126,607.9439420000126,607.9439420000126,609.2752954000025,609.2752954000025,609.2752954000025,609.2752954000025,609.2752954000025,609.2752954000025,609.2752954000025,50,23,79,40,79,60,609.2752954000025,611.2761572000163,,,,,,,,,,,,３４１,f,１９,2023-05-21_15h37.40.886,RL,2022.2.5,60.192809600810406,
44,84,53,34,0,105,105,105,,,,,,,,,,,None,611.2761572000163,611.2761572000163,611.2761572000163,611.2761572000163,611.2761572000163,611.2761572000163,i,0.23053480000817217,611.5274496000202,611.5274496000202,611.5274496000202,611.5274496000202,611.5274496000202,611.5274496000202,611.809662100015,612.992945200007,613.0264041000046,613.0264041000046,613.0264041000046,613.0264041000046,613.0264041000046,613.0264041000046,613.0264041000046,613.0264041000046,613.0264041000046,613.0264041000046,613.0264041000046,613.0264041000046,613.0264041000046,614.5077510999981,614.5077510999981,614.5077510999981,614.5077510999981,614.5077510999981,614.5077510999981,614.5077510999981,53,34,84,44,84,60,614.5077510999981,616.1588507000124,,,,,,,,,,,,３４１,f,１９,2023-05-21_15h37.40.886,RL,2022.2.5,60.192809600810406,
38,85,54,37,0,106,106,106,,,,,,,,,,,None,616.1588507000124,616.1588507000124,616.1588507000124,616.1588507000124,616.1588507000124,616.1588507000124,i,0.25476149999303743,616.4471034000162,616.4471034000162,616.4471034000162,616.4471034000162,616.4471034000162,616.4471034000162,616.742350799992,617.7918575000076,617.7918575000076,617.7918575000076,617.7918575000076,617.7918575000076,617.7918575000076,617.7918575000076,617.7918575000076,617.7918575000076,617.7918575000076,617.7918575000076,617.7918575000076,617.7918575000076,617.7918575000076,619.1402777000039,619.1402777000039,619.1402777000039,619.1402777000039,619.1402777000039,619.1402777000039,619.1402777000039,54,37,85,38,85,60,619.1402777000039,621.1075463000161,,,,,,,,,,,,３４１,f,１９,2023-05-21_15h37.40.886,RL,2022.2.5,60.192809600810406,
47,78,56,40,0,107,107,107,,,,,,,,,,,None,621.1075463000161,621.1075463000161,621.1075463000161,621.1075463000161,621.1075463000161,621.1075463000161,i,0.23013449998688884,621.3582823000033,621.3582823000033,621.3582823000033,621.3582823000033,621.3582823000033,621.3582823000033,621.6415144000202,623.3580371999997,623.3745504000108,623.3745504000108,623.3745504000108,623.3745504000108,623.3745504000108,623.3745504000108,623.3745504000108,623.3745504000108,623.3745504000108,623.3745504000108,623.3745504000108,623.3745504000108,623.3745504000108,625.3889138000086,625.3889138000086,625.3889138000086,625.3889138000086,625.3889138000086,625.3889138000086,625.3889138000086,56,40,78,47,78,60,625.3889138000086,626.9738376000023,,,,,,,,,,,,３４１,f,１９,2023-05-21_15h37.40.886,RL,2022.2.5,60.192809600810406,
43,73,51,32,0,108,108,108,,,,,,,,,,,None,626.9738376000023,626.9738376000023,626.9738376000023,626.9738376000023,626.9738376000023,626.9738376000023,j,0.23094519998994656,627.2250746999925,627.2250746999925,627.2250746999925,627.2250746999925,627.2250746999925,627.2250746999925,627.5233979000186,629.3402946999995,629.3402946999995,629.3402946999995,629.3402946999995,629.3402946999995,629.3402946999995,629.3402946999995,629.3402946999995,629.3402946999995,629.3402946999995,629.3402946999995,629.3402946999995,629.3402946999995,629.3402946999995,631.4543269000133,631.4543269000133,631.4543269000133,631.4543269000133,631.4543269000133,631.4543269000133,631.4543269000133,51,32,73,43,43,60,631.4543269000133,632.9720423000108,,,,,,,,,,,,３４１,f,１９,2023-05-21_15h37.40.886,RL,2022.2.5,60.192809600810406,
46,71,50,31,0,109,109,109,,,,,,,,,,,None,632.9720423000108,632.9720423000108,632.9720423000108,632.9720423000108,632.9720423000108,632.9720423000108,i,0.24674919998506084,633.2424112000153,633.2424112000153,633.2424112000153,633.2424112000153,633.2424112000153,633.2424112000153,633.5226810000022,634.3724554000073,634.4058256999997,634.4058256999997,634.4058256999997,634.4058256999997,634.4058256999997,634.4058256999997,634.4058256999997,634.4058256999997,634.4058256999997,634.4058256999997,634.4058256999997,634.4058256999997,634.4058256999997,635.5538894000056,635.5538894000056,635.5538894000056,635.5538894000056,635.5538894000056,635.5538894000056,635.5538894000056,50,31,71,46,71,60,635.5538894000056,637.4386276000005,,,,,,,,,,,,３４１,f,１９,2023-05-21_15h37.40.886,RL,2022.2.5,60.192809600810406,
44,77,51,33,0,110,110,110,,,,,,,,,,,None,637.4386276000005,637.4386276000005,637.4386276000005,637.4386276000005,637.4386276000005,637.4386276000005,i,0.21337740001035854,637.6737612000143,637.6737612000143,637.6737612000143,637.6737612000143,637.6737612000143,637.6737612000143,637.9717979000125,638.8881246999954,638.8881246999954,638.8881246999954,638.8881246999954,638.8881246999954,638.8881246999954,638.8881246999954,638.8881246999954,638.8881246999954,638.8881246999954,638.8881246999954,638.8881246999954,638.8881246999954,638.8881246999954,640.1035373000195,640.1035373000195,640.1035373000195,640.1035373000195,640.1035373000195,640.1035373000195,640.1035373000195,51,33,77,44,77,60,640.1035373000195,641.7039988000179,,,,,,,,,,,,３４１,f,１９,2023-05-21_15h37.40.886,RL,2022.2.5,60.192809600810406,
47,72,52,39,0,111,111,111,,,,,,,,,,,None,641.7039988000179,641.7039988000179,641.7039988000179,641.7039988000179,641.7039988000179,641.7039988000179,i,0.19585560000268742,641.9224735000171,641.9224735000171,641.9224735000171,641.9224735000171,641.9224735000171,641.9224735000171,642.2209781999991,643.2706891999987,643.2706891999987,643.2706891999987,643.2706891999987,643.2706891999987,643.2706891999987,643.2706891999987,643.2706891999987,643.2706891999987,643.2706891999987,643.2706891999987,643.2706891999987,643.2706891999987,643.2706891999987,644.6192043000192,644.6192043000192,644.6192043000192,644.6192043000192,644.6192043000192,644.6192043000192,644.6192043000192,52,39,72,47,72,60,644.6192043000192,646.1533200000122,,,,,,,,,,,,３４１,f,１９,2023-05-21_15h37.40.886,RL,2022.2.5,60.192809600810406,
47,71,49,45,0,112,112,112,,,,,,,,,,,None,646.1533200000122,646.1533200000122,646.1533200000122,646.1533200000122,646.1533200000122,646.1533200000122,i,0.21687289999681525,646.406970400014,646.406970400014,646.406970400014,646.406970400014,646.406970400014,646.406970400014,646.6869199000066,647.5866890000179,647.6201068999944,647.6201068999944,647.6201068999944,647.6201068999944,647.6201068999944,647.6201068999944,647.6201068999944,647.6201068999944,647.6201068999944,647.6201068999944,647.6201068999944,647.6201068999944,647.6201068999944,648.8185850000009,648.8185850000009,648.8185850000009,648.8185850000009,648.8185850000009,648.8185850000009,648.8185850000009,49,45,71,47,71,60,648.8185850000009,650.6689875000156,,,,,,,,,,,,３４１,f,１９,2023-05-21_15h37.40.886,RL,2022.2.5,60.192809600810406,
55,67,60,47,0,113,113,113,,,,,,,,,,,None,650.6689875000156,650.6689875000156,650.6689875000156,650.6689875000156,650.6689875000156,650.6689875000156,f,0.2108855999831576,650.9030686000187,650.9030686000187,650.9030686000187,650.9030686000187,650.9030686000187,650.9030686000187,651.1865642000048,652.8861443999922,652.9026908999949,652.9026908999949,652.9026908999949,652.9026908999949,652.9026908999949,652.9026908999949,652.9026908999949,652.9026908999949,652.9026908999949,652.9026908999949,652.9026908999949,652.9026908999949,652.9026908999949,654.9008258999966,654.9008258999966,654.9008258999966,654.9008258999966,654.9008258999966,654.9008258999966,654.9008258999966,60,47,67,55,60,60,654.9008258999966,656.5019840000023,,,,,,,,,,,,３４１,f,１９,2023-05-21_15h37.40.886,RL,2022.2.5,60.192809600810406,
46,70,59,51,0,114,114,114,,,,,,,,,,,None,656.5019840000023,656.5019840000023,656.5019840000023,656.5019840000023,656.5019840000023,656.5019840000023,i,0.2512626999814529,656.7890532000165,656.7890532000165,656.7890532000165,656.7890532000165,656.7890532000165,656.7890532000165,657.0687221999979,658.184822900017,658.2015156999987,658.2015156999987,658.2015156999987,658.2015156999987,658.2015156999987,658.2015156999987,658.2015156999987,658.2015156999987,658.2015156999987,658.2015156999987,658.2015156999987,658.2015156999987,658.2015156999987,659.6163118999975,659.6163118999975,659.6163118999975,659.6163118999975,659.6163118999975,659.6163118999975,659.6163118999975,59,51,70,46,70,60,659.6163118999975,661.3674983000092,,,,,,,,,,,,３４１,f,１９,2023-05-21_15h37.40.886,RL,2022.2.5,60.192809600810406,
51,64,55,45,0,115,115,115,,,,,,,,,,,None,661.3674983000092,661.3674983000092,661.3674983000092,661.3674983000092,661.3674983000092,661.3674983000092,i,0.21047200000612065,661.6022968000034,661.6022968000034,661.6022968000034,661.6022968000034,661.6022968000034,661.6022968000034,661.8847419999947,663.5338580000098,663.5504691000096,663.5504691000096,663.5504691000096,663.5504691000096,663.5504691000096,663.5504691000096,663.5504691000096,663.5504691000096,663.5504691000096,663.5504691000096,663.5504691000096,663.5504691000096,663.5504691000096,665.4822816000087,665.4822816000087,665.4822816000087,665.4822816000087,665.4822816000087,665.4822816000087,665.4822816000087,55,45,64,51,64,60,665.4822816000087,667.2163768000028,,,,,,,,,,,,３４１,f,１９,2023-05-21_15h37.40.886,RL,2022.2.5,60.192809600810406,
55,69,55,39,0,116,116,116,,,,,,,,,,,None,667.2163768000028,667.2163768000028,667.2163768000028,667.2163768000028,667.2163768000028,667.2163768000028,i,0.29298619998735376,667.5334780999983,667.5334780999983,667.5334780999983,667.5334780999983,667.5334780999983,667.5334780999983,667.8166846999957,669.5498463000113,669.5665143000078,669.5665143000078,669.5665143000078,669.5665143000078,669.5665143000078,669.5665143000078,669.5665143000078,669.5665143000078,669.5665143000078,669.5665143000078,669.5665143000078,669.5665143000078,669.5665143000078,671.5976932000194,671.5976932000194,671.5976932000194,671.5976932000194,671.5976932000194,671.5976932000194,671.5976932000194,55,39,69,55,69,60,671.5976932000194,673.5819728999923,,,,,,,,,,,,３４１,f,１９,2023-05-21_15h37.40.886,RL,2022.2.5,60.192809600810406,
56,70,55,43,0,117,117,117,,,,,,,,,,,None,673.5819728999923,673.5819728999923,673.5819728999923,673.5819728999923,673.5819728999923,673.5819728999923,i,0.2290101999824401,673.8338266999926,673.8338266999926,673.8338266999926,673.8338266999926,673.8338266999926,673.8338266999926,674.115452099999,675.1655101999932,675.1988989000092,675.1988989000092,675.1988989000092,675.1988989000092,675.1988989000092,675.1988989000092,675.1988989000092,675.1988989000092,675.1988989000092,675.1988989000092,675.1988989000092,675.1988989000092,675.1988989000092,676.5636815000034,676.5636815000034,676.5636815000034,676.5636815000034,676.5636815000034,676.5636815000034,676.5636815000034,55,43,70,56,70,60,676.5636815000034,678.3981135000067,,,,,,,,,,,,３４１,f,１９,2023-05-21_15h37.40.886,RL,2022.2.5,60.192809600810406,
58,75,55,44,0,118,118,118,,,,,,,,,,,None,678.3981135000067,678.3981135000067,678.3981135000067,678.3981135000067,678.3981135000067,678.3981135000067,i,0.38952870000503026,678.8174670000153,678.8174670000153,678.8174670000153,678.8174670000153,678.8174670000153,678.8174670000153,679.114579999994,680.3979035000084,680.3979035000084,680.3979035000084,680.3979035000084,680.3979035000084,680.3979035000084,680.3979035000084,680.3979035000084,680.3979035000084,680.3979035000084,680.3979035000084,680.3979035000084,680.3979035000084,680.3979035000084,681.9788809000165,681.9788809000165,681.9788809000165,681.9788809000165,681.9788809000165,681.9788809000165,681.9788809000165,55,44,75,58,75,60,681.9788809000165,683.6634770999954,,,,,,,,,,,,３４１,f,１９,2023-05-21_15h37.40.886,RL,2022.2.5,60.192809600810406,
44,68,62,42,0,119,119,119,,,,,,,,,,,None,683.6634770999954,683.6634770999954,683.6634770999954,683.6634770999954,683.6634770999954,683.6634770999954,i,0.3077052000153344,683.9971630999935,683.9971630999935,683.9971630999935,683.9971630999935,683.9971630999935,683.9971630999935,684.2802150000061,685.4468361000181,685.4634774000151,685.4634774000151,685.4634774000151,685.4634774000151,685.4634774000151,685.4634774000151,685.4634774000151,685.4634774000151,685.4634774000151,685.4634774000151,685.4634774000151,685.4634774000151,685.4634774000151,686.9281583999982,686.9281583999982,686.9281583999982,686.9281583999982,686.9281583999982,686.9281583999982,686.9281583999982,62,42,68,44,68,60,686.9281583999982,688.4459688000206,,,,,,,,,,,,３４１,f,１９,2023-05-21_15h37.40.886,RL,2022.2.5,60.192809600810406,
