arm1,arm2,arm3,arm4,trials.thisRepN,trials.thisTrialN,trials.thisN,trials.thisIndex,instru_img1.started,instru_resp.started,instru_resp.keys,instru_resp.rt,image_2.started,text_2.started,fixbefore_2.started,rest_response.keys,red.started,green.started,yellow.started,blue.started,choose_bandit.started,Fixation.started,choose_bandit.keys,choose_bandit.rt,black.started,red_2.started,green_2.started,yellow_2.started,blue_2.started,fixation_2.started,docs.started,docs.stopped,black.stopped,red_2.stopped,green_2.stopped,yellow_2.stopped,blue_2.stopped,fixation_2.stopped,black_com.started,reward_sub.started,reward__sub.started,red_compare.started,green_com.started,yellow_com.started,blue_com.started,black_com.stopped,reward_sub.stopped,reward__sub.stopped,red_compare.stopped,green_com.stopped,yellow_com.stopped,blue_com.stopped,rewardred,rewardyellow,rewardblue,rewardgreen,subchoose,expectation,intertrialfix.started,intertrialfix.stopped,red.stopped,green.stopped,yellow.stopped,blue.stopped,choose_bandit.stopped,Fixation.stopped,bigx.started,bigx.stopped,rest_image.started,rest_response.started,rest_response.rt,image_expect_after.started,text_exp_after.started,image_expect_after.stopped,text_exp_after.stopped,image.started,key_resp.started,key_resp.keys,key_resp.rt,participant,Gender,Age,date,expName,psychopyVersion,frameRate,
,,,,,,,,16.531619200017303,16.531619200017303,space,42.41902550001396,,,,,,,,,,,,,,,,,,,,,,,,,,,,,,,,,,,,,,,,,,,,,,,,,,,,,,,,,,,,,,,,,,,,３４２,f,１９,2023-05-21_16h03.51.042,RL,2022.2.5,60.00265211296962,
26,48,57,68,0,0,0,0,,,,,58.96632690000115,58.96632690000115,63.981538099993486,None,64.98357690000557,64.98357690000557,64.98357690000557,64.98357690000557,64.98357690000557,64.98357690000557,r,0.6659101999830455,65.68301510001766,65.68301510001766,65.68301510001766,65.68301510001766,65.68301510001766,65.68301510001766,65.96731160001946,67.26825320001808,67.28674390001106,67.28674390001106,67.28674390001106,67.28674390001106,67.28674390001106,67.28674390001106,67.28674390001106,67.28674390001106,67.28674390001106,67.28674390001106,67.28674390001106,67.28674390001106,67.28674390001106,68.94461430000956,68.94461430000956,68.94461430000956,68.94461430000956,68.94461430000956,68.94461430000956,68.94461430000956,48,57,68,26,57,70,68.94461430000956,70.59844190001604,,,,,,,,,,,,,,,,,,,,３４２,f,１９,2023-05-21_16h03.51.042,RL,2022.2.5,60.00265211296962,
30,53,55,68,0,1,1,1,,,,,,,,None,70.59844190001604,70.59844190001604,70.59844190001604,70.59844190001604,70.59844190001604,70.59844190001604,None,,,,,,,,,,,,,,,,,,,,,,,,,,,,,,53,55,68,30,0,70,78.11249669999233,79.81262830001651,72.1011470000085,72.1011470000085,72.1011470000085,72.1011470000085,72.1011470000085,72.1011470000085,72.1011470000085,78.11249669999233,,,,,,,,,,,,３４２,f,１９,2023-05-21_16h03.51.042,RL,2022.2.5,60.00265211296962,
35,64,55,75,0,2,2,2,,,,,,,,None,79.81262830001651,79.81262830001651,79.81262830001651,79.81262830001651,79.81262830001651,79.81262830001651,r,0.8205236000067089,80.673283000011,80.673283000011,80.673283000011,80.673283000011,80.673283000011,80.673283000011,80.94692380001652,82.246450000006,82.26293070000247,82.26293070000247,82.26293070000247,82.26293070000247,82.26293070000247,82.26293070000247,82.26293070000247,82.26293070000247,82.26293070000247,82.26293070000247,82.26293070000247,82.26293070000247,82.26293070000247,83.8610425000079,83.8610425000079,83.8610425000079,83.8610425000079,83.8610425000079,83.8610425000079,83.8610425000079,64,55,75,35,55,70,83.8610425000079,85.77878409999539,,,,,,,,,,,,,,,,,,,,３４２,f,１９,2023-05-21_16h03.51.042,RL,2022.2.5,60.00265211296962,
33,55,52,70,0,3,3,3,,,,,,,,None,85.77878409999539,85.77878409999539,85.77878409999539,85.77878409999539,85.77878409999539,85.77878409999539,j,1.3129021000058856,87.1147947999998,87.1147947999998,87.1147947999998,87.1147947999998,87.1147947999998,87.1147947999998,87.4121800000139,88.52845499999239,88.52845499999239,88.52845499999239,88.52845499999239,88.52845499999239,88.52845499999239,88.52845499999239,88.52845499999239,88.52845499999239,88.52845499999239,88.52845499999239,88.52845499999239,88.52845499999239,88.52845499999239,89.94321950001176,89.94321950001176,89.94321950001176,89.94321950001176,89.94321950001176,89.94321950001176,89.94321950001176,55,52,70,33,33,70,89.94321950001176,91.47768559999531,,,,,,,,,,,,,,,,,,,,３４２,f,１９,2023-05-21_16h03.51.042,RL,2022.2.5,60.00265211296962,
31,53,49,67,0,4,4,4,,,,,,,,None,91.47768559999531,91.47768559999531,91.47768559999531,91.47768559999531,91.47768559999531,91.47768559999531,None,,,,,,,,,,,,,,,,,,,,,,,,,,,,,,53,49,67,31,0,70,98.97533360001398,100.84289240001817,92.97601010001381,92.97601010001381,92.97601010001381,92.97601010001381,92.97601010001381,92.97601010001381,92.97601010001381,98.97533360001398,,,,,,,,,,,,３４２,f,１９,2023-05-21_16h03.51.042,RL,2022.2.5,60.00265211296962,
24,65,53,61,0,5,5,5,,,,,,,,None,100.84289240001817,100.84289240001817,100.84289240001817,100.84289240001817,100.84289240001817,100.84289240001817,r,0.8333301999955438,101.6942568999948,101.6942568999948,101.6942568999948,101.6942568999948,101.6942568999948,101.6942568999948,101.99335010000505,102.90971390000777,102.90971390000777,102.90971390000777,102.90971390000777,102.90971390000777,102.90971390000777,102.90971390000777,102.90971390000777,102.90971390000777,102.90971390000777,102.90971390000777,102.90971390000777,102.90971390000777,102.90971390000777,104.12432910001371,104.12432910001371,104.12432910001371,104.12432910001371,104.12432910001371,104.12432910001371,104.12432910001371,65,53,61,24,53,70,104.12432910001371,105.85894080001162,,,,,,,,,,,,,,,,,,,,３４２,f,１９,2023-05-21_16h03.51.042,RL,2022.2.5,60.00265211296962,
12,58,47,67,0,6,6,6,,,,,,,,None,105.85894080001162,105.85894080001162,105.85894080001162,105.85894080001162,105.85894080001162,105.85894080001162,i,1.206957299989881,107.0923058000044,107.0923058000044,107.0923058000044,107.0923058000044,107.0923058000044,107.0923058000044,107.37566550000338,108.40859969999292,108.42524909999338,108.42524909999338,108.42524909999338,108.42524909999338,108.42524909999338,108.42524909999338,108.42524909999338,108.42524909999338,108.42524909999338,108.42524909999338,108.42524909999338,108.42524909999338,108.42524909999338,109.75685930001782,109.75685930001782,109.75685930001782,109.75685930001782,109.75685930001782,109.75685930001782,109.75685930001782,58,47,67,12,67,70,109.75685930001782,111.47461160001694,,,,,,,,,,,,,,,,,,,,３４２,f,１９,2023-05-21_16h03.51.042,RL,2022.2.5,60.00265211296962,
19,65,54,62,0,7,7,7,,,,,,,,None,111.47461160001694,111.47461160001694,111.47461160001694,111.47461160001694,111.47461160001694,111.47461160001694,f,0.9290022999921348,112.4261929000204,112.4261929000204,112.4261929000204,112.4261929000204,112.4261929000204,112.4261929000204,112.72464860000764,113.55748079999466,113.55748079999466,113.55748079999466,113.55748079999466,113.55748079999466,113.55748079999466,113.55748079999466,113.55748079999466,113.55748079999466,113.55748079999466,113.55748079999466,113.55748079999466,113.55748079999466,113.55748079999466,114.68970129999798,114.68970129999798,114.68970129999798,114.68970129999798,114.68970129999798,114.68970129999798,114.68970129999798,65,54,62,19,65,70,114.68970129999798,116.39018640000722,,,,,,,,,,,,,,,,,,,,３４２,f,１９,2023-05-21_16h03.51.042,RL,2022.2.5,60.00265211296962,
31,66,47,65,0,8,8,8,,,,,,,,None,116.39018640000722,116.39018640000722,116.39018640000722,116.39018640000722,116.39018640000722,116.39018640000722,i,0.7557526000018697,117.17397440000786,117.17397440000786,117.17397440000786,117.17397440000786,117.17397440000786,117.17397440000786,117.45691530001932,119.08986800001003,119.10651509999298,119.10651509999298,119.10651509999298,119.10651509999298,119.10651509999298,119.10651509999298,119.10651509999298,119.10651509999298,119.10651509999298,119.10651509999298,119.10651509999298,119.10651509999298,119.10651509999298,121.03798540000571,121.03798540000571,121.03798540000571,121.03798540000571,121.03798540000571,121.03798540000571,121.03798540000571,66,47,65,31,65,70,121.03798540000571,123.03938649999327,,,,,,,,,,,,,,,,,,,,３４２,f,１９,2023-05-21_16h03.51.042,RL,2022.2.5,60.00265211296962,
22,60,46,61,0,9,9,9,,,,,,,,None,123.03938649999327,123.03938649999327,123.03938649999327,123.03938649999327,123.03938649999327,123.03938649999327,f,1.006095799995819,124.07526189999771,124.07526189999771,124.07526189999771,124.07526189999771,124.07526189999771,124.07526189999771,124.35581840001396,126.00608590000775,126.03875900001731,126.03875900001731,126.03875900001731,126.03875900001731,126.03875900001731,126.03875900001731,126.03875900001731,126.03875900001731,126.03875900001731,126.03875900001731,126.03875900001731,126.03875900001731,126.03875900001731,127.98642780000228,127.98642780000228,127.98642780000228,127.98642780000228,127.98642780000228,127.98642780000228,127.98642780000228,60,46,61,22,60,70,127.98642780000228,129.53851310000755,,,,,,,,,,,,,,,,,,,,３４２,f,１９,2023-05-21_16h03.51.042,RL,2022.2.5,60.00265211296962,
20,63,54,51,0,10,10,10,,,,,,,,None,129.53851310000755,129.53851310000755,129.53851310000755,129.53851310000755,129.53851310000755,129.53851310000755,j,1.0958087999897543,130.65559330000542,130.65559330000542,130.65559330000542,130.65559330000542,130.65559330000542,130.65559330000542,130.93802760000108,131.7881364999921,131.82103690001532,131.82103690001532,131.82103690001532,131.82103690001532,131.82103690001532,131.82103690001532,131.82103690001532,131.82103690001532,131.82103690001532,131.82103690001532,131.82103690001532,131.82103690001532,131.82103690001532,132.96964630001457,132.96964630001457,132.96964630001457,132.96964630001457,132.96964630001457,132.96964630001457,132.96964630001457,63,54,51,20,20,70,132.96964630001457,134.6369301000086,,,,,,,,,,,,,,,,,,,,３４２,f,１９,2023-05-21_16h03.51.042,RL,2022.2.5,60.00265211296962,
35,71,49,57,0,11,11,11,,,,,,,,None,134.6369301000086,134.6369301000086,134.6369301000086,134.6369301000086,134.6369301000086,134.6369301000086,i,0.70901779999258,135.37283410000964,135.37283410000964,135.37283410000964,135.37283410000964,135.37283410000964,135.37283410000964,135.6703475000104,136.57006550001097,136.57006550001097,136.57006550001097,136.57006550001097,136.57006550001097,136.57006550001097,136.57006550001097,136.57006550001097,136.57006550001097,136.57006550001097,136.57006550001097,136.57006550001097,136.57006550001097,136.57006550001097,137.76840440000524,137.76840440000524,137.76840440000524,137.76840440000524,137.76840440000524,137.76840440000524,137.76840440000524,71,49,57,35,57,70,137.76840440000524,139.28610379999736,,,,,,,,,,,,,,,,,,,,３４２,f,１９,2023-05-21_16h03.51.042,RL,2022.2.5,60.00265211296962,
30,69,53,59,0,12,12,12,,,,,,,,None,139.28610379999736,139.28610379999736,139.28610379999736,139.28610379999736,139.28610379999736,139.28610379999736,f,0.8405697999987751,140.1536355999997,140.1536355999997,140.1536355999997,140.1536355999997,140.1536355999997,140.1536355999997,140.43662849999964,141.61940080000204,141.63577200000873,141.63577200000873,141.63577200000873,141.63577200000873,141.63577200000873,141.63577200000873,141.63577200000873,141.63577200000873,141.63577200000873,141.63577200000873,141.63577200000873,141.63577200000873,141.63577200000873,143.1178477999929,143.1178477999929,143.1178477999929,143.1178477999929,143.1178477999929,143.1178477999929,143.1178477999929,69,53,59,30,69,70,143.1178477999929,144.9689412000007,,,,,,,,,,,,,,,,,,,,３４２,f,１９,2023-05-21_16h03.51.042,RL,2022.2.5,60.00265211296962,
17,60,50,50,0,13,13,13,,,,,,,,None,144.9689412000007,144.9689412000007,144.9689412000007,144.9689412000007,144.9689412000007,144.9689412000007,r,0.791669300000649,145.78578900001594,145.78578900001594,145.78578900001594,145.78578900001594,145.78578900001594,145.78578900001594,146.08527949999552,147.9520024000085,147.9520024000085,147.9520024000085,147.9520024000085,147.9520024000085,147.9520024000085,147.9520024000085,147.9520024000085,147.9520024000085,147.9520024000085,147.9520024000085,147.9520024000085,147.9520024000085,147.9520024000085,150.1160719000036,150.1160719000036,150.1160719000036,150.1160719000036,150.1160719000036,150.1160719000036,150.1160719000036,60,50,50,17,50,70,150.1160719000036,151.91755070001818,,,,,,,,,,,,,,,,,,,,３４２,f,１９,2023-05-21_16h03.51.042,RL,2022.2.5,60.00265211296962,
26,57,54,55,0,14,14,14,,,,,,,,None,151.91755070001818,151.91755070001818,151.91755070001818,151.91755070001818,151.91755070001818,151.91755070001818,f,0.5867835000099149,152.53531890001614,152.53531890001614,152.53531890001614,152.53531890001614,152.53531890001614,152.53531890001614,152.81746900000144,154.2670691999956,154.2840595000016,154.2840595000016,154.2840595000016,154.2840595000016,154.2840595000016,154.2840595000016,154.2840595000016,154.2840595000016,154.2840595000016,154.2840595000016,154.2840595000016,154.2840595000016,154.2840595000016,156.03171529999236,156.03171529999236,156.03171529999236,156.03171529999236,156.03171529999236,156.03171529999236,156.03171529999236,57,54,55,26,57,70,156.03171529999236,157.56628550001187,,,,,,,,,,,,,,,,,,,,３４２,f,１９,2023-05-21_16h03.51.042,RL,2022.2.5,60.00265211296962,
24,60,50,56,0,15,15,15,,,,,,,,None,157.56628550001187,157.56628550001187,157.56628550001187,157.56628550001187,157.56628550001187,157.56628550001187,i,0.8244839000108186,158.4165137000091,158.4165137000091,158.4165137000091,158.4165137000091,158.4165137000091,158.4165137000091,158.70035580001422,159.6497619000147,159.6666397000081,159.6666397000081,159.6666397000081,159.6666397000081,159.6666397000081,159.6666397000081,159.6666397000081,159.6666397000081,159.6666397000081,159.6666397000081,159.6666397000081,159.6666397000081,159.6666397000081,160.91442590000224,160.91442590000224,160.91442590000224,160.91442590000224,160.91442590000224,160.91442590000224,160.91442590000224,60,50,56,24,56,70,160.91442590000224,162.56541810001363,,,,,,,,,,,,,,,,,,,,３４２,f,１９,2023-05-21_16h03.51.042,RL,2022.2.5,60.00265211296962,
24,59,51,51,0,16,16,16,,,,,,,,None,162.56541810001363,162.56541810001363,162.56541810001363,162.56541810001363,162.56541810001363,162.56541810001363,f,0.62538409998524,163.21713900001487,163.21713900001487,163.21713900001487,163.21713900001487,163.21713900001487,163.21713900001487,163.49914220001665,164.39846630001557,164.41538079999737,164.41538079999737,164.41538079999737,164.41538079999737,164.41538079999737,164.41538079999737,164.41538079999737,164.41538079999737,164.41538079999737,164.41538079999737,164.41538079999737,164.41538079999737,164.41538079999737,165.61361699999543,165.61361699999543,165.61361699999543,165.61361699999543,165.61361699999543,165.61361699999543,165.61361699999543,59,51,51,24,59,70,165.61361699999543,167.58096110000042,,,,,,,,,,,,,,,,,,,,３４２,f,１９,2023-05-21_16h03.51.042,RL,2022.2.5,60.00265211296962,
15,64,53,56,0,17,17,17,,,,,,,,None,167.58096110000042,167.58096110000042,167.58096110000042,167.58096110000042,167.58096110000042,167.58096110000042,i,0.7620199999946635,168.36542950000148,168.36542950000148,168.36542950000148,168.36542950000148,168.36542950000148,168.36542950000148,168.64799890000722,169.6316697000002,169.64775180001743,169.64775180001743,169.64775180001743,169.64775180001743,169.64775180001743,169.64775180001743,169.64775180001743,169.64775180001743,169.64775180001743,169.64775180001743,169.64775180001743,169.64775180001743,169.64775180001743,170.9297060999961,170.9297060999961,170.9297060999961,170.9297060999961,170.9297060999961,170.9297060999961,170.9297060999961,64,53,56,15,56,70,170.9297060999961,172.44711730000563,,,,,,,,,,,,,,,,,,,,３４２,f,１９,2023-05-21_16h03.51.042,RL,2022.2.5,60.00265211296962,
27,72,52,55,0,18,18,18,,,,,,,,None,172.44711730000563,172.44711730000563,172.44711730000563,172.44711730000563,172.44711730000563,172.44711730000563,r,0.8291908999963198,173.2978972000128,173.2978972000128,173.2978972000128,173.2978972000128,173.2978972000128,173.2978972000128,173.59759809999377,175.2304892000102,175.2304892000102,175.2304892000102,175.2304892000102,175.2304892000102,175.2304892000102,175.2304892000102,175.2304892000102,175.2304892000102,175.2304892000102,175.2304892000102,175.2304892000102,175.2304892000102,175.2304892000102,177.1613891000161,177.1613891000161,177.1613891000161,177.1613891000161,177.1613891000161,177.1613891000161,177.1613891000161,72,52,55,27,52,70,177.1613891000161,178.94627050001873,,,,,,,,,,,,,,,,,,,,３４２,f,１９,2023-05-21_16h03.51.042,RL,2022.2.5,60.00265211296962,
31,69,51,63,0,19,19,19,,,,,,,,None,178.94627050001873,178.94627050001873,178.94627050001873,178.94627050001873,178.94627050001873,178.94627050001873,f,0.5934148000087589,179.56379330001073,179.56379330001073,179.56379330001073,179.56379330001073,179.56379330001073,179.56379330001073,179.8462677000207,180.96299709999585,180.97944980001193,180.97944980001193,180.97944980001193,180.97944980001193,180.97944980001193,180.97944980001193,180.97944980001193,180.97944980001193,180.97944980001193,180.97944980001193,180.97944980001193,180.97944980001193,180.97944980001193,182.39394639999955,182.39394639999955,182.39394639999955,182.39394639999955,182.39394639999955,182.39394639999955,182.39394639999955,69,51,63,31,69,70,182.39394639999955,184.02823180000996,,,,,,,,,,,,,,,,,,,,３４２,f,１９,2023-05-21_16h03.51.042,RL,2022.2.5,60.00265211296962,
30,67,47,52,0,20,20,20,,,,,,,,None,184.02823180000996,184.02823180000996,184.02823180000996,184.02823180000996,184.02823180000996,184.02823180000996,f,0.8586280000163242,184.91185000000405,184.91185000000405,184.91185000000405,184.91185000000405,184.91185000000405,184.91185000000405,185.1948326000129,187.16133390000323,187.1782399000076,187.1782399000076,187.1782399000076,187.1782399000076,187.1782399000076,187.1782399000076,187.1782399000076,187.1782399000076,187.1782399000076,187.1782399000076,187.1782399000076,187.1782399000076,187.1782399000076,189.44279679999454,189.44279679999454,189.44279679999454,189.44279679999454,189.44279679999454,189.44279679999454,189.44279679999454,67,47,52,30,67,70,189.44279679999454,190.97711579999304,,,,,,,,,,,,,,,,,,,,３４２,f,１９,2023-05-21_16h03.51.042,RL,2022.2.5,60.00265211296962,
27,59,49,55,0,21,21,21,,,,,,,,None,190.97711579999304,190.97711579999304,190.97711579999304,190.97711579999304,190.97711579999304,190.97711579999304,i,0.543097800022224,191.54431530000875,191.54431530000875,191.54431530000875,191.54431530000875,191.54431530000875,191.54431530000875,191.82739170000423,193.5603394000209,193.57690350001212,193.57690350001212,193.57690350001212,193.57690350001212,193.57690350001212,193.57690350001212,193.57690350001212,193.57690350001212,193.57690350001212,193.57690350001212,193.57690350001212,193.57690350001212,193.57690350001212,195.60833270000876,195.60833270000876,195.60833270000876,195.60833270000876,195.60833270000876,195.60833270000876,195.60833270000876,59,49,55,27,55,70,195.60833270000876,197.4430210000137,,,,,,,,,,,,,,,,,,,,３４２,f,１９,2023-05-21_16h03.51.042,RL,2022.2.5,60.00265211296962,
29,68,49,54,0,22,22,22,,,,,,,,None,197.4430210000137,197.4430210000137,197.4430210000137,197.4430210000137,197.4430210000137,197.4430210000137,f,0.6011268000002019,198.08147980002104,198.08147980002104,198.08147980002104,198.08147980002104,198.08147980002104,198.08147980002104,198.37638750000042,199.65906150001683,199.65906150001683,199.65906150001683,199.65906150001683,199.65906150001683,199.65906150001683,199.65906150001683,199.65906150001683,199.65906150001683,199.65906150001683,199.65906150001683,199.65906150001683,199.65906150001683,199.65906150001683,201.22428670001682,201.22428670001682,201.22428670001682,201.22428670001682,201.22428670001682,201.22428670001682,201.22428670001682,68,49,54,29,68,70,201.22428670001682,202.95851180001046,,,,,,,,,,,,,,,,,,,,３４２,f,１９,2023-05-21_16h03.51.042,RL,2022.2.5,60.00265211296962,
28,70,45,54,0,23,23,23,,,,,,,,None,202.95851180001046,202.95851180001046,202.95851180001046,202.95851180001046,202.95851180001046,202.95851180001046,f,0.4315506999846548,203.40886349999346,203.40886349999346,203.40886349999346,203.40886349999346,203.40886349999346,203.40886349999346,203.69252219999908,205.15821910000523,205.17481580001186,205.17481580001186,205.17481580001186,205.17481580001186,205.17481580001186,205.17481580001186,205.17481580001186,205.17481580001186,205.17481580001186,205.17481580001186,205.17481580001186,205.17481580001186,205.17481580001186,206.9397242999985,206.9397242999985,206.9397242999985,206.9397242999985,206.9397242999985,206.9397242999985,206.9397242999985,70,45,54,28,70,70,206.9397242999985,208.5576110999973,,,,,,,,,,,,,,,,,,,,３４２,f,１９,2023-05-21_16h03.51.042,RL,2022.2.5,60.00265211296962,
20,68,40,60,0,24,24,24,,,,,,,,None,208.5576110999973,208.5576110999973,208.5576110999973,208.5576110999973,208.5576110999973,208.5576110999973,f,0.628586799983168,209.20814990001963,209.20814990001963,209.20814990001963,209.20814990001963,209.20814990001963,209.20814990001963,209.50778390001506,211.25729700000375,211.25729700000375,211.25729700000375,211.25729700000375,211.25729700000375,211.25729700000375,211.25729700000375,211.25729700000375,211.25729700000375,211.25729700000375,211.25729700000375,211.25729700000375,211.25729700000375,211.25729700000375,213.3051376999938,213.3051376999938,213.3051376999938,213.3051376999938,213.3051376999938,213.3051376999938,213.3051376999938,68,40,60,20,68,70,213.3051376999938,215.2066020000202,,,,,,,,,,,,,,,,,,,,３４２,f,１９,2023-05-21_16h03.51.042,RL,2022.2.5,60.00265211296962,
37,64,44,54,0,25,25,25,,,,,,,,None,215.2066020000202,215.2066020000202,215.2066020000202,215.2066020000202,215.2066020000202,215.2066020000202,f,0.4206926999904681,215.6579092000029,215.6579092000029,215.6579092000029,215.6579092000029,215.6579092000029,215.6579092000029,215.9399881999998,217.6730274000147,217.68946250001318,217.68946250001318,217.68946250001318,217.68946250001318,217.68946250001318,217.68946250001318,217.68946250001318,217.68946250001318,217.68946250001318,217.68946250001318,217.68946250001318,217.68946250001318,217.68946250001318,219.7207096000202,219.7207096000202,219.7207096000202,219.7207096000202,219.7207096000202,219.7207096000202,219.7207096000202,64,44,54,37,64,70,219.7207096000202,221.4388348000066,,,,,,,,,,,,,,,,,,,,３４２,f,１９,2023-05-21_16h03.51.042,RL,2022.2.5,60.00265211296962,
30,70,44,48,0,26,26,26,,,,,,,,None,221.4388348000066,221.4388348000066,221.4388348000066,221.4388348000066,221.4388348000066,221.4388348000066,f,0.5679176999838091,222.02298900001915,222.02298900001915,222.02298900001915,222.02298900001915,222.02298900001915,222.02298900001915,222.3219972999941,223.5716597000137,223.5716597000137,223.5716597000137,223.5716597000137,223.5716597000137,223.5716597000137,223.5716597000137,223.5716597000137,223.5716597000137,223.5716597000137,223.5716597000137,223.5716597000137,223.5716597000137,223.5716597000137,225.1195396000112,225.1195396000112,225.1195396000112,225.1195396000112,225.1195396000112,225.1195396000112,225.1195396000112,70,44,48,30,70,70,225.1195396000112,227.0710459999973,,,,,,,,,,,,,,,,,,,,３４２,f,１９,2023-05-21_16h03.51.042,RL,2022.2.5,60.00265211296962,
40,66,45,45,0,27,27,27,,,,,,,,None,227.0710459999973,227.0710459999973,227.0710459999973,227.0710459999973,227.0710459999973,227.0710459999973,f,0.4102229999843985,227.50500450000982,227.50500450000982,227.50500450000982,227.50500450000982,227.50500450000982,227.50500450000982,227.78762740001548,229.78739650000352,229.80407830001786,229.80407830001786,229.80407830001786,229.80407830001786,229.80407830001786,229.80407830001786,229.80407830001786,229.80407830001786,229.80407830001786,229.80407830001786,229.80407830001786,229.80407830001786,229.80407830001786,232.1017780000111,232.1017780000111,232.1017780000111,232.1017780000111,232.1017780000111,232.1017780000111,232.1017780000111,66,45,45,40,66,70,232.1017780000111,233.6700080000155,,,,,,,,,,,,,,,,,,,,３４２,f,１９,2023-05-21_16h03.51.042,RL,2022.2.5,60.00265211296962,
38,65,51,48,0,28,28,28,,,,,,,,None,233.6700080000155,233.6700080000155,233.6700080000155,233.6700080000155,233.6700080000155,233.6700080000155,f,0.5236083999916445,234.22460270000738,234.22460270000738,234.22460270000738,234.22460270000738,234.22460270000738,234.22460270000738,234.50354720000178,236.0194746000052,236.03615900001023,236.03615900001023,236.03615900001023,236.03615900001023,236.03615900001023,236.03615900001023,236.03615900001023,236.03615900001023,236.03615900001023,236.03615900001023,236.03615900001023,236.03615900001023,236.03615900001023,237.85089699999662,237.85089699999662,237.85089699999662,237.85089699999662,237.85089699999662,237.85089699999662,237.85089699999662,65,51,48,38,65,70,237.85089699999662,239.55216250001104,,,,,,,,,,,,,,,,,,,,３４２,f,１９,2023-05-21_16h03.51.042,RL,2022.2.5,60.00265211296962,
32,59,46,56,0,29,29,29,,,,,,,,None,239.55216250001104,239.55216250001104,239.55216250001104,239.55216250001104,239.55216250001104,239.55216250001104,f,0.3745555999921635,239.9532461000199,239.9532461000199,239.9532461000199,239.9532461000199,239.9532461000199,239.9532461000199,240.23588350001955,241.53531239999575,241.5521005000046,241.5521005000046,241.5521005000046,241.5521005000046,241.5521005000046,241.5521005000046,241.5521005000046,241.5521005000046,241.5521005000046,241.5521005000046,241.5521005000046,241.5521005000046,241.5521005000046,243.15032159999828,243.15032159999828,243.15032159999828,243.15032159999828,243.15032159999828,243.15032159999828,243.15032159999828,59,46,56,32,59,70,243.15032159999828,245.0180171999964,,,,,,,,,,,,,,,,,,,,３４２,f,１９,2023-05-21_16h03.51.042,RL,2022.2.5,60.00265211296962,
38,67,49,55,0,30,30,30,,,,,,,,None,245.0180171999964,245.0180171999964,245.0180171999964,245.0180171999964,245.0180171999964,245.0180171999964,i,0.5536497999855783,245.60152180001023,245.60152180001023,245.60152180001023,245.60152180001023,245.60152180001023,245.60152180001023,245.90181760000996,247.06772540000384,247.06772540000384,247.06772540000384,247.06772540000384,247.06772540000384,247.06772540000384,247.06772540000384,247.06772540000384,247.06772540000384,247.06772540000384,247.06772540000384,247.06772540000384,247.06772540000384,247.06772540000384,248.5327317000192,248.5327317000192,248.5327317000192,248.5327317000192,248.5327317000192,248.5327317000192,248.5327317000192,67,49,55,38,55,70,248.5327317000192,250.33397589999367,,,,,,,,,,,,,,,,,,,,３４２,f,１９,2023-05-21_16h03.51.042,RL,2022.2.5,60.00265211296962,
46,64,42,56,0,31,31,31,,,,,,,,None,250.33397589999367,250.33397589999367,250.33397589999367,250.33397589999367,250.33397589999367,250.33397589999367,f,0.3677756999968551,250.7415210000181,250.7415210000181,250.7415210000181,250.7415210000181,250.7415210000181,250.7415210000181,251.01724250000552,252.9499754999997,252.98326060001273,252.98326060001273,252.98326060001273,252.98326060001273,252.98326060001273,252.98326060001273,252.98326060001273,252.98326060001273,252.98326060001273,252.98326060001273,252.98326060001273,252.98326060001273,252.98326060001273,255.21485600000597,255.21485600000597,255.21485600000597,255.21485600000597,255.21485600000597,255.21485600000597,255.21485600000597,64,42,56,46,64,70,255.21485600000597,256.9487516999943,,,,,,,,,,,,,,,,,,,,３４２,f,１９,2023-05-21_16h03.51.042,RL,2022.2.5,60.00265211296962,
46,64,43,63,0,32,32,32,,,,,,,,None,256.9487516999943,256.9487516999943,256.9487516999943,256.9487516999943,256.9487516999943,256.9487516999943,f,0.38912470001378097,257.36956660001306,257.36956660001306,257.36956660001306,257.36956660001306,257.36956660001306,257.36956660001306,257.6660642999923,258.8491078999941,258.8491078999941,258.8491078999941,258.8491078999941,258.8491078999941,258.8491078999941,258.8491078999941,258.8491078999941,258.8491078999941,258.8491078999941,258.8491078999941,258.8491078999941,258.8491078999941,258.8491078999941,260.3303531999991,260.3303531999991,260.3303531999991,260.3303531999991,260.3303531999991,260.3303531999991,260.3303531999991,64,43,63,46,64,70,260.3303531999991,261.8312113000138,,,,,,,,,,,,,,,,,,,,３４２,f,１９,2023-05-21_16h03.51.042,RL,2022.2.5,60.00265211296962,
40,62,43,54,0,33,33,33,,,,,,,,None,261.8312113000138,261.8312113000138,261.8312113000138,261.8312113000138,261.8312113000138,261.8312113000138,f,0.6197890000184998,262.48819830000866,262.48819830000866,262.48819830000866,262.48819830000866,262.48819830000866,262.48819830000866,262.7652203000034,264.398242700001,264.4312712000101,264.4312712000101,264.4312712000101,264.4312712000101,264.4312712000101,264.4312712000101,264.4312712000101,264.4312712000101,264.4312712000101,264.4312712000101,264.4312712000101,264.4312712000101,264.4312712000101,266.3630953000102,266.3630953000102,266.3630953000102,266.3630953000102,266.3630953000102,266.3630953000102,266.3630953000102,62,43,54,40,62,70,266.3630953000102,268.29745080001885,,,,,,,,,,,,,,,,,,,,３４２,f,１９,2023-05-21_16h03.51.042,RL,2022.2.5,60.00265211296962,
39,67,43,62,0,34,34,34,,,,,,,,None,268.29745080001885,268.29745080001885,268.29745080001885,268.29745080001885,268.29745080001885,268.29745080001885,f,0.7661467000143602,269.08397030000924,269.08397030000924,269.08397030000924,269.08397030000924,269.08397030000924,269.08397030000924,269.38071150000906,270.24721420000424,270.24721420000424,270.24721420000424,270.24721420000424,270.24721420000424,270.24721420000424,270.24721420000424,270.24721420000424,270.24721420000424,270.24721420000424,270.24721420000424,270.24721420000424,270.24721420000424,270.24721420000424,271.41229969999404,271.41229969999404,271.41229969999404,271.41229969999404,271.41229969999404,271.41229969999404,271.41229969999404,67,43,62,39,67,70,271.41229969999404,273.29657550001866,,,,,,,,,,,,,,,,,,,,３４２,f,１９,2023-05-21_16h03.51.042,RL,2022.2.5,60.00265211296962,
41,68,51,56,0,35,35,35,,,,,,,,None,273.29657550001866,273.29657550001866,273.29657550001866,273.29657550001866,273.29657550001866,273.29657550001866,f,0.5867045000195503,273.9143769000075,273.9143769000075,273.9143769000075,273.9143769000075,273.9143769000075,273.9143769000075,274.21308089999366,276.17916679999325,276.17916679999325,276.17916679999325,276.17916679999325,276.17916679999325,276.17916679999325,276.17916679999325,276.17916679999325,276.17916679999325,276.17916679999325,276.17916679999325,276.17916679999325,276.17916679999325,276.17916679999325,278.4439045000181,278.4439045000181,278.4439045000181,278.4439045000181,278.4439045000181,278.4439045000181,278.4439045000181,68,51,56,41,68,70,278.4439045000181,280.3287249999994,,,,,,,,,,,,,,,,,,,,３４２,f,１９,2023-05-21_16h03.51.042,RL,2022.2.5,60.00265211296962,
47,62,46,61,0,36,36,36,,,,,,,,None,280.3287249999994,280.3287249999994,280.3287249999994,280.3287249999994,280.3287249999994,280.3287249999994,f,0.5042716999887489,280.861965100019,280.861965100019,280.861965100019,280.861965100019,280.861965100019,280.861965100019,281.14504110001144,282.0949605999922,282.11169250000967,282.11169250000967,282.11169250000967,282.11169250000967,282.11169250000967,282.11169250000967,282.11169250000967,282.11169250000967,282.11169250000967,282.11169250000967,282.11169250000967,282.11169250000967,282.11169250000967,283.3601167000015,283.3601167000015,283.3601167000015,283.3601167000015,283.3601167000015,283.3601167000015,283.3601167000015,62,46,61,47,62,70,283.3601167000015,285.17779919999884,,,,,,,,,,,,,,,,,,,,３４２,f,１９,2023-05-21_16h03.51.042,RL,2022.2.5,60.00265211296962,
42,65,50,57,0,37,37,37,,,,,,,,None,285.17779919999884,285.17779919999884,285.17779919999884,285.17779919999884,285.17779919999884,285.17779919999884,i,0.8525874000042677,286.0621412000037,286.0621412000037,286.0621412000037,286.0621412000037,286.0621412000037,286.0621412000037,286.34443140000803,288.0273725000152,288.0606657000026,288.0606657000026,288.0606657000026,288.0606657000026,288.0606657000026,288.0606657000026,288.0606657000026,288.0606657000026,288.0606657000026,288.0606657000026,288.0606657000026,288.0606657000026,288.0606657000026,290.04222010000376,290.04222010000376,290.04222010000376,290.04222010000376,290.04222010000376,290.04222010000376,290.04222010000376,65,50,57,42,57,70,290.04222010000376,292.0265841000073,,,,,,,,,,,,,,,,,,,,３４２,f,１９,2023-05-21_16h03.51.042,RL,2022.2.5,60.00265211296962,
48,68,52,55,0,38,38,38,,,,,,,,None,292.0265841000073,292.0265841000073,292.0265841000073,292.0265841000073,292.0265841000073,292.0265841000073,f,0.6550232999725267,292.70977800001856,292.70977800001856,292.70977800001856,292.70977800001856,292.70977800001856,292.70977800001856,292.9934096999932,294.9926376999938,295.00968449999345,295.00968449999345,295.00968449999345,295.00968449999345,295.00968449999345,295.00968449999345,295.00968449999345,295.00968449999345,295.00968449999345,295.00968449999345,295.00968449999345,295.00968449999345,295.00968449999345,297.30732920000446,297.30732920000446,297.30732920000446,297.30732920000446,297.30732920000446,297.30732920000446,297.30732920000446,68,52,55,48,68,70,297.30732920000446,299.0749863999954,,,,,,,,,,,,,,,,,,,,３４２,f,１９,2023-05-21_16h03.51.042,RL,2022.2.5,60.00265211296962,
36,71,47,63,0,39,39,39,,,,,,,,None,299.0749863999954,299.0749863999954,299.0749863999954,299.0749863999954,299.0749863999954,299.0749863999954,r,1.0131158000149298,300.1094022000034,300.1094022000034,300.1094022000034,300.1094022000034,300.1094022000034,300.1094022000034,300.40892200000235,301.8747579000192,301.8747579000192,301.8747579000192,301.8747579000192,301.8747579000192,301.8747579000192,301.8747579000192,301.8747579000192,301.8747579000192,301.8747579000192,301.8747579000192,301.8747579000192,301.8747579000192,301.8747579000192,303.640081599995,303.640081599995,303.640081599995,303.640081599995,303.640081599995,303.640081599995,303.640081599995,71,47,63,36,47,70,303.640081599995,305.6071624000033,,,,,,,,,,,,,,,,,,,,３４２,f,１９,2023-05-21_16h03.51.042,RL,2022.2.5,60.00265211296962,
43,63,52,58,0,40,40,40,,,,,,,,None,305.6071624000033,305.6071624000033,305.6071624000033,305.6071624000033,305.6071624000033,305.6071624000033,f,0.3957667000067886,306.0255962999945,306.0255962999945,306.0255962999945,306.0255962999945,306.0255962999945,306.0255962999945,306.3241694000026,307.6075769000163,307.6075769000163,307.6075769000163,307.6075769000163,307.6075769000163,307.6075769000163,307.6075769000163,307.6075769000163,307.6075769000163,307.6075769000163,307.6075769000163,307.6075769000163,307.6075769000163,307.6075769000163,309.1888875000004,309.1888875000004,309.1888875000004,309.1888875000004,309.1888875000004,309.1888875000004,309.1888875000004,63,52,58,43,63,70,309.1888875000004,310.87300459999824,,,,,,,,,,,,,,,,,,,,３４２,f,１９,2023-05-21_16h03.51.042,RL,2022.2.5,60.00265211296962,
47,59,46,54,0,41,41,41,,,,,,,,None,310.87300459999824,310.87300459999824,310.87300459999824,310.87300459999824,310.87300459999824,310.87300459999824,f,0.5595611000026111,311.45664039999247,311.45664039999247,311.45664039999247,311.45664039999247,311.45664039999247,311.45664039999247,311.7565848999948,313.1397753000201,313.1397753000201,313.1397753000201,313.1397753000201,313.1397753000201,313.1397753000201,313.1397753000201,313.1397753000201,313.1397753000201,313.1397753000201,313.1397753000201,313.1397753000201,313.1397753000201,313.1397753000201,314.8211536000017,314.8211536000017,314.8211536000017,314.8211536000017,314.8211536000017,314.8211536000017,314.8211536000017,59,46,54,47,59,70,314.8211536000017,316.4718935000128,,,,,,,,,,,,,,,,,,,,３４２,f,１９,2023-05-21_16h03.51.042,RL,2022.2.5,60.00265211296962,
55,57,51,59,0,42,42,42,,,,,,,,None,316.4718935000128,316.4718935000128,316.4718935000128,316.4718935000128,316.4718935000128,316.4718935000128,i,0.7106530999881215,317.20591879999847,317.20591879999847,317.20591879999847,317.20591879999847,317.20591879999847,317.20591879999847,317.5059184000129,319.4549449000042,319.4549449000042,319.4549449000042,319.4549449000042,319.4549449000042,319.4549449000042,319.4549449000042,319.4549449000042,319.4549449000042,319.4549449000042,319.4549449000042,319.4549449000042,319.4549449000042,319.4549449000042,321.7034137000155,321.7034137000155,321.7034137000155,321.7034137000155,321.7034137000155,321.7034137000155,321.7034137000155,57,51,59,55,59,70,321.7034137000155,323.5205403,,,,,,,,,,,,,,,,,,,,３４２,f,１９,2023-05-21_16h03.51.042,RL,2022.2.5,60.00265211296962,
45,53,52,61,0,43,43,43,,,,,,,,None,323.5205403,323.5205403,323.5205403,323.5205403,323.5205403,323.5205403,f,0.47426289998111315,324.0227327000175,324.0227327000175,324.0227327000175,324.0227327000175,324.0227327000175,324.0227327000175,324.3043711000064,325.9210153000022,325.93732130000717,325.93732130000717,325.93732130000717,325.93732130000717,325.93732130000717,325.93732130000717,325.93732130000717,325.93732130000717,325.93732130000717,325.93732130000717,325.93732130000717,325.93732130000717,325.93732130000717,327.85179700001027,327.85179700001027,327.85179700001027,327.85179700001027,327.85179700001027,327.85179700001027,327.85179700001027,53,52,61,45,53,70,327.85179700001027,329.63613440000336,,,,,,,,,,,,,,,,,,,,３４２,f,１９,2023-05-21_16h03.51.042,RL,2022.2.5,60.00265211296962,
48,62,51,62,0,44,44,44,,,,,,,,None,329.63613440000336,329.63613440000336,329.63613440000336,329.63613440000336,329.63613440000336,329.63613440000336,f,0.6071617999987211,330.27182140000514,330.27182140000514,330.27182140000514,330.27182140000514,330.27182140000514,330.27182140000514,330.5533157000027,332.2366590000165,332.25274880000507,332.25274880000507,332.25274880000507,332.25274880000507,332.25274880000507,332.25274880000507,332.25274880000507,332.25274880000507,332.25274880000507,332.25274880000507,332.25274880000507,332.25274880000507,332.25274880000507,334.23450170000433,334.23450170000433,334.23450170000433,334.23450170000433,334.23450170000433,334.23450170000433,334.23450170000433,62,51,62,48,62,70,334.23450170000433,336.20168300002115,,,,,,,,,,,,,,,,,,,,３４２,f,１９,2023-05-21_16h03.51.042,RL,2022.2.5,60.00265211296962,
57,50,57,56,0,45,45,45,,,,,,,,None,336.20168300002115,336.20168300002115,336.20168300002115,336.20168300002115,336.20168300002115,336.20168300002115,f,0.5680217999906745,336.802191099996,336.802191099996,336.802191099996,336.802191099996,336.802191099996,336.802191099996,337.0853569000028,338.4183084999968,338.4352463000105,338.4352463000105,338.4352463000105,338.4352463000105,338.4352463000105,338.4352463000105,338.4352463000105,338.4352463000105,338.4352463000105,338.4352463000105,338.4352463000105,338.4352463000105,338.4352463000105,340.0663380000042,340.0663380000042,340.0663380000042,340.0663380000042,340.0663380000042,340.0663380000042,340.0663380000042,50,57,56,57,50,70,340.0663380000042,341.91735719999997,,,,,,,,,,,,,,,,,,,,３４２,f,１９,2023-05-21_16h03.51.042,RL,2022.2.5,60.00265211296962,
57,51,54,58,0,46,46,46,,,,,,,,None,341.91735719999997,341.91735719999997,341.91735719999997,341.91735719999997,341.91735719999997,341.91735719999997,f,0.6374451000010595,342.58848690000013,342.58848690000013,342.58848690000013,342.58848690000013,342.58848690000013,342.58848690000013,342.8843995000061,344.8838167999929,344.8838167999929,344.8838167999929,344.8838167999929,344.8838167999929,344.8838167999929,344.8838167999929,344.8838167999929,344.8838167999929,344.8838167999929,344.8838167999929,344.8838167999929,344.8838167999929,344.8838167999929,347.18188910000026,347.18188910000026,347.18188910000026,347.18188910000026,347.18188910000026,347.18188910000026,347.18188910000026,51,54,58,57,51,70,347.18188910000026,349.0498379000055,,,,,,,,,,,,,,,,,,,,３４２,f,１９,2023-05-21_16h03.51.042,RL,2022.2.5,60.00265211296962,
60,58,66,55,0,47,47,47,,,,,,,,None,349.0498379000055,349.0498379000055,349.0498379000055,349.0498379000055,349.0498379000055,349.0498379000055,f,0.4386843999964185,349.52038050000556,349.52038050000556,349.52038050000556,349.52038050000556,349.52038050000556,349.52038050000556,349.81648300000234,351.316175999993,351.316175999993,351.316175999993,351.316175999993,351.316175999993,351.316175999993,351.316175999993,351.316175999993,351.316175999993,351.316175999993,351.316175999993,351.316175999993,351.316175999993,351.316175999993,353.1141939999943,353.1141939999943,353.1141939999943,353.1141939999943,353.1141939999943,353.1141939999943,353.1141939999943,58,66,55,60,58,70,353.1141939999943,355.0985300000175,,,,,,,,,,,,,,,,,,,,３４２,f,１９,2023-05-21_16h03.51.042,RL,2022.2.5,60.00265211296962,
50,58,61,59,0,48,48,48,,,,,,,,None,355.0985300000175,355.0985300000175,355.0985300000175,355.0985300000175,355.0985300000175,355.0985300000175,f,0.4607493999938015,355.5823420000088,355.5823420000088,355.5823420000088,355.5823420000088,355.5823420000088,355.5823420000088,355.86535020000883,356.7487250000122,356.76513410001644,356.76513410001644,356.76513410001644,356.76513410001644,356.76513410001644,356.76513410001644,356.76513410001644,356.76513410001644,356.76513410001644,356.76513410001644,356.76513410001644,356.76513410001644,356.76513410001644,357.9466362000094,357.9466362000094,357.9466362000094,357.9466362000094,357.9466362000094,357.9466362000094,357.9466362000094,58,61,59,50,58,70,357.9466362000094,359.79786320001585,,,,,,,,,,,,,,,,,,,,３４２,f,１９,2023-05-21_16h03.51.042,RL,2022.2.5,60.00265211296962,
56,60,55,59,0,49,49,49,,,,,,,,None,359.79786320001585,359.79786320001585,359.79786320001585,359.79786320001585,359.79786320001585,359.79786320001585,i,0.6364598000072874,360.46499550002045,360.46499550002045,360.46499550002045,360.46499550002045,360.46499550002045,360.46499550002045,360.74788500001887,362.1810969999933,362.2149561000115,362.2149561000115,362.2149561000115,362.2149561000115,362.2149561000115,362.2149561000115,362.2149561000115,362.2149561000115,362.2149561000115,362.2149561000115,362.2149561000115,362.2149561000115,362.2149561000115,363.96219580000616,363.96219580000616,363.96219580000616,363.96219580000616,363.96219580000616,363.96219580000616,363.96219580000616,60,55,59,56,59,70,363.96219580000616,365.8134129999962,,,,,,,,,,,,,,,,,,,,３４２,f,１９,2023-05-21_16h03.51.042,RL,2022.2.5,60.00265211296962,
54,65,59,49,0,50,50,50,,,,,,,,None,365.8134129999962,365.8134129999962,365.8134129999962,365.8134129999962,365.8134129999962,365.8134129999962,i,0.5625248000142165,366.3978047000128,366.3978047000128,366.3978047000128,366.3978047000128,366.3978047000128,366.3978047000128,366.68059629999334,367.5800137000042,367.596557700017,367.596557700017,367.596557700017,367.596557700017,367.596557700017,367.596557700017,367.596557700017,367.596557700017,367.596557700017,367.596557700017,367.596557700017,367.596557700017,367.596557700017,368.7946797000186,368.7946797000186,368.7946797000186,368.7946797000186,368.7946797000186,368.7946797000186,368.7946797000186,65,59,49,54,49,70,368.7946797000186,370.4959528000036,,,,,,,,,,,,,,,,,,,,３４２,f,１９,2023-05-21_16h03.51.042,RL,2022.2.5,60.00265211296962,
57,61,60,48,0,51,51,51,,,,,,,,None,370.4959528000036,370.4959528000036,370.4959528000036,370.4959528000036,370.4959528000036,370.4959528000036,f,0.38431470000068657,370.91750959999627,370.91750959999627,370.91750959999627,370.91750959999627,370.91750959999627,370.91750959999627,371.2125690999965,372.66243450000184,372.66243450000184,372.66243450000184,372.66243450000184,372.66243450000184,372.66243450000184,372.66243450000184,372.66243450000184,372.66243450000184,372.66243450000184,372.66243450000184,372.66243450000184,372.66243450000184,372.66243450000184,374.4102358999953,374.4102358999953,374.4102358999953,374.4102358999953,374.4102358999953,374.4102358999953,374.4102358999953,61,60,48,57,61,70,374.4102358999953,376.39481180001167,,,,,,,,,,,,,,,,,,,,３４２,f,１９,2023-05-21_16h03.51.042,RL,2022.2.5,60.00265211296962,
55,60,62,50,0,52,52,52,,,,,,,,None,376.39481180001167,376.39481180001167,376.39481180001167,376.39481180001167,376.39481180001167,376.39481180001167,f,0.5005545000021812,376.9285327999969,376.9285327999969,376.9285327999969,376.9285327999969,376.9285327999969,376.9285327999969,377.2117440000002,378.6782119999989,378.69458900002064,378.69458900002064,378.69458900002064,378.69458900002064,378.69458900002064,378.69458900002064,378.69458900002064,378.69458900002064,378.69458900002064,378.69458900002064,378.69458900002064,378.69458900002064,378.69458900002064,380.4595763999969,380.4595763999969,380.4595763999969,380.4595763999969,380.4595763999969,380.4595763999969,380.4595763999969,60,62,50,55,60,70,380.4595763999969,382.27692530001514,,,,,,,,,,,,,,,,,,,,３４２,f,１９,2023-05-21_16h03.51.042,RL,2022.2.5,60.00265211296962,
54,66,59,42,0,53,53,53,,,,,,,,None,382.27692530001514,382.27692530001514,382.27692530001514,382.27692530001514,382.27692530001514,382.27692530001514,f,1.0634107000078075,383.3608756000176,383.3608756000176,383.3608756000176,383.3608756000176,383.3608756000176,383.3608756000176,383.64458469999954,385.6436122000159,385.6601042000111,385.6601042000111,385.6601042000111,385.6601042000111,385.6601042000111,385.6601042000111,385.6601042000111,385.6601042000111,385.6601042000111,385.6601042000111,385.6601042000111,385.6601042000111,385.6601042000111,387.9581712000072,387.9581712000072,387.9581712000072,387.9581712000072,387.9581712000072,387.9581712000072,387.9581712000072,66,59,42,54,66,70,387.9581712000072,389.75909770000726,,,,,,,,,,,,,,,,,,,,３４２,f,１９,2023-05-21_16h03.51.042,RL,2022.2.5,60.00265211296962,
49,67,58,46,0,54,54,54,,,,,,,,None,389.75909770000726,389.75909770000726,389.75909770000726,389.75909770000726,389.75909770000726,389.75909770000726,f,0.642940699995961,390.4262110000127,390.4262110000127,390.4262110000127,390.4262110000127,390.4262110000127,390.4262110000127,390.7094500999956,391.84286760000396,391.859088600002,391.859088600002,391.859088600002,391.859088600002,391.859088600002,391.859088600002,391.859088600002,391.859088600002,391.859088600002,391.859088600002,391.859088600002,391.859088600002,391.859088600002,393.2904157000012,393.2904157000012,393.2904157000012,393.2904157000012,393.2904157000012,393.2904157000012,393.2904157000012,67,58,46,49,67,70,393.2904157000012,395.191876900004,,,,,,,,,,,,,,,,,,,,３４２,f,１９,2023-05-21_16h03.51.042,RL,2022.2.5,60.00265211296962,
52,61,67,48,0,55,55,55,,,,,,,,None,395.191876900004,395.191876900004,395.191876900004,395.191876900004,395.191876900004,395.191876900004,f,0.6695456999877933,395.8919797000126,395.8919797000126,395.8919797000126,395.8919797000126,395.8919797000126,395.8919797000126,396.17525460000616,397.0080791999935,397.0417307000025,397.0417307000025,397.0417307000025,397.0417307000025,397.0417307000025,397.0417307000025,397.0417307000025,397.0417307000025,397.0417307000025,397.0417307000025,397.0417307000025,397.0417307000025,397.0417307000025,398.1732011999993,398.1732011999993,398.1732011999993,398.1732011999993,398.1732011999993,398.1732011999993,398.1732011999993,61,67,48,52,61,70,398.1732011999993,399.8407218999928,,,,,,,,,,,,,,,,,,,,３４２,f,１９,2023-05-21_16h03.51.042,RL,2022.2.5,60.00265211296962,
44,72,59,48,0,56,56,56,,,,,,,,None,399.8407218999928,399.8407218999928,399.8407218999928,399.8407218999928,399.8407218999928,399.8407218999928,f,0.7821178000012878,400.6415041,400.6415041,400.6415041,400.6415041,400.6415041,400.6415041,400.92463890000363,402.8739361000189,402.8909013000084,402.8909013000084,402.8909013000084,402.8909013000084,402.8909013000084,402.8909013000084,402.8909013000084,402.8909013000084,402.8909013000084,402.8909013000084,402.8909013000084,402.8909013000084,402.8909013000084,405.13831209999626,405.13831209999626,405.13831209999626,405.13831209999626,405.13831209999626,405.13831209999626,405.13831209999626,72,59,48,44,72,70,405.13831209999626,406.7894050000177,,,,,,,,,,,,,,,,,,,,３４２,f,１９,2023-05-21_16h03.51.042,RL,2022.2.5,60.00265211296962,
43,72,61,49,0,57,57,57,,,,,,,,None,406.7894050000177,406.7894050000177,406.7894050000177,406.7894050000177,406.7894050000177,406.7894050000177,f,0.6480215000046883,407.4569187000161,407.4569187000161,407.4569187000161,407.4569187000161,407.4569187000161,407.4569187000161,407.73967880001874,409.0899924999976,409.10618170001544,409.10618170001544,409.10618170001544,409.10618170001544,409.10618170001544,409.10618170001544,409.10618170001544,409.10618170001544,409.10618170001544,409.10618170001544,409.10618170001544,409.10618170001544,409.10618170001544,410.75417800000287,410.75417800000287,410.75417800000287,410.75417800000287,410.75417800000287,410.75417800000287,410.75417800000287,72,61,49,43,72,70,410.75417800000287,412.5549963999947,,,,,,,,,,,,,,,,,,,,３４２,f,１９,2023-05-21_16h03.51.042,RL,2022.2.5,60.00265211296962,
42,73,53,46,0,58,58,58,,,,,,,,None,412.5549963999947,412.5549963999947,412.5549963999947,412.5549963999947,412.5549963999947,412.5549963999947,f,0.39624439997714944,412.97249730001204,412.97249730001204,412.97249730001204,412.97249730001204,412.97249730001204,412.97249730001204,413.2558457000123,414.15525330000673,414.2145824000181,414.2145824000181,414.2145824000181,414.2145824000181,414.2145824000181,414.2145824000181,414.2145824000181,414.2145824000181,414.2145824000181,414.2145824000181,414.2145824000181,414.2145824000181,414.2145824000181,415.4201363000029,415.4201363000029,415.4201363000029,415.4201363000029,415.4201363000029,415.4201363000029,415.4201363000029,73,53,46,42,73,70,415.4201363000029,417.337474400003,,,,,,,,,,,,,,,,,,,,３４２,f,１９,2023-05-21_16h03.51.042,RL,2022.2.5,60.00265211296962,
37,81,57,52,0,59,59,59,,,,,,,,None,417.337474400003,417.337474400003,417.337474400003,417.337474400003,417.337474400003,417.337474400003,f,0.5302890999882948,417.88847070001066,417.88847070001066,417.88847070001066,417.88847070001066,417.88847070001066,417.88847070001066,418.1715241000056,419.9541067999962,419.9709199000208,419.9709199000208,419.9709199000208,419.9709199000208,419.9709199000208,419.9709199000208,419.9709199000208,419.9709199000208,419.9709199000208,419.9709199000208,419.9709199000208,419.9709199000208,419.9709199000208,422.0521667000139,422.0521667000139,422.0521667000139,422.0521667000139,422.0521667000139,422.0521667000139,422.0521667000139,81,57,52,37,81,70,422.0521667000139,423.63657420000527,,,,,,,,,,,,,,,,,,,,３４２,f,１９,2023-05-21_16h03.51.042,RL,2022.2.5,60.00265211296962,
40,71,56,43,0,60,60,60,,,,,,,,None,423.63657420000527,423.63657420000527,423.63657420000527,423.63657420000527,423.63657420000527,423.63657420000527,f,0.41004099999554455,424.0707934999955,424.0707934999955,424.0707934999955,424.0707934999955,424.0707934999955,424.0707934999955,424.3536531999998,425.7032833000121,425.71984840001096,425.71984840001096,425.71984840001096,425.71984840001096,425.71984840001096,425.71984840001096,425.71984840001096,425.71984840001096,425.71984840001096,425.71984840001096,425.71984840001096,425.71984840001096,425.71984840001096,427.3678671999951,427.3678671999951,427.3678671999951,427.3678671999951,427.3678671999951,427.3678671999951,427.3678671999951,71,56,43,40,71,70,427.3678671999951,429.1853451000061,,,,,,,,,,,,,,,,,,,,３４２,f,１９,2023-05-21_16h03.51.042,RL,2022.2.5,60.00265211296962,
50,64,53,42,0,61,61,61,,,,,,,,None,429.1853451000061,429.1853451000061,429.1853451000061,429.1853451000061,429.1853451000061,429.1853451000061,f,0.8083852000127081,430.0200339000148,430.0200339000148,430.0200339000148,430.0200339000148,430.0200339000148,430.0200339000148,430.30253190000076,431.5694175999961,431.5856618999969,431.5856618999969,431.5856618999969,431.5856618999969,431.5856618999969,431.5856618999969,431.5856618999969,431.5856618999969,431.5856618999969,431.5856618999969,431.5856618999969,431.5856618999969,431.5856618999969,433.15026290001697,433.15026290001697,433.15026290001697,433.15026290001697,433.15026290001697,433.15026290001697,433.15026290001697,64,53,42,50,64,70,433.15026290001697,434.78460240000277,,,,,,,,,,,,,,,,,,,,３４２,f,１９,2023-05-21_16h03.51.042,RL,2022.2.5,60.00265211296962,
42,54,55,39,0,62,62,62,,,,,,,,None,434.78460240000277,434.78460240000277,434.78460240000277,434.78460240000277,434.78460240000277,434.78460240000277,i,0.8376242000085767,435.6521704000188,435.6521704000188,435.6521704000188,435.6521704000188,435.6521704000188,435.6521704000188,435.9347529000079,436.8181062999938,436.8346046000079,436.8346046000079,436.8346046000079,436.8346046000079,436.8346046000079,436.8346046000079,436.8346046000079,436.8346046000079,436.8346046000079,436.8346046000079,436.8346046000079,436.8346046000079,436.8346046000079,438.0158306999947,438.0158306999947,438.0158306999947,438.0158306999947,438.0158306999947,438.0158306999947,438.0158306999947,54,55,39,42,39,70,438.0158306999947,440.0169886999938,,,,,,,,,,,,,,,,,,,,３４２,f,１９,2023-05-21_16h03.51.042,RL,2022.2.5,60.00265211296962,
36,57,52,38,0,63,63,63,,,,,,,,None,440.0169886999938,440.0169886999938,440.0169886999938,440.0169886999938,440.0169886999938,440.0169886999938,f,0.355924600007711,440.40106500001275,440.40106500001275,440.40106500001275,440.40106500001275,440.40106500001275,440.40106500001275,440.6840827999986,442.6005656000052,442.617163500021,442.617163500021,442.617163500021,442.617163500021,442.617163500021,442.617163500021,442.617163500021,442.617163500021,442.617163500021,442.617163500021,442.617163500021,442.617163500021,442.617163500021,444.83154680000735,444.83154680000735,444.83154680000735,444.83154680000735,444.83154680000735,444.83154680000735,444.83154680000735,57,52,38,36,57,70,444.83154680000735,446.6158410999924,,,,,,,,,,,,,,,,,,,,３４２,f,１９,2023-05-21_16h03.51.042,RL,2022.2.5,60.00265211296962,
44,61,45,39,0,64,64,64,,,,,,,,None,446.6158410999924,446.6158410999924,446.6158410999924,446.6158410999924,446.6158410999924,446.6158410999924,f,0.4124833999958355,447.05240080002113,447.05240080002113,447.05240080002113,447.05240080002113,447.05240080002113,447.05240080002113,447.3329236000136,448.2993384000147,448.31589930001064,448.31589930001064,448.31589930001064,448.31589930001064,448.31589930001064,448.31589930001064,448.31589930001064,448.31589930001064,448.31589930001064,448.31589930001064,448.31589930001064,448.31589930001064,448.31589930001064,449.5811476999952,449.5811476999952,449.5811476999952,449.5811476999952,449.5811476999952,449.5811476999952,449.5811476999952,61,45,39,44,61,70,449.5811476999952,451.2481320000079,,,,,,,,,,,,,,,,,,,,３４２,f,１９,2023-05-21_16h03.51.042,RL,2022.2.5,60.00265211296962,
43,65,55,37,0,65,65,65,,,,,,,,None,451.2481320000079,451.2481320000079,451.2481320000079,451.2481320000079,451.2481320000079,451.2481320000079,f,0.4463546999904793,451.71562940001604,451.71562940001604,451.71562940001604,451.71562940001604,451.71562940001604,451.71562940001604,452.0156125999929,453.0651858000201,453.0651858000201,453.0651858000201,453.0651858000201,453.0651858000201,453.0651858000201,453.0651858000201,453.0651858000201,453.0651858000201,453.0651858000201,453.0651858000201,453.0651858000201,453.0651858000201,453.0651858000201,454.413489700004,454.413489700004,454.413489700004,454.413489700004,454.413489700004,454.413489700004,454.413489700004,65,55,37,43,65,70,454.413489700004,456.0309543000185,,,,,,,,,,,,,,,,,,,,３４２,f,１９,2023-05-21_16h03.51.042,RL,2022.2.5,60.00265211296962,
38,52,52,31,0,66,66,66,,,,,,,,None,456.0309543000185,456.0309543000185,456.0309543000185,456.0309543000185,456.0309543000185,456.0309543000185,f,0.6773300000058953,456.7333001999941,456.7333001999941,456.7333001999941,456.7333001999941,456.7333001999941,456.7333001999941,457.03130600001896,458.064240000007,458.064240000007,458.064240000007,458.064240000007,458.064240000007,458.064240000007,458.064240000007,458.064240000007,458.064240000007,458.064240000007,458.064240000007,458.064240000007,458.064240000007,458.064240000007,459.37889270001324,459.37889270001324,459.37889270001324,459.37889270001324,459.37889270001324,459.37889270001324,459.37889270001324,52,52,31,38,52,70,459.37889270001324,460.91338320000796,,,,,,,,,,,,,,,,,,,,３４２,f,１９,2023-05-21_16h03.51.042,RL,2022.2.5,60.00265211296962,
41,60,52,30,0,67,67,67,,,,,,,,None,460.91338320000796,460.91338320000796,460.91338320000796,460.91338320000796,460.91338320000796,460.91338320000796,r,0.5359646000142675,461.48079620001954,461.48079620001954,461.48079620001954,461.48079620001954,461.48079620001954,461.48079620001954,461.78032799999346,463.5967557000113,463.5967557000113,463.5967557000113,463.5967557000113,463.5967557000113,463.5967557000113,463.5967557000113,463.5967557000113,463.5967557000113,463.5967557000113,463.5967557000113,463.5967557000113,463.5967557000113,463.5967557000113,465.7119320000056,465.7119320000056,465.7119320000056,465.7119320000056,465.7119320000056,465.7119320000056,465.7119320000056,60,52,30,41,52,70,465.7119320000056,467.26282259999425,,,,,,,,,,,,,,,,,,,,３４２,f,１９,2023-05-21_16h03.51.042,RL,2022.2.5,60.00265211296962,
37,61,55,31,0,68,68,68,,,,,,,,None,467.26282259999425,467.26282259999425,467.26282259999425,467.26282259999425,467.26282259999425,467.26282259999425,r,0.4070726000063587,467.6961808000051,467.6961808000051,467.6961808000051,467.6961808000051,467.6961808000051,467.6961808000051,467.97926580000785,469.2626879000163,469.2793792000157,469.2793792000157,469.2793792000157,469.2793792000157,469.2793792000157,469.2793792000157,469.2793792000157,469.2793792000157,469.2793792000157,469.2793792000157,469.2793792000157,469.2793792000157,469.2793792000157,470.86036350001814,470.86036350001814,470.86036350001814,470.86036350001814,470.86036350001814,470.86036350001814,470.86036350001814,61,55,31,37,55,70,470.86036350001814,472.59458940001787,,,,,,,,,,,,,,,,,,,,３４２,f,１９,2023-05-21_16h03.51.042,RL,2022.2.5,60.00265211296962,
38,61,60,32,0,69,69,69,,,,,,,,None,472.59458940001787,472.59458940001787,472.59458940001787,472.59458940001787,472.59458940001787,472.59458940001787,r,0.47341179999057204,473.0982023999968,473.0982023999968,473.0982023999968,473.0982023999968,473.0982023999968,473.0982023999968,473.394996899995,475.2944484000036,475.3113438000146,475.3113438000146,475.3113438000146,475.3113438000146,475.3113438000146,475.3113438000146,475.3113438000146,475.3113438000146,475.3113438000146,475.3113438000146,475.3113438000146,475.3113438000146,475.3113438000146,477.5094589999935,477.5094589999935,477.5094589999935,477.5094589999935,477.5094589999935,477.5094589999935,477.5094589999935,61,60,32,38,60,70,477.5094589999935,479.4768413999991,,,,,,,,,,,,,,,,,,,,３４２,f,１９,2023-05-21_16h03.51.042,RL,2022.2.5,60.00265211296962,
40,62,51,25,0,70,70,70,,,,,,,,None,479.4768413999991,479.4768413999991,479.4768413999991,479.4768413999991,479.4768413999991,479.4768413999991,r,0.38577690001693554,479.8951180000149,479.8951180000149,479.8951180000149,479.8951180000149,479.8951180000149,479.8951180000149,480.1775329000084,482.11026180000044,482.1268936000124,482.1268936000124,482.1268936000124,482.1268936000124,482.1268936000124,482.1268936000124,482.1268936000124,482.1268936000124,482.1268936000124,482.1268936000124,482.1268936000124,482.1268936000124,482.1268936000124,484.35804160000407,484.35804160000407,484.35804160000407,484.35804160000407,484.35804160000407,484.35804160000407,484.35804160000407,62,51,25,40,51,70,484.35804160000407,485.892645600019,,,,,,,,,,,,,,,,,,,,３４２,f,１９,2023-05-21_16h03.51.042,RL,2022.2.5,60.00265211296962,
31,61,68,29,0,71,71,71,,,,,,,,None,485.892645600019,485.892645600019,485.892645600019,485.892645600019,485.892645600019,485.892645600019,f,0.40869960002601147,486.3262451000046,486.3262451000046,486.3262451000046,486.3262451000046,486.3262451000046,486.3262451000046,486.6094243999978,488.0423367000185,488.0591624999943,488.0591624999943,488.0591624999943,488.0591624999943,488.0591624999943,488.0591624999943,488.0591624999943,488.0591624999943,488.0591624999943,488.0591624999943,488.0591624999943,488.0591624999943,488.0591624999943,489.7901777999941,489.7901777999941,489.7901777999941,489.7901777999941,489.7901777999941,489.7901777999941,489.7901777999941,61,68,29,31,61,70,489.7901777999941,491.74138970000786,,,,,,,,,,,,,,,,,,,,３４２,f,１９,2023-05-21_16h03.51.042,RL,2022.2.5,60.00265211296962,
43,60,59,25,0,72,72,72,,,,,,,,None,491.74138970000786,491.74138970000786,491.74138970000786,491.74138970000786,491.74138970000786,491.74138970000786,f,0.4440846999932546,492.20868539999356,492.20868539999356,492.20868539999356,492.20868539999356,492.20868539999356,492.20868539999356,492.50842660001945,493.50824470000225,493.50824470000225,493.50824470000225,493.50824470000225,493.50824470000225,493.50824470000225,493.50824470000225,493.50824470000225,493.50824470000225,493.50824470000225,493.50824470000225,493.50824470000225,493.50824470000225,493.50824470000225,494.80639990000054,494.80639990000054,494.80639990000054,494.80639990000054,494.80639990000054,494.80639990000054,494.80639990000054,60,59,25,43,60,70,494.80639990000054,496.52368780001416,,,,,,,,,,,,,,,,,,,,３４２,f,１９,2023-05-21_16h03.51.042,RL,2022.2.5,60.00265211296962,
37,74,60,18,0,73,73,73,,,,,,,,None,496.52368780001416,496.52368780001416,496.52368780001416,496.52368780001416,496.52368780001416,496.52368780001416,f,1.1325467999849934,497.67436669999734,497.67436669999734,497.67436669999734,497.67436669999734,497.67436669999734,497.67436669999734,497.9743789000204,499.55756440002006,499.55756440002006,499.55756440002006,499.55756440002006,499.55756440002006,499.55756440002006,499.55756440002006,499.55756440002006,499.55756440002006,499.55756440002006,499.55756440002006,499.55756440002006,499.55756440002006,499.55756440002006,501.4384679000068,501.4384679000068,501.4384679000068,501.4384679000068,501.4384679000068,501.4384679000068,501.4384679000068,74,60,18,37,74,70,501.4384679000068,503.25604140001815,,,,,,,,,,,,,,,,,,,,３４２,f,１９,2023-05-21_16h03.51.042,RL,2022.2.5,60.00265211296962,
32,68,64,27,0,74,74,74,,,,,,,,None,503.25604140001815,503.25604140001815,503.25604140001815,503.25604140001815,503.25604140001815,503.25604140001815,f,0.7706571999879088,504.05678179999813,504.05678179999813,504.05678179999813,504.05678179999813,504.05678179999813,504.05678179999813,504.33970549999503,505.77247339999303,505.7892872999946,505.7892872999946,505.7892872999946,505.7892872999946,505.7892872999946,505.7892872999946,505.7892872999946,505.7892872999946,505.7892872999946,505.7892872999946,505.7892872999946,505.7892872999946,505.7892872999946,507.5205750000023,507.5205750000023,507.5205750000023,507.5205750000023,507.5205750000023,507.5205750000023,507.5205750000023,68,64,27,32,68,70,507.5205750000023,509.4873278000159,,,,,,,,,,,,,,,,,,,,３４２,f,１９,2023-05-21_16h03.51.042,RL,2022.2.5,60.00265211296962,
51,67,49,28,0,75,75,75,,,,,,,,q,538.0502307999996,538.0502307999996,538.0502307999996,538.0502307999996,538.0502307999996,538.0502307999996,f,0.965009999985341,539.0403020000085,539.0403020000085,539.0403020000085,539.0403020000085,539.0403020000085,539.0403020000085,539.3167591000092,540.9499587000173,540.9831815999933,540.9831815999933,540.9831815999933,540.9831815999933,540.9831815999933,540.9831815999933,540.9831815999933,540.9831815999933,540.9831815999933,540.9831815999933,540.9831815999933,540.9831815999933,540.9831815999933,542.9148879999993,542.9148879999993,542.9148879999993,542.9148879999993,542.9148879999993,542.9148879999993,542.9148879999993,67,49,28,51,67,70,542.9148879999993,544.7156137000129,,,,,,,,,509.4873278000159,509.4873278000159,23.528994199994486,533.0352474999963,533.0352474999963,538.0502307999996,538.0502307999996,,,,,３４２,f,１９,2023-05-21_16h03.51.042,RL,2022.2.5,60.00265211296962,
38,69,52,22,0,76,76,76,,,,,,,,None,544.7156137000129,544.7156137000129,544.7156137000129,544.7156137000129,544.7156137000129,544.7156137000129,f,0.7477133000211325,545.4868031000078,545.4868031000078,545.4868031000078,545.4868031000078,545.4868031000078,545.4868031000078,545.7660667000164,546.7826568000019,546.8155372000183,546.8155372000183,546.8155372000183,546.8155372000183,546.8155372000183,546.8155372000183,546.8155372000183,546.8155372000183,546.8155372000183,546.8155372000183,546.8155372000183,546.8155372000183,546.8155372000183,548.1303691999929,548.1303691999929,548.1303691999929,548.1303691999929,548.1303691999929,548.1303691999929,548.1303691999929,69,52,22,38,69,70,548.1303691999929,549.998055700009,,,,,,,,,,,,,,,,,,,,３４２,f,１９,2023-05-21_16h03.51.042,RL,2022.2.5,60.00265211296962,
32,64,58,17,0,77,77,77,,,,,,,,None,549.998055700009,549.998055700009,549.998055700009,549.998055700009,549.998055700009,549.998055700009,f,0.6864495000045281,550.71949030002,550.71949030002,550.71949030002,550.71949030002,550.71949030002,550.71949030002,551.0149853000185,552.2648094000178,552.2648094000178,552.2648094000178,552.2648094000178,552.2648094000178,552.2648094000178,552.2648094000178,552.2648094000178,552.2648094000178,552.2648094000178,552.2648094000178,552.2648094000178,552.2648094000178,552.2648094000178,553.812539400009,553.812539400009,553.812539400009,553.812539400009,553.812539400009,553.812539400009,553.812539400009,64,58,17,32,64,70,553.812539400009,555.3472745000036,,,,,,,,,,,,,,,,,,,,３４２,f,１９,2023-05-21_16h03.51.042,RL,2022.2.5,60.00265211296962,
31,67,64,17,0,78,78,78,,,,,,,,None,555.3472745000036,555.3472745000036,555.3472745000036,555.3472745000036,555.3472745000036,555.3472745000036,f,0.5785360999871045,555.9509624000057,555.9509624000057,555.9509624000057,555.9509624000057,555.9509624000057,555.9509624000057,556.2311095000186,557.0805624999921,557.0970770000131,557.0970770000131,557.0970770000131,557.0970770000131,557.0970770000131,557.0970770000131,557.0970770000131,557.0970770000131,557.0970770000131,557.0970770000131,557.0970770000131,557.0970770000131,557.0970770000131,558.2452968000143,558.2452968000143,558.2452968000143,558.2452968000143,558.2452968000143,558.2452968000143,558.2452968000143,67,64,17,31,67,70,558.2452968000143,560.179667999997,,,,,,,,,,,,,,,,,,,,３４２,f,１９,2023-05-21_16h03.51.042,RL,2022.2.5,60.00265211296962,
38,61,50,25,0,79,79,79,,,,,,,,None,560.179667999997,560.179667999997,560.179667999997,560.179667999997,560.179667999997,560.179667999997,f,0.5591643999796361,560.76465930001,560.76465930001,560.76465930001,560.76465930001,560.76465930001,560.76465930001,561.0464357000019,561.9298332000035,561.9462289999938,561.9462289999938,561.9462289999938,561.9462289999938,561.9462289999938,561.9462289999938,561.9462289999938,561.9462289999938,561.9462289999938,561.9462289999938,561.9462289999938,561.9462289999938,561.9462289999938,563.12772400002,563.12772400002,563.12772400002,563.12772400002,563.12772400002,563.12772400002,563.12772400002,61,50,25,38,61,70,563.12772400002,565.0787617000169,,,,,,,,,,,,,,,,,,,,３４２,f,１９,2023-05-21_16h03.51.042,RL,2022.2.5,60.00265211296962,
31,71,52,18,0,80,80,80,,,,,,,,None,565.0787617000169,565.0787617000169,565.0787617000169,565.0787617000169,565.0787617000169,565.0787617000169,i,1.345254699990619,566.4472256000154,566.4472256000154,566.4472256000154,566.4472256000154,566.4472256000154,566.4472256000154,566.7291227999958,567.7787881999975,567.7953371000185,567.7953371000185,567.7953371000185,567.7953371000185,567.7953371000185,567.7953371000185,567.7953371000185,567.7953371000185,567.7953371000185,567.7953371000185,567.7953371000185,567.7953371000185,567.7953371000185,569.1436375000048,569.1436375000048,569.1436375000048,569.1436375000048,569.1436375000048,569.1436375000048,569.1436375000048,71,52,18,31,18,70,569.1436375000048,570.6775566000142,,,,,,,,,,,,,,,,,,,,３４２,f,１９,2023-05-21_16h03.51.042,RL,2022.2.5,60.00265211296962,
37,66,52,18,0,81,81,81,,,,,,,,None,570.6775566000142,570.6775566000142,570.6775566000142,570.6775566000142,570.6775566000142,570.6775566000142,f,0.36873270000796765,571.0840030999971,571.0840030999971,571.0840030999971,571.0840030999971,571.0840030999971,571.0840030999971,571.3616947999981,572.6277071000077,572.6442986000038,572.6442986000038,572.6442986000038,572.6442986000038,572.6442986000038,572.6442986000038,572.6442986000038,572.6442986000038,572.6442986000038,572.6442986000038,572.6442986000038,572.6442986000038,572.6442986000038,574.192601799994,574.192601799994,574.192601799994,574.192601799994,574.192601799994,574.192601799994,574.192601799994,66,52,18,37,66,70,574.192601799994,575.7600263000058,,,,,,,,,,,,,,,,,,,,３４２,f,１９,2023-05-21_16h03.51.042,RL,2022.2.5,60.00265211296962,
41,65,57,31,0,82,82,82,,,,,,,,None,575.7600263000058,575.7600263000058,575.7600263000058,575.7600263000058,575.7600263000058,575.7600263000058,f,0.49332400001003407,576.2787352000014,576.2787352000014,576.2787352000014,576.2787352000014,576.2787352000014,576.2787352000014,576.5771408000146,578.4102979000018,578.4102979000018,578.4102979000018,578.4102979000018,578.4102979000018,578.4102979000018,578.4102979000018,578.4102979000018,578.4102979000018,578.4102979000018,578.4102979000018,578.4102979000018,578.4102979000018,578.4102979000018,580.5411967000109,580.5411967000109,580.5411967000109,580.5411967000109,580.5411967000109,580.5411967000109,580.5411967000109,65,57,31,41,65,70,580.5411967000109,582.2429437999963,,,,,,,,,,,,,,,,,,,,３４２,f,１９,2023-05-21_16h03.51.042,RL,2022.2.5,60.00265211296962,
41,64,45,17,0,83,83,83,,,,,,,,None,582.2429437999963,582.2429437999963,582.2429437999963,582.2429437999963,582.2429437999963,582.2429437999963,f,0.7527615999861155,583.0261578999925,583.0261578999925,583.0261578999925,583.0261578999925,583.0261578999925,583.0261578999925,583.3097642000066,584.4254996000091,584.4424508000084,584.4424508000084,584.4424508000084,584.4424508000084,584.4424508000084,584.4424508000084,584.4424508000084,584.4424508000084,584.4424508000084,584.4424508000084,584.4424508000084,584.4424508000084,584.4424508000084,585.8574185000034,585.8574185000034,585.8574185000034,585.8574185000034,585.8574185000034,585.8574185000034,585.8574185000034,64,45,17,41,64,70,585.8574185000034,587.374944500014,,,,,,,,,,,,,,,,,,,,３４２,f,１９,2023-05-21_16h03.51.042,RL,2022.2.5,60.00265211296962,
39,64,39,25,0,84,84,84,,,,,,,,None,587.374944500014,587.374944500014,587.374944500014,587.374944500014,587.374944500014,587.374944500014,f,0.4860724000027403,587.8920826000103,587.8920826000103,587.8920826000103,587.8920826000103,587.8920826000103,587.8920826000103,588.1754161000135,589.7250506000128,589.7414329000167,589.7414329000167,589.7414329000167,589.7414329000167,589.7414329000167,589.7414329000167,589.7414329000167,589.7414329000167,589.7414329000167,589.7414329000167,589.7414329000167,589.7414329000167,589.7414329000167,591.5897918000119,591.5897918000119,591.5897918000119,591.5897918000119,591.5897918000119,591.5897918000119,591.5897918000119,64,39,25,39,64,70,591.5897918000119,593.5238225999929,,,,,,,,,,,,,,,,,,,,３４２,f,１９,2023-05-21_16h03.51.042,RL,2022.2.5,60.00265211296962,
53,64,52,14,0,85,85,85,,,,,,,,None,593.5238225999929,593.5238225999929,593.5238225999929,593.5238225999929,593.5238225999929,593.5238225999929,r,0.5533598999900278,594.1076719000121,594.1076719000121,594.1076719000121,594.1076719000121,594.1076719000121,594.1076719000121,594.4075509000104,595.3404650000157,595.3404650000157,595.3404650000157,595.3404650000157,595.3404650000157,595.3404650000157,595.3404650000157,595.3404650000157,595.3404650000157,595.3404650000157,595.3404650000157,595.3404650000157,595.3404650000157,595.3404650000157,596.5721864000079,596.5721864000079,596.5721864000079,596.5721864000079,596.5721864000079,596.5721864000079,596.5721864000079,64,52,14,53,52,70,596.5721864000079,598.4066147000121,,,,,,,,,,,,,,,,,,,,３４２,f,１９,2023-05-21_16h03.51.042,RL,2022.2.5,60.00265211296962,
40,62,48,15,0,86,86,86,,,,,,,,None,598.4066147000121,598.4066147000121,598.4066147000121,598.4066147000121,598.4066147000121,598.4066147000121,f,0.37756740002078004,598.8065733000112,598.8065733000112,598.8065733000112,598.8065733000112,598.8065733000112,598.8065733000112,599.0902927000134,600.8231848000141,600.8396199000126,600.8396199000126,600.8396199000126,600.8396199000126,600.8396199000126,600.8396199000126,600.8396199000126,600.8396199000126,600.8396199000126,600.8396199000126,600.8396199000126,600.8396199000126,600.8396199000126,602.8713052000094,602.8713052000094,602.8713052000094,602.8713052000094,602.8713052000094,602.8713052000094,602.8713052000094,62,48,15,40,62,70,602.8713052000094,604.738499900006,,,,,,,,,,,,,,,,,,,,３４２,f,１９,2023-05-21_16h03.51.042,RL,2022.2.5,60.00265211296962,
43,66,45,18,0,87,87,87,,,,,,,,None,604.738499900006,604.738499900006,604.738499900006,604.738499900006,604.738499900006,604.738499900006,f,0.7193282000080217,605.4974617999978,605.4974617999978,605.4974617999978,605.4974617999978,605.4974617999978,605.4974617999978,605.7719526000146,607.5385027000157,607.5718326999922,607.5718326999922,607.5718326999922,607.5718326999922,607.5718326999922,607.5718326999922,607.5718326999922,607.5718326999922,607.5718326999922,607.5718326999922,607.5718326999922,607.5718326999922,607.5718326999922,609.636307800014,609.636307800014,609.636307800014,609.636307800014,609.636307800014,609.636307800014,609.636307800014,66,45,18,43,66,70,609.636307800014,611.2040828000172,,,,,,,,,,,,,,,,,,,,３４２,f,１９,2023-05-21_16h03.51.042,RL,2022.2.5,60.00265211296962,
45,62,52,23,0,88,88,88,,,,,,,,None,611.2040828000172,611.2040828000172,611.2040828000172,611.2040828000172,611.2040828000172,611.2040828000172,f,0.7363401000038721,611.9709506999934,611.9709506999934,611.9709506999934,611.9709506999934,611.9709506999934,611.9709506999934,612.2541902000085,613.4539310999971,613.4708805000118,613.4708805000118,613.4708805000118,613.4708805000118,613.4708805000118,613.4708805000118,613.4708805000118,613.4708805000118,613.4708805000118,613.4708805000118,613.4708805000118,613.4708805000118,613.4708805000118,614.9693236000021,614.9693236000021,614.9693236000021,614.9693236000021,614.9693236000021,614.9693236000021,614.9693236000021,62,52,23,45,62,70,614.9693236000021,616.7531017000147,,,,,,,,,,,,,,,,,,,,３４２,f,１９,2023-05-21_16h03.51.042,RL,2022.2.5,60.00265211296962,
49,65,53,19,0,89,89,89,,,,,,,,None,616.7531017000147,616.7531017000147,616.7531017000147,616.7531017000147,616.7531017000147,616.7531017000147,f,0.6632460999826435,617.438613700011,617.438613700011,617.438613700011,617.438613700011,617.438613700011,617.438613700011,617.7370813000016,619.6365730999969,619.6365730999969,619.6365730999969,619.6365730999969,619.6365730999969,619.6365730999969,619.6365730999969,619.6365730999969,619.6365730999969,619.6365730999969,619.6365730999969,619.6365730999969,619.6365730999969,619.6365730999969,621.8340012000117,621.8340012000117,621.8340012000117,621.8340012000117,621.8340012000117,621.8340012000117,621.8340012000117,65,53,19,49,65,70,621.8340012000117,623.6352493000159,,,,,,,,,,,,,,,,,,,,３４２,f,１９,2023-05-21_16h03.51.042,RL,2022.2.5,60.00265211296962,
45,62,45,17,0,90,90,90,,,,,,,,None,623.6352493000159,623.6352493000159,623.6352493000159,623.6352493000159,623.6352493000159,623.6352493000159,f,0.7857178999984171,624.4572496000037,624.4572496000037,624.4572496000037,624.4572496000037,624.4572496000037,624.4572496000037,624.7356156000169,626.668622600002,626.6851890000107,626.6851890000107,626.6851890000107,626.6851890000107,626.6851890000107,626.6851890000107,626.6851890000107,626.6851890000107,626.6851890000107,626.6851890000107,626.6851890000107,626.6851890000107,626.6851890000107,628.9161026999936,628.9161026999936,628.9161026999936,628.9161026999936,628.9161026999936,628.9161026999936,628.9161026999936,62,45,17,45,62,70,628.9161026999936,630.8010098999948,,,,,,,,,,,,,,,,,,,,３４２,f,１９,2023-05-21_16h03.51.042,RL,2022.2.5,60.00265211296962,
42,57,49,16,0,91,91,91,,,,,,,,None,630.8010098999948,630.8010098999948,630.8010098999948,630.8010098999948,630.8010098999948,630.8010098999948,f,0.90354820000357,631.7343022999994,631.7343022999994,631.7343022999994,631.7343022999994,631.7343022999994,631.7343022999994,632.0173221000005,633.1171711000206,633.1337363000202,633.1337363000202,633.1337363000202,633.1337363000202,633.1337363000202,633.1337363000202,633.1337363000202,633.1337363000202,633.1337363000202,633.1337363000202,633.1337363000202,633.1337363000202,633.1337363000202,634.5323344000208,634.5323344000208,634.5323344000208,634.5323344000208,634.5323344000208,634.5323344000208,634.5323344000208,57,49,16,42,57,70,634.5323344000208,636.2831466000061,,,,,,,,,,,,,,,,,,,,３４２,f,１９,2023-05-21_16h03.51.042,RL,2022.2.5,60.00265211296962,
45,65,50,16,0,92,92,92,,,,,,,,None,636.2831466000061,636.2831466000061,636.2831466000061,636.2831466000061,636.2831466000061,636.2831466000061,r,0.47564609997789375,636.7833903999999,636.7833903999999,636.7833903999999,636.7833903999999,636.7833903999999,636.7833903999999,637.0665621999942,638.6666802999971,638.6832067999931,638.6832067999931,638.6832067999931,638.6832067999931,638.6832067999931,638.6832067999931,638.6832067999931,638.6832067999931,638.6832067999931,638.6832067999931,638.6832067999931,638.6832067999931,638.6832067999931,640.5807533000188,640.5807533000188,640.5807533000188,640.5807533000188,640.5807533000188,640.5807533000188,640.5807533000188,65,50,16,45,50,70,640.5807533000188,642.3990393000131,,,,,,,,,,,,,,,,,,,,３４２,f,１９,2023-05-21_16h03.51.042,RL,2022.2.5,60.00265211296962,
51,70,49,24,0,93,93,93,,,,,,,,None,642.3990393000131,642.3990393000131,642.3990393000131,642.3990393000131,642.3990393000131,642.3990393000131,j,0.6348588999826461,643.0738597000018,643.0738597000018,643.0738597000018,643.0738597000018,643.0738597000018,643.0738597000018,643.3490183000104,644.4654900000023,644.498749499995,644.498749499995,644.498749499995,644.498749499995,644.498749499995,644.498749499995,644.498749499995,644.498749499995,644.498749499995,644.498749499995,644.498749499995,644.498749499995,644.498749499995,645.9137390000105,645.9137390000105,645.9137390000105,645.9137390000105,645.9137390000105,645.9137390000105,645.9137390000105,70,49,24,51,51,70,645.9137390000105,647.6809632999939,,,,,,,,,,,,,,,,,,,,３４２,f,１９,2023-05-21_16h03.51.042,RL,2022.2.5,60.00265211296962,
51,64,48,25,0,94,94,94,,,,,,,,None,647.6809632999939,647.6809632999939,647.6809632999939,647.6809632999939,647.6809632999939,647.6809632999939,f,0.49917070000083186,648.1979925000051,648.1979925000051,648.1979925000051,648.1979925000051,648.1979925000051,648.1979925000051,648.498369900015,649.9477362000034,649.9477362000034,649.9477362000034,649.9477362000034,649.9477362000034,649.9477362000034,649.9477362000034,649.9477362000034,649.9477362000034,649.9477362000034,649.9477362000034,649.9477362000034,649.9477362000034,649.9477362000034,651.6961056000146,651.6961056000146,651.6961056000146,651.6961056000146,651.6961056000146,651.6961056000146,651.6961056000146,64,48,25,51,64,70,651.6961056000146,653.5800501000194,,,,,,,,,,,,,,,,,,,,３４２,f,１９,2023-05-21_16h03.51.042,RL,2022.2.5,60.00265211296962,
52,69,56,26,0,95,95,95,,,,,,,,None,653.5800501000194,653.5800501000194,653.5800501000194,653.5800501000194,653.5800501000194,653.5800501000194,f,0.430183999997098,654.0354057000077,654.0354057000077,654.0354057000077,654.0354057000077,654.0354057000077,654.0354057000077,654.3306332000066,656.0967263000202,656.113311699999,656.113311699999,656.113311699999,656.113311699999,656.113311699999,656.113311699999,656.113311699999,656.113311699999,656.113311699999,656.113311699999,656.113311699999,656.113311699999,656.113311699999,658.1782511000056,658.1782511000056,658.1782511000056,658.1782511000056,658.1782511000056,658.1782511000056,658.1782511000056,69,56,26,52,69,70,658.1782511000056,660.179125900002,,,,,,,,,,,,,,,,,,,,３４２,f,１９,2023-05-21_16h03.51.042,RL,2022.2.5,60.00265211296962,
54,65,54,25,0,96,96,96,,,,,,,,None,660.179125900002,660.179125900002,660.179125900002,660.179125900002,660.179125900002,660.179125900002,f,0.38396549999015406,660.5832088000025,660.5832088000025,660.5832088000025,660.5832088000025,660.5832088000025,660.5832088000025,660.8793491999968,662.0788438000018,662.0788438000018,662.0788438000018,662.0788438000018,662.0788438000018,662.0788438000018,662.0788438000018,662.0788438000018,662.0788438000018,662.0788438000018,662.0788438000018,662.0788438000018,662.0788438000018,662.0788438000018,663.5773161000106,663.5773161000106,663.5773161000106,663.5773161000106,663.5773161000106,663.5773161000106,663.5773161000106,65,54,25,54,65,70,663.5773161000106,665.4277389000054,,,,,,,,,,,,,,,,,,,,３４２,f,１９,2023-05-21_16h03.51.042,RL,2022.2.5,60.00265211296962,
52,74,53,27,0,97,97,97,,,,,,,,None,665.4277389000054,665.4277389000054,665.4277389000054,665.4277389000054,665.4277389000054,665.4277389000054,f,0.4272577999799978,665.8804227999935,665.8804227999935,665.8804227999935,665.8804227999935,665.8804227999935,665.8804227999935,666.1615500000189,667.6944644000032,667.7110963000159,667.7110963000159,667.7110963000159,667.7110963000159,667.7110963000159,667.7110963000159,667.7110963000159,667.7110963000159,667.7110963000159,667.7110963000159,667.7110963000159,667.7110963000159,667.7110963000159,669.5429081000038,669.5429081000038,669.5429081000038,669.5429081000038,669.5429081000038,669.5429081000038,669.5429081000038,74,53,27,52,74,70,669.5429081000038,671.1101807999949,,,,,,,,,,,,,,,,,,,,３４２,f,１９,2023-05-21_16h03.51.042,RL,2022.2.5,60.00265211296962,
50,68,54,24,0,98,98,98,,,,,,,,None,671.1101807999949,671.1101807999949,671.1101807999949,671.1101807999949,671.1101807999949,671.1101807999949,f,0.3944975000049453,671.5309107000066,671.5309107000066,671.5309107000066,671.5309107000066,671.5309107000066,671.5309107000066,671.8272005000035,673.2934722000209,673.3101845000056,673.3101845000056,673.3101845000056,673.3101845000056,673.3101845000056,673.3101845000056,673.3101845000056,673.3101845000056,673.3101845000056,673.3101845000056,673.3101845000056,673.3101845000056,673.3101845000056,675.0747663000075,675.0747663000075,675.0747663000075,675.0747663000075,675.0747663000075,675.0747663000075,675.0747663000075,68,54,24,50,68,70,675.0747663000075,677.0759300999925,,,,,,,,,,,,,,,,,,,,３４２,f,１９,2023-05-21_16h03.51.042,RL,2022.2.5,60.00265211296962,
41,68,54,21,0,99,99,99,,,,,,,,None,677.0759300999925,677.0759300999925,677.0759300999925,677.0759300999925,677.0759300999925,677.0759300999925,j,1.0098796999955084,678.1155443000025,678.1155443000025,678.1155443000025,678.1155443000025,678.1155443000025,678.1155443000025,678.4094670000195,679.9762121000094,679.9762121000094,679.9762121000094,679.9762121000094,679.9762121000094,679.9762121000094,679.9762121000094,679.9762121000094,679.9762121000094,679.9762121000094,679.9762121000094,679.9762121000094,679.9762121000094,679.9762121000094,681.840795199998,681.840795199998,681.840795199998,681.840795199998,681.840795199998,681.840795199998,681.840795199998,68,54,21,41,41,70,681.840795199998,683.3913898000028,,,,,,,,,,,,,,,,,,,,３４２,f,１９,2023-05-21_16h03.51.042,RL,2022.2.5,60.00265211296962,
41,67,55,18,0,100,100,100,,,,,,,,None,683.3913898000028,683.3913898000028,683.3913898000028,683.3913898000028,683.3913898000028,683.3913898000028,f,0.35658729998976924,683.7752107999986,683.7752107999986,683.7752107999986,683.7752107999986,683.7752107999986,683.7752107999986,684.0584904999996,686.0081031000009,686.0247067000018,686.0247067000018,686.0247067000018,686.0247067000018,686.0247067000018,686.0247067000018,686.0247067000018,686.0247067000018,686.0247067000018,686.0247067000018,686.0247067000018,686.0247067000018,686.0247067000018,688.2728658000124,688.2728658000124,688.2728658000124,688.2728658000124,688.2728658000124,688.2728658000124,688.2728658000124,67,55,18,41,67,70,688.2728658000124,689.957058,,,,,,,,,,,,,,,,,,,,３４２,f,１９,2023-05-21_16h03.51.042,RL,2022.2.5,60.00265211296962,
44,73,56,25,0,101,101,101,,,,,,,,None,689.957058,689.957058,689.957058,689.957058,689.957058,689.957058,f,0.46601669999654405,690.4466410000168,690.4466410000168,690.4466410000168,690.4466410000168,690.4466410000168,690.4466410000168,690.740990499995,692.2571327000041,692.2571327000041,692.2571327000041,692.2571327000041,692.2571327000041,692.2571327000041,692.2571327000041,692.2571327000041,692.2571327000041,692.2571327000041,692.2571327000041,692.2571327000041,692.2571327000041,692.2571327000041,694.0720088999951,694.0720088999951,694.0720088999951,694.0720088999951,694.0720088999951,694.0720088999951,694.0720088999951,73,56,25,44,73,70,694.0720088999951,695.6893831000198,,,,,,,,,,,,,,,,,,,,３４２,f,１９,2023-05-21_16h03.51.042,RL,2022.2.5,60.00265211296962,
45,72,54,20,0,102,102,102,,,,,,,,None,695.6893831000198,695.6893831000198,695.6893831000198,695.6893831000198,695.6893831000198,695.6893831000198,f,0.6274242999788839,696.3429420000175,696.3429420000175,696.3429420000175,696.3429420000175,696.3429420000175,696.3429420000175,696.6232039000024,697.8730691999954,697.889547800005,697.889547800005,697.889547800005,697.889547800005,697.889547800005,697.889547800005,697.889547800005,697.889547800005,697.889547800005,697.889547800005,697.889547800005,697.889547800005,697.889547800005,699.4378541000187,699.4378541000187,699.4378541000187,699.4378541000187,699.4378541000187,699.4378541000187,699.4378541000187,72,54,20,45,72,70,699.4378541000187,701.2052667000098,,,,,,,,,,,,,,,,,,,,３４２,f,１９,2023-05-21_16h03.51.042,RL,2022.2.5,60.00265211296962,
45,77,54,37,0,103,103,103,,,,,,,,None,701.2052667000098,701.2052667000098,701.2052667000098,701.2052667000098,701.2052667000098,701.2052667000098,f,0.4413563999987673,701.6721001999977,701.6721001999977,701.6721001999977,701.6721001999977,701.6721001999977,701.6721001999977,701.9554901999945,703.3385488000058,703.3552085999982,703.3552085999982,703.3552085999982,703.3552085999982,703.3552085999982,703.3552085999982,703.3552085999982,703.3552085999982,703.3552085999982,703.3552085999982,703.3552085999982,703.3552085999982,703.3552085999982,705.0365470999968,705.0365470999968,705.0365470999968,705.0365470999968,705.0365470999968,705.0365470999968,705.0365470999968,77,54,37,45,77,70,705.0365470999968,706.9205370999989,,,,,,,,,,,,,,,,,,,,３４２,f,１９,2023-05-21_16h03.51.042,RL,2022.2.5,60.00265211296962,
40,79,50,23,0,104,104,104,,,,,,,,None,706.9205370999989,706.9205370999989,706.9205370999989,706.9205370999989,706.9205370999989,706.9205370999989,f,0.5827688999997918,707.524637399998,707.524637399998,707.524637399998,707.524637399998,707.524637399998,707.524637399998,707.8044435000047,708.8376387000026,708.854445200006,708.854445200006,708.854445200006,708.854445200006,708.854445200006,708.854445200006,708.854445200006,708.854445200006,708.854445200006,708.854445200006,708.854445200006,708.854445200006,708.854445200006,710.1854183000105,710.1854183000105,710.1854183000105,710.1854183000105,710.1854183000105,710.1854183000105,710.1854183000105,79,50,23,40,79,70,710.1854183000105,712.1035116999992,,,,,,,,,,,,,,,,,,,,３４２,f,１９,2023-05-21_16h03.51.042,RL,2022.2.5,60.00265211296962,
44,84,53,34,0,105,105,105,,,,,,,,None,712.1035116999992,712.1035116999992,712.1035116999992,712.1035116999992,712.1035116999992,712.1035116999992,f,0.3272949999955017,712.4536698000156,712.4536698000156,712.4536698000156,712.4536698000156,712.4536698000156,712.4536698000156,712.737009000004,714.4866742000158,714.5033190000104,714.5033190000104,714.5033190000104,714.5033190000104,714.5033190000104,714.5033190000104,714.5033190000104,714.5033190000104,714.5033190000104,714.5033190000104,714.5033190000104,714.5033190000104,714.5033190000104,716.5505576000141,716.5505576000141,716.5505576000141,716.5505576000141,716.5505576000141,716.5505576000141,716.5505576000141,84,53,34,44,84,70,716.5505576000141,718.2025677000056,,,,,,,,,,,,,,,,,,,,３４２,f,１９,2023-05-21_16h03.51.042,RL,2022.2.5,60.00265211296962,
38,85,54,37,0,106,106,106,,,,,,,,None,718.2025677000056,718.2025677000056,718.2025677000056,718.2025677000056,718.2025677000056,718.2025677000056,f,0.3476964000146836,718.5717787000176,718.5717787000176,718.5717787000176,718.5717787000176,718.5717787000176,718.5717787000176,718.8524381000025,720.7190128999937,720.7356921000173,720.7356921000173,720.7356921000173,720.7356921000173,720.7356921000173,720.7356921000173,720.7356921000173,720.7356921000173,720.7356921000173,720.7356921000173,720.7356921000173,720.7356921000173,720.7356921000173,722.8999263000151,722.8999263000151,722.8999263000151,722.8999263000151,722.8999263000151,722.8999263000151,722.8999263000151,85,54,37,38,85,70,722.8999263000151,724.4847082000051,,,,,,,,,,,,,,,,,,,,３４２,f,１９,2023-05-21_16h03.51.042,RL,2022.2.5,60.00265211296962,
47,78,56,40,0,107,107,107,,,,,,,,None,724.4847082000051,724.4847082000051,724.4847082000051,724.4847082000051,724.4847082000051,724.4847082000051,f,0.4372680000087712,724.951506900019,724.951506900019,724.951506900019,724.951506900019,724.951506900019,724.951506900019,725.234752999997,726.734342700016,726.7509858999983,726.7509858999983,726.7509858999983,726.7509858999983,726.7509858999983,726.7509858999983,726.7509858999983,726.7509858999983,726.7509858999983,726.7509858999983,726.7509858999983,726.7509858999983,726.7509858999983,728.5490853000083,728.5490853000083,728.5490853000083,728.5490853000083,728.5490853000083,728.5490853000083,728.5490853000083,78,56,40,47,78,70,728.5490853000083,730.4498586000118,,,,,,,,,,,,,,,,,,,,３４２,f,１９,2023-05-21_16h03.51.042,RL,2022.2.5,60.00265211296962,
43,73,51,32,0,108,108,108,,,,,,,,None,730.4498586000118,730.4498586000118,730.4498586000118,730.4498586000118,730.4498586000118,730.4498586000118,f,0.3726054999860935,730.8523706000124,730.8523706000124,730.8523706000124,730.8523706000124,730.8523706000124,730.8523706000124,731.1337785999931,732.5332277000125,732.5498925000138,732.5498925000138,732.5498925000138,732.5498925000138,732.5498925000138,732.5498925000138,732.5498925000138,732.5498925000138,732.5498925000138,732.5498925000138,732.5498925000138,732.5498925000138,732.5498925000138,734.2479621999955,734.2479621999955,734.2479621999955,734.2479621999955,734.2479621999955,734.2479621999955,734.2479621999955,73,51,32,43,73,70,734.2479621999955,735.9160680000205,,,,,,,,,,,,,,,,,,,,３４２,f,１９,2023-05-21_16h03.51.042,RL,2022.2.5,60.00265211296962,
46,71,50,31,0,109,109,109,,,,,,,,None,735.9160680000205,735.9160680000205,735.9160680000205,735.9160680000205,735.9160680000205,735.9160680000205,f,0.4591210999933537,736.4044144999934,736.4044144999934,736.4044144999934,736.4044144999934,736.4044144999934,736.4044144999934,736.6829460000154,737.9657053000119,737.9821968000033,737.9821968000033,737.9821968000033,737.9821968000033,737.9821968000033,737.9821968000033,737.9821968000033,737.9821968000033,737.9821968000033,737.9821968000033,737.9821968000033,737.9821968000033,737.9821968000033,739.5633455000061,739.5633455000061,739.5633455000061,739.5633455000061,739.5633455000061,739.5633455000061,739.5633455000061,71,50,31,46,71,70,739.5633455000061,741.4981789000158,,,,,,,,,,,,,,,,,,,,３４２,f,１９,2023-05-21_16h03.51.042,RL,2022.2.5,60.00265211296962,
44,77,51,33,0,110,110,110,,,,,,,,None,741.4981789000158,741.4981789000158,741.4981789000158,741.4981789000158,741.4981789000158,741.4981789000158,f,0.6704976000182796,742.1984854000038,742.1984854000038,742.1984854000038,742.1984854000038,742.1984854000038,742.1984854000038,742.4816647999978,743.7814496000065,743.7979628000176,743.7979628000176,743.7979628000176,743.7979628000176,743.7979628000176,743.7979628000176,743.7979628000176,743.7979628000176,743.7979628000176,743.7979628000176,743.7979628000176,743.7979628000176,743.7979628000176,745.396353899996,745.396353899996,745.396353899996,745.396353899996,745.396353899996,745.396353899996,745.396353899996,77,51,33,44,77,70,745.396353899996,746.9305527000106,,,,,,,,,,,,,,,,,,,,３４２,f,１９,2023-05-21_16h03.51.042,RL,2022.2.5,60.00265211296962,
47,72,52,39,0,111,111,111,,,,,,,,None,746.9305527000106,746.9305527000106,746.9305527000106,746.9305527000106,746.9305527000106,746.9305527000106,f,0.5723991999984719,747.5307725000021,747.5307725000021,747.5307725000021,747.5307725000021,747.5307725000021,747.5307725000021,747.8139939999965,749.6139124000038,749.6306454000005,749.6306454000005,749.6306454000005,749.6306454000005,749.6306454000005,749.6306454000005,749.6306454000005,749.6306454000005,749.6306454000005,749.6306454000005,749.6306454000005,749.6306454000005,749.6306454000005,751.728446299996,751.728446299996,751.728446299996,751.728446299996,751.728446299996,751.728446299996,751.728446299996,72,52,39,47,72,70,751.728446299996,753.6297000000195,,,,,,,,,,,,,,,,,,,,３４２,f,１９,2023-05-21_16h03.51.042,RL,2022.2.5,60.00265211296962,
47,71,49,45,0,112,112,112,,,,,,,,None,753.6297000000195,753.6297000000195,753.6297000000195,753.6297000000195,753.6297000000195,753.6297000000195,f,0.6197727999824565,754.2795439000183,754.2795439000183,754.2795439000183,754.2795439000183,754.2795439000183,754.2795439000183,754.5630830000155,755.5292258000118,755.5459599000169,755.5459599000169,755.5459599000169,755.5459599000169,755.5459599000169,755.5459599000169,755.5459599000169,755.5459599000169,755.5459599000169,755.5459599000169,755.5459599000169,755.5459599000169,755.5459599000169,756.8110279999964,756.8110279999964,756.8110279999964,756.8110279999964,756.8110279999964,756.8110279999964,756.8110279999964,71,49,45,47,71,70,756.8110279999964,758.5618622000038,,,,,,,,,,,,,,,,,,,,３４２,f,１９,2023-05-21_16h03.51.042,RL,2022.2.5,60.00265211296962,
55,67,60,47,0,113,113,113,,,,,,,,None,758.5618622000038,758.5618622000038,758.5618622000038,758.5618622000038,758.5618622000038,758.5618622000038,f,1.1255652999971062,759.7122933999926,759.7122933999926,759.7122933999926,759.7122933999926,759.7122933999926,759.7122933999926,759.9956380999938,761.828983000014,761.8453269000165,761.8453269000165,761.8453269000165,761.8453269000165,761.8453269000165,761.8453269000165,761.8453269000165,761.8453269000165,761.8453269000165,761.8453269000165,761.8453269000165,761.8453269000165,761.8453269000165,763.9759327000065,763.9759327000065,763.9759327000065,763.9759327000065,763.9759327000065,763.9759327000065,763.9759327000065,67,60,47,55,67,70,763.9759327000065,765.4771194000205,,,,,,,,,,,,,,,,,,,,３４２,f,１９,2023-05-21_16h03.51.042,RL,2022.2.5,60.00265211296962,
46,70,59,51,0,114,114,114,,,,,,,,None,765.4771194000205,765.4771194000205,765.4771194000205,765.4771194000205,765.4771194000205,765.4771194000205,f,0.9406024000199977,766.445592300006,766.445592300006,766.445592300006,766.445592300006,766.445592300006,766.445592300006,766.7444943000155,768.1775771999964,768.1775771999964,768.1775771999964,768.1775771999964,768.1775771999964,768.1775771999964,768.1775771999964,768.1775771999964,768.1775771999964,768.1775771999964,768.1775771999964,768.1775771999964,768.1775771999964,768.1775771999964,769.9083694000146,769.9083694000146,769.9083694000146,769.9083694000146,769.9083694000146,769.9083694000146,769.9083694000146,70,59,51,46,70,70,769.9083694000146,771.6094385000179,,,,,,,,,,,,,,,,,,,,３４２,f,１９,2023-05-21_16h03.51.042,RL,2022.2.5,60.00265211296962,
51,64,55,45,0,115,115,115,,,,,,,,None,771.6094385000179,771.6094385000179,771.6094385000179,771.6094385000179,771.6094385000179,771.6094385000179,f,0.5992757999920286,772.2267549000098,772.2267549000098,772.2267549000098,772.2267549000098,772.2267549000098,772.2267549000098,772.5097619000007,773.9096490000084,773.9262987000111,773.9262987000111,773.9262987000111,773.9262987000111,773.9262987000111,773.9262987000111,773.9262987000111,773.9262987000111,773.9262987000111,773.9262987000111,773.9262987000111,773.9262987000111,773.9262987000111,775.624496000004,775.624496000004,775.624496000004,775.624496000004,775.624496000004,775.624496000004,775.624496000004,64,55,45,51,64,70,775.624496000004,777.2583141000068,,,,,,,,,,,,,,,,,,,,３４２,f,１９,2023-05-21_16h03.51.042,RL,2022.2.5,60.00265211296962,
55,69,55,39,0,116,116,116,,,,,,,,None,777.2583141000068,777.2583141000068,777.2583141000068,777.2583141000068,777.2583141000068,777.2583141000068,f,0.44779899998684414,777.727648,777.727648,777.727648,777.727648,777.727648,777.727648,778.0257775000064,779.8415797000052,779.8415797000052,779.8415797000052,779.8415797000052,779.8415797000052,779.8415797000052,779.8415797000052,779.8415797000052,779.8415797000052,779.8415797000052,779.8415797000052,779.8415797000052,779.8415797000052,779.8415797000052,781.9565536000009,781.9565536000009,781.9565536000009,781.9565536000009,781.9565536000009,781.9565536000009,781.9565536000009,69,55,39,55,69,70,781.9565536000009,783.5071149000141,,,,,,,,,,,,,,,,,,,,３４２,f,１９,2023-05-21_16h03.51.042,RL,2022.2.5,60.00265211296962,
56,70,55,43,0,117,117,117,,,,,,,,None,783.5071149000141,783.5071149000141,783.5071149000141,783.5071149000141,783.5071149000141,783.5071149000141,f,0.49318019999191165,784.0263698000053,784.0263698000053,784.0263698000053,784.0263698000053,784.0263698000053,784.0263698000053,784.3079110000108,785.7242349000007,785.7405015999975,785.7405015999975,785.7405015999975,785.7405015999975,785.7405015999975,785.7405015999975,785.7405015999975,785.7405015999975,785.7405015999975,785.7405015999975,785.7405015999975,785.7405015999975,785.7405015999975,787.4573093999934,787.4573093999934,787.4573093999934,787.4573093999934,787.4573093999934,787.4573093999934,787.4573093999934,70,55,43,56,70,70,787.4573093999934,789.1229349000205,,,,,,,,,,,,,,,,,,,,３４２,f,１９,2023-05-21_16h03.51.042,RL,2022.2.5,60.00265211296962,
58,75,55,44,0,118,118,118,,,,,,,,None,789.1229349000205,789.1229349000205,789.1229349000205,789.1229349000205,789.1229349000205,789.1229349000205,f,0.9820874000142794,790.1234638000024,790.1234638000024,790.1234638000024,790.1234638000024,790.1234638000024,790.1234638000024,790.42323700001,791.4564746000106,791.4564746000106,791.4564746000106,791.4564746000106,791.4564746000106,791.4564746000106,791.4564746000106,791.4564746000106,791.4564746000106,791.4564746000106,791.4564746000106,791.4564746000106,791.4564746000106,791.4564746000106,792.7883083000197,792.7883083000197,792.7883083000197,792.7883083000197,792.7883083000197,792.7883083000197,792.7883083000197,75,55,44,58,75,70,792.7883083000197,794.7220782999939,,,,,,,,,,,,,,,,,,,,３４２,f,１９,2023-05-21_16h03.51.042,RL,2022.2.5,60.00265211296962,
44,68,62,42,0,119,119,119,,,,,,,,None,794.7220782999939,794.7220782999939,794.7220782999939,794.7220782999939,794.7220782999939,794.7220782999939,f,0.4567012000188697,795.2085217999993,795.2085217999993,795.2085217999993,795.2085217999993,795.2085217999993,795.2085217999993,795.5056675999949,796.6554615999921,796.6554615999921,796.6554615999921,796.6554615999921,796.6554615999921,796.6554615999921,796.6554615999921,796.6554615999921,796.6554615999921,796.6554615999921,796.6554615999921,796.6554615999921,796.6554615999921,796.6554615999921,798.1033670000033,798.1033670000033,798.1033670000033,798.1033670000033,798.1033670000033,798.1033670000033,798.1033670000033,68,62,42,44,68,70,798.1033670000033,799.7050701999979,,,,,,,,,,,,,,,,,,,,３４２,f,１９,2023-05-21_16h03.51.042,RL,2022.2.5,60.00265211296962,
50,74,61,36,0,120,120,120,,,,,,,,None,799.7050701999979,799.7050701999979,799.7050701999979,799.7050701999979,799.7050701999979,799.7050701999979,f,0.6343373999989126,800.3752090000198,800.3752090000198,800.3752090000198,800.3752090000198,800.3752090000198,800.3752090000198,800.6548269000195,801.7212530999968,801.7548347999982,801.7548347999982,801.7548347999982,801.7548347999982,801.7548347999982,801.7548347999982,801.7548347999982,801.7548347999982,801.7548347999982,801.7548347999982,801.7548347999982,801.7548347999982,801.7548347999982,803.1195967000094,803.1195967000094,803.1195967000094,803.1195967000094,803.1195967000094,803.1195967000094,803.1195967000094,74,61,36,50,74,70,803.1195967000094,804.9537537000142,,,,,,,,,,,,,,,,,,,,３４２,f,１９,2023-05-21_16h03.51.042,RL,2022.2.5,60.00265211296962,
45,64,62,34,0,121,121,121,,,,,,,,None,804.9537537000142,804.9537537000142,804.9537537000142,804.9537537000142,804.9537537000142,804.9537537000142,f,0.571152999997139,805.5551498999994,805.5551498999994,805.5551498999994,805.5551498999994,805.5551498999994,805.5551498999994,805.8542059000174,807.320246599993,807.320246599993,807.320246599993,807.320246599993,807.320246599993,807.320246599993,807.320246599993,807.320246599993,807.320246599993,807.320246599993,807.320246599993,807.320246599993,807.320246599993,807.320246599993,809.0850753000122,809.0850753000122,809.0850753000122,809.0850753000122,809.0850753000122,809.0850753000122,809.0850753000122,64,62,34,45,64,70,809.0850753000122,810.9193130000203,,,,,,,,,,,,,,,,,,,,３４２,f,１９,2023-05-21_16h03.51.042,RL,2022.2.5,60.00265211296962,
