arm1,arm2,arm3,arm4,trials.thisRepN,trials.thisTrialN,trials.thisN,trials.thisIndex,instru_img1.started,instru_resp.started,instru_resp.keys,instru_resp.rt,image_2.started,text_2.started,image_2.stopped,text_2.stopped,fixbefore_2.started,fixbefore_2.stopped,rest_response.keys,red.started,green.started,yellow.started,blue.started,choose_bandit.started,Fixation.started,choose_bandit.keys,choose_bandit.rt,black.started,red_2.started,green_2.started,yellow_2.started,blue_2.started,fixation_2.started,docs.started,black.stopped,red_2.stopped,green_2.stopped,yellow_2.stopped,blue_2.stopped,fixation_2.stopped,docs.stopped,black_com.started,reward_sub.started,reward__sub.started,red_compare.started,green_com.started,yellow_com.started,blue_com.started,black_com.stopped,reward_sub.stopped,reward__sub.stopped,red_compare.stopped,green_com.stopped,yellow_com.stopped,blue_com.stopped,rewardred,rewardyellow,rewardblue,rewardgreen,subchoose,expectation,intertrialfix.started,intertrialfix.stopped,red.stopped,green.stopped,yellow.stopped,blue.stopped,choose_bandit.stopped,Fixation.stopped,bigx.started,bigx.stopped,rest_image.started,rest_response.started,rest_response.rt,image_expect_after.started,text_exp_after.started,image_expect_after.stopped,text_exp_after.stopped,image.started,key_resp.started,key_resp.keys,key_resp.rt,participant,Gender,Age,date,expName,psychopyVersion,frameRate,
,,,,,,,,62.07683999999426,62.07683999999426,space,10.696951899997657,,,,,,,,,,,,,,,,,,,,,,,,,,,,,,,,,,,,,,,,,,,,,,,,,,,,,,,,,,,,,,,,,,,,,,,３４３,f,２２,2023-05-21_16h32.58.041,RL,2022.2.5,60.06211623813094,
41,53,55,72,0,0,0,0,,,,,72.78742800001055,72.78742800001055,77.78701379999984,77.78701379999984,77.78701379999984,78.78868729999522,None,78.78868729999522,78.78868729999522,78.78868729999522,78.78868729999522,78.78868729999522,78.78868729999522,r,0.6814480000175536,79.49255220001214,79.49255220001214,79.49255220001214,79.49255220001214,79.49255220001214,79.49255220001214,79.78822780001792,80.92280369999935,80.92280369999935,80.92280369999935,80.92280369999935,80.92280369999935,80.92280369999935,80.92280369999935,80.92280369999935,80.92280369999935,80.92280369999935,80.92280369999935,80.92280369999935,80.92280369999935,80.92280369999935,82.40250019999803,82.40250019999803,82.40250019999803,82.40250019999803,82.40250019999803,82.40250019999803,82.40250019999803,55,53,72,41,53,60,82.40250019999803,84.08740029999171,,,,,,,,,,,,,,,,,,,,３４３,f,２２,2023-05-21_16h32.58.041,RL,2022.2.5,60.06211623813094,
38,44,50,69,0,1,1,1,,,,,,,,,,,None,84.08740029999171,84.08740029999171,84.08740029999171,84.08740029999171,84.08740029999171,84.08740029999171,r,0.8397019999974873,84.95543010000256,84.95543010000256,84.95543010000256,84.95543010000256,84.95543010000256,84.95543010000256,85.23737220000476,86.3201953000098,86.3201953000098,86.3201953000098,86.3201953000098,86.3201953000098,86.3201953000098,86.30434810000588,86.3201953000098,86.3201953000098,86.3201953000098,86.3201953000098,86.3201953000098,86.3201953000098,86.3201953000098,87.68563990000985,87.68563990000985,87.68563990000985,87.68563990000985,87.68563990000985,87.68563990000985,87.68563990000985,50,44,69,38,44,60,87.68563990000985,89.38675320000038,,,,,,,,,,,,,,,,,,,,３４３,f,２２,2023-05-21_16h32.58.041,RL,2022.2.5,60.06211623813094,
35,45,49,67,0,2,2,2,,,,,,,,,,,None,89.38675320000038,89.38675320000038,89.38675320000038,89.38675320000038,89.38675320000038,89.38675320000038,f,0.6317042999726254,90.03807140002027,90.03807140002027,90.03807140002027,90.03807140002027,90.03807140002027,90.03807140002027,90.32023209999898,92.01917460002005,92.01917460002005,92.01917460002005,92.01917460002005,92.01917460002005,92.01917460002005,92.0029962999979,92.01917460002005,92.01917460002005,92.01917460002005,92.01917460002005,92.01917460002005,92.01917460002005,92.01917460002005,94.00098000001162,94.00098000001162,94.00098000001162,94.00098000001162,94.00098000001162,94.00098000001162,94.00098000001162,49,45,67,35,49,60,94.00098000001162,95.71858590000193,,,,,,,,,,,,,,,,,,,,３４３,f,２２,2023-05-21_16h32.58.041,RL,2022.2.5,60.06211623813094,
34,53,46,76,0,3,3,3,,,,,,,,,,,None,95.71858590000193,95.71858590000193,95.71858590000193,95.71858590000193,95.71858590000193,95.71858590000193,f,0.7183134999941103,96.47675170001457,96.47675170001457,96.47675170001457,96.47675170001457,96.47675170001457,96.47675170001457,96.75214890000643,98.36851460000616,98.36851460000616,98.36851460000616,98.36851460000616,98.36851460000616,98.36851460000616,98.3348348000145,98.36851460000616,98.36851460000616,98.36851460000616,98.36851460000616,98.36851460000616,98.36851460000616,98.36851460000616,100.24960989999818,100.24960989999818,100.24960989999818,100.24960989999818,100.24960989999818,100.24960989999818,100.24960989999818,46,53,76,34,46,60,100.24960989999818,102.05089589999989,,,,,,,,,,,,,,,,,,,,３４３,f,２２,2023-05-21_16h32.58.041,RL,2022.2.5,60.06211623813094,
36,49,58,65,0,4,4,4,,,,,,,,,,,None,102.05089589999989,102.05089589999989,102.05089589999989,102.05089589999989,102.05089589999989,102.05089589999989,f,1.3388208000105806,103.41753000000608,103.41753000000608,103.41753000000608,103.41753000000608,103.41753000000608,103.41753000000608,103.70093089999864,105.03356710000662,105.03356710000662,105.03356710000662,105.03356710000662,105.03356710000662,105.03356710000662,105.01733709999826,105.03356710000662,105.03356710000662,105.03356710000662,105.03356710000662,105.03356710000662,105.03356710000662,105.03356710000662,106.6492375000089,106.6492375000089,106.6492375000089,106.6492375000089,106.6492375000089,106.6492375000089,106.6492375000089,58,49,65,36,58,60,106.6492375000089,108.3161183000193,,,,,,,,,,,,,,,,,,,,３４３,f,２２,2023-05-21_16h32.58.041,RL,2022.2.5,60.06211623813094,
23,53,59,68,0,5,5,5,,,,,,,,,,,None,108.3161183000193,108.3161183000193,108.3161183000193,108.3161183000193,108.3161183000193,108.3161183000193,f,0.9161686000006739,109.25186459999532,109.25186459999532,109.25186459999532,109.25186459999532,109.25186459999532,109.25186459999532,109.53374710000935,110.4001117000007,110.4001117000007,110.4001117000007,110.4001117000007,110.4001117000007,110.4001117000007,110.38354539999273,110.4001117000007,110.4001117000007,110.4001117000007,110.4001117000007,110.4001117000007,110.4001117000007,110.4001117000007,111.5481593000004,111.5481593000004,111.5481593000004,111.5481593000004,111.5481593000004,111.5481593000004,111.5481593000004,59,53,68,23,59,60,111.5481593000004,113.19874039999559,,,,,,,,,,,,,,,,,,,,３４３,f,２２,2023-05-21_16h32.58.041,RL,2022.2.5,60.06211623813094,
34,49,54,68,0,6,6,6,,,,,,,,,,,None,113.19874039999559,113.19874039999559,113.19874039999559,113.19874039999559,113.19874039999559,113.19874039999559,f,0.6397958000015933,113.86773850000463,113.86773850000463,113.86773850000463,113.86773850000463,113.86773850000463,113.86773850000463,114.14953090000199,115.53220459999284,115.53220459999284,115.53220459999284,115.53220459999284,115.53220459999284,115.53220459999284,115.5153963000048,115.53220459999284,115.53220459999284,115.53220459999284,115.53220459999284,115.53220459999284,115.53220459999284,115.53220459999284,117.19737680000253,117.19737680000253,117.19737680000253,117.19737680000253,117.19737680000253,117.19737680000253,117.19737680000253,54,49,68,34,54,60,117.19737680000253,118.83133230000385,,,,,,,,,,,,,,,,,,,,３４３,f,２２,2023-05-21_16h32.58.041,RL,2022.2.5,60.06211623813094,
26,49,57,60,0,7,7,7,,,,,,,,,,,None,118.83133230000385,118.83133230000385,118.83133230000385,118.83133230000385,118.83133230000385,118.83133230000385,j,1.168147999997018,120.03616980000515,120.03616980000515,120.03616980000515,120.03616980000515,120.03616980000515,120.03616980000515,120.31494350000867,122.33056850000867,122.33056850000867,122.33056850000867,122.33056850000867,122.33056850000867,122.33056850000867,122.3147882000194,122.33056850000867,122.33056850000867,122.33056850000867,122.33056850000867,122.33056850000867,122.33056850000867,122.33056850000867,124.62895209999988,124.62895209999988,124.62895209999988,124.62895209999988,124.62895209999988,124.62895209999988,124.62895209999988,57,49,60,26,26,60,124.62895209999988,126.36389569999301,,,,,,,,,,,,,,,,,,,,３４３,f,２２,2023-05-21_16h32.58.041,RL,2022.2.5,60.06211623813094,
22,55,53,58,0,8,8,8,,,,,,,,,,,None,126.36389569999301,126.36389569999301,126.36389569999301,126.36389569999301,126.36389569999301,126.36389569999301,f,0.5619175999891013,126.95079080000869,126.95079080000869,126.95079080000869,126.95079080000869,126.95079080000869,126.95079080000869,127.23012640001252,128.82948710001074,128.82948710001074,128.82948710001074,128.82948710001074,128.82948710001074,128.82948710001074,128.8131132000126,128.82948710001074,128.82948710001074,128.82948710001074,128.82948710001074,128.82948710001074,128.82948710001074,128.82948710001074,130.71140260001994,130.71140260001994,130.71140260001994,130.71140260001994,130.71140260001994,130.71140260001994,130.71140260001994,53,55,58,22,53,60,130.71140260001994,132.31252219999442,,,,,,,,,,,,,,,,,,,,３４３,f,２２,2023-05-21_16h32.58.041,RL,2022.2.5,60.06211623813094,
26,62,54,53,0,9,9,9,,,,,,,,,,,None,132.31252219999442,132.31252219999442,132.31252219999442,132.31252219999442,132.31252219999442,132.31252219999442,i,0.5715259999851696,132.91257670000778,132.91257670000778,132.91257670000778,132.91257670000778,132.91257670000778,132.91257670000778,133.21280820001266,134.47859600000083,134.47859600000083,134.47859600000083,134.47859600000083,134.47859600000083,134.47859600000083,134.47859600000083,134.47859600000083,134.47859600000083,134.47859600000083,134.47859600000083,134.47859600000083,134.47859600000083,134.47859600000083,136.0435490999953,136.0435490999953,136.0435490999953,136.0435490999953,136.0435490999953,136.0435490999953,136.0435490999953,54,62,53,26,53,60,136.0435490999953,137.74480330001097,,,,,,,,,,,,,,,,,,,,３４３,f,２２,2023-05-21_16h32.58.041,RL,2022.2.5,60.06211623813094,
25,69,53,53,0,10,10,10,,,,,,,,,,,None,137.74480330001097,137.74480330001097,137.74480330001097,137.74480330001097,137.74480330001097,137.74480330001097,r,0.4930659999954514,138.26301610001246,138.26301610001246,138.26301610001246,138.26301610001246,138.26301610001246,138.26301610001246,138.56165300001157,140.3443901000137,140.3443901000137,140.3443901000137,140.3443901000137,140.3443901000137,140.3443901000137,140.3443901000137,140.3443901000137,140.3443901000137,140.3443901000137,140.3443901000137,140.3443901000137,140.3443901000137,140.3443901000137,142.42576499999268,142.42576499999268,142.42576499999268,142.42576499999268,142.42576499999268,142.42576499999268,142.42576499999268,53,69,53,25,69,60,142.42576499999268,144.39346680001472,,,,,,,,,,,,,,,,,,,,３４３,f,２２,2023-05-21_16h32.58.041,RL,2022.2.5,60.06211623813094,
28,51,50,62,0,11,11,11,,,,,,,,,,,None,144.39346680001472,144.39346680001472,144.39346680001472,144.39346680001472,144.39346680001472,144.39346680001472,r,0.5426606000110041,144.96066700000665,144.96066700000665,144.96066700000665,144.96066700000665,144.96066700000665,144.96066700000665,145.26030470000114,146.69307000000845,146.69307000000845,146.69307000000845,146.69307000000845,146.69307000000845,146.69307000000845,146.69307000000845,146.69307000000845,146.69307000000845,146.69307000000845,146.69307000000845,146.69307000000845,146.69307000000845,146.69307000000845,148.42510320001747,148.42510320001747,148.42510320001747,148.42510320001747,148.42510320001747,148.42510320001747,148.42510320001747,50,51,62,28,51,60,148.42510320001747,150.35955110000214,,,,,,,,,,,,,,,,,,,,３４３,f,２２,2023-05-21_16h32.58.041,RL,2022.2.5,60.06211623813094,
24,53,46,59,0,12,12,12,,,,,,,,,,,None,150.35955110000214,150.35955110000214,150.35955110000214,150.35955110000214,150.35955110000214,150.35955110000214,f,0.5104632000147831,150.89287609999883,150.89287609999883,150.89287609999883,150.89287609999883,150.89287609999883,150.89287609999883,151.17628460002015,152.84221220001928,152.84221220001928,152.84221220001928,152.84221220001928,152.84221220001928,152.84221220001928,152.82565579999937,152.84221220001928,152.84221220001928,152.84221220001928,152.84221220001928,152.84221220001928,152.84221220001928,152.84221220001928,154.7908001000178,154.7908001000178,154.7908001000178,154.7908001000178,154.7908001000178,154.7908001000178,154.7908001000178,46,53,59,24,46,60,154.7908001000178,156.75793550000526,,,,,,,,,,,,,,,,,,,,３４３,f,２２,2023-05-21_16h32.58.041,RL,2022.2.5,60.06211623813094,
23,48,52,54,0,13,13,13,,,,,,,,,,,None,156.75793550000526,156.75793550000526,156.75793550000526,156.75793550000526,156.75793550000526,156.75793550000526,None,,,,,,,,,,,,,,,,,,,,,,,,,,,,,,52,48,54,23,0,60,164.27194560001954,166.273025100003,158.2625154000125,158.2625154000125,158.2625154000125,158.2625154000125,158.2625154000125,158.2625154000125,158.2625154000125,164.27194560001954,,,,,,,,,,,,３４３,f,２２,2023-05-21_16h32.58.041,RL,2022.2.5,60.06211623813094,
36,47,52,50,0,14,14,14,,,,,,,,,,,None,166.273025100003,166.273025100003,166.273025100003,166.273025100003,166.273025100003,166.273025100003,j,0.4027854000160005,166.71898989999318,166.71898989999318,166.71898989999318,166.71898989999318,166.71898989999318,166.71898989999318,166.99023389999638,168.77269119999255,168.77269119999255,168.77269119999255,168.77269119999255,168.77269119999255,168.77269119999255,168.7396636000194,168.77269119999255,168.77269119999255,168.77269119999255,168.77269119999255,168.77269119999255,168.77269119999255,168.77269119999255,170.82100220001303,170.82100220001303,170.82100220001303,170.82100220001303,170.82100220001303,170.82100220001303,170.82100220001303,52,47,50,36,36,60,170.82100220001303,172.72215469999355,,,,,,,,,,,,,,,,,,,,３４３,f,２２,2023-05-21_16h32.58.041,RL,2022.2.5,60.06211623813094,
46,55,44,61,0,15,15,15,,,,,,,,,,,None,172.72215469999355,172.72215469999355,172.72215469999355,172.72215469999355,172.72215469999355,172.72215469999355,r,0.279479499993613,173.02293080001255,173.02293080001255,173.02293080001255,173.02293080001255,173.02293080001255,173.02293080001255,173.30572259999462,174.3724213000096,174.3724213000096,174.3724213000096,174.3724213000096,174.3724213000096,174.3724213000096,174.35532480000984,174.3724213000096,174.3724213000096,174.3724213000096,174.3724213000096,174.3724213000096,174.3724213000096,174.3724213000096,175.72012090001954,175.72012090001954,175.72012090001954,175.72012090001954,175.72012090001954,175.72012090001954,175.72012090001954,44,55,61,46,55,60,175.72012090001954,177.32088700000895,,,,,,,,,,,,,,,,,,,,３４３,f,２２,2023-05-21_16h32.58.041,RL,2022.2.5,60.06211623813094,
33,53,36,56,0,16,16,16,,,,,,,,,,,None,177.32088700000895,177.32088700000895,177.32088700000895,177.32088700000895,177.32088700000895,177.32088700000895,r,0.4136871000227984,177.7584208000044,177.7584208000044,177.7584208000044,177.7584208000044,177.7584208000044,177.7584208000044,178.05477089999476,179.15450989999226,179.15450989999226,179.15450989999226,179.15450989999226,179.15450989999226,179.15450989999226,179.13788520000526,179.15450989999226,179.15450989999226,179.15450989999226,179.15450989999226,179.15450989999226,179.15450989999226,179.15450989999226,180.53598360001342,180.53598360001342,180.53598360001342,180.53598360001342,180.53598360001342,180.53598360001342,180.53598360001342,36,53,56,33,53,60,180.53598360001342,182.18706759999623,,,,,,,,,,,,,,,,,,,,３４３,f,２２,2023-05-21_16h32.58.041,RL,2022.2.5,60.06211623813094,
36,52,41,58,0,17,17,17,,,,,,,,,,,None,182.18706759999623,182.18706759999623,182.18706759999623,182.18706759999623,182.18706759999623,182.18706759999623,i,0.4355394000012893,182.6538833999948,182.6538833999948,182.6538833999948,182.6538833999948,182.6538833999948,182.6538833999948,182.93755010000314,183.98704880001605,183.98704880001605,183.98704880001605,183.98704880001605,183.98704880001605,183.98704880001605,183.97054569999455,183.98704880001605,183.98704880001605,183.98704880001605,183.98704880001605,183.98704880001605,183.98704880001605,183.98704880001605,185.3182189000072,185.3182189000072,185.3182189000072,185.3182189000072,185.3182189000072,185.3182189000072,185.3182189000072,41,52,58,36,58,60,185.3182189000072,186.91937940000207,,,,,,,,,,,,,,,,,,,,３４３,f,２２,2023-05-21_16h32.58.041,RL,2022.2.5,60.06211623813094,
32,59,41,54,0,18,18,18,,,,,,,,,,,None,186.91937940000207,186.91937940000207,186.91937940000207,186.91937940000207,186.91937940000207,186.91937940000207,f,0.37480589997721836,187.32013770000776,187.32013770000776,187.32013770000776,187.32013770000776,187.32013770000776,187.32013770000776,187.60311570001068,188.9693702000077,188.9693702000077,188.9693702000077,188.9693702000077,188.9693702000077,188.9693702000077,188.95294350001495,188.9693702000077,188.9693702000077,188.9693702000077,188.9693702000077,188.9693702000077,188.9693702000077,188.9693702000077,190.617677000002,190.617677000002,190.617677000002,190.617677000002,190.617677000002,190.617677000002,190.617677000002,41,59,54,32,41,60,190.617677000002,192.31837300001644,,,,,,,,,,,,,,,,,,,,３４３,f,２２,2023-05-21_16h32.58.041,RL,2022.2.5,60.06211623813094,
43,59,48,48,0,19,19,19,,,,,,,,,,,None,192.31837300001644,192.31837300001644,192.31837300001644,192.31837300001644,192.31837300001644,192.31837300001644,r,0.25129220000235364,192.6053302999935,192.6053302999935,192.6053302999935,192.6053302999935,192.6053302999935,192.6053302999935,192.88580819999333,194.61860549999983,194.61860549999983,194.61860549999983,194.61860549999983,194.61860549999983,194.61860549999983,194.60219239999424,194.61860549999983,194.61860549999983,194.61860549999983,194.61860549999983,194.61860549999983,194.61860549999983,194.61860549999983,196.63287729999865,196.63287729999865,196.63287729999865,196.63287729999865,196.63287729999865,196.63287729999865,196.63287729999865,48,59,48,43,59,60,196.63287729999865,198.51737650000723,,,,,,,,,,,,,,,,,,,,３４３,f,２２,2023-05-21_16h32.58.041,RL,2022.2.5,60.06211623813094,
41,58,41,40,0,20,20,20,,,,,,,,,,,None,198.51737650000723,198.51737650000723,198.51737650000723,198.51737650000723,198.51737650000723,198.51737650000723,r,0.24114249998820014,198.78548130000127,198.78548130000127,198.78548130000127,198.78548130000127,198.78548130000127,198.78548130000127,199.06798870000057,200.0342352000007,200.0342352000007,200.0342352000007,200.0342352000007,200.0342352000007,200.0342352000007,200.0176291000098,200.0342352000007,200.0342352000007,200.0342352000007,200.0342352000007,200.0342352000007,200.0342352000007,200.0342352000007,201.28270290000364,201.28270290000364,201.28270290000364,201.28270290000364,201.28270290000364,201.28270290000364,201.28270290000364,41,58,40,41,58,60,201.28270290000364,202.98373150001862,,,,,,,,,,,,,,,,,,,,３４３,f,２２,2023-05-21_16h32.58.041,RL,2022.2.5,60.06211623813094,
37,56,40,55,0,21,21,21,,,,,,,,,,,None,202.98373150001862,202.98373150001862,202.98373150001862,202.98373150001862,202.98373150001862,202.98373150001862,r,0.5579151000129059,203.5679449000163,203.5679449000163,203.5679449000163,203.5679449000163,203.5679449000163,203.5679449000163,203.85024630001863,205.1996777000022,205.1996777000022,205.1996777000022,205.1996777000022,205.1996777000022,205.1996777000022,205.18321300001116,205.1996777000022,205.1996777000022,205.1996777000022,205.1996777000022,205.1996777000022,205.1996777000022,205.1996777000022,206.83183320000535,206.83183320000535,206.83183320000535,206.83183320000535,206.83183320000535,206.83183320000535,206.83183320000535,40,56,55,37,56,60,206.83183320000535,208.36556310000014,,,,,,,,,,,,,,,,,,,,３４３,f,２２,2023-05-21_16h32.58.041,RL,2022.2.5,60.06211623813094,
44,60,43,49,0,22,22,22,,,,,,,,,,,None,208.36556310000014,208.36556310000014,208.36556310000014,208.36556310000014,208.36556310000014,208.36556310000014,r,0.41793299998971634,208.82339170001796,208.82339170001796,208.82339170001796,208.82339170001796,208.82339170001796,208.82339170001796,209.09947220000322,210.46598130001803,210.46598130001803,210.46598130001803,210.46598130001803,210.46598130001803,210.46598130001803,210.43239770000218,210.46598130001803,210.46598130001803,210.46598130001803,210.46598130001803,210.46598130001803,210.46598130001803,210.46598130001803,212.09744680000586,212.09744680000586,212.09744680000586,212.09744680000586,212.09744680000586,212.09744680000586,212.09744680000586,43,60,49,44,60,60,212.09744680000586,214.0815181999933,,,,,,,,,,,,,,,,,,,,３４３,f,２２,2023-05-21_16h32.58.041,RL,2022.2.5,60.06211623813094,
32,59,47,48,0,23,23,23,,,,,,,,,,,None,214.0815181999933,214.0815181999933,214.0815181999933,214.0815181999933,214.0815181999933,214.0815181999933,r,0.3183761000109371,214.43197629999486,214.43197629999486,214.43197629999486,214.43197629999486,214.43197629999486,214.43197629999486,214.7151278000092,216.64784819999477,216.64784819999477,216.64784819999477,216.64784819999477,216.64784819999477,216.64784819999477,216.63144610001473,216.64784819999477,216.64784819999477,216.64784819999477,216.64784819999477,216.64784819999477,216.64784819999477,216.64784819999477,218.86247379999259,218.86247379999259,218.86247379999259,218.86247379999259,218.86247379999259,218.86247379999259,218.86247379999259,47,59,48,32,59,60,218.86247379999259,220.6133578000008,,,,,,,,,,,,,,,,,,,,３４３,f,２２,2023-05-21_16h32.58.041,RL,2022.2.5,60.06211623813094,
38,60,40,43,0,24,24,24,,,,,,,,,,,None,220.6133578000008,220.6133578000008,220.6133578000008,220.6133578000008,220.6133578000008,220.6133578000008,r,0.3232909000071231,220.9642601000087,220.9642601000087,220.9642601000087,220.9642601000087,220.9642601000087,220.9642601000087,221.24719069999992,223.16340670001227,223.16340670001227,223.16340670001227,223.16340670001227,223.16340670001227,223.16340670001227,223.14713160000974,223.16340670001227,223.16340670001227,223.16340670001227,223.16340670001227,223.16340670001227,223.16340670001227,223.16340670001227,225.3612769000174,225.3612769000174,225.3612769000174,225.3612769000174,225.3612769000174,225.3612769000174,225.3612769000174,40,60,43,38,60,60,225.3612769000174,226.87931280001067,,,,,,,,,,,,,,,,,,,,３４３,f,２２,2023-05-21_16h32.58.041,RL,2022.2.5,60.06211623813094,
35,54,31,53,0,25,25,25,,,,,,,,,,,None,226.87931280001067,226.87931280001067,226.87931280001067,226.87931280001067,226.87931280001067,226.87931280001067,r,0.3867954000015743,227.29610810001031,227.29610810001031,227.29610810001031,227.29610810001031,227.29610810001031,227.29610810001031,227.59644630001276,229.3958363000129,229.3958363000129,229.3958363000129,229.3958363000129,229.3958363000129,229.3958363000129,229.3958363000129,229.3958363000129,229.3958363000129,229.3958363000129,229.3958363000129,229.3958363000129,229.3958363000129,229.3958363000129,231.49386109999614,231.49386109999614,231.49386109999614,231.49386109999614,231.49386109999614,231.49386109999614,231.49386109999614,31,54,53,35,54,60,231.49386109999614,233.37847349999356,,,,,,,,,,,,,,,,,,,,３４３,f,２２,2023-05-21_16h32.58.041,RL,2022.2.5,60.06211623813094,
40,58,33,53,0,26,26,26,,,,,,,,,,,None,233.37847349999356,233.37847349999356,233.37847349999356,233.37847349999356,233.37847349999356,233.37847349999356,i,0.3538584999914747,233.7625854999933,233.7625854999933,233.7625854999933,233.7625854999933,233.7625854999933,233.7625854999933,234.06142129999353,235.64438830001745,235.64438830001745,235.64438830001745,235.64438830001745,235.64438830001745,235.64438830001745,235.62792080000509,235.64438830001745,235.64438830001745,235.64438830001745,235.64438830001745,235.64438830001745,235.64438830001745,235.64438830001745,237.50929079999332,237.50929079999332,237.50929079999332,237.50929079999332,237.50929079999332,237.50929079999332,237.50929079999332,33,58,53,40,53,60,237.50929079999332,239.3933313000016,,,,,,,,,,,,,,,,,,,,３４３,f,２２,2023-05-21_16h32.58.041,RL,2022.2.5,60.06211623813094,
38,59,46,47,0,27,27,27,,,,,,,,,,,None,239.3933313000016,239.3933313000016,239.3933313000016,239.3933313000016,239.3933313000016,239.3933313000016,f,0.2559400000027381,239.67739290001919,239.67739290001919,239.67739290001919,239.67739290001919,239.67739290001919,239.67739290001919,239.9605556000024,241.76010360001237,241.76010360001237,241.76010360001237,241.76010360001237,241.76010360001237,241.76010360001237,241.74359460000414,241.76010360001237,241.76010360001237,241.76010360001237,241.76010360001237,241.76010360001237,241.76010360001237,241.76010360001237,243.8412129000062,243.8412129000062,243.8412129000062,243.8412129000062,243.8412129000062,243.8412129000062,243.8412129000062,46,59,47,38,46,60,243.8412129000062,245.4092021000106,,,,,,,,,,,,,,,,,,,,３４３,f,２２,2023-05-21_16h32.58.041,RL,2022.2.5,60.06211623813094,
36,62,47,40,0,28,28,28,,,,,,,,,,,None,245.4092021000106,245.4092021000106,245.4092021000106,245.4092021000106,245.4092021000106,245.4092021000106,j,0.40827169999829493,245.8437741000089,245.8437741000089,245.8437741000089,245.8437741000089,245.8437741000089,245.8437741000089,246.14270769999712,248.1256507000071,248.1256507000071,248.1256507000071,248.1256507000071,248.1256507000071,248.1256507000071,248.1256507000071,248.1256507000071,248.1256507000071,248.1256507000071,248.1256507000071,248.1256507000071,248.1256507000071,248.1256507000071,250.40722950000782,250.40722950000782,250.40722950000782,250.40722950000782,250.40722950000782,250.40722950000782,250.40722950000782,47,62,40,36,36,60,250.40722950000782,252.22485349999624,,,,,,,,,,,,,,,,,,,,３４３,f,２２,2023-05-21_16h32.58.041,RL,2022.2.5,60.06211623813094,
30,56,43,46,0,29,29,29,,,,,,,,,,,None,252.22485349999624,252.22485349999624,252.22485349999624,252.22485349999624,252.22485349999624,252.22485349999624,r,0.2752762000018265,252.52559200001997,252.52559200001997,252.52559200001997,252.52559200001997,252.52559200001997,252.52559200001997,252.80830770000466,254.2244461000082,254.2244461000082,254.2244461000082,254.2244461000082,254.2244461000082,254.2244461000082,254.19125120001263,254.2244461000082,254.2244461000082,254.2244461000082,254.2244461000082,254.2244461000082,254.2244461000082,254.2244461000082,255.90579610000714,255.90579610000714,255.90579610000714,255.90579610000714,255.90579610000714,255.90579610000714,255.90579610000714,43,56,46,30,56,60,255.90579610000714,257.7405803000147,,,,,,,,,,,,,,,,,,,,３４３,f,２２,2023-05-21_16h32.58.041,RL,2022.2.5,60.06211623813094,
42,63,51,47,0,30,30,30,,,,,,,,,,,None,257.7405803000147,257.7405803000147,257.7405803000147,257.7405803000147,257.7405803000147,257.7405803000147,r,0.2787930999766104,258.04165020000073,258.04165020000073,258.04165020000073,258.04165020000073,258.04165020000073,258.04165020000073,258.32378649999737,260.00734360000934,260.00734360000934,260.00734360000934,260.00734360000934,260.00734360000934,260.00734360000934,259.9909881000058,260.00734360000934,260.00734360000934,260.00734360000934,260.00734360000934,260.00734360000934,260.00734360000934,260.00734360000934,261.9715087999939,261.9715087999939,261.9715087999939,261.9715087999939,261.9715087999939,261.9715087999939,261.9715087999939,51,63,47,42,63,60,261.9715087999939,263.62269310001284,,,,,,,,,,,,,,,,,,,,３４３,f,２２,2023-05-21_16h32.58.041,RL,2022.2.5,60.06211623813094,
47,57,47,54,0,31,31,31,,,,,,,,,,,None,263.62269310001284,263.62269310001284,263.62269310001284,263.62269310001284,263.62269310001284,263.62269310001284,r,0.22433559998171404,263.87336369999684,263.87336369999684,263.87336369999684,263.87336369999684,263.87336369999684,263.87336369999684,264.1566160999937,265.08959210000467,265.08959210000467,265.08959210000467,265.08959210000467,265.08959210000467,265.08959210000467,265.07302300000447,265.08959210000467,265.08959210000467,265.08959210000467,265.08959210000467,265.08959210000467,265.08959210000467,265.08959210000467,266.30396920000203,266.30396920000203,266.30396920000203,266.30396920000203,266.30396920000203,266.30396920000203,266.30396920000203,47,57,54,47,57,60,266.30396920000203,268.2217140000139,,,,,,,,,,,,,,,,,,,,３４３,f,２２,2023-05-21_16h32.58.041,RL,2022.2.5,60.06211623813094,
49,69,42,57,0,32,32,32,,,,,,,,,,,None,268.2217140000139,268.2217140000139,268.2217140000139,268.2217140000139,268.2217140000139,268.2217140000139,r,0.38729469999088906,268.6398664000153,268.6398664000153,268.6398664000153,268.6398664000153,268.6398664000153,268.6398664000153,268.9220025000104,269.7884558000078,269.7884558000078,269.7884558000078,269.7884558000078,269.7884558000078,269.7884558000078,269.77210289999493,269.7884558000078,269.7884558000078,269.7884558000078,269.7884558000078,269.7884558000078,269.7884558000078,269.7884558000078,270.93663310000557,270.93663310000557,270.93663310000557,270.93663310000557,270.93663310000557,270.93663310000557,270.93663310000557,42,69,57,49,69,60,270.93663310000557,272.85473019999336,,,,,,,,,,,,,,,,,,,,３４３,f,２２,2023-05-21_16h32.58.041,RL,2022.2.5,60.06211623813094,
38,68,46,52,0,33,33,33,,,,,,,,,,,None,272.85473019999336,272.85473019999336,272.85473019999336,272.85473019999336,272.85473019999336,272.85473019999336,r,0.27216069999849424,273.15635150001617,273.15635150001617,273.15635150001617,273.15635150001617,273.15635150001617,273.15635150001617,273.4544623999973,274.8044610999932,274.8044610999932,274.8044610999932,274.8044610999932,274.8044610999932,274.8044610999932,274.78782080000383,274.8044610999932,274.8044610999932,274.8044610999932,274.8044610999932,274.8044610999932,274.8044610999932,274.8044610999932,276.43566270000883,276.43566270000883,276.43566270000883,276.43566270000883,276.43566270000883,276.43566270000883,276.43566270000883,46,68,52,38,68,60,276.43566270000883,278.1869422000018,,,,,,,,,,,,,,,,,,,,３４３,f,２２,2023-05-21_16h32.58.041,RL,2022.2.5,60.06211623813094,
31,64,45,52,0,34,34,34,,,,,,,,,,,None,278.1869422000018,278.1869422000018,278.1869422000018,278.1869422000018,278.1869422000018,278.1869422000018,r,0.2784428999875672,278.4872796999989,278.4872796999989,278.4872796999989,278.4872796999989,278.4872796999989,278.4872796999989,278.7703134000185,280.28662080000504,280.28662080000504,280.28662080000504,280.28662080000504,280.28662080000504,280.28662080000504,280.2702986999939,280.28662080000504,280.28662080000504,280.28662080000504,280.28662080000504,280.28662080000504,280.28662080000504,280.28662080000504,282.0851820000098,282.0851820000098,282.0851820000098,282.0851820000098,282.0851820000098,282.0851820000098,282.0851820000098,45,64,52,31,64,60,282.0851820000098,283.9360472999979,,,,,,,,,,,,,,,,,,,,３４３,f,２２,2023-05-21_16h32.58.041,RL,2022.2.5,60.06211623813094,
38,60,45,58,0,35,35,35,,,,,,,,,,,None,283.9360472999979,283.9360472999979,283.9360472999979,283.9360472999979,283.9360472999979,283.9360472999979,r,0.2209751999762375,284.1873024000088,284.1873024000088,284.1873024000088,284.1873024000088,284.1873024000088,284.1873024000088,284.48648300001514,285.5195409000153,285.5195409000153,285.5195409000153,285.5195409000153,285.5195409000153,285.5195409000153,285.5195409000153,285.5195409000153,285.5195409000153,285.5195409000153,285.5195409000153,285.5195409000153,285.5195409000153,285.5195409000153,286.85089460000745,286.85089460000745,286.85089460000745,286.85089460000745,286.85089460000745,286.85089460000745,286.85089460000745,45,60,58,38,60,60,286.85089460000745,288.5183660000039,,,,,,,,,,,,,,,,,,,,３４３,f,２２,2023-05-21_16h32.58.041,RL,2022.2.5,60.06211623813094,
47,68,46,56,0,36,36,36,,,,,,,,,,,None,288.5183660000039,288.5183660000039,288.5183660000039,288.5183660000039,288.5183660000039,288.5183660000039,r,0.3125356000091415,288.85341800001333,288.85341800001333,288.85341800001333,288.85341800001333,288.85341800001333,288.85341800001333,289.15173660000437,291.1518308999948,291.1518308999948,291.1518308999948,291.1518308999948,291.1518308999948,291.1518308999948,291.1518308999948,291.1518308999948,291.1518308999948,291.1518308999948,291.1518308999948,291.1518308999948,291.1518308999948,291.1518308999948,293.44981650001137,293.44981650001137,293.44981650001137,293.44981650001137,293.44981650001137,293.44981650001137,293.44981650001137,46,68,56,47,68,60,293.44981650001137,295.4344173000136,,,,,,,,,,,,,,,,,,,,３４３,f,２２,2023-05-21_16h32.58.041,RL,2022.2.5,60.06211623813094,
43,55,48,58,0,37,37,37,,,,,,,,,,,None,295.4344173000136,295.4344173000136,295.4344173000136,295.4344173000136,295.4344173000136,295.4344173000136,r,0.20093599997926503,295.66992200000095,295.66992200000095,295.66992200000095,295.66992200000095,295.66992200000095,295.66992200000095,295.96753769999486,297.0175448000082,297.0175448000082,297.0175448000082,297.0175448000082,297.0175448000082,297.0175448000082,297.0175448000082,297.0175448000082,297.0175448000082,297.0175448000082,297.0175448000082,297.0175448000082,297.0175448000082,297.0175448000082,298.3651247000089,298.3651247000089,298.3651247000089,298.3651247000089,298.3651247000089,298.3651247000089,298.3651247000089,48,55,58,43,55,60,298.3651247000089,300.31650549999904,,,,,,,,,,,,,,,,,,,,３４３,f,２２,2023-05-21_16h32.58.041,RL,2022.2.5,60.06211623813094,
49,68,47,56,0,38,38,38,,,,,,,,,,,None,300.31650549999904,300.31650549999904,300.31650549999904,300.31650549999904,300.31650549999904,300.31650549999904,r,0.300740600010613,300.6537243000057,300.6537243000057,300.6537243000057,300.6537243000057,300.6537243000057,300.6537243000057,300.93337529999553,301.7996046000044,301.7996046000044,301.7996046000044,301.7996046000044,301.7996046000044,301.7996046000044,301.7828911000106,301.7996046000044,301.7996046000044,301.7996046000044,301.7996046000044,301.7996046000044,301.7996046000044,301.7996046000044,302.94784870001604,302.94784870001604,302.94784870001604,302.94784870001604,302.94784870001604,302.94784870001604,302.94784870001604,47,68,56,49,68,60,302.94784870001604,304.6490791999968,,,,,,,,,,,,,,,,,,,,３４３,f,２２,2023-05-21_16h32.58.041,RL,2022.2.5,60.06211623813094,
42,64,62,53,0,39,39,39,,,,,,,,,,,None,304.6490791999968,304.6490791999968,304.6490791999968,304.6490791999968,304.6490791999968,304.6490791999968,r,0.309755900001619,304.9826610000164,304.9826610000164,304.9826610000164,304.9826610000164,304.9826610000164,304.9826610000164,305.26563959999476,306.7155263000168,306.7155263000168,306.7155263000168,306.7155263000168,306.7155263000168,306.7155263000168,306.6987061999971,306.7155263000168,306.7155263000168,306.7155263000168,306.7155263000168,306.7155263000168,306.7155263000168,306.7155263000168,308.446735000005,308.446735000005,308.446735000005,308.446735000005,308.446735000005,308.446735000005,308.446735000005,62,64,53,42,64,60,308.446735000005,310.2309574999963,,,,,,,,,,,,,,,,,,,,３４３,f,２２,2023-05-21_16h32.58.041,RL,2022.2.5,60.06211623813094,
29,59,54,64,0,40,40,40,,,,,,,,,,,None,310.2309574999963,310.2309574999963,310.2309574999963,310.2309574999963,310.2309574999963,310.2309574999963,r,0.2925319000205491,310.5481725000136,310.5481725000136,310.5481725000136,310.5481725000136,310.5481725000136,310.5481725000136,310.8480109999946,312.5313654000056,312.5313654000056,312.5313654000056,312.5313654000056,312.5313654000056,312.5313654000056,312.5313654000056,312.5313654000056,312.5313654000056,312.5313654000056,312.5313654000056,312.5313654000056,312.5313654000056,312.5313654000056,314.5125420000113,314.5125420000113,314.5125420000113,314.5125420000113,314.5125420000113,314.5125420000113,314.5125420000113,54,59,64,29,59,60,314.5125420000113,316.1471465000068,,,,,,,,,,,,,,,,,,,,３４３,f,２２,2023-05-21_16h32.58.041,RL,2022.2.5,60.06211623813094,
32,66,59,51,0,41,41,41,,,,,,,,,,,None,316.1471465000068,316.1471465000068,316.1471465000068,316.1471465000068,316.1471465000068,316.1471465000068,r,0.29179419999127276,316.4644526000193,316.4644526000193,316.4644526000193,316.4644526000193,316.4644526000193,316.4644526000193,316.74722889999975,317.9969459999993,317.9969459999993,317.9969459999993,317.9969459999993,317.9969459999993,317.9969459999993,317.98021460001473,317.9969459999993,317.9969459999993,317.9969459999993,317.9969459999993,317.9969459999993,317.9969459999993,317.9969459999993,319.52792029999546,319.52792029999546,319.52792029999546,319.52792029999546,319.52792029999546,319.52792029999546,319.52792029999546,59,66,51,32,66,60,319.52792029999546,321.1458539000014,,,,,,,,,,,,,,,,,,,,３４３,f,２２,2023-05-21_16h32.58.041,RL,2022.2.5,60.06211623813094,
43,60,56,52,0,42,42,42,,,,,,,,,,,None,321.1458539000014,321.1458539000014,321.1458539000014,321.1458539000014,321.1458539000014,321.1458539000014,r,0.3528585000021849,321.533805700019,321.533805700019,321.533805700019,321.533805700019,321.533805700019,321.533805700019,321.81326830000035,322.6463640000147,322.6463640000147,322.6463640000147,322.6463640000147,322.6463640000147,322.6463640000147,322.6297271999938,322.6463640000147,322.6463640000147,322.6463640000147,322.6463640000147,322.6463640000147,322.6463640000147,322.6463640000147,323.7607871000073,323.7607871000073,323.7607871000073,323.7607871000073,323.7607871000073,323.7607871000073,323.7607871000073,56,60,52,43,60,60,323.7607871000073,325.46180099999765,,,,,,,,,,,,,,,,,,,,３４３,f,２２,2023-05-21_16h32.58.041,RL,2022.2.5,60.06211623813094,
39,74,57,55,0,43,43,43,,,,,,,,,,,None,325.46180099999765,325.46180099999765,325.46180099999765,325.46180099999765,325.46180099999765,325.46180099999765,r,0.33427299998584203,325.83356230001664,325.83356230001664,325.83356230001664,325.83356230001664,325.83356230001664,325.83356230001664,326.1122733000084,327.52882820001105,327.52882820001105,327.52882820001105,327.52882820001105,327.52882820001105,327.52882820001105,327.51221250000526,327.52882820001105,327.52882820001105,327.52882820001105,327.52882820001105,327.52882820001105,327.52882820001105,327.52882820001105,329.2263451000035,329.2263451000035,329.2263451000035,329.2263451000035,329.2263451000035,329.2263451000035,329.2263451000035,57,74,55,39,74,60,329.2263451000035,330.9609414000006,,,,,,,,,,,,,,,,,,,,３４３,f,２２,2023-05-21_16h32.58.041,RL,2022.2.5,60.06211623813094,
44,72,51,52,0,44,44,44,,,,,,,,,,,None,330.9609414000006,330.9609414000006,330.9609414000006,330.9609414000006,330.9609414000006,330.9609414000006,r,0.4508673000091221,331.4450150000048,331.4450150000048,331.4450150000048,331.4450150000048,331.4450150000048,331.4450150000048,331.72768830001587,332.7109274000104,332.7109274000104,332.7109274000104,332.7109274000104,332.7109274000104,332.7109274000104,332.69483059999766,332.7109274000104,332.7109274000104,332.7109274000104,332.7109274000104,332.7109274000104,332.7109274000104,332.7109274000104,333.97605530000874,333.97605530000874,333.97605530000874,333.97605530000874,333.97605530000874,333.97605530000874,333.97605530000874,51,72,52,44,72,60,333.97605530000874,335.94326200001524,,,,,,,,,,,,,,,,,,,,３４３,f,２２,2023-05-21_16h32.58.041,RL,2022.2.5,60.06211623813094,
28,63,57,51,0,45,45,45,,,,,,,,,,,None,335.94326200001524,335.94326200001524,335.94326200001524,335.94326200001524,335.94326200001524,335.94326200001524,r,0.36821600000257604,336.3487462000048,336.3487462000048,336.3487462000048,336.3487462000048,336.3487462000048,336.3487462000048,336.6274198000028,338.3268257000018,338.3268257000018,338.3268257000018,338.3268257000018,338.3268257000018,338.3268257000018,338.30997000000207,338.3268257000018,338.3268257000018,338.3268257000018,338.3268257000018,338.3268257000018,338.3268257000018,338.3268257000018,340.30810100000235,340.30810100000235,340.30810100000235,340.30810100000235,340.30810100000235,340.30810100000235,340.30810100000235,57,63,51,28,63,60,340.30810100000235,341.9763258000021,,,,,,,,,,,,,,,,,,,,３４３,f,２２,2023-05-21_16h32.58.041,RL,2022.2.5,60.06211623813094,
27,70,57,41,0,46,46,46,,,,,,,,,,,None,341.9763258000021,341.9763258000021,341.9763258000021,341.9763258000021,341.9763258000021,341.9763258000021,r,0.38809540000511333,342.3930342000094,342.3930342000094,342.3930342000094,342.3930342000094,342.3930342000094,342.3930342000094,342.6757198999985,344.5591667999979,344.5591667999979,344.5591667999979,344.5591667999979,344.5591667999979,344.5591667999979,344.54269210001803,344.5591667999979,344.5591667999979,344.5591667999979,344.5591667999979,344.5591667999979,344.5591667999979,344.5591667999979,346.72350190000725,346.72350190000725,346.72350190000725,346.72350190000725,346.72350190000725,346.72350190000725,346.72350190000725,57,70,41,27,70,60,346.72350190000725,348.62470780001604,,,,,,,,,,,,,,,,,,,,３４３,f,２２,2023-05-21_16h32.58.041,RL,2022.2.5,60.06211623813094,
30,61,63,52,0,47,47,47,,,,,,,,,,,None,348.62470780001604,348.62470780001604,348.62470780001604,348.62470780001604,348.62470780001604,348.62470780001604,r,0.29078819998539984,348.94405730001745,348.94405730001745,348.94405730001745,348.94405730001745,348.94405730001745,348.94405730001745,349.24165260000154,350.75777460000245,350.75777460000245,350.75777460000245,350.75777460000245,350.75777460000245,350.75777460000245,350.7413013000041,350.75777460000245,350.75777460000245,350.75777460000245,350.75777460000245,350.75777460000245,350.75777460000245,350.75777460000245,352.556250499998,352.556250499998,352.556250499998,352.556250499998,352.556250499998,352.556250499998,352.556250499998,63,61,52,30,61,60,352.556250499998,354.0739712000068,,,,,,,,,,,,,,,,,,,,３４３,f,２２,2023-05-21_16h32.58.041,RL,2022.2.5,60.06211623813094,
31,74,59,51,0,48,48,48,,,,,,,,,,,None,354.0739712000068,354.0739712000068,354.0739712000068,354.0739712000068,354.0739712000068,354.0739712000068,r,0.4826222999836318,354.57511040000827,354.57511040000827,354.57511040000827,354.57511040000827,354.57511040000827,354.57511040000827,354.85759530001087,356.073678500019,356.073678500019,356.073678500019,356.073678500019,356.073678500019,356.073678500019,356.0569464,356.073678500019,356.073678500019,356.073678500019,356.073678500019,356.073678500019,356.073678500019,356.073678500019,357.5716070999915,357.5716070999915,357.5716070999915,357.5716070999915,357.5716070999915,357.5716070999915,357.5716070999915,59,74,51,31,74,60,357.5716070999915,359.5225122999982,,,,,,,,,,,,,,,,,,,,３４３,f,２２,2023-05-21_16h32.58.041,RL,2022.2.5,60.06211623813094,
26,72,58,52,0,49,49,49,,,,,,,,,,,None,359.5225122999982,359.5225122999982,359.5225122999982,359.5225122999982,359.5225122999982,359.5225122999982,r,0.3829898000112735,359.9229334999982,359.9229334999982,359.9229334999982,359.9229334999982,359.9229334999982,359.9229334999982,360.22333140001865,361.9391724000161,361.9391724000161,361.9391724000161,361.9391724000161,361.9391724000161,361.9391724000161,361.9391724000161,361.9391724000161,361.9391724000161,361.9391724000161,361.9391724000161,361.9391724000161,361.9391724000161,361.9391724000161,363.95385449999594,363.95385449999594,363.95385449999594,363.95385449999594,363.95385449999594,363.95385449999594,363.95385449999594,58,72,52,26,72,60,363.95385449999594,365.58811609999975,,,,,,,,,,,,,,,,,,,,３４３,f,２２,2023-05-21_16h32.58.041,RL,2022.2.5,60.06211623813094,
32,78,52,41,0,50,50,50,,,,,,,,,,,None,365.58811609999975,365.58811609999975,365.58811609999975,365.58811609999975,365.58811609999975,365.58811609999975,r,0.28492129998630844,365.9093819000118,365.9093819000118,365.9093819000118,365.9093819000118,365.9093819000118,365.9093819000118,366.188392400014,367.27151170000434,367.27151170000434,367.27151170000434,367.27151170000434,367.27151170000434,367.27151170000434,367.25502430001507,367.27151170000434,367.27151170000434,367.27151170000434,367.27151170000434,367.27151170000434,367.27151170000434,367.27151170000434,368.6361439000175,368.6361439000175,368.6361439000175,368.6361439000175,368.6361439000175,368.6361439000175,368.6361439000175,52,78,41,32,78,60,368.6361439000175,370.27099449999514,,,,,,,,,,,,,,,,,,,,３４３,f,２２,2023-05-21_16h32.58.041,RL,2022.2.5,60.06211623813094,
26,75,53,46,0,51,51,51,,,,,,,,,,,None,370.27099449999514,370.27099449999514,370.27099449999514,370.27099449999514,370.27099449999514,370.27099449999514,r,0.4039973999897484,370.7048173999938,370.7048173999938,370.7048173999938,370.7048173999938,370.7048173999938,370.7048173999938,370.9877453999943,371.9374007000006,371.9374007000006,371.9374007000006,371.9374007000006,371.9374007000006,371.9374007000006,371.9212325999979,371.9374007000006,371.9374007000006,371.9374007000006,371.9374007000006,371.9374007000006,371.9374007000006,371.9374007000006,373.1688165999949,373.1688165999949,373.1688165999949,373.1688165999949,373.1688165999949,373.1688165999949,373.1688165999949,53,75,46,26,75,60,373.1688165999949,374.98650190001354,,,,,,,,,,,,,,,,,,,,３４３,f,２２,2023-05-21_16h32.58.041,RL,2022.2.5,60.06211623813094,
33,72,58,32,0,52,52,52,,,,,,,,,,,None,374.98650190001354,374.98650190001354,374.98650190001354,374.98650190001354,374.98650190001354,374.98650190001354,r,0.39784590000635944,375.4038979000179,375.4038979000179,375.4038979000179,375.4038979000179,375.4038979000179,375.4038979000179,375.7035027999955,376.586601100018,376.586601100018,376.586601100018,376.586601100018,376.586601100018,376.586601100018,376.586601100018,376.586601100018,376.586601100018,376.586601100018,376.586601100018,376.586601100018,376.586601100018,376.586601100018,377.76853240001947,377.76853240001947,377.76853240001947,377.76853240001947,377.76853240001947,377.76853240001947,377.76853240001947,58,72,32,33,72,60,377.76853240001947,379.4689367999963,,,,,,,,,,,,,,,,,,,,３４３,f,２２,2023-05-21_16h32.58.041,RL,2022.2.5,60.06211623813094,
34,68,58,47,0,53,53,53,,,,,,,,,,,None,379.4689367999963,379.4689367999963,379.4689367999963,379.4689367999963,379.4689367999963,379.4689367999963,r,0.3148227999918163,379.8034135000198,379.8034135000198,379.8034135000198,379.8034135000198,379.8034135000198,379.8034135000198,380.086398000014,381.91899730000296,381.91899730000296,381.91899730000296,381.91899730000296,381.91899730000296,381.91899730000296,381.9027266000048,381.91899730000296,381.91899730000296,381.91899730000296,381.91899730000296,381.91899730000296,381.91899730000296,381.91899730000296,384.033551600005,384.033551600005,384.033551600005,384.033551600005,384.033551600005,384.033551600005,384.033551600005,58,68,47,34,68,60,384.033551600005,386.0180895999947,,,,,,,,,,,,,,,,,,,,３４３,f,２２,2023-05-21_16h32.58.041,RL,2022.2.5,60.06211623813094,
38,73,56,36,0,54,54,54,,,,,,,,,,,None,386.0180895999947,386.0180895999947,386.0180895999947,386.0180895999947,386.0180895999947,386.0180895999947,r,0.28127279999898747,386.31850720001967,386.31850720001967,386.31850720001967,386.31850720001967,386.31850720001967,386.31850720001967,386.60213730001124,387.55163410000387,387.55163410000387,387.55163410000387,387.55163410000387,387.55163410000387,387.55163410000387,387.53498490000493,387.55163410000387,387.55163410000387,387.55163410000387,387.55163410000387,387.55163410000387,387.55163410000387,387.55163410000387,388.78313700002036,388.78313700002036,388.78313700002036,388.78313700002036,388.78313700002036,388.78313700002036,388.78313700002036,56,73,36,38,73,60,388.78313700002036,390.68401070000255,,,,,,,,,,,,,,,,,,,,３４３,f,２２,2023-05-21_16h32.58.041,RL,2022.2.5,60.06211623813094,
42,73,55,35,0,55,55,55,,,,,,,,,,,None,390.68401070000255,390.68401070000255,390.68401070000255,390.68401070000255,390.68401070000255,390.68401070000255,r,0.3596797000209335,391.0694895000197,391.0694895000197,391.0694895000197,391.0694895000197,391.0694895000197,391.0694895000197,391.367693600012,392.7082149000198,392.7082149000198,392.7082149000198,392.7082149000198,392.7082149000198,392.7082149000198,392.7082149000198,392.7082149000198,392.7082149000198,392.7082149000198,392.7082149000198,392.7082149000198,392.7082149000198,392.7082149000198,394.2986049000174,394.2986049000174,394.2986049000174,394.2986049000174,394.2986049000174,394.2986049000174,394.2986049000174,55,73,35,42,73,60,394.2986049000174,395.8836003000033,,,,,,,,,,,,,,,,,,,,３４３,f,２２,2023-05-21_16h32.58.041,RL,2022.2.5,60.06211623813094,
40,68,54,33,0,56,56,56,,,,,,,,,,,None,395.8836003000033,395.8836003000033,395.8836003000033,395.8836003000033,395.8836003000033,395.8836003000033,r,0.32257460002438165,396.2345633000077,396.2345633000077,396.2345633000077,396.2345633000077,396.2345633000077,396.2345633000077,396.5330976000114,398.21622880001087,398.21622880001087,398.21622880001087,398.21622880001087,398.21622880001087,398.21622880001087,398.21622880001087,398.21622880001087,398.21622880001087,398.21622880001087,398.21622880001087,398.21622880001087,398.21622880001087,398.21622880001087,400.1977363000042,400.1977363000042,400.1977363000042,400.1977363000042,400.1977363000042,400.1977363000042,400.1977363000042,54,68,33,40,68,60,400.1977363000042,402.0484071999963,,,,,,,,,,,,,,,,,,,,３４３,f,２２,2023-05-21_16h32.58.041,RL,2022.2.5,60.06211623813094,
30,69,50,28,0,57,57,57,,,,,,,,,,,None,402.0484071999963,402.0484071999963,402.0484071999963,402.0484071999963,402.0484071999963,402.0484071999963,r,0.3459924999915529,402.4157511999947,402.4157511999947,402.4157511999947,402.4157511999947,402.4157511999947,402.4157511999947,402.715386099997,404.66525459999684,404.66525459999684,404.66525459999684,404.66525459999684,404.66525459999684,404.66525459999684,404.66525459999684,404.66525459999684,404.66525459999684,404.66525459999684,404.66525459999684,404.66525459999684,404.66525459999684,404.66525459999684,406.9135828000144,406.9135828000144,406.9135828000144,406.9135828000144,406.9135828000144,406.9135828000144,406.9135828000144,50,69,28,30,69,60,406.9135828000144,408.68094220000785,,,,,,,,,,,,,,,,,,,,３４３,f,２２,2023-05-21_16h32.58.041,RL,2022.2.5,60.06211623813094,
48,72,58,30,0,58,58,58,,,,,,,,,,,None,408.68094220000785,408.68094220000785,408.68094220000785,408.68094220000785,408.68094220000785,408.68094220000785,r,0.34386240001185797,409.0492814000172,409.0492814000172,409.0492814000172,409.0492814000172,409.0492814000172,409.0492814000172,409.33129070000723,410.5809564999945,410.5809564999945,410.5809564999945,410.5809564999945,410.5809564999945,410.5809564999945,410.5648385999957,410.5809564999945,410.5809564999945,410.5809564999945,410.5809564999945,410.5809564999945,410.5809564999945,410.5809564999945,412.11209050001344,412.11209050001344,412.11209050001344,412.11209050001344,412.11209050001344,412.11209050001344,412.11209050001344,58,72,30,48,72,60,412.11209050001344,413.66346780001186,,,,,,,,,,,,,,,,,,,,３４３,f,２２,2023-05-21_16h32.58.041,RL,2022.2.5,60.06211623813094,
43,65,49,32,0,59,59,59,,,,,,,,,,,None,413.66346780001186,413.66346780001186,413.66346780001186,413.66346780001186,413.66346780001186,413.66346780001186,r,0.32458820001920685,414.0152661000029,414.0152661000029,414.0152661000029,414.0152661000029,414.0152661000029,414.0152661000029,414.29708780001965,416.29650540000875,416.29650540000875,416.29650540000875,416.29650540000875,416.29650540000875,416.29650540000875,416.28021470000385,416.29650540000875,416.29650540000875,416.29650540000875,416.29650540000875,416.29650540000875,416.29650540000875,416.29650540000875,418.577421199996,418.577421199996,418.577421199996,418.577421199996,418.577421199996,418.577421199996,418.577421199996,49,65,32,43,65,60,418.577421199996,420.52887740000733,,,,,,,,,,,,,,,,,,,,３４３,f,２２,2023-05-21_16h32.58.041,RL,2022.2.5,60.06211623813094,
43,64,53,40,0,60,60,60,,,,,,,,,,,None,420.52887740000733,420.52887740000733,420.52887740000733,420.52887740000733,420.52887740000733,420.52887740000733,r,0.2705034000100568,420.8291332999943,420.8291332999943,420.8291332999943,420.8291332999943,420.8291332999943,420.8291332999943,421.11275250001927,421.97871550000855,421.97871550000855,421.97871550000855,421.97871550000855,421.97871550000855,421.97871550000855,421.9623472999956,421.97871550000855,421.97871550000855,421.97871550000855,421.97871550000855,421.97871550000855,421.97871550000855,421.97871550000855,423.12724430000526,423.12724430000526,423.12724430000526,423.12724430000526,423.12724430000526,423.12724430000526,423.12724430000526,53,64,40,43,64,60,423.12724430000526,424.7447320999927,,,,,,,,,,,,,,,,,,,,３４３,f,２２,2023-05-21_16h32.58.041,RL,2022.2.5,60.06211623813094,
47,65,39,41,0,61,61,61,,,,,,,,,,,None,424.7447320999927,424.7447320999927,424.7447320999927,424.7447320999927,424.7447320999927,424.7447320999927,r,0.33014079998247325,425.0951561999973,425.0951561999973,425.0951561999973,425.0951561999973,425.0951561999973,425.0951561999973,425.3953671999916,427.21114719999605,427.21114719999605,427.21114719999605,427.21114719999605,427.21114719999605,427.21114719999605,427.21114719999605,427.21114719999605,427.21114719999605,427.21114719999605,427.21114719999605,427.21114719999605,427.21114719999605,427.21114719999605,429.3260600999929,429.3260600999929,429.3260600999929,429.3260600999929,429.3260600999929,429.3260600999929,429.3260600999929,39,65,41,47,65,60,429.3260600999929,430.97704329999397,,,,,,,,,,,,,,,,,,,,３４３,f,２２,2023-05-21_16h32.58.041,RL,2022.2.5,60.06211623813094,
56,59,54,39,0,62,62,62,,,,,,,,,,,None,430.97704329999397,430.97704329999397,430.97704329999397,430.97704329999397,430.97704329999397,430.97704329999397,i,0.35234589999890886,431.3651216000144,431.3651216000144,431.3651216000144,431.3651216000144,431.3651216000144,431.3651216000144,431.6441592000192,432.94353730001603,432.94353730001603,432.94353730001603,432.94353730001603,432.94353730001603,432.94353730001603,432.910769500013,432.94353730001603,432.94353730001603,432.94353730001603,432.94353730001603,432.94353730001603,432.94353730001603,432.94353730001603,434.5084349999961,434.5084349999961,434.5084349999961,434.5084349999961,434.5084349999961,434.5084349999961,434.5084349999961,54,59,39,56,39,60,434.5084349999961,436.04283300001407,,,,,,,,,,,,,,,,,,,,３４３,f,２２,2023-05-21_16h32.58.041,RL,2022.2.5,60.06211623813094,
48,73,54,38,0,63,63,63,,,,,,,,,,,None,436.04283300001407,436.04283300001407,436.04283300001407,436.04283300001407,436.04283300001407,436.04283300001407,f,0.7285482000152115,436.7932165999955,436.7932165999955,436.7932165999955,436.7932165999955,436.7932165999955,436.7932165999955,437.0765837999934,438.07568169999286,438.07568169999286,438.07568169999286,438.07568169999286,438.07568169999286,438.07568169999286,438.05974240001524,438.07568169999286,438.07568169999286,438.07568169999286,438.07568169999286,438.07568169999286,438.07568169999286,438.07568169999286,439.3579021000187,439.3579021000187,439.3579021000187,439.3579021000187,439.3579021000187,439.3579021000187,439.3579021000187,54,73,38,48,54,60,439.3579021000187,440.95845100001316,,,,,,,,,,,,,,,,,,,,３４３,f,２２,2023-05-21_16h32.58.041,RL,2022.2.5,60.06211623813094,
48,77,49,36,0,64,64,64,,,,,,,,,,,None,440.95845100001316,440.95845100001316,440.95845100001316,440.95845100001316,440.95845100001316,440.95845100001316,j,0.5740807999973185,441.56032530000084,441.56032530000084,441.56032530000084,441.56032530000084,441.56032530000084,441.56032530000084,441.858592900011,443.45852030001697,443.45852030001697,443.45852030001697,443.45852030001697,443.45852030001697,443.45852030001697,443.45852030001697,443.45852030001697,443.45852030001697,443.45852030001697,443.45852030001697,443.45852030001697,443.45852030001697,443.45852030001697,445.3566276000056,445.3566276000056,445.3566276000056,445.3566276000056,445.3566276000056,445.3566276000056,445.3566276000056,49,77,36,48,48,60,445.3566276000056,447.0737844000105,,,,,,,,,,,,,,,,,,,,３４３,f,２２,2023-05-21_16h32.58.041,RL,2022.2.5,60.06211623813094,
46,66,47,35,0,65,65,65,,,,,,,,,,,None,447.0737844000105,447.0737844000105,447.0737844000105,447.0737844000105,447.0737844000105,447.0737844000105,r,0.2811617999977898,447.37538559999666,447.37538559999666,447.37538559999666,447.37538559999666,447.37538559999666,447.37538559999666,447.6745965000009,449.5739062000066,449.5739062000066,449.5739062000066,449.5739062000066,449.5739062000066,449.5739062000066,449.5739062000066,449.5739062000066,449.5739062000066,449.5739062000066,449.5739062000066,449.5739062000066,449.5739062000066,449.5739062000066,451.77245519999997,451.77245519999997,451.77245519999997,451.77245519999997,451.77245519999997,451.77245519999997,451.77245519999997,47,66,35,46,66,60,451.77245519999997,453.58934170001885,,,,,,,,,,,,,,,,,,,,３４３,f,２２,2023-05-21_16h32.58.041,RL,2022.2.5,60.06211623813094,
39,70,58,48,0,66,66,66,,,,,,,,,,,None,453.58934170001885,453.58934170001885,453.58934170001885,453.58934170001885,453.58934170001885,453.58934170001885,r,0.32395019999239594,453.9416657999973,453.9416657999973,453.9416657999973,453.9416657999973,453.9416657999973,453.9416657999973,454.2232764000073,455.7394958999939,455.7394958999939,455.7394958999939,455.7394958999939,455.7394958999939,455.7394958999939,455.72299249999924,455.7394958999939,455.7394958999939,455.7394958999939,455.7394958999939,455.7394958999939,455.7394958999939,455.7394958999939,457.53780809999444,457.53780809999444,457.53780809999444,457.53780809999444,457.53780809999444,457.53780809999444,457.53780809999444,58,70,48,39,70,60,457.53780809999444,459.3889179000107,,,,,,,,,,,,,,,,,,,,３４３,f,２２,2023-05-21_16h32.58.041,RL,2022.2.5,60.06211623813094,
46,71,57,35,0,67,67,67,,,,,,,,,,,None,459.3889179000107,459.3889179000107,459.3889179000107,459.3889179000107,459.3889179000107,459.3889179000107,r,0.4324186000158079,459.8402635999955,459.8402635999955,459.8402635999955,459.8402635999955,459.8402635999955,459.8402635999955,460.13869429999613,462.0386608999979,462.0386608999979,462.0386608999979,462.0386608999979,462.0386608999979,462.0386608999979,462.0386608999979,462.0386608999979,462.0386608999979,462.0386608999979,462.0386608999979,462.0386608999979,462.0386608999979,462.0386608999979,464.23672440001974,464.23672440001974,464.23672440001974,464.23672440001974,464.23672440001974,464.23672440001974,464.23672440001974,57,71,35,46,71,60,464.23672440001974,466.22082950000186,,,,,,,,,,,,,,,,,,,,３４３,f,２２,2023-05-21_16h32.58.041,RL,2022.2.5,60.06211623813094,
38,72,55,41,0,68,68,68,,,,,,,,,,,None,466.22082950000186,466.22082950000186,466.22082950000186,466.22082950000186,466.22082950000186,466.22082950000186,r,0.36872900000889786,466.6248918999918,466.6248918999918,466.6248918999918,466.6248918999918,466.6248918999918,466.6248918999918,466.90424269999494,468.0376625999925,468.0376625999925,468.0376625999925,468.0376625999925,468.0376625999925,468.0376625999925,468.0214368000161,468.0376625999925,468.0376625999925,468.0376625999925,468.0376625999925,468.0376625999925,468.0376625999925,468.0376625999925,469.4524359999923,469.4524359999923,469.4524359999923,469.4524359999923,469.4524359999923,469.4524359999923,469.4524359999923,55,72,41,38,72,60,469.4524359999923,471.2199479000119,,,,,,,,,,,,,,,,,,,,３４３,f,２２,2023-05-21_16h32.58.041,RL,2022.2.5,60.06211623813094,
52,69,50,57,0,69,69,69,,,,,,,,,,,None,471.2199479000119,471.2199479000119,471.2199479000119,471.2199479000119,471.2199479000119,471.2199479000119,r,0.49684639999759383,471.7382342000201,471.7382342000201,471.7382342000201,471.7382342000201,471.7382342000201,471.7382342000201,472.0204357000184,473.90307709999615,473.90307709999615,473.90307709999615,473.90307709999615,473.90307709999615,473.90307709999615,473.8864880000183,473.90307709999615,473.90307709999615,473.90307709999615,473.90307709999615,473.90307709999615,473.90307709999615,473.90307709999615,476.06801879999693,476.06801879999693,476.06801879999693,476.06801879999693,476.06801879999693,476.06801879999693,476.06801879999693,50,69,57,52,69,60,476.06801879999693,477.86918270000024,,,,,,,,,,,,,,,,,,,,３４３,f,２２,2023-05-21_16h32.58.041,RL,2022.2.5,60.06211623813094,
47,80,58,51,0,70,70,70,,,,,,,,,,,None,477.86918270000024,477.86918270000024,477.86918270000024,477.86918270000024,477.86918270000024,477.86918270000024,r,0.37433880000025965,478.26918259999366,478.26918259999366,478.26918259999366,478.26918259999366,478.26918259999366,478.26918259999366,478.552276900009,479.9854791999969,479.9854791999969,479.9854791999969,479.9854791999969,479.9854791999969,479.9854791999969,479.9685798000137,479.9854791999969,479.9854791999969,479.9854791999969,479.9854791999969,479.9854791999969,479.9854791999969,479.9854791999969,481.70056550001027,481.70056550001027,481.70056550001027,481.70056550001027,481.70056550001027,481.70056550001027,481.70056550001027,58,80,51,47,80,60,481.70056550001027,483.2517455999914,,,,,,,,,,,,,,,,,,,,３４３,f,２２,2023-05-21_16h32.58.041,RL,2022.2.5,60.06211623813094,
40,80,63,50,0,71,71,71,,,,,,,,,,,None,483.2517455999914,483.2517455999914,483.2517455999914,483.2517455999914,483.2517455999914,483.2517455999914,r,0.32867640000768006,483.601616800006,483.601616800006,483.601616800006,483.601616800006,483.601616800006,483.601616800006,483.8846971000021,485.01787040001363,485.01787040001363,485.01787040001363,485.01787040001363,485.01787040001363,485.01787040001363,485.00150440001744,485.01787040001363,485.01787040001363,485.01787040001363,485.01787040001363,485.01787040001363,485.01787040001363,485.01787040001363,486.4327571000031,486.4327571000031,486.4327571000031,486.4327571000031,486.4327571000031,486.4327571000031,486.4327571000031,63,80,50,40,80,60,486.4327571000031,488.2839326999965,,,,,,,,,,,,,,,,,,,,３４３,f,２２,2023-05-21_16h32.58.041,RL,2022.2.5,60.06211623813094,
42,79,63,47,0,72,72,72,,,,,,,,,,,None,488.2839326999965,488.2839326999965,488.2839326999965,488.2839326999965,488.2839326999965,488.2839326999965,r,0.3900374000077136,488.70406590000493,488.70406590000493,488.70406590000493,488.70406590000493,488.70406590000493,488.70406590000493,488.98399740000605,490.1672355000046,490.1672355000046,490.1672355000046,490.1672355000046,490.1672355000046,490.1672355000046,490.1335556000122,490.1672355000046,490.1672355000046,490.1672355000046,490.1672355000046,490.1672355000046,490.1672355000046,490.1672355000046,491.61502650001785,491.61502650001785,491.61502650001785,491.61502650001785,491.61502650001785,491.61502650001785,491.61502650001785,63,79,47,42,79,60,491.61502650001785,493.5324277000036,,,,,,,,,,,,,,,,,,,,３４３,f,２２,2023-05-21_16h32.58.041,RL,2022.2.5,60.06211623813094,
44,80,60,47,0,73,73,73,,,,,,,,,,,None,493.5324277000036,493.5324277000036,493.5324277000036,493.5324277000036,493.5324277000036,493.5324277000036,r,0.6478931000165176,494.2011088000145,494.2011088000145,494.2011088000145,494.2011088000145,494.2011088000145,494.2011088000145,494.48327220001374,496.3491786000086,496.3491786000086,496.3491786000086,496.3491786000086,496.3491786000086,496.3491786000086,496.3326830000151,496.3491786000086,496.3491786000086,496.3491786000086,496.3491786000086,496.3491786000086,496.3491786000086,496.3491786000086,498.4974729999958,498.4974729999958,498.4974729999958,498.4974729999958,498.4974729999958,498.4974729999958,498.4974729999958,60,80,47,44,80,60,498.4974729999958,500.03167060000123,,,,,,,,,,,,,,,,,,,,３４３,f,２２,2023-05-21_16h32.58.041,RL,2022.2.5,60.06211623813094,
47,64,60,46,0,74,74,74,,,,,,,,,,,None,500.03167060000123,500.03167060000123,500.03167060000123,500.03167060000123,500.03167060000123,500.03167060000123,r,0.668513599986909,500.7392938999983,500.7392938999983,500.7392938999983,500.7392938999983,500.7392938999983,500.7392938999983,501.01522410000325,502.61488730000565,502.61488730000565,502.61488730000565,502.61488730000565,502.61488730000565,502.61488730000565,502.58146270000725,502.61488730000565,502.61488730000565,502.61488730000565,502.61488730000565,502.61488730000565,502.61488730000565,502.61488730000565,504.4796929000004,504.4796929000004,504.4796929000004,504.4796929000004,504.4796929000004,504.4796929000004,504.4796929000004,60,64,46,47,64,60,504.4796929000004,506.0295134000189,,,,,,,,,,,,,,,,,,,,３４３,f,２２,2023-05-21_16h32.58.041,RL,2022.2.5,60.06211623813094,
46,77,59,49,0,75,75,75,,,,,,,,,,,q,522.744106099999,522.744106099999,522.744106099999,522.744106099999,522.744106099999,522.744106099999,None,,,,,,,,,,,,,,,,,,,,,,,,,,,,,,59,77,49,46,0,60,530.2586298999959,532.2597823000106,,,,,,,524.2467487000104,530.2586298999959,506.0295134000189,506.0295134000189,11.679331899998942,517.7291830000177,517.7291830000177,522.744106099999,522.744106099999,,,,,３４３,f,２２,2023-05-21_16h32.58.041,RL,2022.2.5,60.06211623813094,
39,70,65,51,0,76,76,76,,,,,,,,,,,None,532.2597823000106,532.2597823000106,532.2597823000106,532.2597823000106,532.2597823000106,532.2597823000106,f,0.38112639999599196,532.6647171000077,532.6647171000077,532.6647171000077,532.6647171000077,532.6647171000077,532.6647171000077,532.9599168999994,534.7260128000053,534.7260128000053,534.7260128000053,534.7260128000053,534.7260128000053,534.7260128000053,534.7095730000001,534.7260128000053,534.7260128000053,534.7260128000053,534.7260128000053,534.7260128000053,534.7260128000053,534.7260128000053,536.7738919999974,536.7738919999974,536.7738919999974,536.7738919999974,536.7738919999974,536.7738919999974,536.7738919999974,65,70,51,39,65,60,536.7738919999974,538.5248458000133,,,,,,,,,,,,,,,,,,,,３４３,f,２２,2023-05-21_16h32.58.041,RL,2022.2.5,60.06211623813094,
31,77,66,52,0,77,77,77,,,,,,,,,,,None,538.5248458000133,538.5248458000133,538.5248458000133,538.5248458000133,538.5248458000133,538.5248458000133,j,0.5193400999996811,539.0905847999966,539.0905847999966,539.0905847999966,539.0905847999966,539.0905847999966,539.0905847999966,539.35890750002,541.2080106000067,541.2080106000067,541.2080106000067,541.2080106000067,541.2080106000067,541.2080106000067,541.1751103000133,541.2080106000067,541.2080106000067,541.2080106000067,541.2080106000067,541.2080106000067,541.2080106000067,541.2080106000067,543.3263794000086,543.3263794000086,543.3263794000086,543.3263794000086,543.3263794000086,543.3263794000086,543.3263794000086,66,77,52,31,31,60,543.3263794000086,545.2573110999947,,,,,,,,,,,,,,,,,,,,３４３,f,２２,2023-05-21_16h32.58.041,RL,2022.2.5,60.06211623813094,
34,66,57,49,0,78,78,78,,,,,,,,,,,None,545.2573110999947,545.2573110999947,545.2573110999947,545.2573110999947,545.2573110999947,545.2573110999947,i,0.3682845000002999,545.6651824,545.6651824,545.6651824,545.6651824,545.6651824,545.6651824,545.940858899994,547.3405684000172,547.3405684000172,547.3405684000172,547.3405684000172,547.3405684000172,547.3405684000172,547.3238268000132,547.3405684000172,547.3405684000172,547.3405684000172,547.3405684000172,547.3405684000172,547.3405684000172,547.3405684000172,549.0216885000118,549.0216885000118,549.0216885000118,549.0216885000118,549.0216885000118,549.0216885000118,549.0216885000118,57,66,49,34,49,60,549.0216885000118,550.7893182999978,,,,,,,,,,,,,,,,,,,,３４３,f,２２,2023-05-21_16h32.58.041,RL,2022.2.5,60.06211623813094,
32,62,58,49,0,79,79,79,,,,,,,,,,,None,550.7893182999978,550.7893182999978,550.7893182999978,550.7893182999978,550.7893182999978,550.7893182999978,r,0.2937376000045333,551.1082569000137,551.1082569000137,551.1082569000137,551.1082569000137,551.1082569000137,551.1082569000137,551.3900213000015,552.3060472999932,552.3060472999932,552.3060472999932,552.3060472999932,552.3060472999932,552.3060472999932,552.2898920000007,552.3060472999932,552.3060472999932,552.3060472999932,552.3060472999932,552.3060472999932,552.3060472999932,552.3060472999932,553.5043082000047,553.5043082000047,553.5043082000047,553.5043082000047,553.5043082000047,553.5043082000047,553.5043082000047,58,62,49,32,62,60,553.5043082000047,555.5051393000176,,,,,,,,,,,,,,,,,,,,３４３,f,２２,2023-05-21_16h32.58.041,RL,2022.2.5,60.06211623813094,
28,65,61,57,0,80,80,80,,,,,,,,,,,None,555.5051393000176,555.5051393000176,555.5051393000176,555.5051393000176,555.5051393000176,555.5051393000176,r,0.2630422000074759,555.7909012000018,555.7909012000018,555.7909012000018,555.7909012000018,555.7909012000018,555.7909012000018,556.0721684000164,557.022049399995,557.022049399995,557.022049399995,557.022049399995,557.022049399995,557.022049399995,557.0057280000183,557.022049399995,557.022049399995,557.022049399995,557.022049399995,557.022049399995,557.022049399995,557.022049399995,558.2538003000082,558.2538003000082,558.2538003000082,558.2538003000082,558.2538003000082,558.2538003000082,558.2538003000082,61,65,57,28,65,60,558.2538003000082,560.0044022999937,,,,,,,,,,,,,,,,,,,,３４３,f,２２,2023-05-21_16h32.58.041,RL,2022.2.5,60.06211623813094,
31,58,51,51,0,81,81,81,,,,,,,,,,,None,560.0044022999937,560.0044022999937,560.0044022999937,560.0044022999937,560.0044022999937,560.0044022999937,r,0.2879274000006262,560.321774800017,560.321774800017,560.321774800017,560.321774800017,560.321774800017,560.321774800017,560.6214538000058,562.1544816000096,562.1544816000096,562.1544816000096,562.1544816000096,562.1544816000096,562.1544816000096,562.1544816000096,562.1544816000096,562.1544816000096,562.1544816000096,562.1544816000096,562.1544816000096,562.1544816000096,562.1544816000096,563.9860381000035,563.9860381000035,563.9860381000035,563.9860381000035,563.9860381000035,563.9860381000035,563.9860381000035,51,58,51,31,58,60,563.9860381000035,565.786741399992,,,,,,,,,,,,,,,,,,,,３４３,f,２２,2023-05-21_16h32.58.041,RL,2022.2.5,60.06211623813094,
33,70,50,59,0,82,82,82,,,,,,,,,,,None,565.786741399992,565.786741399992,565.786741399992,565.786741399992,565.786741399992,565.786741399992,r,0.48064190000877716,566.2906817000185,566.2906817000185,566.2906817000185,566.2906817000185,566.2906817000185,566.2906817000185,566.5872222000035,568.1532280000101,568.1532280000101,568.1532280000101,568.1532280000101,568.1532280000101,568.1532280000101,568.1532280000101,568.1532280000101,568.1532280000101,568.1532280000101,568.1532280000101,568.1532280000101,568.1532280000101,568.1532280000101,570.0180189000093,570.0180189000093,570.0180189000093,570.0180189000093,570.0180189000093,570.0180189000093,570.0180189000093,50,70,59,33,70,60,570.0180189000093,571.9194512999966,,,,,,,,,,,,,,,,,,,,３４３,f,２２,2023-05-21_16h32.58.041,RL,2022.2.5,60.06211623813094,
40,68,54,44,0,83,83,83,,,,,,,,,,,None,571.9194512999966,571.9194512999966,571.9194512999966,571.9194512999966,571.9194512999966,571.9194512999966,r,0.4419208999897819,572.3861306000035,572.3861306000035,572.3861306000035,572.3861306000035,572.3861306000035,572.3861306000035,572.6694699999935,573.5523824999982,573.5523824999982,573.5523824999982,573.5523824999982,573.5523824999982,573.5523824999982,573.5358898999984,573.5523824999982,573.5523824999982,573.5523824999982,573.5523824999982,573.5523824999982,573.5523824999982,573.5523824999982,574.7173470999987,574.7173470999987,574.7173470999987,574.7173470999987,574.7173470999987,574.7173470999987,574.7173470999987,54,68,44,40,68,60,574.7173470999987,576.6014491000096,,,,,,,,,,,,,,,,,,,,３４３,f,２２,2023-05-21_16h32.58.041,RL,2022.2.5,60.06211623813094,
31,68,56,36,0,84,84,84,,,,,,,,,,,None,576.6014491000096,576.6014491000096,576.6014491000096,576.6014491000096,576.6014491000096,576.6014491000096,r,0.2641613000014331,576.8863772000186,576.8863772000186,576.8863772000186,576.8863772000186,576.8863772000186,576.8863772000186,577.185784500005,578.5518154000165,578.5518154000165,578.5518154000165,578.5518154000165,578.5518154000165,578.5518154000165,578.5518154000165,578.5518154000165,578.5518154000165,578.5518154000165,578.5518154000165,578.5518154000165,578.5518154000165,578.5518154000165,580.216377100005,580.216377100005,580.216377100005,580.216377100005,580.216377100005,580.216377100005,580.216377100005,56,68,36,31,68,60,580.216377100005,581.8339540000015,,,,,,,,,,,,,,,,,,,,３４３,f,２２,2023-05-21_16h32.58.041,RL,2022.2.5,60.06211623813094,
31,58,44,40,0,85,85,85,,,,,,,,,,,None,581.8339540000015,581.8339540000015,581.8339540000015,581.8339540000015,581.8339540000015,581.8339540000015,r,0.2794679999933578,582.1355647000019,582.1355647000019,582.1355647000019,582.1355647000019,582.1355647000019,582.1355647000019,582.4175901999988,584.1007184000046,584.1007184000046,584.1007184000046,584.1007184000046,584.1007184000046,584.1007184000046,584.0841213999956,584.1007184000046,584.1007184000046,584.1007184000046,584.1007184000046,584.1007184000046,584.1007184000046,584.1007184000046,586.0657515000203,586.0657515000203,586.0657515000203,586.0657515000203,586.0657515000203,586.0657515000203,586.0657515000203,44,58,40,31,58,60,586.0657515000203,587.6661964000086,,,,,,,,,,,,,,,,,,,,３４３,f,２２,2023-05-21_16h32.58.041,RL,2022.2.5,60.06211623813094,
41,59,53,40,0,86,86,86,,,,,,,,,,,None,587.6661964000086,587.6661964000086,587.6661964000086,587.6661964000086,587.6661964000086,587.6661964000086,r,0.21860210000886582,587.921646200004,587.921646200004,587.921646200004,587.921646200004,587.921646200004,587.921646200004,588.2002241000009,590.0660151000193,590.0660151000193,590.0660151000193,590.0660151000193,590.0660151000193,590.0660151000193,590.04956460002,590.0660151000193,590.0660151000193,590.0660151000193,590.0660151000193,590.0660151000193,590.0660151000193,590.0660151000193,592.2140911000024,592.2140911000024,592.2140911000024,592.2140911000024,592.2140911000024,592.2140911000024,592.2140911000024,53,59,40,41,59,60,592.2140911000024,593.8820550999953,,,,,,,,,,,,,,,,,,,,３４３,f,２２,2023-05-21_16h32.58.041,RL,2022.2.5,60.06211623813094,
31,59,54,42,0,87,87,87,,,,,,,,,,,None,593.8820550999953,593.8820550999953,593.8820550999953,593.8820550999953,593.8820550999953,593.8820550999953,f,0.4476721999817528,594.3494316000142,594.3494316000142,594.3494316000142,594.3494316000142,594.3494316000142,594.3494316000142,594.6325815000164,596.5818235000188,596.5818235000188,596.5818235000188,596.5818235000188,596.5818235000188,596.5818235000188,596.5654699000006,596.5818235000188,596.5818235000188,596.5818235000188,596.5818235000188,596.5818235000188,596.5818235000188,596.5818235000188,598.8135167,598.8135167,598.8135167,598.8135167,598.8135167,598.8135167,598.8135167,54,59,42,31,54,60,598.8135167,600.5643190999981,,,,,,,,,,,,,,,,,,,,３４３,f,２２,2023-05-21_16h32.58.041,RL,2022.2.5,60.06211623813094,
37,54,47,48,0,88,88,88,,,,,,,,,,,None,600.5643190999981,600.5643190999981,600.5643190999981,600.5643190999981,600.5643190999981,600.5643190999981,r,0.4067071999888867,600.9998749000079,600.9998749000079,600.9998749000079,600.9998749000079,600.9998749000079,600.9998749000079,601.2812605999934,602.9308773000084,602.9308773000084,602.9308773000084,602.9308773000084,602.9308773000084,602.9308773000084,602.9141401000088,602.9308773000084,602.9308773000084,602.9308773000084,602.9308773000084,602.9308773000084,602.9308773000084,602.9308773000084,604.8617785999959,604.8617785999959,604.8617785999959,604.8617785999959,604.8617785999959,604.8617785999959,604.8617785999959,47,54,48,37,54,60,604.8617785999959,606.7462883999979,,,,,,,,,,,,,,,,,,,,３４３,f,２２,2023-05-21_16h32.58.041,RL,2022.2.5,60.06211623813094,
46,61,46,41,0,89,89,89,,,,,,,,,,,None,606.7462883999979,606.7462883999979,606.7462883999979,606.7462883999979,606.7462883999979,606.7462883999979,j,0.36615570000139996,607.1321252000052,607.1321252000052,607.1321252000052,607.1321252000052,607.1321252000052,607.1321252000052,607.4135812000022,608.3295219000138,608.3295219000138,608.3295219000138,608.3295219000138,608.3295219000138,608.3295219000138,608.2965496999968,608.3295219000138,608.3295219000138,608.3295219000138,608.3295219000138,608.3295219000138,608.3295219000138,608.3295219000138,609.5110890000069,609.5110890000069,609.5110890000069,609.5110890000069,609.5110890000069,609.5110890000069,609.5110890000069,46,61,41,46,46,60,609.5110890000069,611.1454647000064,,,,,,,,,,,,,,,,,,,,３４３,f,２２,2023-05-21_16h32.58.041,RL,2022.2.5,60.06211623813094,
47,71,48,39,0,90,90,90,,,,,,,,,,,None,611.1454647000064,611.1454647000064,611.1454647000064,611.1454647000064,611.1454647000064,611.1454647000064,i,0.3593778999929782,611.529346299998,611.529346299998,611.529346299998,611.529346299998,611.529346299998,611.529346299998,611.8291703000141,613.6291568000161,613.6291568000161,613.6291568000161,613.6291568000161,613.6291568000161,613.6291568000161,613.6291568000161,613.6291568000161,613.6291568000161,613.6291568000161,613.6291568000161,613.6291568000161,613.6291568000161,613.6291568000161,615.7267562999914,615.7267562999914,615.7267562999914,615.7267562999914,615.7267562999914,615.7267562999914,615.7267562999914,48,71,39,47,39,60,615.7267562999914,617.3777278999914,,,,,,,,,,,,,,,,,,,,３４３,f,２２,2023-05-21_16h32.58.041,RL,2022.2.5,60.06211623813094,
47,68,54,40,0,91,91,91,,,,,,,,,,,None,617.3777278999914,617.3777278999914,617.3777278999914,617.3777278999914,617.3777278999914,617.3777278999914,r,0.42893110000295565,617.8299810000171,617.8299810000171,617.8299810000171,617.8299810000171,617.8299810000171,617.8299810000171,618.128048100014,620.111367000005,620.111367000005,620.111367000005,620.111367000005,620.111367000005,620.111367000005,620.111367000005,620.111367000005,620.111367000005,620.111367000005,620.111367000005,620.111367000005,620.111367000005,620.111367000005,622.3922979999916,622.3922979999916,622.3922979999916,622.3922979999916,622.3922979999916,622.3922979999916,622.3922979999916,54,68,40,47,68,60,622.3922979999916,623.9934128000168,,,,,,,,,,,,,,,,,,,,３４３,f,２２,2023-05-21_16h32.58.041,RL,2022.2.5,60.06211623813094,
41,63,53,47,0,92,92,92,,,,,,,,,,,None,623.9934128000168,623.9934128000168,623.9934128000168,623.9934128000168,623.9934128000168,623.9934128000168,r,0.34693180001340806,624.3624189000111,624.3624189000111,624.3624189000111,624.3624189000111,624.3624189000111,624.3624189000111,624.643873699999,626.4765054000018,626.4765054000018,626.4765054000018,626.4765054000018,626.4765054000018,626.4765054000018,626.460087000014,626.4765054000018,626.4765054000018,626.4765054000018,626.4765054000018,626.4765054000018,626.4765054000018,626.4765054000018,628.5911755000125,628.5911755000125,628.5911755000125,628.5911755000125,628.5911755000125,628.5911755000125,628.5911755000125,53,63,47,41,63,60,628.5911755000125,630.5588744000124,,,,,,,,,,,,,,,,,,,,３４３,f,２２,2023-05-21_16h32.58.041,RL,2022.2.5,60.06211623813094,
42,56,55,40,0,93,93,93,,,,,,,,,,,None,630.5588744000124,630.5588744000124,630.5588744000124,630.5588744000124,630.5588744000124,630.5588744000124,r,0.37465070001780987,630.9593580999936,630.9593580999936,630.9593580999936,630.9593580999936,630.9593580999936,630.9593580999936,631.242427899997,632.8256598000007,632.8256598000007,632.8256598000007,632.8256598000007,632.8256598000007,632.8256598000007,632.8086559000076,632.8256598000007,632.8256598000007,632.8256598000007,632.8256598000007,632.8256598000007,632.8256598000007,632.8256598000007,634.690337100008,634.690337100008,634.690337100008,634.690337100008,634.690337100008,634.690337100008,634.690337100008,55,56,40,42,56,60,634.690337100008,636.2747964000155,,,,,,,,,,,,,,,,,,,,３４３,f,２２,2023-05-21_16h32.58.041,RL,2022.2.5,60.06211623813094,
48,61,54,51,0,94,94,94,,,,,,,,,,,None,636.2747964000155,636.2747964000155,636.2747964000155,636.2747964000155,636.2747964000155,636.2747964000155,r,0.23563830001512542,636.5466906999936,636.5466906999936,636.5466906999936,636.5466906999936,636.5466906999936,636.5466906999936,636.8251724000147,638.7580193000031,638.7580193000031,638.7580193000031,638.7580193000031,638.7580193000031,638.7580193000031,638.7413997999975,638.7580193000031,638.7580193000031,638.7580193000031,638.7580193000031,638.7580193000031,638.7580193000031,638.7580193000031,640.9722255000088,640.9722255000088,640.9722255000088,640.9722255000088,640.9722255000088,640.9722255000088,640.9722255000088,54,61,51,48,61,60,640.9722255000088,642.6737081000174,,,,,,,,,,,,,,,,,,,,３４３,f,２２,2023-05-21_16h32.58.041,RL,2022.2.5,60.06211623813094,
36,63,60,51,0,95,95,95,,,,,,,,,,,None,642.6737081000174,642.6737081000174,642.6737081000174,642.6737081000174,642.6737081000174,642.6737081000174,r,0.23953639998217113,642.9422038000193,642.9422038000193,642.9422038000193,642.9422038000193,642.9422038000193,642.9422038000193,643.2407389,644.7234291000059,644.7234291000059,644.7234291000059,644.7234291000059,644.7234291000059,644.7234291000059,644.7234291000059,644.7234291000059,644.7234291000059,644.7234291000059,644.7234291000059,644.7234291000059,644.7234291000059,644.7234291000059,646.5046719000093,646.5046719000093,646.5046719000093,646.5046719000093,646.5046719000093,646.5046719000093,646.5046719000093,60,63,51,36,63,60,646.5046719000093,648.4389599999995,,,,,,,,,,,,,,,,,,,,３４３,f,２２,2023-05-21_16h32.58.041,RL,2022.2.5,60.06211623813094,
35,57,51,46,0,96,96,96,,,,,,,,,,,None,648.4389599999995,648.4389599999995,648.4389599999995,648.4389599999995,648.4389599999995,648.4389599999995,r,0.3912261000077706,648.8563246999984,648.8563246999984,648.8563246999984,648.8563246999984,648.8563246999984,648.8563246999984,649.1397577000025,650.5060509000032,650.5060509000032,650.5060509000032,650.5060509000032,650.5060509000032,650.5060509000032,650.4893497000157,650.5060509000032,650.5060509000032,650.5060509000032,650.5060509000032,650.5060509000032,650.5060509000032,650.5060509000032,652.1536025000096,652.1536025000096,652.1536025000096,652.1536025000096,652.1536025000096,652.1536025000096,652.1536025000096,51,57,46,35,57,60,652.1536025000096,653.9382849000103,,,,,,,,,,,,,,,,,,,,３４３,f,２２,2023-05-21_16h32.58.041,RL,2022.2.5,60.06211623813094,
42,62,55,51,0,97,97,97,,,,,,,,,,,None,653.9382849000103,653.9382849000103,653.9382849000103,653.9382849000103,653.9382849000103,653.9382849000103,r,0.3414675999956671,654.3073539000179,654.3073539000179,654.3073539000179,654.3073539000179,654.3073539000179,654.3073539000179,654.6052003999939,656.2714806000004,656.2714806000004,656.2714806000004,656.2714806000004,656.2714806000004,656.2714806000004,656.2714806000004,656.2714806000004,656.2714806000004,656.2714806000004,656.2714806000004,656.2714806000004,656.2714806000004,656.2714806000004,658.2362826000026,658.2362826000026,658.2362826000026,658.2362826000026,658.2362826000026,658.2362826000026,658.2362826000026,55,62,51,42,62,60,658.2362826000026,660.187161400012,,,,,,,,,,,,,,,,,,,,３４３,f,２２,2023-05-21_16h32.58.041,RL,2022.2.5,60.06211623813094,
32,58,52,49,0,98,98,98,,,,,,,,,,,None,660.187161400012,660.187161400012,660.187161400012,660.187161400012,660.187161400012,660.187161400012,r,0.38014599998132326,660.5900076999969,660.5900076999969,660.5900076999969,660.5900076999969,660.5900076999969,660.5900076999969,660.8709250999964,662.4369282000116,662.4369282000116,662.4369282000116,662.4369282000116,662.4369282000116,662.4369282000116,662.4206771000172,662.4369282000116,662.4369282000116,662.4369282000116,662.4369282000116,662.4369282000116,662.4369282000116,662.4369282000116,664.2848086000013,664.2848086000013,664.2848086000013,664.2848086000013,664.2848086000013,664.2848086000013,664.2848086000013,52,58,49,32,58,60,664.2848086000013,666.1193796000152,,,,,,,,,,,,,,,,,,,,３４３,f,２２,2023-05-21_16h32.58.041,RL,2022.2.5,60.06211623813094,
32,57,58,50,0,99,99,99,,,,,,,,,,,None,666.1193796000152,666.1193796000152,666.1193796000152,666.1193796000152,666.1193796000152,666.1193796000152,r,0.23327679999056272,666.371263500012,666.371263500012,666.371263500012,666.371263500012,666.371263500012,666.371263500012,666.6697573999991,667.9530546000169,667.9530546000169,667.9530546000169,667.9530546000169,667.9530546000169,667.9530546000169,667.9530546000169,667.9530546000169,667.9530546000169,667.9530546000169,667.9530546000169,667.9530546000169,667.9530546000169,667.9530546000169,669.5343234000029,669.5343234000029,669.5343234000029,669.5343234000029,669.5343234000029,669.5343234000029,669.5343234000029,58,57,50,32,57,60,669.5343234000029,671.4017877000151,,,,,,,,,,,,,,,,,,,,３４３,f,２２,2023-05-21_16h32.58.041,RL,2022.2.5,60.06211623813094,
42,48,70,55,0,100,100,100,,,,,,,,,,,None,671.4017877000151,671.4017877000151,671.4017877000151,671.4017877000151,671.4017877000151,671.4017877000151,r,0.36459179999656044,671.7857167000184,671.7857167000184,671.7857167000184,671.7857167000184,671.7857167000184,671.7857167000184,672.0855923999916,673.568373200018,673.568373200018,673.568373200018,673.568373200018,673.568373200018,673.568373200018,673.568373200018,673.568373200018,673.568373200018,673.568373200018,673.568373200018,673.568373200018,673.568373200018,673.568373200018,675.3495686000097,675.3495686000097,675.3495686000097,675.3495686000097,675.3495686000097,675.3495686000097,675.3495686000097,70,48,55,42,48,60,675.3495686000097,677.050422100001,,,,,,,,,,,,,,,,,,,,３４３,f,２２,2023-05-21_16h32.58.041,RL,2022.2.5,60.06211623813094,
46,53,61,59,0,101,101,101,,,,,,,,,,,None,677.050422100001,677.050422100001,677.050422100001,677.050422100001,677.050422100001,677.050422100001,f,0.46947979999822564,677.5562637000112,677.5562637000112,677.5562637000112,677.5562637000112,677.5562637000112,677.5562637000112,677.8348275000171,678.9174878000049,678.9174878000049,678.9174878000049,678.9174878000049,678.9174878000049,678.9174878000049,678.8842667000135,678.9174878000049,678.9174878000049,678.9174878000049,678.9174878000049,678.9174878000049,678.9174878000049,678.9174878000049,680.266094999999,680.266094999999,680.266094999999,680.266094999999,680.266094999999,680.266094999999,680.266094999999,61,53,59,46,61,60,680.266094999999,681.9833085999999,,,,,,,,,,,,,,,,,,,,３４３,f,２２,2023-05-21_16h32.58.041,RL,2022.2.5,60.06211623813094,
38,55,63,59,0,102,102,102,,,,,,,,,,,None,681.9833085999999,681.9833085999999,681.9833085999999,681.9833085999999,681.9833085999999,681.9833085999999,f,0.6182741999800783,682.6366119000013,682.6366119000013,682.6366119000013,682.6366119000013,682.6366119000013,682.6366119000013,682.9171722000174,684.299828999996,684.299828999996,684.299828999996,684.299828999996,684.299828999996,684.299828999996,684.2668661999924,684.299828999996,684.299828999996,684.299828999996,684.299828999996,684.299828999996,684.299828999996,684.299828999996,685.9482336000074,685.9482336000074,685.9482336000074,685.9482336000074,685.9482336000074,685.9482336000074,685.9482336000074,63,55,59,38,63,60,685.9482336000074,687.6487864000082,,,,,,,,,,,,,,,,,,,,３４３,f,２２,2023-05-21_16h32.58.041,RL,2022.2.5,60.06211623813094,
34,65,60,53,0,103,103,103,,,,,,,,,,,None,687.6487864000082,687.6487864000082,687.6487864000082,687.6487864000082,687.6487864000082,687.6487864000082,f,0.4071816000214312,688.0828760000004,688.0828760000004,688.0828760000004,688.0828760000004,688.0828760000004,688.0828760000004,688.3656901000068,690.1488248000096,690.1488248000096,690.1488248000096,690.1488248000096,690.1488248000096,690.1488248000096,690.1321793000097,690.1488248000096,690.1488248000096,690.1488248000096,690.1488248000096,690.1488248000096,690.1488248000096,690.1488248000096,692.1968362000189,692.1968362000189,692.1968362000189,692.1968362000189,692.1968362000189,692.1968362000189,692.1968362000189,60,65,53,34,60,60,692.1968362000189,693.7647578000033,,,,,,,,,,,,,,,,,,,,３４３,f,２２,2023-05-21_16h32.58.041,RL,2022.2.5,60.06211623813094,
28,58,56,68,0,104,104,104,,,,,,,,,,,None,693.7647578000033,693.7647578000033,693.7647578000033,693.7647578000033,693.7647578000033,693.7647578000033,f,0.3097706999978982,694.098344500002,694.098344500002,694.098344500002,694.098344500002,694.098344500002,694.098344500002,694.3815035000152,696.0314082000114,696.0314082000114,696.0314082000114,696.0314082000114,696.0314082000114,696.0314082000114,696.0144196000183,696.0314082000114,696.0314082000114,696.0314082000114,696.0314082000114,696.0314082000114,696.0314082000114,696.0314082000114,697.9630223000131,697.9630223000131,697.9630223000131,697.9630223000131,697.9630223000131,697.9630223000131,697.9630223000131,56,58,68,28,56,60,697.9630223000131,699.7469440000132,,,,,,,,,,,,,,,,,,,,３４３,f,２２,2023-05-21_16h32.58.041,RL,2022.2.5,60.06211623813094,
25,51,57,58,0,105,105,105,,,,,,,,,,,None,699.7469440000132,699.7469440000132,699.7469440000132,699.7469440000132,699.7469440000132,699.7469440000132,f,0.3418136000109371,700.114396799996,700.114396799996,700.114396799996,700.114396799996,700.114396799996,700.114396799996,700.3969097000081,701.9802637000103,701.9802637000103,701.9802637000103,701.9802637000103,701.9802637000103,701.9802637000103,701.9638571999967,701.9802637000103,701.9802637000103,701.9802637000103,701.9802637000103,701.9802637000103,701.9802637000103,701.9802637000103,703.844488200004,703.844488200004,703.844488200004,703.844488200004,703.844488200004,703.844488200004,703.844488200004,57,51,58,25,57,60,703.844488200004,705.3624075000116,,,,,,,,,,,,,,,,,,,,３４３,f,２２,2023-05-21_16h32.58.041,RL,2022.2.5,60.06211623813094,
31,59,61,62,0,106,106,106,,,,,,,,,,,None,705.3624075000116,705.3624075000116,705.3624075000116,705.3624075000116,705.3624075000116,705.3624075000116,r,0.44031360000371933,705.8298341000045,705.8298341000045,705.8298341000045,705.8298341000045,705.8298341000045,705.8298341000045,706.1134100000199,707.7625245999952,707.7625245999952,707.7625245999952,707.7625245999952,707.7625245999952,707.7625245999952,707.7455537999922,707.7625245999952,707.7625245999952,707.7625245999952,707.7625245999952,707.7625245999952,707.7625245999952,707.7625245999952,709.693792200007,709.693792200007,709.693792200007,709.693792200007,709.693792200007,709.693792200007,709.693792200007,61,59,62,31,59,60,709.693792200007,711.2116448000015,,,,,,,,,,,,,,,,,,,,３４３,f,２２,2023-05-21_16h32.58.041,RL,2022.2.5,60.06211623813094,
33,56,59,55,0,107,107,107,,,,,,,,,,,None,711.2116448000015,711.2116448000015,711.2116448000015,711.2116448000015,711.2116448000015,711.2116448000015,j,0.3975356000009924,711.6295430000173,711.6295430000173,711.6295430000173,711.6295430000173,711.6295430000173,711.6295430000173,711.928846499999,713.4281796000141,713.4281796000141,713.4281796000141,713.4281796000141,713.4281796000141,713.4281796000141,713.4281796000141,713.4281796000141,713.4281796000141,713.4281796000141,713.4281796000141,713.4281796000141,713.4281796000141,713.4281796000141,715.2260149999929,715.2260149999929,715.2260149999929,715.2260149999929,715.2260149999929,715.2260149999929,715.2260149999929,59,56,55,33,33,60,715.2260149999929,717.1108022000117,,,,,,,,,,,,,,,,,,,,３４３,f,２２,2023-05-21_16h32.58.041,RL,2022.2.5,60.06211623813094,
38,64,62,62,0,108,108,108,,,,,,,,,,,None,717.1108022000117,717.1108022000117,717.1108022000117,717.1108022000117,717.1108022000117,717.1108022000117,i,0.4253391999809537,717.5621124000172,717.5621124000172,717.5621124000172,717.5621124000172,717.5621124000172,717.5621124000172,717.8439754999999,719.7438211000117,719.7438211000117,719.7438211000117,719.7438211000117,719.7438211000117,719.7438211000117,719.7272781000065,719.7438211000117,719.7438211000117,719.7438211000117,719.7438211000117,719.7438211000117,719.7438211000117,719.7438211000117,721.9249867000035,721.9249867000035,721.9249867000035,721.9249867000035,721.9249867000035,721.9249867000035,721.9249867000035,62,64,62,38,62,60,721.9249867000035,723.4929367000004,,,,,,,,,,,,,,,,,,,,３４３,f,２２,2023-05-21_16h32.58.041,RL,2022.2.5,60.06211623813094,
33,63,45,57,0,109,109,109,,,,,,,,,,,None,723.4929367000004,723.4929367000004,723.4929367000004,723.4929367000004,723.4929367000004,723.4929367000004,i,0.432030299998587,723.944610400009,723.944610400009,723.944610400009,723.944610400009,723.944610400009,723.944610400009,724.2426626000088,726.1759466000076,726.1759466000076,726.1759466000076,726.1759466000076,726.1759466000076,726.1759466000076,726.1759466000076,726.1759466000076,726.1759466000076,726.1759466000076,726.1759466000076,726.1759466000076,726.1759466000076,726.1759466000076,728.4075285000145,728.4075285000145,728.4075285000145,728.4075285000145,728.4075285000145,728.4075285000145,728.4075285000145,45,63,57,33,57,60,728.4075285000145,730.0250163000019,,,,,,,,,,,,,,,,,,,,３４３,f,２２,2023-05-21_16h32.58.041,RL,2022.2.5,60.06211623813094,
25,66,54,57,0,110,110,110,,,,,,,,,,,None,730.0250163000019,730.0250163000019,730.0250163000019,730.0250163000019,730.0250163000019,730.0250163000019,i,0.5185619999829214,730.5804521999962,730.5804521999962,730.5804521999962,730.5804521999962,730.5804521999962,730.5804521999962,730.8587353000185,732.5746783000068,732.5746783000068,732.5746783000068,732.5746783000068,732.5746783000068,732.5746783000068,732.5413479999988,732.5746783000068,732.5746783000068,732.5746783000068,732.5746783000068,732.5746783000068,732.5746783000068,732.5746783000068,734.556460199994,734.556460199994,734.556460199994,734.556460199994,734.556460199994,734.556460199994,734.556460199994,54,66,57,25,57,60,734.556460199994,736.4570263999922,,,,,,,,,,,,,,,,,,,,３４３,f,２２,2023-05-21_16h32.58.041,RL,2022.2.5,60.06211623813094,
26,68,54,58,0,111,111,111,,,,,,,,,,,None,736.4570263999922,736.4570263999922,736.4570263999922,736.4570263999922,736.4570263999922,736.4570263999922,r,0.4109020000032615,736.8908914000203,736.8908914000203,736.8908914000203,736.8908914000203,736.8908914000203,736.8908914000203,737.1740601000201,738.0238192999968,738.0238192999968,738.0238192999968,738.0238192999968,738.0238192999968,738.0238192999968,738.0071316999965,738.0238192999968,738.0238192999968,738.0238192999968,738.0238192999968,738.0238192999968,738.0238192999968,738.0238192999968,739.1556058000133,739.1556058000133,739.1556058000133,739.1556058000133,739.1556058000133,739.1556058000133,739.1556058000133,54,68,58,26,68,60,739.1556058000133,741.0066457999928,,,,,,,,,,,,,,,,,,,,３４３,f,２２,2023-05-21_16h32.58.041,RL,2022.2.5,60.06211623813094,
24,55,58,59,0,112,112,112,,,,,,,,,,,None,741.0066457999928,741.0066457999928,741.0066457999928,741.0066457999928,741.0066457999928,741.0066457999928,r,0.2960988999984693,741.3253078999987,741.3253078999987,741.3253078999987,741.3253078999987,741.3253078999987,741.3253078999987,741.6232063999923,743.5396315999969,743.5396315999969,743.5396315999969,743.5396315999969,743.5396315999969,743.5396315999969,743.5396315999969,743.5396315999969,743.5396315999969,743.5396315999969,743.5396315999969,743.5396315999969,743.5396315999969,743.5396315999969,745.7543143999937,745.7543143999937,745.7543143999937,745.7543143999937,745.7543143999937,745.7543143999937,745.7543143999937,58,55,59,24,55,60,745.7543143999937,747.3887128999922,,,,,,,,,,,,,,,,,,,,３４３,f,２２,2023-05-21_16h32.58.041,RL,2022.2.5,60.06211623813094,
22,54,67,54,0,113,113,113,,,,,,,,,,,None,747.3887128999922,747.3887128999922,747.3887128999922,747.3887128999922,747.3887128999922,747.3887128999922,r,0.3329288999957498,747.7389568999934,747.7389568999934,747.7389568999934,747.7389568999934,747.7389568999934,747.7389568999934,748.038781100011,749.7051450000145,749.7051450000145,749.7051450000145,749.7051450000145,749.7051450000145,749.7051450000145,749.7051450000145,749.7051450000145,749.7051450000145,749.7051450000145,749.7051450000145,749.7051450000145,749.7051450000145,749.7051450000145,751.6697534999985,751.6697534999985,751.6697534999985,751.6697534999985,751.6697534999985,751.6697534999985,751.6697534999985,67,54,54,22,54,60,751.6697534999985,753.6046293000109,,,,,,,,,,,,,,,,,,,,３４３,f,２２,2023-05-21_16h32.58.041,RL,2022.2.5,60.06211623813094,
28,55,48,55,0,114,114,114,,,,,,,,,,,None,753.6046293000109,753.6046293000109,753.6046293000109,753.6046293000109,753.6046293000109,753.6046293000109,f,0.3051260999927763,753.9380505000008,753.9380505000008,753.9380505000008,753.9380505000008,753.9380505000008,753.9380505000008,754.2209768000175,755.5375120000099,755.5375120000099,755.5375120000099,755.5375120000099,755.5375120000099,755.5375120000099,755.5207209000073,755.5375120000099,755.5375120000099,755.5375120000099,755.5375120000099,755.5375120000099,755.5375120000099,755.5375120000099,757.1355377,757.1355377,757.1355377,757.1355377,757.1355377,757.1355377,757.1355377,48,55,55,28,48,60,757.1355377,758.8370729000017,,,,,,,,,,,,,,,,,,,,３４３,f,２２,2023-05-21_16h32.58.041,RL,2022.2.5,60.06211623813094,
25,50,54,60,0,115,115,115,,,,,,,,,,,None,758.8370729000017,758.8370729000017,758.8370729000017,758.8370729000017,758.8370729000017,758.8370729000017,i,1.051765099982731,759.9241311000078,759.9241311000078,759.9241311000078,759.9241311000078,759.9241311000078,759.9241311000078,760.2201631999924,761.6530046999978,761.6530046999978,761.6530046999978,761.6530046999978,761.6530046999978,761.6530046999978,761.6530046999978,761.6530046999978,761.6530046999978,761.6530046999978,761.6530046999978,761.6530046999978,761.6530046999978,761.6530046999978,763.3844836000062,763.3844836000062,763.3844836000062,763.3844836000062,763.3844836000062,763.3844836000062,763.3844836000062,54,50,60,25,60,60,763.3844836000062,765.3185782000073,,,,,,,,,,,,,,,,,,,,３４３,f,２２,2023-05-21_16h32.58.041,RL,2022.2.5,60.06211623813094,
34,47,59,51,0,116,116,116,,,,,,,,,,,None,765.3185782000073,765.3185782000073,765.3185782000073,765.3185782000073,765.3185782000073,765.3185782000073,i,0.3764235000126064,765.7195674999966,765.7195674999966,765.7195674999966,765.7195674999966,765.7195674999966,765.7195674999966,766.0030155999993,767.7520450000011,767.7520450000011,767.7520450000011,767.7520450000011,767.7520450000011,767.7520450000011,767.7351644000155,767.7520450000011,767.7520450000011,767.7520450000011,767.7520450000011,767.7520450000011,767.7520450000011,767.7520450000011,769.7834694000194,769.7834694000194,769.7834694000194,769.7834694000194,769.7834694000194,769.7834694000194,769.7834694000194,59,47,51,34,51,60,769.7834694000194,771.417963600019,,,,,,,,,,,,,,,,,,,,３４３,f,２２,2023-05-21_16h32.58.041,RL,2022.2.5,60.06211623813094,
35,50,68,52,0,117,117,117,,,,,,,,,,,None,771.417963600019,771.417963600019,771.417963600019,771.417963600019,771.417963600019,771.417963600019,r,0.30908540001837537,771.7524152999977,771.7524152999977,771.7524152999977,771.7524152999977,771.7524152999977,771.7524152999977,772.0350795999984,773.3677253999922,773.3677253999922,773.3677253999922,773.3677253999922,773.3677253999922,773.3677253999922,773.3509435000014,773.3677253999922,773.3677253999922,773.3677253999922,773.3677253999922,773.3677253999922,773.3677253999922,773.3677253999922,774.982625100005,774.982625100005,774.982625100005,774.982625100005,774.982625100005,774.982625100005,774.982625100005,68,50,52,35,50,60,774.982625100005,776.5668373999943,,,,,,,,,,,,,,,,,,,,３４３,f,２２,2023-05-21_16h32.58.041,RL,2022.2.5,60.06211623813094,
39,53,60,52,0,118,118,118,,,,,,,,,,,None,776.5668373999943,776.5668373999943,776.5668373999943,776.5668373999943,776.5668373999943,776.5668373999943,j,0.7293378999747802,777.317384199996,777.317384199996,777.317384199996,777.317384199996,777.317384199996,777.317384199996,777.6169616999978,779.1002572000143,779.1002572000143,779.1002572000143,779.1002572000143,779.1002572000143,779.1002572000143,779.1002572000143,779.1002572000143,779.1002572000143,779.1002572000143,779.1002572000143,779.1002572000143,779.1002572000143,779.1002572000143,780.8816709000093,780.8816709000093,780.8816709000093,780.8816709000093,780.8816709000093,780.8816709000093,780.8816709000093,60,53,52,39,39,60,780.8816709000093,782.7827791000018,,,,,,,,,,,,,,,,,,,,３４３,f,２２,2023-05-21_16h32.58.041,RL,2022.2.5,60.06211623813094,
29,57,59,55,0,119,119,119,,,,,,,,,,,None,782.7827791000018,782.7827791000018,782.7827791000018,782.7827791000018,782.7827791000018,782.7827791000018,i,0.3446592999971472,783.1495908999932,783.1495908999932,783.1495908999932,783.1495908999932,783.1495908999932,783.1495908999932,783.4328166000196,785.3820682000078,785.3820682000078,785.3820682000078,785.3820682000078,785.3820682000078,785.3820682000078,785.3656522000092,785.3820682000078,785.3820682000078,785.3820682000078,785.3820682000078,785.3820682000078,785.3820682000078,785.3820682000078,787.613470500015,787.613470500015,787.613470500015,787.613470500015,787.613470500015,787.613470500015,787.613470500015,59,57,55,29,55,60,787.613470500015,789.3644397000025,,,,,,,,,,,,,,,,,,,,３４３,f,２２,2023-05-21_16h32.58.041,RL,2022.2.5,60.06211623813094,
30,51,53,59,0,120,120,120,,,,,,,,,,,None,789.3644397000025,789.3644397000025,789.3644397000025,789.3644397000025,789.3644397000025,789.3644397000025,f,0.2873649999964982,789.6832984999928,789.6832984999928,789.6832984999928,789.6832984999928,789.6832984999928,789.6832984999928,789.9653052999929,790.9979151000152,790.9979151000152,790.9979151000152,790.9979151000152,790.9979151000152,790.9979151000152,790.9813508999941,790.9979151000152,790.9979151000152,790.9979151000152,790.9979151000152,790.9979151000152,790.9979151000152,790.9979151000152,792.3130769999989,792.3130769999989,792.3130769999989,792.3130769999989,792.3130769999989,792.3130769999989,792.3130769999989,53,51,59,30,53,60,792.3130769999989,794.1805961999926,,,,,,,,,,,,,,,,,,,,３４３,f,２２,2023-05-21_16h32.58.041,RL,2022.2.5,60.06211623813094,
