arm1,arm2,arm3,arm4,trials.thisRepN,trials.thisTrialN,trials.thisN,trials.thisIndex,instru_img1.started,instru_resp.started,instru_resp.keys,instru_resp.rt,image_2.started,text_2.started,fixbefore_2.started,rest_response.keys,red.started,green.started,yellow.started,blue.started,choose_bandit.started,Fixation.started,choose_bandit.keys,choose_bandit.rt,black.started,red_2.started,green_2.started,yellow_2.started,blue_2.started,fixation_2.started,docs.started,docs.stopped,black.stopped,red_2.stopped,green_2.stopped,yellow_2.stopped,blue_2.stopped,fixation_2.stopped,black_com.started,reward_sub.started,reward__sub.started,red_compare.started,green_com.started,yellow_com.started,blue_com.started,black_com.stopped,reward_sub.stopped,reward__sub.stopped,red_compare.stopped,green_com.stopped,yellow_com.stopped,blue_com.stopped,rewardred,rewardyellow,rewardblue,rewardgreen,subchoose,expectation,intertrialfix.started,intertrialfix.stopped,rest_image.started,rest_response.started,rest_response.rt,image_expect_after.started,text_exp_after.started,image_expect_after.stopped,text_exp_after.stopped,image.started,key_resp.started,key_resp.keys,key_resp.rt,participant,Gender,Age,date,expName,psychopyVersion,frameRate,
,,,,,,,,28.759507499984466,28.759507499984466,space,15.169717199984007,,,,,,,,,,,,,,,,,,,,,,,,,,,,,,,,,,,,,,,,,,,,,,,,,,,,,,,,,,,,３４４,f,２２,2023-05-21_17h06.50.632,RL,2022.2.5,60.03125227378725,
41,53,55,72,0,0,0,0,,,,,43.96271610000986,43.96271610000986,48.97150029998738,None,49.97335710001062,49.97335710001062,49.97335710001062,49.97335710001062,49.97335710001062,49.97335710001062,i,0.6397373999934644,50.64657320000697,50.64657320000697,50.64657320000697,50.64657320000697,50.64657320000697,50.64657320000697,50.94038320000982,52.808694999985164,52.82991609998862,52.82991609998862,52.82991609998862,52.82991609998862,52.82991609998862,52.82991609998862,52.82991609998862,52.82991609998862,52.82991609998862,52.82991609998862,52.82991609998862,52.82991609998862,52.82991609998862,55.049351099994965,55.049351099994965,55.049351099994965,55.049351099994965,55.049351099994965,55.049351099994965,55.049351099994965,41,53,72,55,72,70,55.049351099994965,56.90483729998232,,,,,,,,,,,,３４４,f,２２,2023-05-21_17h06.50.632,RL,2022.2.5,60.03125227378725,
38,44,50,69,0,1,1,1,,,,,,,,None,56.90483729998232,56.90483729998232,56.90483729998232,56.90483729998232,56.90483729998232,56.90483729998232,f,0.43198470000061207,57.355105199996615,57.355105199996615,57.355105199996615,57.355105199996615,57.355105199996615,57.355105199996615,57.638217300002,59.00459930000943,59.021412800007965,59.021412800007965,59.021412800007965,59.021412800007965,59.021412800007965,59.021412800007965,59.021412800007965,59.021412800007965,59.021412800007965,59.021412800007965,59.021412800007965,59.021412800007965,59.021412800007965,60.68594190001022,60.68594190001022,60.68594190001022,60.68594190001022,60.68594190001022,60.68594190001022,60.68594190001022,38,44,69,50,38,70,60.68594190001022,62.603590299986536,,,,,,,,,,,,３４４,f,２２,2023-05-21_17h06.50.632,RL,2022.2.5,60.03125227378725,
35,45,49,67,0,2,2,2,,,,,,,,None,62.603590299986536,62.603590299986536,62.603590299986536,62.603590299986536,62.603590299986536,62.603590299986536,j,0.46524520000093617,63.08777630000259,63.08777630000259,63.08777630000259,63.08777630000259,63.08777630000259,63.08777630000259,63.37062179998611,65.05397350000567,65.06987459998345,65.06987459998345,65.06987459998345,65.06987459998345,65.06987459998345,65.06987459998345,65.06987459998345,65.06987459998345,65.06987459998345,65.06987459998345,65.06987459998345,65.06987459998345,65.06987459998345,67.05131750000874,67.05131750000874,67.05131750000874,67.05131750000874,67.05131750000874,67.05131750000874,67.05131750000874,35,45,67,49,49,70,67.05131750000874,68.6028532999917,,,,,,,,,,,,３４４,f,２２,2023-05-21_17h06.50.632,RL,2022.2.5,60.03125227378725,
34,53,46,76,0,3,3,3,,,,,,,,None,68.6028532999917,68.6028532999917,68.6028532999917,68.6028532999917,68.6028532999917,68.6028532999917,i,0.3675642999878619,69.00793039999553,69.00793039999553,69.00793039999553,69.00793039999553,69.00793039999553,69.00793039999553,69.28644369999529,70.25303990000975,70.28604829998221,70.28604829998221,70.28604829998221,70.28604829998221,70.28604829998221,70.28604829998221,70.28604829998221,70.28604829998221,70.28604829998221,70.28604829998221,70.28604829998221,70.28604829998221,70.28604829998221,71.55069589999039,71.55069589999039,71.55069589999039,71.55069589999039,71.55069589999039,71.55069589999039,71.55069589999039,34,53,76,46,76,70,71.55069589999039,73.26879370000097,,,,,,,,,,,,３４４,f,２２,2023-05-21_17h06.50.632,RL,2022.2.5,60.03125227378725,
36,49,58,65,0,4,4,4,,,,,,,,None,73.26879370000097,73.26879370000097,73.26879370000097,73.26879370000097,73.26879370000097,73.26879370000097,i,0.5762647000083234,73.868916300009,73.868916300009,73.868916300009,73.868916300009,73.868916300009,73.868916300009,74.15208359999815,75.98532760000671,76.00169919998734,76.00169919998734,76.00169919998734,76.00169919998734,76.00169919998734,76.00169919998734,76.00169919998734,76.00169919998734,76.00169919998734,76.00169919998734,76.00169919998734,76.00169919998734,76.00169919998734,78.13277769999695,78.13277769999695,78.13277769999695,78.13277769999695,78.13277769999695,78.13277769999695,78.13277769999695,36,49,65,58,65,70,78.13277769999695,79.9508155999938,,,,,,,,,,,,３４４,f,２２,2023-05-21_17h06.50.632,RL,2022.2.5,60.03125227378725,
23,53,59,68,0,5,5,5,,,,,,,,None,79.9508155999938,79.9508155999938,79.9508155999938,79.9508155999938,79.9508155999938,79.9508155999938,i,0.4601647999952547,80.4345142999955,80.4345142999955,80.4345142999955,80.4345142999955,80.4345142999955,80.4345142999955,80.71782250000979,82.63431249998393,82.65058220000356,82.65058220000356,82.65058220000356,82.65058220000356,82.65058220000356,82.65058220000356,82.65058220000356,82.65058220000356,82.65058220000356,82.65058220000356,82.65058220000356,82.65058220000356,82.65058220000356,84.86517790000653,84.86517790000653,84.86517790000653,84.86517790000653,84.86517790000653,84.86517790000653,84.86517790000653,23,53,68,59,68,70,84.86517790000653,86.43299050000496,,,,,,,,,,,,３４４,f,２２,2023-05-21_17h06.50.632,RL,2022.2.5,60.03125227378725,
34,49,54,68,0,6,6,6,,,,,,,,None,86.43299050000496,86.43299050000496,86.43299050000496,86.43299050000496,86.43299050000496,86.43299050000496,i,0.2792702000006102,86.73410080000758,86.73410080000758,86.73410080000758,86.73410080000758,86.73410080000758,86.73410080000758,87.0331576000026,88.68282809999073,88.68282809999073,88.68282809999073,88.68282809999073,88.68282809999073,88.68282809999073,88.68282809999073,88.68282809999073,88.68282809999073,88.68282809999073,88.68282809999073,88.68282809999073,88.68282809999073,88.68282809999073,90.6306968999852,90.6306968999852,90.6306968999852,90.6306968999852,90.6306968999852,90.6306968999852,90.6306968999852,34,49,68,54,68,70,90.6306968999852,92.3316899999918,,,,,,,,,,,,３４４,f,２２,2023-05-21_17h06.50.632,RL,2022.2.5,60.03125227378725,
26,49,57,60,0,7,7,7,,,,,,,,None,92.3316899999918,92.3316899999918,92.3316899999918,92.3316899999918,92.3316899999918,92.3316899999918,i,0.32274790000519715,92.6825283000071,92.6825283000071,92.6825283000071,92.6825283000071,92.6825283000071,92.6825283000071,92.9654395999969,94.13222669999232,94.14827879998484,94.14827879998484,94.14827879998484,94.14827879998484,94.14827879998484,94.14827879998484,94.14827879998484,94.14827879998484,94.14827879998484,94.14827879998484,94.14827879998484,94.14827879998484,94.14827879998484,95.61363889998756,95.61363889998756,95.61363889998756,95.61363889998756,95.61363889998756,95.61363889998756,95.61363889998756,26,49,60,57,60,70,95.61363889998756,97.4810244999826,,,,,,,,,,,,３４４,f,２２,2023-05-21_17h06.50.632,RL,2022.2.5,60.03125227378725,
22,55,53,58,0,8,8,8,,,,,,,,None,97.4810244999826,97.4810244999826,97.4810244999826,97.4810244999826,97.4810244999826,97.4810244999826,i,0.3759381999843754,97.8819216999982,97.8819216999982,97.8819216999982,97.8819216999982,97.8819216999982,97.8819216999982,98.1645118999877,99.41434439999284,99.431018400006,99.431018400006,99.431018400006,99.431018400006,99.431018400006,99.431018400006,99.431018400006,99.431018400006,99.431018400006,99.431018400006,99.431018400006,99.431018400006,99.431018400006,100.97889410000062,100.97889410000062,100.97889410000062,100.97889410000062,100.97889410000062,100.97889410000062,100.97889410000062,22,55,58,53,58,70,100.97889410000062,102.49682989998837,,,,,,,,,,,,３４４,f,２２,2023-05-21_17h06.50.632,RL,2022.2.5,60.03125227378725,
26,62,54,53,0,9,9,9,,,,,,,,None,102.49682989998837,102.49682989998837,102.49682989998837,102.49682989998837,102.49682989998837,102.49682989998837,r,0.5491876000014599,103.06392200000118,103.06392200000118,103.06392200000118,103.06392200000118,103.06392200000118,103.06392200000118,103.36371929998859,105.04671629998484,105.04671629998484,105.04671629998484,105.04671629998484,105.04671629998484,105.04671629998484,105.04671629998484,105.04671629998484,105.04671629998484,105.04671629998484,105.04671629998484,105.04671629998484,105.04671629998484,105.04671629998484,107.04470599998604,107.04470599998604,107.04470599998604,107.04470599998604,107.04470599998604,107.04470599998604,107.04470599998604,26,62,53,54,62,70,107.04470599998604,108.99561449998873,,,,,,,,,,,,３４４,f,２２,2023-05-21_17h06.50.632,RL,2022.2.5,60.03125227378725,
25,69,53,53,0,10,10,10,,,,,,,,None,108.99561449998873,108.99561449998873,108.99561449998873,108.99561449998873,108.99561449998873,108.99561449998873,r,0.2719790999835823,109.29624999998487,109.29624999998487,109.29624999998487,109.29624999998487,109.29624999998487,109.29624999998487,109.57957129998249,111.22913540000445,111.24555679998593,111.24555679998593,111.24555679998593,111.24555679998593,111.24555679998593,111.24555679998593,111.24555679998593,111.24555679998593,111.24555679998593,111.24555679998593,111.24555679998593,111.24555679998593,111.24555679998593,113.19348560000071,113.19348560000071,113.19348560000071,113.19348560000071,113.19348560000071,113.19348560000071,113.19348560000071,25,69,53,53,69,70,113.19348560000071,114.76132769999094,,,,,,,,,,,,３４４,f,２２,2023-05-21_17h06.50.632,RL,2022.2.5,60.03125227378725,
28,51,50,62,0,11,11,11,,,,,,,,None,114.76132769999094,114.76132769999094,114.76132769999094,114.76132769999094,114.76132769999094,114.76132769999094,r,0.37138060000143014,115.1633460999874,115.1633460999874,115.1633460999874,115.1633460999874,115.1633460999874,115.1633460999874,115.44509649998508,116.57824050000636,116.59455949999392,116.59455949999392,116.59455949999392,116.59455949999392,116.59455949999392,116.59455949999392,116.59455949999392,116.59455949999392,116.59455949999392,116.59455949999392,116.59455949999392,116.59455949999392,116.59455949999392,118.02589749998879,118.02589749998879,118.02589749998879,118.02589749998879,118.02589749998879,118.02589749998879,118.02589749998879,28,51,62,50,51,70,118.02589749998879,119.6937828999944,,,,,,,,,,,,３４４,f,２２,2023-05-21_17h06.50.632,RL,2022.2.5,60.03125227378725,
24,53,46,59,0,12,12,12,,,,,,,,None,119.6937828999944,119.6937828999944,119.6937828999944,119.6937828999944,119.6937828999944,119.6937828999944,i,0.8280949000036344,120.5440668000083,120.5440668000083,120.5440668000083,120.5440668000083,120.5440668000083,120.5440668000083,120.82773650001036,122.06043579999823,122.077291900001,122.077291900001,122.077291900001,122.077291900001,122.077291900001,122.077291900001,122.077291900001,122.077291900001,122.077291900001,122.077291900001,122.077291900001,122.077291900001,122.077291900001,123.60841369998525,123.60841369998525,123.60841369998525,123.60841369998525,123.60841369998525,123.60841369998525,123.60841369998525,24,53,59,46,59,70,123.60841369998525,125.19294809998246,,,,,,,,,,,,３４４,f,２２,2023-05-21_17h06.50.632,RL,2022.2.5,60.03125227378725,
23,48,52,54,0,13,13,13,,,,,,,,None,125.19294809998246,125.19294809998246,125.19294809998246,125.19294809998246,125.19294809998246,125.19294809998246,i,0.5644590999872889,125.77658340000198,125.77658340000198,125.77658340000198,125.77658340000198,125.77658340000198,125.77658340000198,126.05986879998818,127.59269520000089,127.60944289999316,127.60944289999316,127.60944289999316,127.60944289999316,127.60944289999316,127.60944289999316,127.60944289999316,127.60944289999316,127.60944289999316,127.60944289999316,127.60944289999316,127.60944289999316,127.60944289999316,129.44029860000592,129.44029860000592,129.44029860000592,129.44029860000592,129.44029860000592,129.44029860000592,129.44029860000592,23,48,54,52,54,70,129.44029860000592,131.09199200000148,,,,,,,,,,,,３４４,f,２２,2023-05-21_17h06.50.632,RL,2022.2.5,60.03125227378725,
36,47,52,50,0,14,14,14,,,,,,,,None,131.09199200000148,131.09199200000148,131.09199200000148,131.09199200000148,131.09199200000148,131.09199200000148,r,0.3260720999969635,131.44456390000414,131.44456390000414,131.44456390000414,131.44456390000414,131.44456390000414,131.44456390000414,131.7420787999872,133.0754127999826,133.0754127999826,133.0754127999826,133.0754127999826,133.0754127999826,133.0754127999826,133.0754127999826,133.0754127999826,133.0754127999826,133.0754127999826,133.0754127999826,133.0754127999826,133.0754127999826,133.0754127999826,134.70671309999307,134.70671309999307,134.70671309999307,134.70671309999307,134.70671309999307,134.70671309999307,134.70671309999307,36,47,50,52,47,70,134.70671309999307,136.6075077999849,,,,,,,,,,,,３４４,f,２２,2023-05-21_17h06.50.632,RL,2022.2.5,60.03125227378725,
46,55,44,61,0,15,15,15,,,,,,,,None,136.6075077999849,136.6075077999849,136.6075077999849,136.6075077999849,136.6075077999849,136.6075077999849,j,0.3701967000088189,137.0114004999923,137.0114004999923,137.0114004999923,137.0114004999923,137.0114004999923,137.0114004999923,137.29119610000635,138.74075739999535,138.75747989999945,138.75747989999945,138.75747989999945,138.75747989999945,138.75747989999945,138.75747989999945,138.75747989999945,138.75747989999945,138.75747989999945,138.75747989999945,138.75747989999945,138.75747989999945,138.75747989999945,140.50549079998746,140.50549079998746,140.50549079998746,140.50549079998746,140.50549079998746,140.50549079998746,140.50549079998746,46,55,61,44,44,70,140.50549079998746,142.12322209999547,,,,,,,,,,,,３４４,f,２２,2023-05-21_17h06.50.632,RL,2022.2.5,60.03125227378725,
33,53,36,56,0,16,16,16,,,,,,,,None,142.12322209999547,142.12322209999547,142.12322209999547,142.12322209999547,142.12322209999547,142.12322209999547,f,0.300299399998039,142.44033839998883,142.44033839998883,142.44033839998883,142.44033839998883,142.44033839998883,142.44033839998883,142.72359589999542,143.6901066999999,143.706792699988,143.706792699988,143.706792699988,143.706792699988,143.706792699988,143.706792699988,143.706792699988,143.706792699988,143.706792699988,143.706792699988,143.706792699988,143.706792699988,143.706792699988,144.97160260000965,144.97160260000965,144.97160260000965,144.97160260000965,144.97160260000965,144.97160260000965,144.97160260000965,33,53,56,36,33,70,144.97160260000965,146.53953979999642,,,,,,,,,,,,３４４,f,２２,2023-05-21_17h06.50.632,RL,2022.2.5,60.03125227378725,
36,52,41,58,0,17,17,17,,,,,,,,None,146.53953979999642,146.53953979999642,146.53953979999642,146.53953979999642,146.53953979999642,146.53953979999642,i,0.3761389999999665,146.94155429999228,146.94155429999228,146.94155429999228,146.94155429999228,146.94155429999228,146.94155429999228,147.2394335999852,148.97283149999566,148.97283149999566,148.97283149999566,148.97283149999566,148.97283149999566,148.97283149999566,148.97283149999566,148.97283149999566,148.97283149999566,148.97283149999566,148.97283149999566,148.97283149999566,148.97283149999566,148.97283149999566,151.0036976999836,151.0036976999836,151.0036976999836,151.0036976999836,151.0036976999836,151.0036976999836,151.0036976999836,36,52,58,41,58,70,151.0036976999836,152.97142319998238,,,,,,,,,,,,３４４,f,２２,2023-05-21_17h06.50.632,RL,2022.2.5,60.03125227378725,
32,59,41,54,0,18,18,18,,,,,,,,None,152.97142319998238,152.97142319998238,152.97142319998238,152.97142319998238,152.97142319998238,152.97142319998238,i,0.4301696000038646,153.4230169999937,153.4230169999937,153.4230169999937,153.4230169999937,153.4230169999937,153.4230169999937,153.72147319998476,154.6218103999854,154.6218103999854,154.6218103999854,154.6218103999854,154.6218103999854,154.6218103999854,154.6218103999854,154.6218103999854,154.6218103999854,154.6218103999854,154.6218103999854,154.6218103999854,154.6218103999854,154.6218103999854,155.81939379998948,155.81939379998948,155.81939379998948,155.81939379998948,155.81939379998948,155.81939379998948,155.81939379998948,32,59,54,41,54,70,155.81939379998948,157.33713080000598,,,,,,,,,,,,３４４,f,２２,2023-05-21_17h06.50.632,RL,2022.2.5,60.03125227378725,
43,59,48,48,0,19,19,19,,,,,,,,None,157.33713080000598,157.33713080000598,157.33713080000598,157.33713080000598,157.33713080000598,157.33713080000598,r,0.38763399998424575,157.7565103000088,157.7565103000088,157.7565103000088,157.7565103000088,157.7565103000088,157.7565103000088,158.05423839998548,158.95401909999782,158.95401909999782,158.95401909999782,158.95401909999782,158.95401909999782,158.95401909999782,158.95401909999782,158.95401909999782,158.95401909999782,158.95401909999782,158.95401909999782,158.95401909999782,158.95401909999782,158.95401909999782,160.15196869999636,160.15196869999636,160.15196869999636,160.15196869999636,160.15196869999636,160.15196869999636,160.15196869999636,43,59,48,48,59,70,160.15196869999636,162.15333239999018,,,,,,,,,,,,３４４,f,２２,2023-05-21_17h06.50.632,RL,2022.2.5,60.03125227378725,
41,58,41,40,0,20,20,20,,,,,,,,None,162.15333239999018,162.15333239999018,162.15333239999018,162.15333239999018,162.15333239999018,162.15333239999018,r,0.3033529999956954,162.4879452000023,162.4879452000023,162.4879452000023,162.4879452000023,162.4879452000023,162.4879452000023,162.76992990000872,164.60302979999688,164.6199157999945,164.6199157999945,164.6199157999945,164.6199157999945,164.6199157999945,164.6199157999945,164.6199157999945,164.6199157999945,164.6199157999945,164.6199157999945,164.6199157999945,164.6199157999945,164.6199157999945,166.75095539999893,166.75095539999893,166.75095539999893,166.75095539999893,166.75095539999893,166.75095539999893,166.75095539999893,41,58,40,41,58,70,166.75095539999893,168.33541609998792,,,,,,,,,,,,３４４,f,２２,2023-05-21_17h06.50.632,RL,2022.2.5,60.03125227378725,
37,56,40,55,0,21,21,21,,,,,,,,None,168.33541609998792,168.33541609998792,168.33541609998792,168.33541609998792,168.33541609998792,168.33541609998792,r,0.44381960001192056,168.80250499999966,168.80250499999966,168.80250499999966,168.80250499999966,168.80250499999966,168.80250499999966,169.08579219999956,170.8684896999912,170.88531159999548,170.88531159999548,170.88531159999548,170.88531159999548,170.88531159999548,170.88531159999548,170.88531159999548,170.88531159999548,170.88531159999548,170.88531159999548,170.88531159999548,170.88531159999548,170.88531159999548,172.9664647000027,172.9664647000027,172.9664647000027,172.9664647000027,172.9664647000027,172.9664647000027,172.9664647000027,37,56,55,40,56,70,172.9664647000027,174.86748779998743,,,,,,,,,,,,３４４,f,２２,2023-05-21_17h06.50.632,RL,2022.2.5,60.03125227378725,
44,60,43,49,0,22,22,22,,,,,,,,None,174.86748779998743,174.86748779998743,174.86748779998743,174.86748779998743,174.86748779998743,174.86748779998743,r,0.44066449999809265,175.334655499988,175.334655499988,175.334655499988,175.334655499988,175.334655499988,175.334655499988,175.61800709998352,177.3342330000014,177.35099959999206,177.35099959999206,177.35099959999206,177.35099959999206,177.35099959999206,177.35099959999206,177.35099959999206,177.35099959999206,177.35099959999206,177.35099959999206,177.35099959999206,177.35099959999206,177.35099959999206,179.3653810999822,179.3653810999822,179.3653810999822,179.3653810999822,179.3653810999822,179.3653810999822,179.3653810999822,44,60,49,43,60,70,179.3653810999822,181.0833818000101,,,,,,,,,,,,３４４,f,２２,2023-05-21_17h06.50.632,RL,2022.2.5,60.03125227378725,
32,59,47,48,0,23,23,23,,,,,,,,None,181.0833818000101,181.0833818000101,181.0833818000101,181.0833818000101,181.0833818000101,181.0833818000101,r,0.4027162000129465,181.52052309998544,181.52052309998544,181.52052309998544,181.52052309998544,181.52052309998544,181.52052309998544,181.8166607999883,183.36633459999575,183.36633459999575,183.36633459999575,183.36633459999575,183.36633459999575,183.36633459999575,183.36633459999575,183.36633459999575,183.36633459999575,183.36633459999575,183.36633459999575,183.36633459999575,183.36633459999575,183.36633459999575,185.21453309999197,185.21453309999197,185.21453309999197,185.21453309999197,185.21453309999197,185.21453309999197,185.21453309999197,32,59,48,47,59,70,185.21453309999197,186.74887519999174,,,,,,,,,,,,３４４,f,２２,2023-05-21_17h06.50.632,RL,2022.2.5,60.03125227378725,
38,60,40,43,0,24,24,24,,,,,,,,None,186.74887519999174,186.74887519999174,186.74887519999174,186.74887519999174,186.74887519999174,186.74887519999174,r,0.4624906000099145,187.23559759999625,187.23559759999625,187.23559759999625,187.23559759999625,187.23559759999625,187.23559759999625,187.51595349999843,189.33212899998762,189.34873140000855,189.34873140000855,189.34873140000855,189.34873140000855,189.34873140000855,189.34873140000855,189.34873140000855,189.34873140000855,189.34873140000855,189.34873140000855,189.34873140000855,189.34873140000855,189.34873140000855,191.4634536000085,191.4634536000085,191.4634536000085,191.4634536000085,191.4634536000085,191.4634536000085,191.4634536000085,38,60,43,40,60,70,191.4634536000085,193.03091279999353,,,,,,,,,,,,３４４,f,２２,2023-05-21_17h06.50.632,RL,2022.2.5,60.03125227378725,
35,54,31,53,0,25,25,25,,,,,,,,None,193.03091279999353,193.03091279999353,193.03091279999353,193.03091279999353,193.03091279999353,193.03091279999353,r,0.44657239998923615,193.4982253999915,193.4982253999915,193.4982253999915,193.4982253999915,193.4982253999915,193.4982253999915,193.78152389999013,195.7144685999956,195.7309786999831,195.7309786999831,195.7309786999831,195.7309786999831,195.7309786999831,195.7309786999831,195.7309786999831,195.7309786999831,195.7309786999831,195.7309786999831,195.7309786999831,195.7309786999831,195.7309786999831,197.962289099989,197.962289099989,197.962289099989,197.962289099989,197.962289099989,197.962289099989,197.962289099989,35,54,53,31,54,70,197.962289099989,199.6798548999941,,,,,,,,,,,,３４４,f,２２,2023-05-21_17h06.50.632,RL,2022.2.5,60.03125227378725,
40,58,33,53,0,26,26,26,,,,,,,,None,199.6798548999941,199.6798548999941,199.6798548999941,199.6798548999941,199.6798548999941,199.6798548999941,i,0.4956761000212282,200.1970299000095,200.1970299000095,200.1970299000095,200.1970299000095,200.1970299000095,200.1970299000095,200.49675489999936,202.4301284000103,202.4301284000103,202.4301284000103,202.4301284000103,202.4301284000103,202.4301284000103,202.4301284000103,202.4301284000103,202.4301284000103,202.4301284000103,202.4301284000103,202.4301284000103,202.4301284000103,202.4301284000103,204.66131580001093,204.66131580001093,204.66131580001093,204.66131580001093,204.66131580001093,204.66131580001093,204.66131580001093,40,58,53,33,53,70,204.66131580001093,206.37884349998785,,,,,,,,,,,,３４４,f,２２,2023-05-21_17h06.50.632,RL,2022.2.5,60.03125227378725,
38,59,46,47,0,27,27,27,,,,,,,,None,206.37884349998785,206.37884349998785,206.37884349998785,206.37884349998785,206.37884349998785,206.37884349998785,r,0.57349469998735,206.98069609998493,206.98069609998493,206.98069609998493,206.98069609998493,206.98069609998493,206.98069609998493,207.27879099998972,208.1286773000029,208.1286773000029,208.1286773000029,208.1286773000029,208.1286773000029,208.1286773000029,208.1286773000029,208.1286773000029,208.1286773000029,208.1286773000029,208.1286773000029,208.1286773000029,208.1286773000029,208.1286773000029,209.27665849999175,209.27665849999175,209.27665849999175,209.27665849999175,209.27665849999175,209.27665849999175,209.27665849999175,38,59,47,46,59,70,209.27665849999175,210.99467690000893,,,,,,,,,,,,３４４,f,２２,2023-05-21_17h06.50.632,RL,2022.2.5,60.03125227378725,
36,62,47,40,0,28,28,28,,,,,,,,None,210.99467690000893,210.99467690000893,210.99467690000893,210.99467690000893,210.99467690000893,210.99467690000893,r,0.7991597999935038,211.8144192000036,211.8144192000036,211.8144192000036,211.8144192000036,211.8144192000036,211.8144192000036,212.09471849998226,213.31133100000443,213.32780719999573,213.32780719999573,213.32780719999573,213.32780719999573,213.32780719999573,213.32780719999573,213.32780719999573,213.32780719999573,213.32780719999573,213.32780719999573,213.32780719999573,213.32780719999573,213.32780719999573,214.82574349999777,214.82574349999777,214.82574349999777,214.82574349999777,214.82574349999777,214.82574349999777,214.82574349999777,36,62,40,47,62,70,214.82574349999777,216.64369070000248,,,,,,,,,,,,３４４,f,２２,2023-05-21_17h06.50.632,RL,2022.2.5,60.03125227378725,
30,56,43,46,0,29,29,29,,,,,,,,None,216.64369070000248,216.64369070000248,216.64369070000248,216.64369070000248,216.64369070000248,216.64369070000248,r,0.6517470999970101,217.33348870000918,217.33348870000918,217.33348870000918,217.33348870000918,217.33348870000918,217.33348870000918,217.61091709998436,218.54380009998567,218.56047229998512,218.56047229998512,218.56047229998512,218.56047229998512,218.56047229998512,218.56047229998512,218.56047229998512,218.56047229998512,218.56047229998512,218.56047229998512,218.56047229998512,218.56047229998512,218.56047229998512,219.7914896000002,219.7914896000002,219.7914896000002,219.7914896000002,219.7914896000002,219.7914896000002,219.7914896000002,30,56,46,43,56,70,219.7914896000002,221.7594975999964,,,,,,,,,,,,３４４,f,２２,2023-05-21_17h06.50.632,RL,2022.2.5,60.03125227378725,
42,63,51,47,0,30,30,30,,,,,,,,None,221.7594975999964,221.7594975999964,221.7594975999964,221.7594975999964,221.7594975999964,221.7594975999964,r,0.4039446999959182,222.19351579999784,222.19351579999784,222.19351579999784,222.19351579999784,222.19351579999784,222.19351579999784,222.47639309999067,223.5764063000097,223.5926688000036,223.5926688000036,223.5926688000036,223.5926688000036,223.5926688000036,223.5926688000036,223.5926688000036,223.5926688000036,223.5926688000036,223.5926688000036,223.5926688000036,223.5926688000036,223.5926688000036,224.99087750000763,224.99087750000763,224.99087750000763,224.99087750000763,224.99087750000763,224.99087750000763,224.99087750000763,42,63,47,51,63,70,224.99087750000763,226.79213560000062,,,,,,,,,,,,３４４,f,２２,2023-05-21_17h06.50.632,RL,2022.2.5,60.03125227378725,
47,57,47,54,0,31,31,31,,,,,,,,None,226.79213560000062,226.79213560000062,226.79213560000062,226.79213560000062,226.79213560000062,226.79213560000062,r,0.3233804000192322,227.14268819999415,227.14268819999415,227.14268819999415,227.14268819999415,227.14268819999415,227.14268819999415,227.4253286999883,228.45884139998816,228.47514930000762,228.47514930000762,228.47514930000762,228.47514930000762,228.47514930000762,228.47514930000762,228.47514930000762,228.47514930000762,228.47514930000762,228.47514930000762,228.47514930000762,228.47514930000762,228.47514930000762,229.80705370000214,229.80705370000214,229.80705370000214,229.80705370000214,229.80705370000214,229.80705370000214,229.80705370000214,47,57,54,47,57,70,229.80705370000214,231.62423319998197,,,,,,,,,,,,３４４,f,２２,2023-05-21_17h06.50.632,RL,2022.2.5,60.03125227378725,
49,69,42,57,0,32,32,32,,,,,,,,None,231.62423319998197,231.62423319998197,231.62423319998197,231.62423319998197,231.62423319998197,231.62423319998197,r,0.47192330000689253,232.1253233999887,232.1253233999887,232.1253233999887,232.1253233999887,232.1253233999887,232.1253233999887,232.40814559999853,234.24122669998906,234.25766909998492,234.25766909998492,234.25766909998492,234.25766909998492,234.25766909998492,234.25766909998492,234.25766909998492,234.25766909998492,234.25766909998492,234.25766909998492,234.25766909998492,234.25766909998492,234.25766909998492,236.3892157000082,236.3892157000082,236.3892157000082,236.3892157000082,236.3892157000082,236.3892157000082,236.3892157000082,49,69,57,42,69,70,236.3892157000082,238.1063768999884,,,,,,,,,,,,３４４,f,２２,2023-05-21_17h06.50.632,RL,2022.2.5,60.03125227378725,
38,68,46,52,0,33,33,33,,,,,,,,None,238.1063768999884,238.1063768999884,238.1063768999884,238.1063768999884,238.1063768999884,238.1063768999884,r,0.36797450002632104,238.51587870001094,238.51587870001094,238.51587870001094,238.51587870001094,238.51587870001094,238.51587870001094,238.8071137999941,240.7730687999865,240.7895620999916,240.7895620999916,240.7895620999916,240.7895620999916,240.7895620999916,240.7895620999916,240.7895620999916,240.7895620999916,240.7895620999916,240.7895620999916,240.7895620999916,240.7895620999916,240.7895620999916,243.05448639998212,243.05448639998212,243.05448639998212,243.05448639998212,243.05448639998212,243.05448639998212,243.05448639998212,38,68,52,46,68,70,243.05448639998212,244.6387163999898,,,,,,,,,,,,３４４,f,２２,2023-05-21_17h06.50.632,RL,2022.2.5,60.03125227378725,
31,64,45,52,0,34,34,34,,,,,,,,None,244.6387163999898,244.6387163999898,244.6387163999898,244.6387163999898,244.6387163999898,244.6387163999898,r,0.3464207999932114,245.00586849998217,245.00586849998217,245.00586849998217,245.00586849998217,245.00586849998217,245.00586849998217,245.28869190000114,246.27237479999894,246.28888159999042,246.28888159999042,246.28888159999042,246.28888159999042,246.28888159999042,246.28888159999042,246.28888159999042,246.28888159999042,246.28888159999042,246.28888159999042,246.28888159999042,246.28888159999042,246.28888159999042,247.56989990000147,247.56989990000147,247.56989990000147,247.56989990000147,247.56989990000147,247.56989990000147,247.56989990000147,31,64,52,45,64,70,247.56989990000147,249.32106519999797,,,,,,,,,,,,３４４,f,２２,2023-05-21_17h06.50.632,RL,2022.2.5,60.03125227378725,
38,60,45,58,0,35,35,35,,,,,,,,None,249.32106519999797,249.32106519999797,249.32106519999797,249.32106519999797,249.32106519999797,249.32106519999797,r,0.43489649999537505,249.79208720001043,249.79208720001043,249.79208720001043,249.79208720001043,249.79208720001043,249.79208720001043,250.0719334000023,251.67112929999712,251.687843599997,251.687843599997,251.687843599997,251.687843599997,251.687843599997,251.687843599997,251.687843599997,251.687843599997,251.687843599997,251.687843599997,251.687843599997,251.687843599997,251.687843599997,253.5861514999997,253.5861514999997,253.5861514999997,253.5861514999997,253.5861514999997,253.5861514999997,253.5861514999997,38,60,58,45,60,70,253.5861514999997,255.55337479998707,,,,,,,,,,,,３４４,f,２２,2023-05-21_17h06.50.632,RL,2022.2.5,60.03125227378725,
47,68,46,56,0,36,36,36,,,,,,,,None,255.55337479998707,255.55337479998707,255.55337479998707,255.55337479998707,255.55337479998707,255.55337479998707,r,0.430525600007968,256.00587480000104,256.00587480000104,256.00587480000104,256.00587480000104,256.00587480000104,256.00587480000104,256.303725500009,257.63680559999193,257.65364370000316,257.65364370000316,257.65364370000316,257.65364370000316,257.65364370000316,257.65364370000316,257.65364370000316,257.65364370000316,257.65364370000316,257.65364370000316,257.65364370000316,257.65364370000316,257.65364370000316,259.3014525999897,259.3014525999897,259.3014525999897,259.3014525999897,259.3014525999897,259.3014525999897,259.3014525999897,47,68,56,46,68,70,259.3014525999897,260.9361768999952,,,,,,,,,,,,３４４,f,２２,2023-05-21_17h06.50.632,RL,2022.2.5,60.03125227378725,
43,55,48,58,0,37,37,37,,,,,,,,None,260.9361768999952,260.9361768999952,260.9361768999952,260.9361768999952,260.9361768999952,260.9361768999952,r,0.37651189998723567,261.33680069999536,261.33680069999536,261.33680069999536,261.33680069999536,261.33680069999536,261.33680069999536,261.6199224999873,262.4366189999855,262.45293159998255,262.45293159998255,262.45293159998255,262.45293159998255,262.45293159998255,262.45293159998255,262.45293159998255,262.45293159998255,262.45293159998255,262.45293159998255,262.45293159998255,262.45293159998255,262.45293159998255,263.56746789999306,263.56746789999306,263.56746789999306,263.56746789999306,263.56746789999306,263.56746789999306,263.56746789999306,43,55,58,48,55,70,263.56746789999306,265.55196350000915,,,,,,,,,,,,３４４,f,２２,2023-05-21_17h06.50.632,RL,2022.2.5,60.03125227378725,
49,68,47,56,0,38,38,38,,,,,,,,None,265.55196350000915,265.55196350000915,265.55196350000915,265.55196350000915,265.55196350000915,265.55196350000915,r,0.243866100005107,265.8188031000027,265.8188031000027,265.8188031000027,265.8188031000027,265.8188031000027,265.8188031000027,266.1021627000009,267.0187867000059,267.0353204999992,267.0353204999992,267.0353204999992,267.0353204999992,267.0353204999992,267.0353204999992,267.0353204999992,267.0353204999992,267.0353204999992,267.0353204999992,267.0353204999992,267.0353204999992,267.0353204999992,268.25009819999104,268.25009819999104,268.25009819999104,268.25009819999104,268.25009819999104,268.25009819999104,268.25009819999104,49,68,56,47,68,70,268.25009819999104,270.1176705000107,,,,,,,,,,,,３４４,f,２２,2023-05-21_17h06.50.632,RL,2022.2.5,60.03125227378725,
42,64,62,53,0,39,39,39,,,,,,,,None,270.1176705000107,270.1176705000107,270.1176705000107,270.1176705000107,270.1176705000107,270.1176705000107,r,0.308930600003805,270.4517162999837,270.4517162999837,270.4517162999837,270.4517162999837,270.4517162999837,270.4517162999837,270.7349074000085,271.7681606999831,271.78477790000034,271.78477790000034,271.78477790000034,271.78477790000034,271.78477790000034,271.78477790000034,271.78477790000034,271.78477790000034,271.78477790000034,271.78477790000034,271.78477790000034,271.78477790000034,271.78477790000034,273.1160145000031,273.1160145000031,273.1160145000031,273.1160145000031,273.1160145000031,273.1160145000031,273.1160145000031,42,64,53,62,64,70,273.1160145000031,275.03381229998195,,,,,,,,,,,,３４４,f,２２,2023-05-21_17h06.50.632,RL,2022.2.5,60.03125227378725,
29,59,54,64,0,40,40,40,,,,,,,,None,275.03381229998195,275.03381229998195,275.03381229998195,275.03381229998195,275.03381229998195,275.03381229998195,r,0.43672609998611733,275.50061119999737,275.50061119999737,275.50061119999737,275.50061119999737,275.50061119999737,275.50061119999737,275.7838390999823,277.6333783000009,277.6498043999891,277.6498043999891,277.6498043999891,277.6498043999891,277.6498043999891,277.6498043999891,277.6498043999891,277.6498043999891,277.6498043999891,277.6498043999891,277.6498043999891,277.6498043999891,277.6498043999891,279.7981207999983,279.7981207999983,279.7981207999983,279.7981207999983,279.7981207999983,279.7981207999983,279.7981207999983,29,59,64,54,59,70,279.7981207999983,281.51588439999614,,,,,,,,,,,,３４４,f,２２,2023-05-21_17h06.50.632,RL,2022.2.5,60.03125227378725,
32,66,59,51,0,41,41,41,,,,,,,,None,281.51588439999614,281.51588439999614,281.51588439999614,281.51588439999614,281.51588439999614,281.51588439999614,r,0.772861000004923,282.31640119999065,282.31640119999065,282.31640119999065,282.31640119999065,282.31640119999065,282.31640119999065,282.6157111999928,283.79876410000725,283.79876410000725,283.79876410000725,283.79876410000725,283.79876410000725,283.79876410000725,283.79876410000725,283.79876410000725,283.79876410000725,283.79876410000725,283.79876410000725,283.79876410000725,283.79876410000725,283.79876410000725,285.28067370000645,285.28067370000645,285.28067370000645,285.28067370000645,285.28067370000645,285.28067370000645,285.28067370000645,32,66,51,59,66,70,285.28067370000645,287.13107109998236,,,,,,,,,,,,３４４,f,２２,2023-05-21_17h06.50.632,RL,2022.2.5,60.03125227378725,
43,60,56,52,0,42,42,42,,,,,,,,None,287.13107109998236,287.13107109998236,287.13107109998236,287.13107109998236,287.13107109998236,287.13107109998236,r,0.6490561999962665,287.79838950000703,287.79838950000703,287.79838950000703,287.79838950000703,287.79838950000703,287.79838950000703,288.0981533000013,290.0483426999999,290.0483426999999,290.0483426999999,290.0483426999999,290.0483426999999,290.0483426999999,290.0483426999999,290.0483426999999,290.0483426999999,290.0483426999999,290.0483426999999,290.0483426999999,290.0483426999999,290.0483426999999,292.2961668999924,292.2961668999924,292.2961668999924,292.2961668999924,292.2961668999924,292.2961668999924,292.2961668999924,43,60,52,56,60,70,292.2961668999924,294.11378049998893,,,,,,,,,,,,３４４,f,２２,2023-05-21_17h06.50.632,RL,2022.2.5,60.03125227378725,
39,74,57,55,0,43,43,43,,,,,,,,None,294.11378049998893,294.11378049998893,294.11378049998893,294.11378049998893,294.11378049998893,294.11378049998893,r,0.3811730000015814,294.5141625999822,294.5141625999822,294.5141625999822,294.5141625999822,294.5141625999822,294.5141625999822,294.8136611999944,295.74693890000344,295.74693890000344,295.74693890000344,295.74693890000344,295.74693890000344,295.74693890000344,295.74693890000344,295.74693890000344,295.74693890000344,295.74693890000344,295.74693890000344,295.74693890000344,295.74693890000344,295.74693890000344,296.9783099000051,296.9783099000051,296.9783099000051,296.9783099000051,296.9783099000051,296.9783099000051,296.9783099000051,39,74,55,57,74,70,296.9783099000051,298.8629474999907,,,,,,,,,,,,３４４,f,２２,2023-05-21_17h06.50.632,RL,2022.2.5,60.03125227378725,
44,72,51,52,0,44,44,44,,,,,,,,None,298.8629474999907,298.8629474999907,298.8629474999907,298.8629474999907,298.8629474999907,298.8629474999907,r,0.3302765999978874,299.2142036999867,299.2142036999867,299.2142036999867,299.2142036999867,299.2142036999867,299.2142036999867,299.49626179999905,300.3631450999819,300.3797265999892,300.3797265999892,300.3797265999892,300.3797265999892,300.3797265999892,300.3797265999892,300.3797265999892,300.3797265999892,300.3797265999892,300.3797265999892,300.3797265999892,300.3797265999892,300.3797265999892,301.544189999986,301.544189999986,301.544189999986,301.544189999986,301.544189999986,301.544189999986,301.544189999986,44,72,52,51,72,70,301.544189999986,303.27868379998836,,,,,,,,,,,,３４４,f,２２,2023-05-21_17h06.50.632,RL,2022.2.5,60.03125227378725,
28,63,57,51,0,45,45,45,,,,,,,,None,303.27868379998836,303.27868379998836,303.27868379998836,303.27868379998836,303.27868379998836,303.27868379998836,r,0.4362583000038285,303.75500289999763,303.75500289999763,303.75500289999763,303.75500289999763,303.75500289999763,303.75500289999763,304.02904789999593,305.5118364999944,305.5452130000049,305.5452130000049,305.5452130000049,305.5452130000049,305.5452130000049,305.5452130000049,305.5452130000049,305.5452130000049,305.5452130000049,305.5452130000049,305.5452130000049,305.5452130000049,305.5452130000049,307.32635210000444,307.32635210000444,307.32635210000444,307.32635210000444,307.32635210000444,307.32635210000444,307.32635210000444,28,63,51,57,63,70,307.32635210000444,309.19439620000776,,,,,,,,,,,,３４４,f,２２,2023-05-21_17h06.50.632,RL,2022.2.5,60.03125227378725,
27,70,57,41,0,46,46,46,,,,,,,,None,309.19439620000776,309.19439620000776,309.19439620000776,309.19439620000776,309.19439620000776,309.19439620000776,r,0.441095399990445,309.6625103999977,309.6625103999977,309.6625103999977,309.6625103999977,309.6625103999977,309.6625103999977,309.9609509999864,311.8276096000045,311.8276096000045,311.8276096000045,311.8276096000045,311.8276096000045,311.8276096000045,311.8276096000045,311.8276096000045,311.8276096000045,311.8276096000045,311.8276096000045,311.8276096000045,311.8276096000045,311.8276096000045,313.9922855999903,313.9922855999903,313.9922855999903,313.9922855999903,313.9922855999903,313.9922855999903,313.9922855999903,27,70,41,57,70,70,313.9922855999903,315.8763847000082,,,,,,,,,,,,３４４,f,２２,2023-05-21_17h06.50.632,RL,2022.2.5,60.03125227378725,
30,61,63,52,0,47,47,47,,,,,,,,None,315.8763847000082,315.8763847000082,315.8763847000082,315.8763847000082,315.8763847000082,315.8763847000082,r,0.3230895999877248,316.2267839999986,316.2267839999986,316.2267839999986,316.2267839999986,316.2267839999986,316.2267839999986,316.52691670000786,317.8602494999941,317.84188940000604,317.84188940000604,317.84188940000604,317.84188940000604,317.84188940000604,317.84188940000604,317.8602494999941,317.8602494999941,317.8602494999941,317.8602494999941,317.8602494999941,317.8602494999941,317.8602494999941,319.490930800006,319.490930800006,319.490930800006,319.490930800006,319.490930800006,319.490930800006,319.490930800006,30,61,52,63,61,70,319.490930800006,321.05902670000796,,,,,,,,,,,,３４４,f,２２,2023-05-21_17h06.50.632,RL,2022.2.5,60.03125227378725,
31,74,59,51,0,48,48,48,,,,,,,,None,321.05902670000796,321.05902670000796,321.05902670000796,321.05902670000796,321.05902670000796,321.05902670000796,r,0.42914809999638237,321.51098180000554,321.51098180000554,321.51098180000554,321.51098180000554,321.51098180000554,321.51098180000554,321.8094216999889,323.22558800000115,323.22558800000115,323.22558800000115,323.22558800000115,323.22558800000115,323.22558800000115,323.22558800000115,323.22558800000115,323.22558800000115,323.22558800000115,323.22558800000115,323.22558800000115,323.22558800000115,323.22558800000115,324.9401829999988,324.9401829999988,324.9401829999988,324.9401829999988,324.9401829999988,324.9401829999988,324.9401829999988,31,74,51,59,74,70,324.9401829999988,326.4911041999876,,,,,,,,,,,,３４４,f,２２,2023-05-21_17h06.50.632,RL,2022.2.5,60.03125227378725,
26,72,58,52,0,49,49,49,,,,,,,,None,326.4911041999876,326.4911041999876,326.4911041999876,326.4911041999876,326.4911041999876,326.4911041999876,r,0.521294600010151,327.04395019999356,327.04395019999356,327.04395019999356,327.04395019999356,327.04395019999356,327.04395019999356,327.341293400008,328.5246593999909,328.5246593999909,328.5246593999909,328.5246593999909,328.5246593999909,328.5246593999909,328.5246593999909,328.5246593999909,328.5246593999909,328.5246593999909,328.5246593999909,328.5246593999909,328.5246593999909,328.5246593999909,330.00592309999047,330.00592309999047,330.00592309999047,330.00592309999047,330.00592309999047,330.00592309999047,330.00592309999047,26,72,52,58,72,70,330.00592309999047,331.5403677999857,,,,,,,,,,,,３４４,f,２２,2023-05-21_17h06.50.632,RL,2022.2.5,60.03125227378725,
32,78,52,41,0,50,50,50,,,,,,,,None,331.5403677999857,331.5403677999857,331.5403677999857,331.5403677999857,331.5403677999857,331.5403677999857,r,0.6164876999973785,332.1985541000031,332.1985541000031,332.1985541000031,332.1985541000031,332.1985541000031,332.1985541000031,332.4739968999929,333.7902487000101,333.8236270000052,333.8236270000052,333.8236270000052,333.8236270000052,333.8236270000052,333.8236270000052,333.8236270000052,333.8236270000052,333.8236270000052,333.8236270000052,333.8236270000052,333.8236270000052,333.8236270000052,335.43857979998575,335.43857979998575,335.43857979998575,335.43857979998575,335.43857979998575,335.43857979998575,335.43857979998575,32,78,41,52,78,70,335.43857979998575,337.1561015000043,,,,,,,,,,,,３４４,f,２２,2023-05-21_17h06.50.632,RL,2022.2.5,60.03125227378725,
26,75,53,46,0,51,51,51,,,,,,,,None,337.1561015000043,337.1561015000043,337.1561015000043,337.1561015000043,337.1561015000043,337.1561015000043,r,0.6240141000016592,337.8066370000015,337.8066370000015,337.8066370000015,337.8066370000015,337.8066370000015,337.8066370000015,338.0893694999977,339.2559198999952,339.2724966999958,339.2724966999958,339.2724966999958,339.2724966999958,339.2724966999958,339.2724966999958,339.2724966999958,339.2724966999958,339.2724966999958,339.2724966999958,339.2724966999958,339.2724966999958,339.2724966999958,340.7372352000093,340.7372352000093,340.7372352000093,340.7372352000093,340.7372352000093,340.7372352000093,340.7372352000093,26,75,46,53,75,70,340.7372352000093,342.2550249999913,,,,,,,,,,,,３４４,f,２２,2023-05-21_17h06.50.632,RL,2022.2.5,60.03125227378725,
33,72,58,32,0,52,52,52,,,,,,,,None,342.2550249999913,342.2550249999913,342.2550249999913,342.2550249999913,342.2550249999913,342.2550249999913,r,0.8297286000160966,343.1056208999944,343.1056208999944,343.1056208999944,343.1056208999944,343.1056208999944,343.1056208999944,343.38840239998535,344.32179230000474,344.33862110000337,344.33862110000337,344.33862110000337,344.33862110000337,344.33862110000337,344.33862110000337,344.33862110000337,344.33862110000337,344.33862110000337,344.33862110000337,344.33862110000337,344.33862110000337,344.33862110000337,345.5698881999997,345.5698881999997,345.5698881999997,345.5698881999997,345.5698881999997,345.5698881999997,345.5698881999997,33,72,32,58,72,70,345.5698881999997,347.23776369998814,,,,,,,,,,,,３４４,f,２２,2023-05-21_17h06.50.632,RL,2022.2.5,60.03125227378725,
34,68,58,47,0,53,53,53,,,,,,,,None,347.23776369998814,347.23776369998814,347.23776369998814,347.23776369998814,347.23776369998814,347.23776369998814,r,0.6965536999923643,347.9568611999857,347.9568611999857,347.9568611999857,347.9568611999857,347.9568611999857,347.9568611999857,348.2377737000061,350.00438969998504,350.02117009999347,350.02117009999347,350.02117009999347,350.02117009999347,350.02117009999347,350.02117009999347,350.02117009999347,350.02117009999347,350.02117009999347,350.02117009999347,350.02117009999347,350.02117009999347,350.02117009999347,352.0852482999908,352.0852482999908,352.0852482999908,352.0852482999908,352.0852482999908,352.0852482999908,352.0852482999908,34,68,47,58,68,70,352.0852482999908,353.80319479998434,,,,,,,,,,,,３４４,f,２２,2023-05-21_17h06.50.632,RL,2022.2.5,60.03125227378725,
38,73,56,36,0,54,54,54,,,,,,,,None,353.80319479998434,353.80319479998434,353.80319479998434,353.80319479998434,353.80319479998434,353.80319479998434,r,0.4748001999978442,354.303451499989,354.303451499989,354.303451499989,354.303451499989,354.303451499989,354.303451499989,354.5867867000052,355.8701265999989,355.8866435000091,355.8866435000091,355.8866435000091,355.8866435000091,355.8866435000091,355.8866435000091,355.8866435000091,355.8866435000091,355.8866435000091,355.8866435000091,355.8866435000091,355.8866435000091,355.8866435000091,357.46802209998714,357.46802209998714,357.46802209998714,357.46802209998714,357.46802209998714,357.46802209998714,357.46802209998714,38,73,36,56,73,70,357.46802209998714,359.16907929998706,,,,,,,,,,,,３４４,f,２２,2023-05-21_17h06.50.632,RL,2022.2.5,60.03125227378725,
42,73,55,35,0,55,55,55,,,,,,,,None,359.16907929998706,359.16907929998706,359.16907929998706,359.16907929998706,359.16907929998706,359.16907929998706,r,0.50646509998478,359.704894399998,359.704894399998,359.704894399998,359.704894399998,359.704894399998,359.704894399998,359.98574589999043,361.4525211,361.46865520000574,361.46865520000574,361.46865520000574,361.46865520000574,361.46865520000574,361.46865520000574,361.46865520000574,361.46865520000574,361.46865520000574,361.46865520000574,361.46865520000574,361.46865520000574,361.46865520000574,363.2334161000035,363.2334161000035,363.2334161000035,363.2334161000035,363.2334161000035,363.2334161000035,363.2334161000035,42,73,35,55,73,70,363.2334161000035,364.9514053000021,,,,,,,,,,,,３４４,f,２２,2023-05-21_17h06.50.632,RL,2022.2.5,60.03125227378725,
40,68,54,33,0,56,56,56,,,,,,,,None,364.9514053000021,364.9514053000021,364.9514053000021,364.9514053000021,364.9514053000021,364.9514053000021,r,0.7227641000063159,365.70188949999283,365.70188949999283,365.70188949999283,365.70188949999283,365.70188949999283,365.70188949999283,365.9849329999997,367.2844497000042,367.3010074000049,367.3010074000049,367.3010074000049,367.3010074000049,367.3010074000049,367.3010074000049,367.3010074000049,367.3010074000049,367.3010074000049,367.3010074000049,367.3010074000049,367.3010074000049,367.3010074000049,368.89905569999246,368.89905569999246,368.89905569999246,368.89905569999246,368.89905569999246,368.89905569999246,368.89905569999246,40,68,33,54,68,70,368.89905569999246,370.46720159999677,,,,,,,,,,,,３４４,f,２２,2023-05-21_17h06.50.632,RL,2022.2.5,60.03125227378725,
30,69,50,28,0,57,57,57,,,,,,,,None,370.46720159999677,370.46720159999677,370.46720159999677,370.46720159999677,370.46720159999677,370.46720159999677,r,0.5911717999842949,371.08433690000675,371.08433690000675,371.08433690000675,371.08433690000675,371.08433690000675,371.08433690000675,371.3668963999953,372.45023409998976,372.5040708000015,372.5040708000015,372.5040708000015,372.5040708000015,372.5040708000015,372.5040708000015,372.5040708000015,372.5040708000015,372.5040708000015,372.5040708000015,372.5040708000015,372.5040708000015,372.5040708000015,373.8813736999873,373.8813736999873,373.8813736999873,373.8813736999873,373.8813736999873,373.8813736999873,373.8813736999873,30,69,28,50,69,70,373.8813736999873,375.5661063999869,,,,,,,,,,,,３４４,f,２２,2023-05-21_17h06.50.632,RL,2022.2.5,60.03125227378725,
48,72,58,30,0,58,58,58,,,,,,,,None,375.5661063999869,375.5661063999869,375.5661063999869,375.5661063999869,375.5661063999869,375.5661063999869,r,0.5827227999980096,376.16853729999275,376.16853729999275,376.16853729999275,376.16853729999275,376.16853729999275,376.16853729999275,376.449584099988,378.01605310000014,378.03263689999585,378.03263689999585,378.03263689999585,378.03263689999585,378.03263689999585,378.03263689999585,378.03263689999585,378.03263689999585,378.03263689999585,378.03263689999585,378.03263689999585,378.03263689999585,378.03263689999585,379.89730409998447,379.89730409998447,379.89730409998447,379.89730409998447,379.89730409998447,379.89730409998447,379.89730409998447,48,72,30,58,72,70,379.89730409998447,381.6316313999996,,,,,,,,,,,,３４４,f,２２,2023-05-21_17h06.50.632,RL,2022.2.5,60.03125227378725,
43,65,49,32,0,59,59,59,,,,,,,,None,381.6316313999996,381.6316313999996,381.6316313999996,381.6316313999996,381.6316313999996,381.6316313999996,i,0.5667058000108227,382.2170766000054,382.2170766000054,382.2170766000054,382.2170766000054,382.2170766000054,382.2170766000054,382.51531670000986,383.6980684000009,383.6980684000009,383.6980684000009,383.6980684000009,383.6980684000009,383.6980684000009,383.6980684000009,383.6980684000009,383.6980684000009,383.6980684000009,383.6980684000009,383.6980684000009,383.6980684000009,383.6980684000009,385.1794189999928,385.1794189999928,385.1794189999928,385.1794189999928,385.1794189999928,385.1794189999928,385.1794189999928,43,65,32,49,32,70,385.1794189999928,386.7478448000038,,,,,,,,,,,,３４４,f,２２,2023-05-21_17h06.50.632,RL,2022.2.5,60.03125227378725,
43,64,53,40,0,60,60,60,,,,,,,,None,386.7478448000038,386.7478448000038,386.7478448000038,386.7478448000038,386.7478448000038,386.7478448000038,r,0.3693386999948416,387.14812900000834,387.14812900000834,387.14812900000834,387.14812900000834,387.14812900000834,387.14812900000834,387.43115879999823,388.9641411000048,388.9812690000108,388.9812690000108,388.9812690000108,388.9812690000108,388.9812690000108,388.9812690000108,388.9812690000108,388.9812690000108,388.9812690000108,388.9812690000108,388.9812690000108,388.9812690000108,388.9812690000108,390.8116975000012,390.8116975000012,390.8116975000012,390.8116975000012,390.8116975000012,390.8116975000012,390.8116975000012,43,64,40,53,64,70,390.8116975000012,392.646256499982,,,,,,,,,,,,３４４,f,２２,2023-05-21_17h06.50.632,RL,2022.2.5,60.03125227378725,
47,65,39,41,0,61,61,61,,,,,,,,None,392.646256499982,392.646256499982,392.646256499982,392.646256499982,392.646256499982,392.646256499982,r,0.3753390000201762,393.0474268000107,393.0474268000107,393.0474268000107,393.0474268000107,393.0474268000107,393.0474268000107,393.34646440000506,395.2966242999828,395.31280829999014,395.31280829999014,395.31280829999014,395.31280829999014,395.31280829999014,395.31280829999014,395.31280829999014,395.31280829999014,395.31280829999014,395.31280829999014,395.31280829999014,395.31280829999014,395.31280829999014,397.5605957999942,397.5605957999942,397.5605957999942,397.5605957999942,397.5605957999942,397.5605957999942,397.5605957999942,47,65,41,39,65,70,397.5605957999942,399.0950622000091,,,,,,,,,,,,３４４,f,２２,2023-05-21_17h06.50.632,RL,2022.2.5,60.03125227378725,
56,59,54,39,0,62,62,62,,,,,,,,None,399.0950622000091,399.0950622000091,399.0950622000091,399.0950622000091,399.0950622000091,399.0950622000091,r,0.44142610000562854,399.5622138000035,399.5622138000035,399.5622138000035,399.5622138000035,399.5622138000035,399.5622138000035,399.84551720001036,400.92872050000005,400.9453263999894,400.9453263999894,400.9453263999894,400.9453263999894,400.9453263999894,400.9453263999894,400.9453263999894,400.9453263999894,400.9453263999894,400.9453263999894,400.9453263999894,400.9453263999894,400.9453263999894,402.3263326000015,402.3263326000015,402.3263326000015,402.3263326000015,402.3263326000015,402.3263326000015,402.3263326000015,56,59,39,54,59,70,402.3263326000015,404.1611963000032,,,,,,,,,,,,３４４,f,２２,2023-05-21_17h06.50.632,RL,2022.2.5,60.03125227378725,
48,73,54,38,0,63,63,63,,,,,,,,None,404.1611963000032,404.1611963000032,404.1611963000032,404.1611963000032,404.1611963000032,404.1611963000032,r,0.37168799998471513,404.56286679999903,404.56286679999903,404.56286679999903,404.56286679999903,404.56286679999903,404.56286679999903,404.84496349998517,406.5444897999987,406.5610965999949,406.5610965999949,406.5610965999949,406.5610965999949,406.5610965999949,406.5610965999949,406.5610965999949,406.5610965999949,406.5610965999949,406.5610965999949,406.5610965999949,406.5610965999949,406.5610965999949,408.55907769998885,408.55907769998885,408.55907769998885,408.55907769998885,408.55907769998885,408.55907769998885,408.55907769998885,48,73,38,54,73,70,408.55907769998885,410.3599236999871,,,,,,,,,,,,３４４,f,２２,2023-05-21_17h06.50.632,RL,2022.2.5,60.03125227378725,
48,77,49,36,0,64,64,64,,,,,,,,None,410.3599236999871,410.3599236999871,410.3599236999871,410.3599236999871,410.3599236999871,410.3599236999871,r,0.7614830000093207,411.1447657000099,411.1447657000099,411.1447657000099,411.1447657000099,411.1447657000099,411.1447657000099,411.42689909998444,412.87664119998226,412.8930357999925,412.8930357999925,412.8930357999925,412.8930357999925,412.8930357999925,412.8930357999925,412.8930357999925,412.8930357999925,412.8930357999925,412.8930357999925,412.8930357999925,412.8930357999925,412.8930357999925,414.6411292999983,414.6411292999983,414.6411292999983,414.6411292999983,414.6411292999983,414.6411292999983,414.6411292999983,48,77,36,49,77,70,414.6411292999983,416.4754697000026,,,,,,,,,,,,３４４,f,２２,2023-05-21_17h06.50.632,RL,2022.2.5,60.03125227378725,
46,66,47,35,0,65,65,65,,,,,,,,None,416.4754697000026,416.4754697000026,416.4754697000026,416.4754697000026,416.4754697000026,416.4754697000026,r,0.3795856999931857,416.87771649999195,416.87771649999195,416.87771649999195,416.87771649999195,416.87771649999195,416.87771649999195,417.15946970001096,419.0588046000048,419.075340099982,419.075340099982,419.075340099982,419.075340099982,419.075340099982,419.075340099982,419.075340099982,419.075340099982,419.075340099982,419.075340099982,419.075340099982,419.075340099982,419.075340099982,421.2735960999853,421.2735960999853,421.2735960999853,421.2735960999853,421.2735960999853,421.2735960999853,421.2735960999853,46,66,35,47,66,70,421.2735960999853,423.0415260999871,,,,,,,,,,,,３４４,f,２２,2023-05-21_17h06.50.632,RL,2022.2.5,60.03125227378725,
39,70,58,48,0,66,66,66,,,,,,,,None,423.0415260999871,423.0415260999871,423.0415260999871,423.0415260999871,423.0415260999871,423.0415260999871,r,0.6288207999896258,423.69147079999675,423.69147079999675,423.69147079999675,423.69147079999675,423.69147079999675,423.69147079999675,423.9751164999907,425.15758179998375,425.1741769000073,425.1741769000073,425.1741769000073,425.1741769000073,425.1741769000073,425.1741769000073,425.1741769000073,425.1741769000073,425.1741769000073,425.1741769000073,425.1741769000073,425.1741769000073,425.1741769000073,426.65626489999704,426.65626489999704,426.65626489999704,426.65626489999704,426.65626489999704,426.65626489999704,426.65626489999704,39,70,48,58,70,70,426.65626489999704,428.47344030000386,,,,,,,,,,,,３４４,f,２２,2023-05-21_17h06.50.632,RL,2022.2.5,60.03125227378725,
46,71,57,35,0,67,67,67,,,,,,,,None,428.47344030000386,428.47344030000386,428.47344030000386,428.47344030000386,428.47344030000386,428.47344030000386,r,0.6978479999816045,429.19360969998525,429.19360969998525,429.19360969998525,429.19360969998525,429.19360969998525,429.19360969998525,429.4906221999845,430.53996590001043,430.53996590001043,430.53996590001043,430.53996590001043,430.53996590001043,430.53996590001043,430.53996590001043,430.53996590001043,430.53996590001043,430.53996590001043,430.53996590001043,430.53996590001043,430.53996590001043,430.53996590001043,431.8883973000047,431.8883973000047,431.8883973000047,431.8883973000047,431.8883973000047,431.8883973000047,431.8883973000047,46,71,35,57,71,70,431.8883973000047,433.63942900000256,,,,,,,,,,,,３４４,f,２２,2023-05-21_17h06.50.632,RL,2022.2.5,60.03125227378725,
38,72,55,41,0,68,68,68,,,,,,,,None,433.63942900000256,433.63942900000256,433.63942900000256,433.63942900000256,433.63942900000256,433.63942900000256,r,0.397514999989653,434.05736259999685,434.05736259999685,434.05736259999685,434.05736259999685,434.05736259999685,434.05736259999685,434.3392871999822,435.72282580001047,435.73920609999914,435.73920609999914,435.73920609999914,435.73920609999914,435.73920609999914,435.73920609999914,435.73920609999914,435.73920609999914,435.73920609999914,435.73920609999914,435.73920609999914,435.73920609999914,435.73920609999914,437.4206006999884,437.4206006999884,437.4206006999884,437.4206006999884,437.4206006999884,437.4206006999884,437.4206006999884,38,72,41,55,72,70,437.4206006999884,439.02159630000824,,,,,,,,,,,,３４４,f,２２,2023-05-21_17h06.50.632,RL,2022.2.5,60.03125227378725,
52,69,50,57,0,69,69,69,,,,,,,,None,439.02159630000824,439.02159630000824,439.02159630000824,439.02159630000824,439.02159630000824,439.02159630000824,r,0.8099771999986842,439.8570636000077,439.8570636000077,439.8570636000077,439.8570636000077,439.8570636000077,439.8570636000077,440.13874759999453,441.05483539999113,441.071354899992,441.071354899992,441.071354899992,441.071354899992,441.071354899992,441.071354899992,441.071354899992,441.071354899992,441.071354899992,441.071354899992,441.071354899992,441.071354899992,441.071354899992,442.28665799999726,442.28665799999726,442.28665799999726,442.28665799999726,442.28665799999726,442.28665799999726,442.28665799999726,52,69,57,50,69,70,442.28665799999726,444.2540042999899,,,,,,,,,,,,３４４,f,２２,2023-05-21_17h06.50.632,RL,2022.2.5,60.03125227378725,
47,80,58,51,0,70,70,70,,,,,,,,None,444.2540042999899,444.2540042999899,444.2540042999899,444.2540042999899,444.2540042999899,444.2540042999899,r,0.6514524000231177,444.9445505999902,444.9445505999902,444.9445505999902,444.9445505999902,444.9445505999902,444.9445505999902,445.2206663999823,446.4704253000091,446.503962399991,446.503962399991,446.503962399991,446.503962399991,446.503962399991,446.503962399991,446.503962399991,446.503962399991,446.503962399991,446.503962399991,446.503962399991,446.503962399991,446.503962399991,448.0518512999988,448.0518512999988,448.0518512999988,448.0518512999988,448.0518512999988,448.0518512999988,448.0518512999988,47,80,51,58,80,70,448.0518512999988,449.88621309999144,,,,,,,,,,,,３４４,f,２２,2023-05-21_17h06.50.632,RL,2022.2.5,60.03125227378725,
40,80,63,50,0,71,71,71,,,,,,,,None,449.88621309999144,449.88621309999144,449.88621309999144,449.88621309999144,449.88621309999144,449.88621309999144,r,0.31484969999291934,450.22046009998303,450.22046009998303,450.22046009998303,450.22046009998303,450.22046009998303,450.22046009998303,450.5032619999838,452.3029688000097,452.3192488999921,452.3192488999921,452.3192488999921,452.3192488999921,452.3192488999921,452.3192488999921,452.3192488999921,452.3192488999921,452.3192488999921,452.3192488999921,452.3192488999921,452.3192488999921,452.3192488999921,454.417727299995,454.417727299995,454.417727299995,454.417727299995,454.417727299995,454.417727299995,454.417727299995,40,80,50,63,80,70,454.417727299995,456.3350459999929,,,,,,,,,,,,３４４,f,２２,2023-05-21_17h06.50.632,RL,2022.2.5,60.03125227378725,
42,79,63,47,0,72,72,72,,,,,,,,None,456.3350459999929,456.3350459999929,456.3350459999929,456.3350459999929,456.3350459999929,456.3350459999929,r,0.45605790000990964,456.81919010001,456.81919010001,456.81919010001,456.81919010001,456.81919010001,456.81919010001,457.10250410001026,458.2184304999828,458.2349552999949,458.2349552999949,458.2349552999949,458.2349552999949,458.2349552999949,458.2349552999949,458.2349552999949,458.2349552999949,458.2349552999949,458.2349552999949,458.2349552999949,458.2349552999949,458.2349552999949,459.64980959999957,459.64980959999957,459.64980959999957,459.64980959999957,459.64980959999957,459.64980959999957,459.64980959999957,42,79,47,63,79,70,459.64980959999957,461.18455499998527,,,,,,,,,,,,３４４,f,２２,2023-05-21_17h06.50.632,RL,2022.2.5,60.03125227378725,
44,80,60,47,0,73,73,73,,,,,,,,None,461.18455499998527,461.18455499998527,461.18455499998527,461.18455499998527,461.18455499998527,461.18455499998527,r,0.413992000016151,461.6196776999859,461.6196776999859,461.6196776999859,461.6196776999859,461.6196776999859,461.6196776999859,461.9179599999916,463.7342578000098,463.7342578000098,463.7342578000098,463.7342578000098,463.7342578000098,463.7342578000098,463.7342578000098,463.7342578000098,463.7342578000098,463.7342578000098,463.7342578000098,463.7342578000098,463.7342578000098,463.7342578000098,465.84885740000755,465.84885740000755,465.84885740000755,465.84885740000755,465.84885740000755,465.84885740000755,465.84885740000755,44,80,47,60,80,70,465.84885740000755,467.64982849999797,,,,,,,,,,,,３４４,f,２２,2023-05-21_17h06.50.632,RL,2022.2.5,60.03125227378725,
47,64,60,46,0,74,74,74,,,,,,,,None,467.64982849999797,467.64982849999797,467.64982849999797,467.64982849999797,467.64982849999797,467.64982849999797,r,0.4024986000149511,468.0837147999846,468.0837147999846,468.0837147999846,468.0837147999846,468.0837147999846,468.0837147999846,468.3671173999901,470.1170828999893,470.13342739999644,470.13342739999644,470.13342739999644,470.13342739999644,470.13342739999644,470.13342739999644,470.13342739999644,470.13342739999644,470.13342739999644,470.13342739999644,470.13342739999644,470.13342739999644,470.13342739999644,472.18102550000185,472.18102550000185,472.18102550000185,472.18102550000185,472.18102550000185,472.18102550000185,472.18102550000185,47,64,46,60,64,70,472.18102550000185,473.69784660000005,,,,,,,,,,,,３４４,f,２２,2023-05-21_17h06.50.632,RL,2022.2.5,60.03125227378725,
46,77,59,49,0,75,75,75,,,,,,,,q,491.11266169999726,491.11266169999726,491.11266169999726,491.11266169999726,491.11266169999726,491.11266169999726,f,0.6843877999926917,491.841512199986,491.841512199986,491.841512199986,491.841512199986,491.841512199986,491.841512199986,492.1128144999966,493.29610849998426,493.3291950999992,493.3291950999992,493.3291950999992,493.3291950999992,493.3291950999992,493.3291950999992,493.3291950999992,493.3291950999992,493.3291950999992,493.3291950999992,493.3291950999992,493.3291950999992,493.3291950999992,494.81040729998494,494.81040729998494,494.81040729998494,494.81040729998494,494.81040729998494,494.81040729998494,494.81040729998494,46,77,49,59,46,70,494.81040729998494,496.7783446999965,473.69784660000005,473.69784660000005,12.374187400011579,486.09734020000906,486.09734020000906,491.11266169999726,491.11266169999726,,,,,３４４,f,２２,2023-05-21_17h06.50.632,RL,2022.2.5,60.03125227378725,
39,70,65,51,0,76,76,76,,,,,,,,None,496.7783446999965,496.7783446999965,496.7783446999965,496.7783446999965,496.7783446999965,496.7783446999965,i,0.6216840000124648,497.4300062999828,497.4300062999828,497.4300062999828,497.4300062999828,497.4300062999828,497.4300062999828,497.71163390000584,499.3111695999978,499.32809329999145,499.32809329999145,499.32809329999145,499.32809329999145,499.32809329999145,499.32809329999145,499.32809329999145,499.32809329999145,499.32809329999145,499.32809329999145,499.32809329999145,499.32809329999145,499.32809329999145,501.22594269999536,501.22594269999536,501.22594269999536,501.22594269999536,501.22594269999536,501.22594269999536,501.22594269999536,39,70,51,65,51,70,501.22594269999536,503.17737769999076,,,,,,,,,,,,３４４,f,２２,2023-05-21_17h06.50.632,RL,2022.2.5,60.03125227378725,
31,77,66,52,0,77,77,77,,,,,,,,None,503.17737769999076,503.17737769999076,503.17737769999076,503.17737769999076,503.17737769999076,503.17737769999076,r,0.43590900002163835,503.6443997999886,503.6443997999886,503.6443997999886,503.6443997999886,503.6443997999886,503.6443997999886,503.92776789999334,504.7437121999974,504.76050989999203,504.76050989999203,504.76050989999203,504.76050989999203,504.76050989999203,504.76050989999203,504.76050989999203,504.76050989999203,504.76050989999203,504.76050989999203,504.76050989999203,504.76050989999203,504.76050989999203,505.87524570000824,505.87524570000824,505.87524570000824,505.87524570000824,505.87524570000824,505.87524570000824,505.87524570000824,31,77,52,66,77,70,505.87524570000824,507.40963740000734,,,,,,,,,,,,３４４,f,２２,2023-05-21_17h06.50.632,RL,2022.2.5,60.03125227378725,
34,66,57,49,0,78,78,78,,,,,,,,None,507.40963740000734,507.40963740000734,507.40963740000734,507.40963740000734,507.40963740000734,507.40963740000734,r,0.39395989998592995,507.82734610000625,507.82734610000625,507.82734610000625,507.82734610000625,507.82734610000625,507.82734610000625,508.1264615999826,509.8262071000063,509.8262071000063,509.8262071000063,509.8262071000063,509.8262071000063,509.8262071000063,509.8262071000063,509.8262071000063,509.8262071000063,509.8262071000063,509.8262071000063,509.8262071000063,509.8262071000063,509.8262071000063,511.82447479999973,511.82447479999973,511.82447479999973,511.82447479999973,511.82447479999973,511.82447479999973,511.82447479999973,34,66,49,57,66,70,511.82447479999973,513.8253317000053,,,,,,,,,,,,３４４,f,２２,2023-05-21_17h06.50.632,RL,2022.2.5,60.03125227378725,
32,62,58,49,0,79,79,79,,,,,,,,None,513.8253317000053,513.8253317000053,513.8253317000053,513.8253317000053,513.8253317000053,513.8253317000053,r,0.4140229000186082,514.2604682999954,514.2604682999954,514.2604682999954,514.2604682999954,514.2604682999954,514.2604682999954,514.5425772999879,515.5755143999995,515.5919703999825,515.5919703999825,515.5919703999825,515.5919703999825,515.5919703999825,515.5919703999825,515.5919703999825,515.5919703999825,515.5919703999825,515.5919703999825,515.5919703999825,515.5919703999825,515.5919703999825,516.9233338999911,516.9233338999911,516.9233338999911,516.9233338999911,516.9233338999911,516.9233338999911,516.9233338999911,32,62,49,58,62,70,516.9233338999911,518.8412838999939,,,,,,,,,,,,３４４,f,２２,2023-05-21_17h06.50.632,RL,2022.2.5,60.03125227378725,
28,65,61,57,0,80,80,80,,,,,,,,None,518.8412838999939,518.8412838999939,518.8412838999939,518.8412838999939,518.8412838999939,518.8412838999939,j,0.3951346999965608,519.2582203999918,519.2582203999918,519.2582203999918,519.2582203999918,519.2582203999918,519.2582203999918,519.5411470999825,521.0912077999965,521.1076517000038,521.1076517000038,521.1076517000038,521.1076517000038,521.1076517000038,521.1076517000038,521.1076517000038,521.1076517000038,521.1076517000038,521.1076517000038,521.1076517000038,521.1076517000038,521.1076517000038,522.9553133999871,522.9553133999871,522.9553133999871,522.9553133999871,522.9553133999871,522.9553133999871,522.9553133999871,28,65,57,61,61,70,522.9553133999871,524.7569103999995,,,,,,,,,,,,３４４,f,２２,2023-05-21_17h06.50.632,RL,2022.2.5,60.03125227378725,
31,58,51,51,0,81,81,81,,,,,,,,None,524.7569103999995,524.7569103999995,524.7569103999995,524.7569103999995,524.7569103999995,524.7569103999995,j,0.45734799999627285,525.2404084999871,525.2404084999871,525.2404084999871,525.2404084999871,525.2404084999871,525.2404084999871,525.5402784000034,526.4569173000054,526.4569173000054,526.4569173000054,526.4569173000054,526.4569173000054,526.4569173000054,526.4569173000054,526.4569173000054,526.4569173000054,526.4569173000054,526.4569173000054,526.4569173000054,526.4569173000054,526.4569173000054,527.6720752999827,527.6720752999827,527.6720752999827,527.6720752999827,527.6720752999827,527.6720752999827,527.6720752999827,31,58,51,51,51,70,527.6720752999827,529.3558407000091,,,,,,,,,,,,３４４,f,２２,2023-05-21_17h06.50.632,RL,2022.2.5,60.03125227378725,
33,70,50,59,0,82,82,82,,,,,,,,None,529.3558407000091,529.3558407000091,529.3558407000091,529.3558407000091,529.3558407000091,529.3558407000091,j,0.5102436000015587,529.8896043999994,529.8896043999994,529.8896043999994,529.8896043999994,529.8896043999994,529.8896043999994,530.1725548999966,531.9391172000032,531.9558303999947,531.9558303999947,531.9558303999947,531.9558303999947,531.9558303999947,531.9558303999947,531.9558303999947,531.9558303999947,531.9558303999947,531.9558303999947,531.9558303999947,531.9558303999947,531.9558303999947,534.0202635999885,534.0202635999885,534.0202635999885,534.0202635999885,534.0202635999885,534.0202635999885,534.0202635999885,33,70,59,50,50,70,534.0202635999885,535.6877761000069,,,,,,,,,,,,３４４,f,２２,2023-05-21_17h06.50.632,RL,2022.2.5,60.03125227378725,
40,68,54,44,0,83,83,83,,,,,,,,None,535.6877761000069,535.6877761000069,535.6877761000069,535.6877761000069,535.6877761000069,535.6877761000069,r,0.3134818999969866,536.0221396999841,536.0221396999841,536.0221396999841,536.0221396999841,536.0221396999841,536.0221396999841,536.32162100001,538.2383545000048,538.2383545000048,538.2383545000048,538.2383545000048,538.2383545000048,538.2383545000048,538.2383545000048,538.2383545000048,538.2383545000048,538.2383545000048,538.2383545000048,538.2383545000048,538.2383545000048,538.2383545000048,540.4524002999824,540.4524002999824,540.4524002999824,540.4524002999824,540.4524002999824,540.4524002999824,540.4524002999824,40,68,44,54,68,70,540.4524002999824,542.2703712999937,,,,,,,,,,,,３４４,f,２２,2023-05-21_17h06.50.632,RL,2022.2.5,60.03125227378725,
31,68,56,36,0,84,84,84,,,,,,,,None,542.2703712999937,542.2703712999937,542.2703712999937,542.2703712999937,542.2703712999937,542.2703712999937,r,0.33381730000837706,542.6208655000082,542.6208655000082,542.6208655000082,542.6208655000082,542.6208655000082,542.6208655000082,542.904595400003,543.9208142999851,543.9370424000081,543.9370424000081,543.9370424000081,543.9370424000081,543.9370424000081,543.9370424000081,543.9370424000081,543.9370424000081,543.9370424000081,543.9370424000081,543.9370424000081,543.9370424000081,543.9370424000081,545.2520516999939,545.2520516999939,545.2520516999939,545.2520516999939,545.2520516999939,545.2520516999939,545.2520516999939,31,68,36,56,68,70,545.2520516999939,547.2531411999953,,,,,,,,,,,,３４４,f,２２,2023-05-21_17h06.50.632,RL,2022.2.5,60.03125227378725,
31,58,44,40,0,85,85,85,,,,,,,,None,547.2531411999953,547.2531411999953,547.2531411999953,547.2531411999953,547.2531411999953,547.2531411999953,r,0.31958749998011626,547.6075345999852,547.6075345999852,547.6075345999852,547.6075345999852,547.6075345999852,547.6075345999852,547.8863743999973,549.7868179999932,549.802987300005,549.802987300005,549.802987300005,549.802987300005,549.802987300005,549.802987300005,549.802987300005,549.802987300005,549.802987300005,549.802987300005,549.802987300005,549.802987300005,549.802987300005,552.0004387999943,552.0004387999943,552.0004387999943,552.0004387999943,552.0004387999943,552.0004387999943,552.0004387999943,31,58,40,44,58,70,552.0004387999943,553.8352513999853,,,,,,,,,,,,３４４,f,２２,2023-05-21_17h06.50.632,RL,2022.2.5,60.03125227378725,
41,59,53,40,0,86,86,86,,,,,,,,None,553.8352513999853,553.8352513999853,553.8352513999853,553.8352513999853,553.8352513999853,553.8352513999853,r,0.4050248999847099,554.2688750000088,554.2688750000088,554.2688750000088,554.2688750000088,554.2688750000088,554.2688750000088,554.5521668999863,555.4683850999863,555.4851650999917,555.4851650999917,555.4851650999917,555.4851650999917,555.4851650999917,555.4851650999917,555.4851650999917,555.4851650999917,555.4851650999917,555.4851650999917,555.4851650999917,555.4851650999917,555.4851650999917,556.7001705000002,556.7001705000002,556.7001705000002,556.7001705000002,556.7001705000002,556.7001705000002,556.7001705000002,41,59,40,53,59,70,556.7001705000002,558.35087200001,,,,,,,,,,,,３４４,f,２２,2023-05-21_17h06.50.632,RL,2022.2.5,60.03125227378725,
31,59,54,42,0,87,87,87,,,,,,,,None,558.35087200001,558.35087200001,558.35087200001,558.35087200001,558.35087200001,558.35087200001,r,0.6857038999733049,559.0692810000037,559.0692810000037,559.0692810000037,559.0692810000037,559.0692810000037,559.0692810000037,559.3509141000104,561.1172726000077,561.1338423999841,561.1338423999841,561.1338423999841,561.1338423999841,561.1338423999841,561.1338423999841,561.1338423999841,561.1338423999841,561.1338423999841,561.1338423999841,561.1338423999841,561.1338423999841,561.1338423999841,563.1987925999856,563.1987925999856,563.1987925999856,563.1987925999856,563.1987925999856,563.1987925999856,563.1987925999856,31,59,42,54,59,70,563.1987925999856,565.2001530999842,,,,,,,,,,,,３４４,f,２２,2023-05-21_17h06.50.632,RL,2022.2.5,60.03125227378725,
37,54,47,48,0,88,88,88,,,,,,,,None,565.2001530999842,565.2001530999842,565.2001530999842,565.2001530999842,565.2001530999842,565.2001530999842,r,0.4969159000029322,565.7167950999865,565.7167950999865,565.7167950999865,565.7167950999865,565.7167950999865,565.7167950999865,566.0005323000078,567.5496292999887,567.5667269999976,567.5667269999976,567.5667269999976,567.5667269999976,567.5667269999976,567.5667269999976,567.5667269999976,567.5667269999976,567.5667269999976,567.5667269999976,567.5667269999976,567.5667269999976,567.5667269999976,569.4141567999905,569.4141567999905,569.4141567999905,569.4141567999905,569.4141567999905,569.4141567999905,569.4141567999905,37,54,48,47,54,70,569.4141567999905,571.4152762999875,,,,,,,,,,,,３４４,f,２２,2023-05-21_17h06.50.632,RL,2022.2.5,60.03125227378725,
46,61,46,41,0,89,89,89,,,,,,,,None,571.4152762999875,571.4152762999875,571.4152762999875,571.4152762999875,571.4152762999875,571.4152762999875,r,0.5363109999743756,571.9824874000042,571.9824874000042,571.9824874000042,571.9824874000042,571.9824874000042,571.9824874000042,572.2656206999964,573.0822894999874,573.0990466999938,573.0990466999938,573.0990466999938,573.0990466999938,573.0990466999938,573.0990466999938,573.0990466999938,573.0990466999938,573.0990466999938,573.0990466999938,573.0990466999938,573.0990466999938,573.0990466999938,574.2134046999854,574.2134046999854,574.2134046999854,574.2134046999854,574.2134046999854,574.2134046999854,574.2134046999854,46,61,41,46,61,70,574.2134046999854,575.8480835999944,,,,,,,,,,,,３４４,f,２２,2023-05-21_17h06.50.632,RL,2022.2.5,60.03125227378725,
47,71,48,39,0,90,90,90,,,,,,,,None,575.8480835999944,575.8480835999944,575.8480835999944,575.8480835999944,575.8480835999944,575.8480835999944,r,0.7907857000245713,576.6667908999952,576.6667908999952,576.6667908999952,576.6667908999952,576.6667908999952,576.6667908999952,576.9646247999917,578.3813771999849,578.3813771999849,578.3813771999849,578.3813771999849,578.3813771999849,578.3813771999849,578.3813771999849,578.3813771999849,578.3813771999849,578.3813771999849,578.3813771999849,578.3813771999849,578.3813771999849,578.3813771999849,580.0959490000096,580.0959490000096,580.0959490000096,580.0959490000096,580.0959490000096,580.0959490000096,580.0959490000096,47,71,39,48,71,70,580.0959490000096,581.9638190999976,,,,,,,,,,,,３４４,f,２２,2023-05-21_17h06.50.632,RL,2022.2.5,60.03125227378725,
47,68,54,40,0,91,91,91,,,,,,,,None,581.9638190999976,581.9638190999976,581.9638190999976,581.9638190999976,581.9638190999976,581.9638190999976,r,0.5794785000034608,582.563779899996,582.563779899996,582.563779899996,582.563779899996,582.563779899996,582.563779899996,582.8468360999832,584.2131682999898,584.2298444999906,584.2298444999906,584.2298444999906,584.2298444999906,584.2298444999906,584.2298444999906,584.2298444999906,584.2298444999906,584.2298444999906,584.2298444999906,584.2298444999906,584.2298444999906,584.2298444999906,585.894741199998,585.894741199998,585.894741199998,585.894741199998,585.894741199998,585.894741199998,585.894741199998,47,68,40,54,68,70,585.894741199998,587.5955531999934,,,,,,,,,,,,３４４,f,２２,2023-05-21_17h06.50.632,RL,2022.2.5,60.03125227378725,
41,63,53,47,0,92,92,92,,,,,,,,None,587.5955531999934,587.5955531999934,587.5955531999934,587.5955531999934,587.5955531999934,587.5955531999934,r,0.41684769999119453,588.0485658000107,588.0485658000107,588.0485658000107,588.0485658000107,588.0485658000107,588.0485658000107,588.3294423999905,589.7294587999932,589.7455938000057,589.7455938000057,589.7455938000057,589.7455938000057,589.7455938000057,589.7455938000057,589.7455938000057,589.7455938000057,589.7455938000057,589.7455938000057,589.7455938000057,589.7455938000057,589.7455938000057,591.4436071999953,591.4436071999953,591.4436071999953,591.4436071999953,591.4436071999953,591.4436071999953,591.4436071999953,41,63,47,53,63,70,591.4436071999953,593.211609799997,,,,,,,,,,,,３４４,f,２２,2023-05-21_17h06.50.632,RL,2022.2.5,60.03125227378725,
42,56,55,40,0,93,93,93,,,,,,,,None,593.211609799997,593.211609799997,593.211609799997,593.211609799997,593.211609799997,593.211609799997,r,0.6305625000095461,593.8618789000029,593.8618789000029,593.8618789000029,593.8618789000029,593.8618789000029,593.8618789000029,594.1450271999929,595.411814799998,595.428258800006,595.428258800006,595.428258800006,595.428258800006,595.428258800006,595.428258800006,595.428258800006,595.428258800006,595.428258800006,595.428258800006,595.428258800006,595.428258800006,595.428258800006,596.9929625999939,596.9929625999939,596.9929625999939,596.9929625999939,596.9929625999939,596.9929625999939,596.9929625999939,42,56,40,55,56,70,596.9929625999939,598.6108252999838,,,,,,,,,,,,３４４,f,２２,2023-05-21_17h06.50.632,RL,2022.2.5,60.03125227378725,
48,61,54,51,0,94,94,94,,,,,,,,None,598.6108252999838,598.6108252999838,598.6108252999838,598.6108252999838,598.6108252999838,598.6108252999838,j,1.150211100000888,599.7985685000021,599.7985685000021,599.7985685000021,599.7985685000021,599.7985685000021,599.7985685000021,600.0772578000033,601.1775943999819,601.1940433999989,601.1940433999989,601.1940433999989,601.1940433999989,601.1940433999989,601.1940433999989,601.1940433999989,601.1940433999989,601.1940433999989,601.1940433999989,601.1940433999989,601.1940433999989,601.1940433999989,602.5915000000095,602.5915000000095,602.5915000000095,602.5915000000095,602.5915000000095,602.5915000000095,602.5915000000095,48,61,51,54,54,70,602.5915000000095,604.5430981999962,,,,,,,,,,,,３４４,f,２２,2023-05-21_17h06.50.632,RL,2022.2.5,60.03125227378725,
36,63,60,51,0,95,95,95,,,,,,,,None,604.5430981999962,604.5430981999962,604.5430981999962,604.5430981999962,604.5430981999962,604.5430981999962,r,0.9709902000031434,605.5446370999853,605.5446370999853,605.5446370999853,605.5446370999853,605.5446370999853,605.5446370999853,605.8428338000085,607.7592923000047,607.7592923000047,607.7592923000047,607.7592923000047,607.7592923000047,607.7592923000047,607.7592923000047,607.7592923000047,607.7592923000047,607.7592923000047,607.7592923000047,607.7592923000047,607.7592923000047,607.7592923000047,609.973823599983,609.973823599983,609.973823599983,609.973823599983,609.973823599983,609.973823599983,609.973823599983,36,63,51,60,63,70,609.973823599983,611.7750420999946,,,,,,,,,,,,３４４,f,２２,2023-05-21_17h06.50.632,RL,2022.2.5,60.03125227378725,
35,57,51,46,0,96,96,96,,,,,,,,None,611.7750420999946,611.7750420999946,611.7750420999946,611.7750420999946,611.7750420999946,611.7750420999946,r,0.5397896000067703,612.3420709999918,612.3420709999918,612.3420709999918,612.3420709999918,612.3420709999918,612.3420709999918,612.6250466000056,614.1252198999864,614.1419828000071,614.1419828000071,614.1419828000071,614.1419828000071,614.1419828000071,614.1419828000071,614.1419828000071,614.1419828000071,614.1419828000071,614.1419828000071,614.1419828000071,614.1419828000071,614.1419828000071,615.9397810999944,615.9397810999944,615.9397810999944,615.9397810999944,615.9397810999944,615.9397810999944,615.9397810999944,35,57,46,51,57,70,615.9397810999944,617.4572899999912,,,,,,,,,,,,３４４,f,２２,2023-05-21_17h06.50.632,RL,2022.2.5,60.03125227378725,
42,62,55,51,0,97,97,97,,,,,,,,None,617.4572899999912,617.4572899999912,617.4572899999912,617.4572899999912,617.4572899999912,617.4572899999912,r,0.5785719999985304,618.0575070999912,618.0575070999912,618.0575070999912,618.0575070999912,618.0575070999912,618.0575070999912,618.357663200004,619.7576106000051,619.7576106000051,619.7576106000051,619.7576106000051,619.7576106000051,619.7576106000051,619.7576106000051,619.7576106000051,619.7576106000051,619.7576106000051,619.7576106000051,619.7576106000051,619.7576106000051,619.7576106000051,621.4551550000033,621.4551550000033,621.4551550000033,621.4551550000033,621.4551550000033,621.4551550000033,621.4551550000033,42,62,51,55,62,70,621.4551550000033,623.4065139000013,,,,,,,,,,,,３４４,f,２２,2023-05-21_17h06.50.632,RL,2022.2.5,60.03125227378725,
32,58,52,49,0,98,98,98,,,,,,,,None,623.4065139000013,623.4065139000013,623.4065139000013,623.4065139000013,623.4065139000013,623.4065139000013,r,0.5054500000260305,623.9400890999823,623.9400890999823,623.9400890999823,623.9400890999823,623.9400890999823,623.9400890999823,624.2397612000059,625.88953819999,625.88953819999,625.88953819999,625.88953819999,625.88953819999,625.88953819999,625.88953819999,625.88953819999,625.88953819999,625.88953819999,625.88953819999,625.88953819999,625.88953819999,625.88953819999,627.8372583999881,627.8372583999881,627.8372583999881,627.8372583999881,627.8372583999881,627.8372583999881,627.8372583999881,32,58,49,52,58,70,627.8372583999881,629.838148299983,,,,,,,,,,,,３４４,f,２２,2023-05-21_17h06.50.632,RL,2022.2.5,60.03125227378725,
32,57,58,50,0,99,99,99,,,,,,,,None,629.838148299983,629.838148299983,629.838148299983,629.838148299983,629.838148299983,629.838148299983,r,0.3838627000222914,630.2390493999992,630.2390493999992,630.2390493999992,630.2390493999992,630.2390493999992,630.2390493999992,630.5386469000077,631.521910099982,631.521910099982,631.521910099982,631.521910099982,631.521910099982,631.521910099982,631.521910099982,631.521910099982,631.521910099982,631.521910099982,631.521910099982,631.521910099982,631.521910099982,631.521910099982,632.8031094000034,632.8031094000034,632.8031094000034,632.8031094000034,632.8031094000034,632.8031094000034,632.8031094000034,32,57,50,58,57,70,632.8031094000034,634.6544593999861,,,,,,,,,,,,３４４,f,２２,2023-05-21_17h06.50.632,RL,2022.2.5,60.03125227378725,
42,48,70,55,0,100,100,100,,,,,,,,None,634.6544593999861,634.6544593999861,634.6544593999861,634.6544593999861,634.6544593999861,634.6544593999861,j,0.3678749999962747,635.0604239999957,635.0604239999957,635.0604239999957,635.0604239999957,635.0604239999957,635.0604239999957,635.3382631999848,636.3378857999924,636.3542893999838,636.3542893999838,636.3542893999838,636.3542893999838,636.3542893999838,636.3542893999838,636.3542893999838,636.3542893999838,636.3542893999838,636.3542893999838,636.3542893999838,636.3542893999838,636.3542893999838,637.6525133999821,637.6525133999821,637.6525133999821,637.6525133999821,637.6525133999821,637.6525133999821,637.6525133999821,42,48,55,70,70,70,637.6525133999821,639.1867093000037,,,,,,,,,,,,３４４,f,２２,2023-05-21_17h06.50.632,RL,2022.2.5,60.03125227378725,
46,53,61,59,0,101,101,101,,,,,,,,None,639.1867093000037,639.1867093000037,639.1867093000037,639.1867093000037,639.1867093000037,639.1867093000037,j,0.3487186999991536,639.5538780000061,639.5538780000061,639.5538780000061,639.5538780000061,639.5538780000061,639.5538780000061,639.8370746999863,640.970391299983,640.9868995999859,640.9868995999859,640.9868995999859,640.9868995999859,640.9868995999859,640.9868995999859,640.9868995999859,640.9868995999859,640.9868995999859,640.9868995999859,640.9868995999859,640.9868995999859,640.9868995999859,642.4181304000085,642.4181304000085,642.4181304000085,642.4181304000085,642.4181304000085,642.4181304000085,642.4181304000085,46,53,59,61,61,70,642.4181304000085,644.2859439000022,,,,,,,,,,,,３４４,f,２２,2023-05-21_17h06.50.632,RL,2022.2.5,60.03125227378725,
38,55,63,59,0,102,102,102,,,,,,,,None,644.2859439000022,644.2859439000022,644.2859439000022,644.2859439000022,644.2859439000022,644.2859439000022,j,0.33198109999648295,644.6363269999856,644.6363269999856,644.6363269999856,644.6363269999856,644.6363269999856,644.6363269999856,644.9198566999985,645.8693630000053,645.8859722999914,645.8859722999914,645.8859722999914,645.8859722999914,645.8859722999914,645.8859722999914,645.8859722999914,645.8859722999914,645.8859722999914,645.8859722999914,645.8859722999914,645.8859722999914,645.8859722999914,647.1340275999974,647.1340275999974,647.1340275999974,647.1340275999974,647.1340275999974,647.1340275999974,647.1340275999974,38,55,59,63,63,70,647.1340275999974,649.1185208999959,,,,,,,,,,,,３４４,f,２２,2023-05-21_17h06.50.632,RL,2022.2.5,60.03125227378725,
34,65,60,53,0,103,103,103,,,,,,,,None,649.1185208999959,649.1185208999959,649.1185208999959,649.1185208999959,649.1185208999959,649.1185208999959,j,0.7347681000246666,649.890567800001,649.890567800001,649.890567800001,649.890567800001,649.890567800001,649.890567800001,650.1852521999972,651.4354643999832,651.4517047999834,651.4517047999834,651.4517047999834,651.4517047999834,651.4517047999834,651.4517047999834,651.4517047999834,651.4517047999834,651.4517047999834,651.4517047999834,651.4517047999834,651.4517047999834,651.4517047999834,652.9994847000053,652.9994847000053,652.9994847000053,652.9994847000053,652.9994847000053,652.9994847000053,652.9994847000053,34,65,53,60,60,70,652.9994847000053,654.6506858000066,,,,,,,,,,,,３４４,f,２２,2023-05-21_17h06.50.632,RL,2022.2.5,60.03125227378725,
28,58,56,68,0,104,104,104,,,,,,,,None,654.6506858000066,654.6506858000066,654.6506858000066,654.6506858000066,654.6506858000066,654.6506858000066,j,0.33916219999082386,655.019060599996,655.019060599996,655.019060599996,655.019060599996,655.019060599996,655.019060599996,655.3011549999937,656.1509319999896,656.1675106000039,656.1675106000039,656.1675106000039,656.1675106000039,656.1675106000039,656.1675106000039,656.1675106000039,656.1675106000039,656.1675106000039,656.1675106000039,656.1675106000039,656.1675106000039,656.1675106000039,657.3152629999968,657.3152629999968,657.3152629999968,657.3152629999968,657.3152629999968,657.3152629999968,657.3152629999968,28,58,68,56,56,70,657.3152629999968,658.9670048999833,,,,,,,,,,,,３４４,f,２２,2023-05-21_17h06.50.632,RL,2022.2.5,60.03125227378725,
25,51,57,58,0,105,105,105,,,,,,,,None,658.9670048999833,658.9670048999833,658.9670048999833,658.9670048999833,658.9670048999833,658.9670048999833,r,0.4532795999839436,659.4507119999907,659.4507119999907,659.4507119999907,659.4507119999907,659.4507119999907,659.4507119999907,659.7333940000099,661.2667661999876,661.2830746000109,661.2830746000109,661.2830746000109,661.2830746000109,661.2830746000109,661.2830746000109,661.2830746000109,661.2830746000109,661.2830746000109,661.2830746000109,661.2830746000109,661.2830746000109,661.2830746000109,663.1149012999958,663.1149012999958,663.1149012999958,663.1149012999958,663.1149012999958,663.1149012999958,663.1149012999958,25,51,58,57,51,70,663.1149012999958,664.9490596999822,,,,,,,,,,,,３４４,f,２２,2023-05-21_17h06.50.632,RL,2022.2.5,60.03125227378725,
31,59,61,62,0,106,106,106,,,,,,,,None,664.9490596999822,664.9490596999822,664.9490596999822,664.9490596999822,664.9490596999822,664.9490596999822,j,0.30507329999818467,665.2829171000049,665.2829171000049,665.2829171000049,665.2829171000049,665.2829171000049,665.2829171000049,665.5659136000031,666.6155693999899,666.6325010999863,666.6325010999863,666.6325010999863,666.6325010999863,666.6325010999863,666.6325010999863,666.6325010999863,666.6325010999863,666.6325010999863,666.6325010999863,666.6325010999863,666.6325010999863,666.6325010999863,667.9809387999994,667.9809387999994,667.9809387999994,667.9809387999994,667.9809387999994,667.9809387999994,667.9809387999994,31,59,62,61,61,70,667.9809387999994,669.5979215999832,,,,,,,,,,,,３４４,f,２２,2023-05-21_17h06.50.632,RL,2022.2.5,60.03125227378725,
33,56,59,55,0,107,107,107,,,,,,,,None,669.5979215999832,669.5979215999832,669.5979215999832,669.5979215999832,669.5979215999832,669.5979215999832,j,0.39433109998935834,670.0162751000025,670.0162751000025,670.0162751000025,670.0162751000025,670.0162751000025,670.0162751000025,670.298510099994,671.8482335000008,671.8646724999999,671.8646724999999,671.8646724999999,671.8646724999999,671.8646724999999,671.8646724999999,671.8646724999999,671.8646724999999,671.8646724999999,671.8646724999999,671.8646724999999,671.8646724999999,671.8646724999999,673.712386500003,673.712386500003,673.712386500003,673.712386500003,673.712386500003,673.712386500003,673.712386500003,33,56,55,59,59,70,673.712386500003,675.2807044000074,,,,,,,,,,,,３４４,f,２２,2023-05-21_17h06.50.632,RL,2022.2.5,60.03125227378725,
38,64,62,62,0,108,108,108,,,,,,,,None,675.2807044000074,675.2807044000074,675.2807044000074,675.2807044000074,675.2807044000074,675.2807044000074,j,0.5663460000068881,675.8641239999852,675.8641239999852,675.8641239999852,675.8641239999852,675.8641239999852,675.8641239999852,676.1642287999857,677.4969096999848,677.4969096999848,677.4969096999848,677.4969096999848,677.4969096999848,677.4969096999848,677.4969096999848,677.4969096999848,677.4969096999848,677.4969096999848,677.4969096999848,677.4969096999848,677.4969096999848,677.4969096999848,679.1284394999966,679.1284394999966,679.1284394999966,679.1284394999966,679.1284394999966,679.1284394999966,679.1284394999966,38,64,62,62,62,70,679.1284394999966,681.1129728000087,,,,,,,,,,,,３４４,f,２２,2023-05-21_17h06.50.632,RL,2022.2.5,60.03125227378725,
33,63,45,57,0,109,109,109,,,,,,,,None,681.1129728000087,681.1129728000087,681.1129728000087,681.1129728000087,681.1129728000087,681.1129728000087,j,0.3183878999843728,681.4680245000054,681.4680245000054,681.4680245000054,681.4680245000054,681.4680245000054,681.4680245000054,681.7464916000026,683.2963735999947,683.3294452999835,683.3294452999835,683.3294452999835,683.3294452999835,683.3294452999835,683.3294452999835,683.3294452999835,683.3294452999835,683.3294452999835,683.3294452999835,683.3294452999835,683.3294452999835,683.3294452999835,685.1779725000088,685.1779725000088,685.1779725000088,685.1779725000088,685.1779725000088,685.1779725000088,685.1779725000088,33,63,57,45,45,70,685.1779725000088,687.1285700000008,,,,,,,,,,,,３４４,f,２２,2023-05-21_17h06.50.632,RL,2022.2.5,60.03125227378725,
25,66,54,57,0,110,110,110,,,,,,,,None,687.1285700000008,687.1285700000008,687.1285700000008,687.1285700000008,687.1285700000008,687.1285700000008,j,0.3073329000035301,687.4622536000097,687.4622536000097,687.4622536000097,687.4622536000097,687.4622536000097,687.4622536000097,687.762226699997,688.7618794000009,688.7618794000009,688.7618794000009,688.7618794000009,688.7618794000009,688.7618794000009,688.7618794000009,688.7618794000009,688.7618794000009,688.7618794000009,688.7618794000009,688.7618794000009,688.7618794000009,688.7618794000009,690.0602321999904,690.0602321999904,690.0602321999904,690.0602321999904,690.0602321999904,690.0602321999904,690.0602321999904,25,66,57,54,54,70,690.0602321999904,691.744426899997,,,,,,,,,,,,３４４,f,２２,2023-05-21_17h06.50.632,RL,2022.2.5,60.03125227378725,
26,68,54,58,0,111,111,111,,,,,,,,None,691.744426899997,691.744426899997,691.744426899997,691.744426899997,691.744426899997,691.744426899997,j,0.2965204000065569,692.0624775000033,692.0624775000033,692.0624775000033,692.0624775000033,692.0624775000033,692.0624775000033,692.3609724999988,693.4444045999844,693.4444045999844,693.4444045999844,693.4444045999844,693.4444045999844,693.4444045999844,693.4444045999844,693.4444045999844,693.4444045999844,693.4444045999844,693.4444045999844,693.4444045999844,693.4444045999844,693.4444045999844,694.8260034999985,694.8260034999985,694.8260034999985,694.8260034999985,694.8260034999985,694.8260034999985,694.8260034999985,26,68,58,54,54,70,694.8260034999985,696.7434631999931,,,,,,,,,,,,３４４,f,２２,2023-05-21_17h06.50.632,RL,2022.2.5,60.03125227378725,
24,55,58,59,0,112,112,112,,,,,,,,None,696.7434631999931,696.7434631999931,696.7434631999931,696.7434631999931,696.7434631999931,696.7434631999931,r,0.24604189998353831,697.0117048000102,697.0117048000102,697.0117048000102,697.0117048000102,697.0117048000102,697.0117048000102,697.3109874000074,698.5767754999979,698.5767754999979,698.5767754999979,698.5767754999979,698.5767754999979,698.5767754999979,698.5767754999979,698.5767754999979,698.5767754999979,698.5767754999979,698.5767754999979,698.5767754999979,698.5767754999979,698.5767754999979,700.1419183000107,700.1419183000107,700.1419183000107,700.1419183000107,700.1419183000107,700.1419183000107,700.1419183000107,24,55,59,58,55,70,700.1419183000107,701.9262355999963,,,,,,,,,,,,３４４,f,２２,2023-05-21_17h06.50.632,RL,2022.2.5,60.03125227378725,
22,54,67,54,0,113,113,113,,,,,,,,None,701.9262355999963,701.9262355999963,701.9262355999963,701.9262355999963,701.9262355999963,701.9262355999963,r,0.4270658000023104,702.376422900008,702.376422900008,702.376422900008,702.376422900008,702.376422900008,702.376422900008,702.6596122999908,703.6592566999898,703.6758714999887,703.6758714999887,703.6758714999887,703.6758714999887,703.6758714999887,703.6758714999887,703.6758714999887,703.6758714999887,703.6758714999887,703.6758714999887,703.6758714999887,703.6758714999887,703.6758714999887,704.9742321000085,704.9742321000085,704.9742321000085,704.9742321000085,704.9742321000085,704.9742321000085,704.9742321000085,22,54,54,67,54,70,704.9742321000085,706.9581644999853,,,,,,,,,,,,３４４,f,２２,2023-05-21_17h06.50.632,RL,2022.2.5,60.03125227378725,
28,55,48,55,0,114,114,114,,,,,,,,None,706.9581644999853,706.9581644999853,706.9581644999853,706.9581644999853,706.9581644999853,706.9581644999853,r,0.686024599999655,707.6782983999874,707.6782983999874,707.6782983999874,707.6782983999874,707.6782983999874,707.6782983999874,707.9591097999946,709.3254394999822,709.3415843999828,709.3415843999828,709.3415843999828,709.3415843999828,709.3415843999828,709.3415843999828,709.3415843999828,709.3415843999828,709.3415843999828,709.3415843999828,709.3415843999828,709.3415843999828,709.3415843999828,711.0063107000024,711.0063107000024,711.0063107000024,711.0063107000024,711.0063107000024,711.0063107000024,711.0063107000024,28,55,55,48,55,70,711.0063107000024,712.9745567000064,,,,,,,,,,,,３４４,f,２２,2023-05-21_17h06.50.632,RL,2022.2.5,60.03125227378725,
25,50,54,60,0,115,115,115,,,,,,,,None,712.9745567000064,712.9745567000064,712.9745567000064,712.9745567000064,712.9745567000064,712.9745567000064,j,0.5277278000139631,713.5242469999939,713.5242469999939,713.5242469999939,713.5242469999939,713.5242469999939,713.5242469999939,713.8074426999956,715.6740436999826,715.690480099991,715.690480099991,715.690480099991,715.690480099991,715.690480099991,715.690480099991,715.690480099991,715.690480099991,715.690480099991,715.690480099991,715.690480099991,715.690480099991,715.690480099991,717.8553070999915,717.8553070999915,717.8553070999915,717.8553070999915,717.8553070999915,717.8553070999915,717.8553070999915,25,50,60,54,54,70,717.8553070999915,719.5893030999869,,,,,,,,,,,,３４４,f,２２,2023-05-21_17h06.50.632,RL,2022.2.5,60.03125227378725,
34,47,59,51,0,116,116,116,,,,,,,,None,719.5893030999869,719.5893030999869,719.5893030999869,719.5893030999869,719.5893030999869,719.5893030999869,j,0.5092738999810535,720.1233346000081,720.1233346000081,720.1233346000081,720.1233346000081,720.1233346000081,720.1233346000081,720.4234486999922,721.8230675999948,721.8230675999948,721.8230675999948,721.8230675999948,721.8230675999948,721.8230675999948,721.8230675999948,721.8230675999948,721.8230675999948,721.8230675999948,721.8230675999948,721.8230675999948,721.8230675999948,721.8230675999948,723.5206677000097,723.5206677000097,723.5206677000097,723.5206677000097,723.5206677000097,723.5206677000097,723.5206677000097,34,47,51,59,59,70,723.5206677000097,725.1383741000027,,,,,,,,,,,,３４４,f,２２,2023-05-21_17h06.50.632,RL,2022.2.5,60.03125227378725,
35,50,68,52,0,117,117,117,,,,,,,,None,725.1383741000027,725.1383741000027,725.1383741000027,725.1383741000027,725.1383741000027,725.1383741000027,j,0.6056526000029407,725.7739856999833,725.7739856999833,725.7739856999833,725.7739856999833,725.7739856999833,725.7739856999833,726.0722816000052,726.9055736000009,726.9055736000009,726.9055736000009,726.9055736000009,726.9055736000009,726.9055736000009,726.9055736000009,726.9055736000009,726.9055736000009,726.9055736000009,726.9055736000009,726.9055736000009,726.9055736000009,726.9055736000009,728.0365859000012,728.0365859000012,728.0365859000012,728.0365859000012,728.0365859000012,728.0365859000012,728.0365859000012,35,50,52,68,68,70,728.0365859000012,729.9376522999955,,,,,,,,,,,,３４４,f,２２,2023-05-21_17h06.50.632,RL,2022.2.5,60.03125227378725,
39,53,60,52,0,118,118,118,,,,,,,,None,729.9376522999955,729.9376522999955,729.9376522999955,729.9376522999955,729.9376522999955,729.9376522999955,j,0.5752408000116702,730.5381033000012,730.5381033000012,730.5381033000012,730.5381033000012,730.5381033000012,730.5381033000012,730.8381474000053,732.6874575999973,732.6874575999973,732.6874575999973,732.6874575999973,732.6874575999973,732.6874575999973,732.6874575999973,732.6874575999973,732.6874575999973,732.6874575999973,732.6874575999973,732.6874575999973,732.6874575999973,732.6874575999973,734.8355558000039,734.8355558000039,734.8355558000039,734.8355558000039,734.8355558000039,734.8355558000039,734.8355558000039,39,53,52,60,60,70,734.8355558000039,736.5367467000033,,,,,,,,,,,,３４４,f,２２,2023-05-21_17h06.50.632,RL,2022.2.5,60.03125227378725,
29,57,59,55,0,119,119,119,,,,,,,,None,736.5367467000033,736.5367467000033,736.5367467000033,736.5367467000033,736.5367467000033,736.5367467000033,j,0.44195120001677424,737.0052397999971,737.0052397999971,737.0052397999971,737.0052397999971,737.0052397999971,737.0052397999971,737.2867564999906,738.9364675999968,738.9531587999954,738.9531587999954,738.9531587999954,738.9531587999954,738.9531587999954,738.9531587999954,738.9531587999954,738.9531587999954,738.9531587999954,738.9531587999954,738.9531587999954,738.9531587999954,738.9531587999954,740.900907800009,740.900907800009,740.900907800009,740.900907800009,740.900907800009,740.900907800009,740.900907800009,29,57,55,59,59,70,740.900907800009,742.652171099995,,,,,,,,,,,,３４４,f,２２,2023-05-21_17h06.50.632,RL,2022.2.5,60.03125227378725,
30,51,53,59,0,120,120,120,,,,,,,,None,742.652171099995,742.652171099995,742.652171099995,742.652171099995,742.652171099995,742.652171099995,j,0.6108733000000939,743.2885505000013,743.2885505000013,743.2885505000013,743.2885505000013,743.2885505000013,743.2885505000013,743.5691366000101,745.052013699984,745.0689281999948,745.0689281999948,745.0689281999948,745.0689281999948,745.0689281999948,745.0689281999948,745.0689281999948,745.0689281999948,745.0689281999948,745.0689281999948,745.0689281999948,745.0689281999948,745.0689281999948,746.8500018999912,746.8500018999912,746.8500018999912,746.8500018999912,746.8500018999912,746.8500018999912,746.8500018999912,30,51,59,53,53,70,746.8500018999912,748.8510806999984,,,,,,,,,,,,３４４,f,２２,2023-05-21_17h06.50.632,RL,2022.2.5,60.03125227378725,
29,56,54,55,0,121,121,121,,,,,,,,None,748.8510806999984,748.8510806999984,748.8510806999984,748.8510806999984,748.8510806999984,748.8510806999984,r,0.2848320000048261,749.1714960999961,749.1714960999961,749.1714960999961,749.1714960999961,749.1714960999961,749.1714960999961,749.4511824999936,750.5344516999903,750.5509721999988,750.5509721999988,750.5509721999988,750.5509721999988,750.5509721999988,750.5509721999988,750.5509721999988,750.5509721999988,750.5509721999988,750.5509721999988,750.5509721999988,750.5509721999988,750.5509721999988,751.9323784000007,751.9323784000007,751.9323784000007,751.9323784000007,751.9323784000007,751.9323784000007,751.9323784000007,29,56,55,54,56,70,751.9323784000007,753.5833293999895,,,,,,,,,,,,３４４,f,２２,2023-05-21_17h06.50.632,RL,2022.2.5,60.03125227378725,
