arm1,arm2,arm3,arm4,trials.thisRepN,trials.thisTrialN,trials.thisN,trials.thisIndex,instru_img1.started,instru_resp.started,instru_resp.keys,instru_resp.rt,image_2.started,text_2.started,image_2.stopped,text_2.stopped,fixbefore_2.started,fixbefore_2.stopped,rest_response.keys,red.started,green.started,yellow.started,blue.started,choose_bandit.started,Fixation.started,choose_bandit.keys,choose_bandit.rt,black.started,red_2.started,green_2.started,yellow_2.started,blue_2.started,fixation_2.started,docs.started,docs.stopped,black.stopped,red_2.stopped,green_2.stopped,yellow_2.stopped,blue_2.stopped,fixation_2.stopped,black_com.started,reward_sub.started,reward__sub.started,red_compare.started,green_com.started,yellow_com.started,blue_com.started,black_com.stopped,reward_sub.stopped,reward__sub.stopped,red_compare.stopped,green_com.stopped,yellow_com.stopped,blue_com.stopped,rewardred,rewardyellow,rewardblue,rewardgreen,subchoose,expectation,intertrialfix.started,intertrialfix.stopped,rest_image.started,rest_response.started,rest_response.rt,image_expect_after.started,text_exp_after.started,image_expect_after.stopped,text_exp_after.stopped,image.started,key_resp.started,key_resp.keys,key_resp.rt,participant,Gender,Age,date,expName,psychopyVersion,frameRate,
,,,,,,,,25.655987900012406,25.655987900012406,space,5.564913799986243,,,,,,,,,,,,,,,,,,,,,,,,,,,,,,,,,,,,,,,,,,,,,,,,,,,,,,,,,,,,,,,３４５,f,２０,2023-05-21_17h30.20.856,RL,2022.2.5,60.05107944563209,
30,46,51,74,0,0,0,0,,,,,31.24700569998822,31.24700569998822,36.24597300001187,36.24597300001187,36.24597300001187,37.248324200016214,None,37.248324200016214,37.248324200016214,37.248324200016214,37.248324200016214,37.248324200016214,37.248324200016214,r,0.6992945999954827,37.99073960000533,37.99073960000533,37.99073960000533,37.99073960000533,37.99073960000533,37.99073960000533,38.28131300001405,39.716102000005776,39.73432779998984,39.73432779998984,39.73432779998984,39.73432779998984,39.73432779998984,39.73432779998984,39.73432779998984,39.73432779998984,39.73432779998984,39.73432779998984,39.73432779998984,39.73432779998984,39.73432779998984,41.56177150001167,41.56177150001167,41.56177150001167,41.56177150001167,41.56177150001167,41.56177150001167,41.56177150001167,74,30,51,46,30,60,41.56177150001167,43.229871699993964,,,,,,,,,,,,３４５,f,２０,2023-05-21_17h30.20.856,RL,2022.2.5,60.05107944563209,
40,43,62,74,0,1,1,1,,,,,,,,,,,None,43.229871699993964,43.229871699993964,43.229871699993964,43.229871699993964,43.229871699993964,43.229871699993964,j,0.5399211999902036,43.79816949999076,43.79816949999076,43.79816949999076,43.79816949999076,43.79816949999076,43.79816949999076,44.08070600000792,45.596690600010334,45.61361420000321,45.61361420000321,45.61361420000321,45.61361420000321,45.61361420000321,45.61361420000321,45.61361420000321,45.61361420000321,45.61361420000321,45.61361420000321,45.61361420000321,45.61361420000321,45.61361420000321,47.42770339999697,47.42770339999697,47.42770339999697,47.42770339999697,47.42770339999697,47.42770339999697,47.42770339999697,74,40,62,43,43,60,47.42770339999697,49.21230220000143,,,,,,,,,,,,３４５,f,２０,2023-05-21_17h30.20.856,RL,2022.2.5,60.05107944563209,
32,49,60,69,0,2,2,2,,,,,,,,,,,None,49.21230220000143,49.21230220000143,49.21230220000143,49.21230220000143,49.21230220000143,49.21230220000143,f,0.3892275999824051,49.63050150001072,49.63050150001072,49.63050150001072,49.63050150001072,49.63050150001072,49.63050150001072,49.91279430000577,50.928904300002614,50.94635320000816,50.94635320000816,50.94635320000816,50.94635320000816,50.94635320000816,50.94635320000816,50.94635320000816,50.94635320000816,50.94635320000816,50.94635320000816,50.94635320000816,50.94635320000816,50.94635320000816,52.260331500001485,52.260331500001485,52.260331500001485,52.260331500001485,52.260331500001485,52.260331500001485,52.260331500001485,69,32,60,49,69,60,52.260331500001485,53.91136289999122,,,,,,,,,,,,３４５,f,２０,2023-05-21_17h30.20.856,RL,2022.2.5,60.05107944563209,
37,40,61,69,0,3,3,3,,,,,,,,,,,None,53.91136289999122,53.91136289999122,53.91136289999122,53.91136289999122,53.91136289999122,53.91136289999122,f,0.2522694000217598,54.195421600015834,54.195421600015834,54.195421600015834,54.195421600015834,54.195421600015834,54.195421600015834,54.47840069999802,55.81189240000094,55.828479699994205,55.828479699994205,55.828479699994205,55.828479699994205,55.828479699994205,55.828479699994205,55.828479699994205,55.828479699994205,55.828479699994205,55.828479699994205,55.828479699994205,55.828479699994205,55.828479699994205,57.45922089999658,57.45922089999658,57.45922089999658,57.45922089999658,57.45922089999658,57.45922089999658,57.45922089999658,69,37,61,40,69,60,57.45922089999658,59.46042240000679,,,,,,,,,,,,３４５,f,２０,2023-05-21_17h30.20.856,RL,2022.2.5,60.05107944563209,
42,44,61,72,0,4,4,4,,,,,,,,,,,None,59.46042240000679,59.46042240000679,59.46042240000679,59.46042240000679,59.46042240000679,59.46042240000679,i,0.5426885000197217,60.027461299992865,60.027461299992865,60.027461299992865,60.027461299992865,60.027461299992865,60.027461299992865,60.310937100002775,61.243901400011964,61.260092899989104,61.260092899989104,61.260092899989104,61.260092899989104,61.260092899989104,61.260092899989104,61.260092899989104,61.260092899989104,61.260092899989104,61.260092899989104,61.260092899989104,61.260092899989104,61.260092899989104,62.491781299992,62.491781299992,62.491781299992,62.491781299992,62.491781299992,62.491781299992,62.491781299992,72,42,61,44,61,60,62.491781299992,64.159525199997,,,,,,,,,,,,３４５,f,２０,2023-05-21_17h30.20.856,RL,2022.2.5,60.05107944563209,
30,52,59,73,0,5,5,5,,,,,,,,,,,None,64.159525199997,64.159525199997,64.159525199997,64.159525199997,64.159525199997,64.159525199997,r,0.6054551999841351,64.79447100000107,64.79447100000107,64.79447100000107,64.79447100000107,64.79447100000107,64.79447100000107,65.09340939999674,66.27620610001031,66.27620610001031,66.27620610001031,66.27620610001031,66.27620610001031,66.27620610001031,66.27620610001031,66.27620610001031,66.27620610001031,66.27620610001031,66.27620610001031,66.27620610001031,66.27620610001031,66.27620610001031,67.75768239999888,67.75768239999888,67.75768239999888,67.75768239999888,67.75768239999888,67.75768239999888,67.75768239999888,73,30,59,52,30,60,67.75768239999888,69.55888450000202,,,,,,,,,,,,３４５,f,２０,2023-05-21_17h30.20.856,RL,2022.2.5,60.05107944563209,
39,49,58,76,0,6,6,6,,,,,,,,,,,None,69.55888450000202,69.55888450000202,69.55888450000202,69.55888450000202,69.55888450000202,69.55888450000202,r,0.18360049999319017,69.78030310000759,69.78030310000759,69.78030310000759,69.78030310000759,69.78030310000759,69.78030310000759,70.05926599999657,71.97536800001399,71.99184239999158,71.99184239999158,71.99184239999158,71.99184239999158,71.99184239999158,71.99184239999158,71.99184239999158,71.99184239999158,71.99184239999158,71.99184239999158,71.99184239999158,71.99184239999158,71.99184239999158,74.20630409999285,74.20630409999285,74.20630409999285,74.20630409999285,74.20630409999285,74.20630409999285,74.20630409999285,76,39,58,49,39,60,74.20630409999285,75.97454150000704,,,,,,,,,,,,３４５,f,２０,2023-05-21_17h30.20.856,RL,2022.2.5,60.05107944563209,
41,40,62,72,0,7,7,7,,,,,,,,,,,None,75.97454150000704,75.97454150000704,75.97454150000704,75.97454150000704,75.97454150000704,75.97454150000704,f,0.2649454000056721,76.25938609999139,76.25938609999139,76.25938609999139,76.25938609999139,76.25938609999139,76.25938609999139,76.5416120000009,78.34125339999446,78.35727599999518,78.35727599999518,78.35727599999518,78.35727599999518,78.35727599999518,78.35727599999518,78.35727599999518,78.35727599999518,78.35727599999518,78.35727599999518,78.35727599999518,78.35727599999518,78.35727599999518,80.4552864000143,80.4552864000143,80.4552864000143,80.4552864000143,80.4552864000143,80.4552864000143,80.4552864000143,72,41,62,40,72,60,80.4552864000143,82.27324340000632,,,,,,,,,,,,３４５,f,２０,2023-05-21_17h30.20.856,RL,2022.2.5,60.05107944563209,
34,41,71,63,0,8,8,8,,,,,,,,,,,None,82.27324340000632,82.27324340000632,82.27324340000632,82.27324340000632,82.27324340000632,82.27324340000632,i,0.27996339998207986,82.57793970001512,82.57793970001512,82.57793970001512,82.57793970001512,82.57793970001512,82.57793970001512,82.87332129999413,83.6898363000073,83.6898363000073,83.6898363000073,83.6898363000073,83.6898363000073,83.6898363000073,83.6898363000073,83.6898363000073,83.6898363000073,83.6898363000073,83.6898363000073,83.6898363000073,83.6898363000073,83.6898363000073,84.80473400000483,84.80473400000483,84.80473400000483,84.80473400000483,84.80473400000483,84.80473400000483,84.80473400000483,63,34,71,41,71,60,84.80473400000483,86.52235179999843,,,,,,,,,,,,３４５,f,２０,2023-05-21_17h30.20.856,RL,2022.2.5,60.05107944563209,
44,47,64,70,0,9,9,9,,,,,,,,,,,None,86.52235179999843,86.52235179999843,86.52235179999843,86.52235179999843,86.52235179999843,86.52235179999843,f,0.2687978000030853,86.82802630000515,86.82802630000515,86.82802630000515,86.82802630000515,86.82802630000515,86.82802630000515,87.12273740000091,88.12279449999915,88.12279449999915,88.12279449999915,88.12279449999915,88.12279449999915,88.12279449999915,88.12279449999915,88.12279449999915,88.12279449999915,88.12279449999915,88.12279449999915,88.12279449999915,88.12279449999915,88.12279449999915,89.42072550000739,89.42072550000739,89.42072550000739,89.42072550000739,89.42072550000739,89.42072550000739,89.42072550000739,70,44,64,47,70,60,89.42072550000739,90.98820849999902,,,,,,,,,,,,３４５,f,２０,2023-05-21_17h30.20.856,RL,2022.2.5,60.05107944563209,
42,42,63,69,0,10,10,10,,,,,,,,,,,None,90.98820849999902,90.98820849999902,90.98820849999902,90.98820849999902,90.98820849999902,90.98820849999902,i,0.2688516000052914,91.29227159998845,91.29227159998845,91.29227159998845,91.29227159998845,91.29227159998845,91.29227159998845,91.57225029999972,92.90511690001586,92.92160550001427,92.92160550001427,92.92160550001427,92.92160550001427,92.92160550001427,92.92160550001427,92.92160550001427,92.92160550001427,92.92160550001427,92.92160550001427,92.92160550001427,92.92160550001427,92.92160550001427,94.55294150000555,94.55294150000555,94.55294150000555,94.55294150000555,94.55294150000555,94.55294150000555,94.55294150000555,69,42,63,42,63,60,94.55294150000555,96.50391590001527,,,,,,,,,,,,３４５,f,２０,2023-05-21_17h30.20.856,RL,2022.2.5,60.05107944563209,
47,45,64,60,0,11,11,11,,,,,,,,,,,None,96.50391590001527,96.50391590001527,96.50391590001527,96.50391590001527,96.50391590001527,96.50391590001527,f,0.27893820000463165,96.80590340000344,96.80590340000344,96.80590340000344,96.80590340000344,96.80590340000344,96.80590340000344,97.10402359999716,98.08719530000235,98.08719530000235,98.08719530000235,98.08719530000235,98.08719530000235,98.08719530000235,98.08719530000235,98.08719530000235,98.08719530000235,98.08719530000235,98.08719530000235,98.08719530000235,98.08719530000235,98.08719530000235,99.36895800000639,99.36895800000639,99.36895800000639,99.36895800000639,99.36895800000639,99.36895800000639,99.36895800000639,60,47,64,45,60,60,99.36895800000639,101.15313510000124,,,,,,,,,,,,３４５,f,２０,2023-05-21_17h30.20.856,RL,2022.2.5,60.05107944563209,
44,46,64,66,0,12,12,12,,,,,,,,,,,None,101.15313510000124,101.15313510000124,101.15313510000124,101.15313510000124,101.15313510000124,101.15313510000124,j,0.2516265000158455,101.44726089999313,101.44726089999313,101.44726089999313,101.44726089999313,101.44726089999313,101.44726089999313,101.72012069998891,103.4034554999962,103.43644910000148,103.43644910000148,103.43644910000148,103.43644910000148,103.43644910000148,103.43644910000148,103.43644910000148,103.43644910000148,103.43644910000148,103.43644910000148,103.43644910000148,103.43644910000148,103.43644910000148,105.41737060001469,105.41737060001469,105.41737060001469,105.41737060001469,105.41737060001469,105.41737060001469,105.41737060001469,66,44,64,46,46,60,105.41737060001469,107.08555970000452,,,,,,,,,,,,３４５,f,２０,2023-05-21_17h30.20.856,RL,2022.2.5,60.05107944563209,
44,47,60,60,0,13,13,13,,,,,,,,,,,None,107.08555970000452,107.08555970000452,107.08555970000452,107.08555970000452,107.08555970000452,107.08555970000452,i,0.4490912999899592,107.55417940000189,107.55417940000189,107.55417940000189,107.55417940000189,107.55417940000189,107.55417940000189,107.85242260000086,109.43523649999406,109.43523649999406,109.43523649999406,109.43523649999406,109.43523649999406,109.43523649999406,109.43523649999406,109.43523649999406,109.43523649999406,109.43523649999406,109.43523649999406,109.43523649999406,109.43523649999406,109.43523649999406,111.31699310001568,111.31699310001568,111.31699310001568,111.31699310001568,111.31699310001568,111.31699310001568,111.31699310001568,60,44,60,47,60,60,111.31699310001568,113.06770879999385,,,,,,,,,,,,３４５,f,２０,2023-05-21_17h30.20.856,RL,2022.2.5,60.05107944563209,
43,48,57,61,0,14,14,14,,,,,,,,,,,None,113.06770879999385,113.06770879999385,113.06770879999385,113.06770879999385,113.06770879999385,113.06770879999385,f,0.29253600002266467,113.38644599998952,113.38644599998952,113.38644599998952,113.38644599998952,113.38644599998952,113.38644599998952,113.66801389999455,114.63472790000378,114.65121380001074,114.65121380001074,114.65121380001074,114.65121380001074,114.65121380001074,114.65121380001074,114.65121380001074,114.65121380001074,114.65121380001074,114.65121380001074,114.65121380001074,114.65121380001074,114.65121380001074,115.9157683000085,115.9157683000085,115.9157683000085,115.9157683000085,115.9157683000085,115.9157683000085,115.9157683000085,61,43,57,48,61,60,115.9157683000085,117.5169789000065,,,,,,,,,,,,３４５,f,２０,2023-05-21_17h30.20.856,RL,2022.2.5,60.05107944563209,
40,43,59,50,0,15,15,15,,,,,,,,,,,None,117.5169789000065,117.5169789000065,117.5169789000065,117.5169789000065,117.5169789000065,117.5169789000065,r,0.2727874999982305,117.81967339999392,117.81967339999392,117.81967339999392,117.81967339999392,117.81967339999392,117.81967339999392,118.11766469999566,119.98353160000988,120.00015529998927,120.00015529998927,120.00015529998927,120.00015529998927,120.00015529998927,120.00015529998927,120.00015529998927,120.00015529998927,120.00015529998927,120.00015529998927,120.00015529998927,120.00015529998927,120.00015529998927,122.16481630000635,122.16481630000635,122.16481630000635,122.16481630000635,122.16481630000635,122.16481630000635,122.16481630000635,50,40,59,43,40,60,122.16481630000635,124.04915450001135,,,,,,,,,,,,３４５,f,２０,2023-05-21_17h30.20.856,RL,2022.2.5,60.05107944563209,
51,51,74,59,0,16,16,16,,,,,,,,,,,None,124.04915450001135,124.04915450001135,124.04915450001135,124.04915450001135,124.04915450001135,124.04915450001135,f,0.24577900001895614,124.31635919999098,124.31635919999098,124.31635919999098,124.31635919999098,124.31635919999098,124.31635919999098,124.59985689999303,125.43280899999081,125.44907070000772,125.44907070000772,125.44907070000772,125.44907070000772,125.44907070000772,125.44907070000772,125.44907070000772,125.44907070000772,125.44907070000772,125.44907070000772,125.44907070000772,125.44907070000772,125.44907070000772,126.58051930001238,126.58051930001238,126.58051930001238,126.58051930001238,126.58051930001238,126.58051930001238,126.58051930001238,59,51,74,51,59,60,126.58051930001238,128.46525499998825,,,,,,,,,,,,３４５,f,２０,2023-05-21_17h30.20.856,RL,2022.2.5,60.05107944563209,
49,46,54,65,0,17,17,17,,,,,,,,,,,None,128.46525499998825,128.46525499998825,128.46525499998825,128.46525499998825,128.46525499998825,128.46525499998825,i,0.6805249000026379,129.1655582000094,129.1655582000094,129.1655582000094,129.1655582000094,129.1655582000094,129.1655582000094,129.4651017000142,131.23192290001316,131.23192290001316,131.23192290001316,131.23192290001316,131.23192290001316,131.23192290001316,131.23192290001316,131.23192290001316,131.23192290001316,131.23192290001316,131.23192290001316,131.23192290001316,131.23192290001316,131.23192290001316,133.29619680001633,133.29619680001633,133.29619680001633,133.29619680001633,133.29619680001633,133.29619680001633,133.29619680001633,65,49,54,46,54,60,133.29619680001633,135.064375499991,,,,,,,,,,,,３４５,f,２０,2023-05-21_17h30.20.856,RL,2022.2.5,60.05107944563209,
48,49,46,59,0,18,18,18,,,,,,,,,,,None,135.064375499991,135.064375499991,135.064375499991,135.064375499991,135.064375499991,135.064375499991,j,0.2648497000045609,135.34934300000896,135.34934300000896,135.34934300000896,135.34934300000896,135.34934300000896,135.34934300000896,135.64745429999311,137.39700729999458,137.39700729999458,137.39700729999458,137.39700729999458,137.39700729999458,137.39700729999458,137.39700729999458,137.39700729999458,137.39700729999458,137.39700729999458,137.39700729999458,137.39700729999458,137.39700729999458,137.39700729999458,139.44525240000803,139.44525240000803,139.44525240000803,139.44525240000803,139.44525240000803,139.44525240000803,139.44525240000803,59,48,46,49,49,60,139.44525240000803,141.19663300001412,,,,,,,,,,,,３４５,f,２０,2023-05-21_17h30.20.856,RL,2022.2.5,60.05107944563209,
41,44,59,75,0,19,19,19,,,,,,,,,,,None,141.19663300001412,141.19663300001412,141.19663300001412,141.19663300001412,141.19663300001412,141.19663300001412,f,0.2563001999806147,141.48056409999845,141.48056409999845,141.48056409999845,141.48056409999845,141.48056409999845,141.48056409999845,141.7633277999994,143.44639560001087,143.46283639999456,143.46283639999456,143.46283639999456,143.46283639999456,143.46283639999456,143.46283639999456,143.46283639999456,143.46283639999456,143.46283639999456,143.46283639999456,143.46283639999456,143.46283639999456,143.46283639999456,145.44454860000405,145.44454860000405,145.44454860000405,145.44454860000405,145.44454860000405,145.44454860000405,145.44454860000405,75,41,59,44,75,60,145.44454860000405,147.27850200000103,,,,,,,,,,,,３４５,f,２０,2023-05-21_17h30.20.856,RL,2022.2.5,60.05107944563209,
39,53,57,63,0,20,20,20,,,,,,,,,,,None,147.27850200000103,147.27850200000103,147.27850200000103,147.27850200000103,147.27850200000103,147.27850200000103,f,0.3068697999988217,147.6126765999943,147.6126765999943,147.6126765999943,147.6126765999943,147.6126765999943,147.6126765999943,147.89559629998985,149.54520069999853,149.56177500000922,149.56177500000922,149.56177500000922,149.56177500000922,149.56177500000922,149.56177500000922,149.56177500000922,149.56177500000922,149.56177500000922,149.56177500000922,149.56177500000922,149.56177500000922,149.56177500000922,151.50999500000034,151.50999500000034,151.50999500000034,151.50999500000034,151.50999500000034,151.50999500000034,151.50999500000034,63,39,57,53,63,60,151.50999500000034,153.36067309998907,,,,,,,,,,,,３４５,f,２０,2023-05-21_17h30.20.856,RL,2022.2.5,60.05107944563209,
39,48,61,59,0,21,21,21,,,,,,,,,,,None,153.36067309998907,153.36067309998907,153.36067309998907,153.36067309998907,153.36067309998907,153.36067309998907,f,0.2677820000099018,153.6645225000102,153.6645225000102,153.6645225000102,153.6645225000102,153.6645225000102,153.6645225000102,153.9609124000126,155.8605971999932,155.8774032999936,155.8774032999936,155.8774032999936,155.8774032999936,155.8774032999936,155.8774032999936,155.8774032999936,155.8774032999936,155.8774032999936,155.8774032999936,155.8774032999936,155.8774032999936,155.8774032999936,158.07551070000045,158.07551070000045,158.07551070000045,158.07551070000045,158.07551070000045,158.07551070000045,158.07551070000045,59,39,61,48,59,60,158.07551070000045,159.79324130000896,,,,,,,,,,,,３４５,f,２０,2023-05-21_17h30.20.856,RL,2022.2.5,60.05107944563209,
33,56,39,68,0,22,22,22,,,,,,,,,,,None,159.79324130000896,159.79324130000896,159.79324130000896,159.79324130000896,159.79324130000896,159.79324130000896,f,0.2876144000038039,160.11045149998972,160.11045149998972,160.11045149998972,160.11045149998972,160.11045149998972,160.11045149998972,160.39307650001138,162.14304709999124,162.1593528999947,162.1593528999947,162.1593528999947,162.1593528999947,162.1593528999947,162.1593528999947,162.1593528999947,162.1593528999947,162.1593528999947,162.1593528999947,162.1593528999947,162.1593528999947,162.1593528999947,164.19099969998933,164.19099969998933,164.19099969998933,164.19099969998933,164.19099969998933,164.19099969998933,164.19099969998933,68,33,39,56,68,60,164.19099969998933,165.94221830001334,,,,,,,,,,,,３４５,f,２０,2023-05-21_17h30.20.856,RL,2022.2.5,60.05107944563209,
32,52,49,67,0,23,23,23,,,,,,,,,,,None,165.94221830001334,165.94221830001334,165.94221830001334,165.94221830001334,165.94221830001334,165.94221830001334,i,0.3790439000003971,166.34333040000638,166.34333040000638,166.34333040000638,166.34333040000638,166.34333040000638,166.34333040000638,166.64223830000265,167.49233169999206,167.49233169999206,167.49233169999206,167.49233169999206,167.49233169999206,167.49233169999206,167.49233169999206,167.49233169999206,167.49233169999206,167.49233169999206,167.49233169999206,167.49233169999206,167.49233169999206,167.49233169999206,168.64016509999055,168.64016509999055,168.64016509999055,168.64016509999055,168.64016509999055,168.64016509999055,168.64016509999055,67,32,49,52,49,60,168.64016509999055,170.19097590001184,,,,,,,,,,,,３４５,f,２０,2023-05-21_17h30.20.856,RL,2022.2.5,60.05107944563209,
36,49,56,61,0,24,24,24,,,,,,,,,,,None,170.19097590001184,170.19097590001184,170.19097590001184,170.19097590001184,170.19097590001184,170.19097590001184,f,0.2582686000096146,170.47500149998814,170.47500149998814,170.47500149998814,170.47500149998814,170.47500149998814,170.47500149998814,170.7583688000159,171.65823020000244,171.67472869998892,171.67472869998892,171.67472869998892,171.67472869998892,171.67472869998892,171.67472869998892,171.67472869998892,171.67472869998892,171.67472869998892,171.67472869998892,171.67472869998892,171.67472869998892,171.67472869998892,172.87260319999768,172.87260319999768,172.87260319999768,172.87260319999768,172.87260319999768,172.87260319999768,172.87260319999768,61,36,56,49,61,60,172.87260319999768,174.7735348000133,,,,,,,,,,,,３４５,f,２０,2023-05-21_17h30.20.856,RL,2022.2.5,60.05107944563209,
34,51,52,59,0,25,25,25,,,,,,,,,,,None,174.7735348000133,174.7735348000133,174.7735348000133,174.7735348000133,174.7735348000133,174.7735348000133,f,0.28491260000737384,175.09539969998877,175.09539969998877,175.09539969998877,175.09539969998877,175.09539969998877,175.09539969998877,175.37443950001034,177.32392450000043,177.34020380000584,177.34020380000584,177.34020380000584,177.34020380000584,177.34020380000584,177.34020380000584,177.34020380000584,177.34020380000584,177.34020380000584,177.34020380000584,177.34020380000584,177.34020380000584,177.34020380000584,179.58790990000125,179.58790990000125,179.58790990000125,179.58790990000125,179.58790990000125,179.58790990000125,179.58790990000125,59,34,52,51,59,60,179.58790990000125,181.12286020000465,,,,,,,,,,,,３４５,f,２０,2023-05-21_17h30.20.856,RL,2022.2.5,60.05107944563209,
30,54,57,67,0,26,26,26,,,,,,,,,,,None,181.12286020000465,181.12286020000465,181.12286020000465,181.12286020000465,181.12286020000465,181.12286020000465,f,0.28858880000188947,181.44041010001092,181.44041010001092,181.44041010001092,181.44041010001092,181.44041010001092,181.44041010001092,181.72312539999257,182.87300849999883,182.88937849999638,182.88937849999638,182.88937849999638,182.88937849999638,182.88937849999638,182.88937849999638,182.88937849999638,182.88937849999638,182.88937849999638,182.88937849999638,182.88937849999638,182.88937849999638,182.88937849999638,184.33744679999654,184.33744679999654,184.33744679999654,184.33744679999654,184.33744679999654,184.33744679999654,184.33744679999654,67,30,57,54,67,60,184.33744679999654,185.93882169999415,,,,,,,,,,,,３４５,f,２０,2023-05-21_17h30.20.856,RL,2022.2.5,60.05107944563209,
18,56,56,72,0,27,27,27,,,,,,,,,,,None,185.93882169999415,185.93882169999415,185.93882169999415,185.93882169999415,185.93882169999415,185.93882169999415,f,0.3095071999996435,186.27239210001426,186.27239210001426,186.27239210001426,186.27239210001426,186.27239210001426,186.27239210001426,186.55547520000255,188.205274500011,188.22152570000617,188.22152570000617,188.22152570000617,188.22152570000617,188.22152570000617,188.22152570000617,188.22152570000617,188.22152570000617,188.22152570000617,188.22152570000617,188.22152570000617,188.22152570000617,188.22152570000617,190.17003480001586,190.17003480001586,190.17003480001586,190.17003480001586,190.17003480001586,190.17003480001586,190.17003480001586,72,18,56,56,72,60,190.17003480001586,192.13774299999932,,,,,,,,,,,,３４５,f,２０,2023-05-21_17h30.20.856,RL,2022.2.5,60.05107944563209,
27,52,49,67,0,28,28,28,,,,,,,,,,,None,192.13774299999932,192.13774299999932,192.13774299999932,192.13774299999932,192.13774299999932,192.13774299999932,f,0.284006900008535,192.4543782999972,192.4543782999972,192.4543782999972,192.4543782999972,192.4543782999972,192.4543782999972,192.73777300000074,194.32093770001666,194.33758880000096,194.33758880000096,194.33758880000096,194.33758880000096,194.33758880000096,194.33758880000096,194.33758880000096,194.33758880000096,194.33758880000096,194.33758880000096,194.33758880000096,194.33758880000096,194.33758880000096,196.21899910000502,196.21899910000502,196.21899910000502,196.21899910000502,196.21899910000502,196.21899910000502,196.21899910000502,67,27,49,52,67,60,196.21899910000502,198.06990410000435,,,,,,,,,,,,３４５,f,２０,2023-05-21_17h30.20.856,RL,2022.2.5,60.05107944563209,
28,57,50,73,0,29,29,29,,,,,,,,,,,None,198.06990410000435,198.06990410000435,198.06990410000435,198.06990410000435,198.06990410000435,198.06990410000435,f,0.2709173000184819,198.37298730001203,198.37298730001203,198.37298730001203,198.37298730001203,198.37298730001203,198.37298730001203,198.6701880999899,199.71980630001053,199.71980630001053,199.71980630001053,199.71980630001053,199.71980630001053,199.71980630001053,199.71980630001053,199.71980630001053,199.71980630001053,199.71980630001053,199.71980630001053,199.71980630001053,199.71980630001053,199.71980630001053,201.06762159999926,201.06762159999926,201.06762159999926,201.06762159999926,201.06762159999926,201.06762159999926,201.06762159999926,73,28,50,57,73,60,201.06762159999926,202.95254399999976,,,,,,,,,,,,３４５,f,２０,2023-05-21_17h30.20.856,RL,2022.2.5,60.05107944563209,
30,60,47,64,0,30,30,30,,,,,,,,,,,None,202.95254399999976,202.95254399999976,202.95254399999976,202.95254399999976,202.95254399999976,202.95254399999976,f,0.29476030002115294,203.27038050000556,203.27038050000556,203.27038050000556,203.27038050000556,203.27038050000556,203.27038050000556,203.55268439999782,205.23547660000622,205.2518534999981,205.2518534999981,205.2518534999981,205.2518534999981,205.2518534999981,205.2518534999981,205.2518534999981,205.2518534999981,205.2518534999981,205.2518534999981,205.2518534999981,205.2518534999981,205.2518534999981,207.23366050000186,207.23366050000186,207.23366050000186,207.23366050000186,207.23366050000186,207.23366050000186,207.23366050000186,64,30,47,60,64,60,207.23366050000186,208.90136960000382,,,,,,,,,,,,３４５,f,２０,2023-05-21_17h30.20.856,RL,2022.2.5,60.05107944563209,
20,56,55,68,0,31,31,31,,,,,,,,,,,None,208.90136960000382,208.90136960000382,208.90136960000382,208.90136960000382,208.90136960000382,208.90136960000382,f,0.24313899999833666,209.1681635999994,209.1681635999994,209.1681635999994,209.1681635999994,209.1681635999994,209.1681635999994,209.4518442999979,211.25122579999152,211.26796580001246,211.26796580001246,211.26796580001246,211.26796580001246,211.26796580001246,211.26796580001246,211.26796580001246,211.26796580001246,211.26796580001246,211.26796580001246,211.26796580001246,211.26796580001246,211.26796580001246,213.365621200006,213.365621200006,213.365621200006,213.365621200006,213.365621200006,213.365621200006,213.365621200006,68,20,55,56,68,60,213.365621200006,214.9668532999931,,,,,,,,,,,,３４５,f,２０,2023-05-21_17h30.20.856,RL,2022.2.5,60.05107944563209,
18,62,46,73,0,32,32,32,,,,,,,,,,,None,214.9668532999931,214.9668532999931,214.9668532999931,214.9668532999931,214.9668532999931,214.9668532999931,f,0.3424945000151638,215.33413370000198,215.33413370000198,215.33413370000198,215.33413370000198,215.33413370000198,215.33413370000198,215.63400660001207,217.61643339999137,217.61643339999137,217.61643339999137,217.61643339999137,217.61643339999137,217.61643339999137,217.61643339999137,217.61643339999137,217.61643339999137,217.61643339999137,217.61643339999137,217.61643339999137,217.61643339999137,217.61643339999137,219.89818660001038,219.89818660001038,219.89818660001038,219.89818660001038,219.89818660001038,219.89818660001038,219.89818660001038,73,18,46,62,73,60,219.89818660001038,221.51593749999302,,,,,,,,,,,,３４５,f,２０,2023-05-21_17h30.20.856,RL,2022.2.5,60.05107944563209,
20,58,48,72,0,33,33,33,,,,,,,,,,,None,221.51593749999302,221.51593749999302,221.51593749999302,221.51593749999302,221.51593749999302,221.51593749999302,f,0.3164066000026651,221.8510559000133,221.8510559000133,221.8510559000133,221.8510559000133,221.8510559000133,221.8510559000133,222.14933600000222,223.63255750000826,223.64896500000032,223.64896500000032,223.64896500000032,223.64896500000032,223.64896500000032,223.64896500000032,223.64896500000032,223.64896500000032,223.64896500000032,223.64896500000032,223.64896500000032,223.64896500000032,223.64896500000032,225.43019859999185,225.43019859999185,225.43019859999185,225.43019859999185,225.43019859999185,225.43019859999185,225.43019859999185,72,20,48,58,72,60,225.43019859999185,227.1649952000007,,,,,,,,,,,,３４５,f,２０,2023-05-21_17h30.20.856,RL,2022.2.5,60.05107944563209,
27,58,61,77,0,34,34,34,,,,,,,,,,,None,227.1649952000007,227.1649952000007,227.1649952000007,227.1649952000007,227.1649952000007,227.1649952000007,f,0.3279696999816224,227.51664839999285,227.51664839999285,227.51664839999285,227.51664839999285,227.51664839999285,227.51664839999285,227.79845589998877,228.7147527000052,228.73142769999686,228.73142769999686,228.73142769999686,228.73142769999686,228.73142769999686,228.73142769999686,228.73142769999686,228.73142769999686,228.73142769999686,228.73142769999686,228.73142769999686,228.73142769999686,228.73142769999686,229.94632519999868,229.94632519999868,229.94632519999868,229.94632519999868,229.94632519999868,229.94632519999868,229.94632519999868,77,27,61,58,77,60,229.94632519999868,231.74774839999736,,,,,,,,,,,,３４５,f,２０,2023-05-21_17h30.20.856,RL,2022.2.5,60.05107944563209,
23,52,53,68,0,35,35,35,,,,,,,,,,,None,231.74774839999736,231.74774839999736,231.74774839999736,231.74774839999736,231.74774839999736,231.74774839999736,f,0.2894005000125617,232.0641284000012,232.0641284000012,232.0641284000012,232.0641284000012,232.0641284000012,232.0641284000012,232.34783780001453,233.8304530000023,233.84708130001673,233.84708130001673,233.84708130001673,233.84708130001673,233.84708130001673,233.84708130001673,233.84708130001673,233.84708130001673,233.84708130001673,233.84708130001673,233.84708130001673,233.84708130001673,233.84708130001673,235.62824809999438,235.62824809999438,235.62824809999438,235.62824809999438,235.62824809999438,235.62824809999438,235.62824809999438,68,23,53,52,68,60,235.62824809999438,237.19621739999275,,,,,,,,,,,,３４５,f,２０,2023-05-21_17h30.20.856,RL,2022.2.5,60.05107944563209,
22,44,50,72,0,36,36,36,,,,,,,,,,,None,237.19621739999275,237.19621739999275,237.19621739999275,237.19621739999275,237.19621739999275,237.19621739999275,f,0.2939246999740135,237.5133358000021,237.5133358000021,237.5133358000021,237.5133358000021,237.5133358000021,237.5133358000021,237.7965414999926,239.14576660000603,239.16273770001135,239.16273770001135,239.16273770001135,239.16273770001135,239.16273770001135,239.16273770001135,239.16273770001135,239.16273770001135,239.16273770001135,239.16273770001135,239.16273770001135,239.16273770001135,239.16273770001135,240.81094540000777,240.81094540000777,240.81094540000777,240.81094540000777,240.81094540000777,240.81094540000777,240.81094540000777,72,22,50,44,72,60,240.81094540000777,242.69561120000435,,,,,,,,,,,,３４５,f,２０,2023-05-21_17h30.20.856,RL,2022.2.5,60.05107944563209,
26,46,62,82,0,37,37,37,,,,,,,,,,,None,242.69561120000435,242.69561120000435,242.69561120000435,242.69561120000435,242.69561120000435,242.69561120000435,f,0.2630813000141643,242.9814275999961,242.9814275999961,242.9814275999961,242.9814275999961,242.9814275999961,242.9814275999961,243.2622595000139,245.24534210001002,245.26217510001152,245.26217510001152,245.26217510001152,245.26217510001152,245.26217510001152,245.26217510001152,245.26217510001152,245.26217510001152,245.26217510001152,245.26217510001152,245.26217510001152,245.26217510001152,245.26217510001152,247.54338429999189,247.54338429999189,247.54338429999189,247.54338429999189,247.54338429999189,247.54338429999189,247.54338429999189,82,26,62,46,82,60,247.54338429999189,249.1273191999935,,,,,,,,,,,,３４５,f,２０,2023-05-21_17h30.20.856,RL,2022.2.5,60.05107944563209,
29,56,52,84,0,38,38,38,,,,,,,,,,,None,249.1273191999935,249.1273191999935,249.1273191999935,249.1273191999935,249.1273191999935,249.1273191999935,f,0.3693070000153966,249.52987299999222,249.52987299999222,249.52987299999222,249.52987299999222,249.52987299999222,249.52987299999222,249.82811339999898,251.11045589999412,251.1273046999995,251.1273046999995,251.1273046999995,251.1273046999995,251.1273046999995,251.1273046999995,251.1273046999995,251.1273046999995,251.1273046999995,251.1273046999995,251.1273046999995,251.1273046999995,251.1273046999995,252.70897649999824,252.70897649999824,252.70897649999824,252.70897649999824,252.70897649999824,252.70897649999824,252.70897649999824,84,29,52,56,84,60,252.70897649999824,254.40969150001183,,,,,,,,,,,,３４５,f,２０,2023-05-21_17h30.20.856,RL,2022.2.5,60.05107944563209,
29,59,59,72,0,39,39,39,,,,,,,,,,,None,254.40969150001183,254.40969150001183,254.40969150001183,254.40969150001183,254.40969150001183,254.40969150001183,f,0.41308219998609275,254.84388160001254,254.84388160001254,254.84388160001254,254.84388160001254,254.84388160001254,254.84388160001254,255.14341940000304,256.57698519999394,256.57698519999394,256.57698519999394,256.57698519999394,256.57698519999394,256.57698519999394,256.57698519999394,256.57698519999394,256.57698519999394,256.57698519999394,256.57698519999394,256.57698519999394,256.57698519999394,256.57698519999394,258.30778410000494,258.30778410000494,258.30778410000494,258.30778410000494,258.30778410000494,258.30778410000494,258.30778410000494,72,29,59,59,72,60,258.30778410000494,260.04239660000894,,,,,,,,,,,,３４５,f,２０,2023-05-21_17h30.20.856,RL,2022.2.5,60.05107944563209,
24,53,52,69,0,40,40,40,,,,,,,,,,,None,260.04239660000894,260.04239660000894,260.04239660000894,260.04239660000894,260.04239660000894,260.04239660000894,f,0.5887574999942444,260.661419400014,260.661419400014,260.661419400014,260.661419400014,260.661419400014,260.661419400014,260.9590415999992,261.9423627000069,261.9423627000069,261.9423627000069,261.9423627000069,261.9423627000069,261.9423627000069,261.9423627000069,261.9423627000069,261.9423627000069,261.9423627000069,261.9423627000069,261.9423627000069,261.9423627000069,261.9423627000069,263.22408640000504,263.22408640000504,263.22408640000504,263.22408640000504,263.22408640000504,263.22408640000504,263.22408640000504,69,24,52,53,69,60,263.22408640000504,265.09186169999884,,,,,,,,,,,,３４５,f,２０,2023-05-21_17h30.20.856,RL,2022.2.5,60.05107944563209,
22,62,55,68,0,41,41,41,,,,,,,,,,,None,265.09186169999884,265.09186169999884,265.09186169999884,265.09186169999884,265.09186169999884,265.09186169999884,f,0.30289960000663996,265.4253360000148,265.4253360000148,265.4253360000148,265.4253360000148,265.4253360000148,265.4253360000148,265.7083660000062,266.9580762000114,266.9748308999988,266.9748308999988,266.9748308999988,266.9748308999988,266.9748308999988,266.9748308999988,266.9748308999988,266.9748308999988,266.9748308999988,266.9748308999988,266.9748308999988,266.9748308999988,266.9748308999988,268.5226040999987,268.5226040999987,268.5226040999987,268.5226040999987,268.5226040999987,268.5226040999987,268.5226040999987,68,22,55,62,68,60,268.5226040999987,270.50762690001284,,,,,,,,,,,,３４５,f,２０,2023-05-21_17h30.20.856,RL,2022.2.5,60.05107944563209,
33,51,62,53,0,42,42,42,,,,,,,,,,,None,270.50762690001284,270.50762690001284,270.50762690001284,270.50762690001284,270.50762690001284,270.50762690001284,f,0.3865059000090696,270.9243309000158,270.9243309000158,270.9243309000158,270.9243309000158,270.9243309000158,270.9243309000158,271.20768880000105,272.49016620000475,272.5070618999889,272.5070618999889,272.5070618999889,272.5070618999889,272.5070618999889,272.5070618999889,272.5070618999889,272.5070618999889,272.5070618999889,272.5070618999889,272.5070618999889,272.5070618999889,272.5070618999889,274.0886002999905,274.0886002999905,274.0886002999905,274.0886002999905,274.0886002999905,274.0886002999905,274.0886002999905,53,33,62,51,53,60,274.0886002999905,275.8064529999974,,,,,,,,,,,,３４５,f,２０,2023-05-21_17h30.20.856,RL,2022.2.5,60.05107944563209,
25,49,63,66,0,43,43,43,,,,,,,,,,,None,275.8064529999974,275.8064529999974,275.8064529999974,275.8064529999974,275.8064529999974,275.8064529999974,f,0.2959342999965884,276.12511059999815,276.12511059999815,276.12511059999815,276.12511059999815,276.12511059999815,276.12511059999815,276.42334499998833,277.8392344999884,277.8392344999884,277.8392344999884,277.8392344999884,277.8392344999884,277.8392344999884,277.8392344999884,277.8392344999884,277.8392344999884,277.8392344999884,277.8392344999884,277.8392344999884,277.8392344999884,277.8392344999884,279.5543537999911,279.5543537999911,279.5543537999911,279.5543537999911,279.5543537999911,279.5543537999911,279.5543537999911,66,25,63,49,66,60,279.5543537999911,281.48859809999703,,,,,,,,,,,,３４５,f,２０,2023-05-21_17h30.20.856,RL,2022.2.5,60.05107944563209,
32,52,65,73,0,44,44,44,,,,,,,,,,,None,281.48859809999703,281.48859809999703,281.48859809999703,281.48859809999703,281.48859809999703,281.48859809999703,i,0.40899419999914244,281.9221380999952,281.9221380999952,281.9221380999952,281.9221380999952,281.9221380999952,281.9221380999952,282.2052784000116,283.0551475000102,283.0719226000074,283.0719226000074,283.0719226000074,283.0719226000074,283.0719226000074,283.0719226000074,283.0719226000074,283.0719226000074,283.0719226000074,283.0719226000074,283.0719226000074,283.0719226000074,283.0719226000074,284.22007820001454,284.22007820001454,284.22007820001454,284.22007820001454,284.22007820001454,284.22007820001454,284.22007820001454,73,32,65,52,65,60,284.22007820001454,285.921348200005,,,,,,,,,,,,３４５,f,２０,2023-05-21_17h30.20.856,RL,2022.2.5,60.05107944563209,
30,55,56,62,0,45,45,45,,,,,,,,,,,None,285.921348200005,285.921348200005,285.921348200005,285.921348200005,285.921348200005,285.921348200005,i,0.3344861000077799,286.2925449000031,286.2925449000031,286.2925449000031,286.2925449000031,286.2925449000031,286.2925449000031,286.58782809998957,288.0042897000094,288.0042897000094,288.0042897000094,288.0042897000094,288.0042897000094,288.0042897000094,288.0042897000094,288.0042897000094,288.0042897000094,288.0042897000094,288.0042897000094,288.0042897000094,288.0042897000094,288.0042897000094,289.71931849999237,289.71931849999237,289.71931849999237,289.71931849999237,289.71931849999237,289.71931849999237,289.71931849999237,62,30,56,55,56,60,289.71931849999237,291.35353900000337,,,,,,,,,,,,３４５,f,２０,2023-05-21_17h30.20.856,RL,2022.2.5,60.05107944563209,
29,49,56,62,0,46,46,46,,,,,,,,,,,None,291.35353900000337,291.35353900000337,291.35353900000337,291.35353900000337,291.35353900000337,291.35353900000337,f,0.28057629999239,291.65464419999626,291.65464419999626,291.65464419999626,291.65464419999626,291.65464419999626,291.65464419999626,291.95395180000924,293.4035828000051,293.4035828000051,293.4035828000051,293.4035828000051,293.4035828000051,293.4035828000051,293.4035828000051,293.4035828000051,293.4035828000051,293.4035828000051,293.4035828000051,293.4035828000051,293.4035828000051,293.4035828000051,295.15191049998975,295.15191049998975,295.15191049998975,295.15191049998975,295.15191049998975,295.15191049998975,295.15191049998975,62,29,56,49,62,60,295.15191049998975,296.73613269999623,,,,,,,,,,,,３４５,f,２０,2023-05-21_17h30.20.856,RL,2022.2.5,60.05107944563209,
41,55,68,55,0,47,47,47,,,,,,,,,,,None,296.73613269999623,296.73613269999623,296.73613269999623,296.73613269999623,296.73613269999623,296.73613269999623,f,0.26460639998549595,297.019604000001,297.019604000001,297.019604000001,297.019604000001,297.019604000001,297.019604000001,297.3194921000104,298.3193173999898,298.3193173999898,298.3193173999898,298.3193173999898,298.3193173999898,298.3193173999898,298.3193173999898,298.3193173999898,298.3193173999898,298.3193173999898,298.3193173999898,298.3193173999898,298.3193173999898,298.3193173999898,299.6171555999899,299.6171555999899,299.6171555999899,299.6171555999899,299.6171555999899,299.6171555999899,299.6171555999899,55,41,68,55,55,60,299.6171555999899,301.15152889999445,,,,,,,,,,,,３４５,f,２０,2023-05-21_17h30.20.856,RL,2022.2.5,60.05107944563209,
45,48,58,56,0,48,48,48,,,,,,,,,,,None,301.15152889999445,301.15152889999445,301.15152889999445,301.15152889999445,301.15152889999445,301.15152889999445,f,0.2055899999977555,301.38859769998817,301.38859769998817,301.38859769998817,301.38859769998817,301.38859769998817,301.38859769998817,301.66898950000177,302.9688390000083,302.98518109999713,302.98518109999713,302.98518109999713,302.98518109999713,302.98518109999713,302.98518109999713,302.98518109999713,302.98518109999713,302.98518109999713,302.98518109999713,302.98518109999713,302.98518109999713,302.98518109999713,304.58317570001236,304.58317570001236,304.58317570001236,304.58317570001236,304.58317570001236,304.58317570001236,304.58317570001236,56,45,58,48,56,60,304.58317570001236,306.50081460000365,,,,,,,,,,,,３４５,f,２０,2023-05-21_17h30.20.856,RL,2022.2.5,60.05107944563209,
39,56,52,54,0,49,49,49,,,,,,,,,,,None,306.50081460000365,306.50081460000365,306.50081460000365,306.50081460000365,306.50081460000365,306.50081460000365,i,0.30571869999403134,306.8344896000053,306.8344896000053,306.8344896000053,306.8344896000053,306.8344896000053,306.8344896000053,307.1178343000065,308.8676264999958,308.88393240000005,308.88393240000005,308.88393240000005,308.88393240000005,308.88393240000005,308.88393240000005,308.88393240000005,308.88393240000005,308.88393240000005,308.88393240000005,308.88393240000005,308.88393240000005,308.88393240000005,310.9322669999965,310.9322669999965,310.9322669999965,310.9322669999965,310.9322669999965,310.9322669999965,310.9322669999965,54,39,52,56,52,60,310.9322669999965,312.56646480000927,,,,,,,,,,,,３４５,f,２０,2023-05-21_17h30.20.856,RL,2022.2.5,60.05107944563209,
45,53,59,65,0,50,50,50,,,,,,,,,,,None,312.56646480000927,312.56646480000927,312.56646480000927,312.56646480000927,312.56646480000927,312.56646480000927,f,0.24679980002110824,312.83476170001086,312.83476170001086,312.83476170001086,312.83476170001086,312.83476170001086,312.83476170001086,313.1169357000035,314.6002024000045,314.61680779999006,314.61680779999006,314.61680779999006,314.61680779999006,314.61680779999006,314.61680779999006,314.61680779999006,314.61680779999006,314.61680779999006,314.61680779999006,314.61680779999006,314.61680779999006,314.61680779999006,316.3980298000097,316.3980298000097,316.3980298000097,316.3980298000097,316.3980298000097,316.3980298000097,316.3980298000097,65,45,59,53,65,60,316.3980298000097,318.06560200001695,,,,,,,,,,,,３４５,f,２０,2023-05-21_17h30.20.856,RL,2022.2.5,60.05107944563209,
32,45,55,70,0,51,51,51,,,,,,,,,,,None,318.06560200001695,318.06560200001695,318.06560200001695,318.06560200001695,318.06560200001695,318.06560200001695,f,0.26225590001558885,318.3492300999933,318.3492300999933,318.3492300999933,318.3492300999933,318.3492300999933,318.3492300999933,318.6489877999993,320.38230090000434,320.38230090000434,320.38230090000434,320.38230090000434,320.38230090000434,320.38230090000434,320.38230090000434,320.38230090000434,320.38230090000434,320.38230090000434,320.38230090000434,320.38230090000434,320.38230090000434,320.38230090000434,322.4137669999909,322.4137669999909,322.4137669999909,322.4137669999909,322.4137669999909,322.4137669999909,322.4137669999909,70,32,55,45,70,60,322.4137669999909,324.0477477000095,,,,,,,,,,,,３４５,f,２０,2023-05-21_17h30.20.856,RL,2022.2.5,60.05107944563209,
32,52,64,54,0,52,52,52,,,,,,,,,,,None,324.0477477000095,324.0477477000095,324.0477477000095,324.0477477000095,324.0477477000095,324.0477477000095,f,0.3074901000072714,324.38164969999343,324.38164969999343,324.38164969999343,324.38164969999343,324.38164969999343,324.38164969999343,324.66478910000296,325.7979914000025,325.8144903999928,325.8144903999928,325.8144903999928,325.8144903999928,325.8144903999928,325.8144903999928,325.8144903999928,325.8144903999928,325.8144903999928,325.8144903999928,325.8144903999928,325.8144903999928,325.8144903999928,327.245734600001,327.245734600001,327.245734600001,327.245734600001,327.245734600001,327.245734600001,327.245734600001,54,32,64,52,54,60,327.245734600001,328.8468857000116,,,,,,,,,,,,３４５,f,２０,2023-05-21_17h30.20.856,RL,2022.2.5,60.05107944563209,
32,58,60,65,0,53,53,53,,,,,,,,,,,None,328.8468857000116,328.8468857000116,328.8468857000116,328.8468857000116,328.8468857000116,328.8468857000116,f,0.2800122000044212,329.1473415000073,329.1473415000073,329.1473415000073,329.1473415000073,329.1473415000073,329.1473415000073,329.44717520000995,330.29745109999203,330.29745109999203,330.29745109999203,330.29745109999203,330.29745109999203,330.29745109999203,330.29745109999203,330.29745109999203,330.29745109999203,330.29745109999203,330.29745109999203,330.29745109999203,330.29745109999203,330.29745109999203,331.44514190001064,331.44514190001064,331.44514190001064,331.44514190001064,331.44514190001064,331.44514190001064,331.44514190001064,65,32,60,58,65,60,331.44514190001064,333.3795727000106,,,,,,,,,,,,３４５,f,２０,2023-05-21_17h30.20.856,RL,2022.2.5,60.05107944563209,
31,43,49,56,0,54,54,54,,,,,,,,,,,None,333.3795727000106,333.3795727000106,333.3795727000106,333.3795727000106,333.3795727000106,333.3795727000106,r,0.29773890000069514,333.69676379999146,333.69676379999146,333.69676379999146,333.69676379999146,333.69676379999146,333.69676379999146,333.99661209998885,335.0461875000037,335.0461875000037,335.0461875000037,335.0461875000037,335.0461875000037,335.0461875000037,335.0461875000037,335.0461875000037,335.0461875000037,335.0461875000037,335.0461875000037,335.0461875000037,335.0461875000037,335.0461875000037,336.3944918999914,336.3944918999914,336.3944918999914,336.3944918999914,336.3944918999914,336.3944918999914,336.3944918999914,56,31,49,43,31,60,336.3944918999914,338.1123174999957,,,,,,,,,,,,３４５,f,２０,2023-05-21_17h30.20.856,RL,2022.2.5,60.05107944563209,
26,48,47,68,0,55,55,55,,,,,,,,,,,None,338.1123174999957,338.1123174999957,338.1123174999957,338.1123174999957,338.1123174999957,338.1123174999957,j,0.2859314999950584,338.4290478999901,338.4290478999901,338.4290478999901,338.4290478999901,338.4290478999901,338.4290478999901,338.71252440000535,339.97895740001695,339.99534950000816,339.99534950000816,339.99534950000816,339.99534950000816,339.99534950000816,339.99534950000816,339.99534950000816,339.99534950000816,339.99534950000816,339.99534950000816,339.99534950000816,339.99534950000816,339.99534950000816,341.5599834000168,341.5599834000168,341.5599834000168,341.5599834000168,341.5599834000168,341.5599834000168,341.5599834000168,68,26,47,48,48,60,341.5599834000168,343.1949139999924,,,,,,,,,,,,３４５,f,２０,2023-05-21_17h30.20.856,RL,2022.2.5,60.05107944563209,
22,46,49,65,0,56,56,56,,,,,,,,,,,None,343.1949139999924,343.1949139999924,343.1949139999924,343.1949139999924,343.1949139999924,343.1949139999924,f,0.2440737999859266,343.4615044000093,343.4615044000093,343.4615044000093,343.4615044000093,343.4615044000093,343.4615044000093,343.76132670001243,345.06099050000194,345.06099050000194,345.06099050000194,345.06099050000194,345.06099050000194,345.06099050000194,345.06099050000194,345.06099050000194,345.06099050000194,345.06099050000194,345.06099050000194,345.06099050000194,345.06099050000194,345.06099050000194,346.6593007000047,346.6593007000047,346.6593007000047,346.6593007000047,346.6593007000047,346.6593007000047,346.6593007000047,65,22,49,46,65,60,346.6593007000047,348.46018090000143,,,,,,,,,,,,３４５,f,２０,2023-05-21_17h30.20.856,RL,2022.2.5,60.05107944563209,
23,48,48,54,0,57,57,57,,,,,,,,,,,None,348.46018090000143,348.46018090000143,348.46018090000143,348.46018090000143,348.46018090000143,348.46018090000143,f,0.24569290000363253,348.7272654999979,348.7272654999979,348.7272654999979,348.7272654999979,348.7272654999979,348.7272654999979,349.01085839999723,350.5433264999883,350.60206430000835,350.60206430000835,350.60206430000835,350.60206430000835,350.60206430000835,350.60206430000835,350.60206430000835,350.60206430000835,350.60206430000835,350.60206430000835,350.60206430000835,350.60206430000835,350.60206430000835,352.4247825999919,352.4247825999919,352.4247825999919,352.4247825999919,352.4247825999919,352.4247825999919,352.4247825999919,54,23,48,48,54,60,352.4247825999919,354.40884049999295,,,,,,,,,,,,３４５,f,２０,2023-05-21_17h30.20.856,RL,2022.2.5,60.05107944563209,
23,46,45,67,0,58,58,58,,,,,,,,,,,None,354.40884049999295,354.40884049999295,354.40884049999295,354.40884049999295,354.40884049999295,354.40884049999295,f,0.2861935000109952,354.7357564000122,354.7357564000122,354.7357564000122,354.7357564000122,354.7357564000122,354.7357564000122,355.02635430000373,356.2425419999927,356.2425419999927,356.2425419999927,356.2425419999927,356.2425419999927,356.2425419999927,356.2425419999927,356.2425419999927,356.2425419999927,356.2425419999927,356.2425419999927,356.2425419999927,356.2425419999927,356.2425419999927,357.7576267000113,357.7576267000113,357.7576267000113,357.7576267000113,357.7576267000113,357.7576267000113,357.7576267000113,67,23,45,46,67,60,357.7576267000113,359.54135680000763,,,,,,,,,,,,３４５,f,２０,2023-05-21_17h30.20.856,RL,2022.2.5,60.05107944563209,
29,53,48,59,0,59,59,59,,,,,,,,,,,None,359.54135680000763,359.54135680000763,359.54135680000763,359.54135680000763,359.54135680000763,359.54135680000763,f,0.21207319997483864,359.7756881999958,359.7756881999958,359.7756881999958,359.7756881999958,359.7756881999958,359.7756881999958,360.07478650001576,361.7417129999958,361.7417129999958,361.7417129999958,361.7417129999958,361.7417129999958,361.7417129999958,361.7417129999958,361.7417129999958,361.7417129999958,361.7417129999958,361.7417129999958,361.7417129999958,361.7417129999958,361.7417129999958,363.7062786000024,363.7062786000024,363.7062786000024,363.7062786000024,363.7062786000024,363.7062786000024,363.7062786000024,59,29,48,53,59,60,363.7062786000024,365.52424870000686,,,,,,,,,,,,３４５,f,２０,2023-05-21_17h30.20.856,RL,2022.2.5,60.05107944563209,
28,56,42,51,0,60,60,60,,,,,,,,,,,None,365.52424870000686,365.52424870000686,365.52424870000686,365.52424870000686,365.52424870000686,365.52424870000686,f,0.3452001999830827,365.8909673000162,365.8909673000162,365.8909673000162,365.8909673000162,365.8909673000162,365.8909673000162,366.1740221999935,367.4406464000058,367.4573396999913,367.4573396999913,367.4573396999913,367.4573396999913,367.4573396999913,367.4573396999913,367.4573396999913,367.4573396999913,367.4573396999913,367.4573396999913,367.4573396999913,367.4573396999913,367.4573396999913,369.0218312999932,369.0218312999932,369.0218312999932,369.0218312999932,369.0218312999932,369.0218312999932,369.0218312999932,51,28,42,56,51,60,369.0218312999932,370.8396543000126,,,,,,,,,,,,３４５,f,２０,2023-05-21_17h30.20.856,RL,2022.2.5,60.05107944563209,
36,61,40,62,0,61,61,61,,,,,,,,,,,None,370.8396543000126,370.8396543000126,370.8396543000126,370.8396543000126,370.8396543000126,370.8396543000126,i,0.41563309999764897,371.27335150001454,371.27335150001454,371.27335150001454,371.27335150001454,371.27335150001454,371.27335150001454,371.5569200000027,372.40641160000814,372.4232064000098,372.4232064000098,372.4232064000098,372.4232064000098,372.4232064000098,372.4232064000098,372.4232064000098,372.4232064000098,372.4232064000098,372.4232064000098,372.4232064000098,372.4232064000098,372.4232064000098,373.5709586000012,373.5709586000012,373.5709586000012,373.5709586000012,373.5709586000012,373.5709586000012,373.5709586000012,62,36,40,61,40,60,373.5709586000012,375.4891168999893,,,,,,,,,,,,３４５,f,２０,2023-05-21_17h30.20.856,RL,2022.2.5,60.05107944563209,
31,59,48,56,0,62,62,62,,,,,,,,,,,None,375.4891168999893,375.4891168999893,375.4891168999893,375.4891168999893,375.4891168999893,375.4891168999893,f,0.25985910001327284,375.7743148000154,375.7743148000154,375.7743148000154,375.7743148000154,375.7743148000154,375.7743148000154,376.0562143000134,377.4553699000098,377.4719683000003,377.4719683000003,377.4719683000003,377.4719683000003,377.4719683000003,377.4719683000003,377.4719683000003,377.4719683000003,377.4719683000003,377.4719683000003,377.4719683000003,377.4719683000003,377.4719683000003,379.1706235999882,379.1706235999882,379.1706235999882,379.1706235999882,379.1706235999882,379.1706235999882,379.1706235999882,56,31,48,59,56,60,379.1706235999882,380.9210560999927,,,,,,,,,,,,３４５,f,２０,2023-05-21_17h30.20.856,RL,2022.2.5,60.05107944563209,
34,59,47,50,0,63,63,63,,,,,,,,,,,None,380.9210560999927,380.9210560999927,380.9210560999927,380.9210560999927,380.9210560999927,380.9210560999927,f,0.200778900005389,381.1598723999923,381.1598723999923,381.1598723999923,381.1598723999923,381.1598723999923,381.1598723999923,381.43810170001234,383.02165420001256,383.038241000002,383.038241000002,383.038241000002,383.038241000002,383.038241000002,383.038241000002,383.038241000002,383.038241000002,383.038241000002,383.038241000002,383.038241000002,383.038241000002,383.038241000002,384.91924049999216,384.91924049999216,384.91924049999216,384.91924049999216,384.91924049999216,384.91924049999216,384.91924049999216,50,34,47,59,50,60,384.91924049999216,386.43683290001354,,,,,,,,,,,,３４５,f,２０,2023-05-21_17h30.20.856,RL,2022.2.5,60.05107944563209,
35,61,43,52,0,64,64,64,,,,,,,,,,,None,386.43683290001354,386.43683290001354,386.43683290001354,386.43683290001354,386.43683290001354,386.43683290001354,f,0.24145609998959117,386.7040751000168,386.7040751000168,386.7040751000168,386.7040751000168,386.7040751000168,386.7040751000168,387.00393040000927,388.320123100013,388.320123100013,388.320123100013,388.320123100013,388.320123100013,388.320123100013,388.320123100013,388.320123100013,388.320123100013,388.320123100013,388.320123100013,388.320123100013,388.320123100013,388.320123100013,389.93484639999224,389.93484639999224,389.93484639999224,389.93484639999224,389.93484639999224,389.93484639999224,389.93484639999224,52,35,43,61,52,60,389.93484639999224,391.80301619999227,,,,,,,,,,,,３４５,f,２０,2023-05-21_17h30.20.856,RL,2022.2.5,60.05107944563209,
42,65,42,54,0,65,65,65,,,,,,,,,,,None,391.80301619999227,391.80301619999227,391.80301619999227,391.80301619999227,391.80301619999227,391.80301619999227,f,0.2987266999843996,392.121046699991,392.121046699991,392.121046699991,392.121046699991,392.121046699991,392.121046699991,392.41944930001046,394.23634709999897,394.23634709999897,394.23634709999897,394.23634709999897,394.23634709999897,394.23634709999897,394.23634709999897,394.23634709999897,394.23634709999897,394.23634709999897,394.23634709999897,394.23634709999897,394.23634709999897,394.23634709999897,396.3503323000041,396.3503323000041,396.3503323000041,396.3503323000041,396.3503323000041,396.3503323000041,396.3503323000041,54,42,42,65,54,60,396.3503323000041,398.2514809000131,,,,,,,,,,,,３４５,f,２０,2023-05-21_17h30.20.856,RL,2022.2.5,60.05107944563209,
41,67,40,50,0,66,66,66,,,,,,,,,,,None,398.2514809000131,398.2514809000131,398.2514809000131,398.2514809000131,398.2514809000131,398.2514809000131,f,0.3034643999999389,398.5852853000106,398.5852853000106,398.5852853000106,398.5852853000106,398.5852853000106,398.5852853000106,398.86840390000725,399.9685197999934,399.9849002000119,399.9849002000119,399.9849002000119,399.9849002000119,399.9849002000119,399.9849002000119,399.9849002000119,399.9849002000119,399.9849002000119,399.9849002000119,399.9849002000119,399.9849002000119,399.9849002000119,401.38293839999824,401.38293839999824,401.38293839999824,401.38293839999824,401.38293839999824,401.38293839999824,401.38293839999824,50,41,40,67,50,60,401.38293839999824,402.96747999999207,,,,,,,,,,,,３４５,f,２０,2023-05-21_17h30.20.856,RL,2022.2.5,60.05107944563209,
38,67,45,47,0,67,67,67,,,,,,,,,,,None,402.96747999999207,402.96747999999207,402.96747999999207,402.96747999999207,402.96747999999207,402.96747999999207,i,0.29807309998432174,403.2888069000037,403.2888069000037,403.2888069000037,403.2888069000037,403.2888069000037,403.2888069000037,403.5840870999964,404.50044720000005,404.50044720000005,404.50044720000005,404.50044720000005,404.50044720000005,404.50044720000005,404.50044720000005,404.50044720000005,404.50044720000005,404.50044720000005,404.50044720000005,404.50044720000005,404.50044720000005,404.50044720000005,405.71590619999915,405.71590619999915,405.71590619999915,405.71590619999915,405.71590619999915,405.71590619999915,405.71590619999915,47,38,45,67,45,60,405.71590619999915,407.64980939999805,,,,,,,,,,,,３４５,f,２０,2023-05-21_17h30.20.856,RL,2022.2.5,60.05107944563209,
39,68,45,53,0,68,68,68,,,,,,,,,,,None,407.64980939999805,407.64980939999805,407.64980939999805,407.64980939999805,407.64980939999805,407.64980939999805,i,0.2494963000062853,407.91866610001307,407.91866610001307,407.91866610001307,407.91866610001307,407.91866610001307,407.91866610001307,408.2004925000074,409.7835272999946,409.8002138000156,409.8002138000156,409.8002138000156,409.8002138000156,409.8002138000156,409.8002138000156,409.8002138000156,409.8002138000156,409.8002138000156,409.8002138000156,409.8002138000156,409.8002138000156,409.8002138000156,411.681616100017,411.681616100017,411.681616100017,411.681616100017,411.681616100017,411.681616100017,411.681616100017,53,39,45,68,45,60,411.681616100017,413.56558029999724,,,,,,,,,,,,３４５,f,２０,2023-05-21_17h30.20.856,RL,2022.2.5,60.05107944563209,
47,62,49,48,0,69,69,69,,,,,,,,,,,None,413.56558029999724,413.56558029999724,413.56558029999724,413.56558029999724,413.56558029999724,413.56558029999724,f,0.31205989999580197,413.89932610001415,413.89932610001415,413.89932610001415,413.89932610001415,413.89932610001415,413.89932610001415,414.1828240999894,415.33215709999786,415.3486877999967,415.3486877999967,415.3486877999967,415.3486877999967,415.3486877999967,415.3486877999967,415.3486877999967,415.3486877999967,415.3486877999967,415.3486877999967,415.3486877999967,415.3486877999967,415.3486877999967,416.79745099999127,416.79745099999127,416.79745099999127,416.79745099999127,416.79745099999127,416.79745099999127,416.79745099999127,48,47,49,62,48,60,416.79745099999127,418.647773100005,,,,,,,,,,,,３４５,f,２０,2023-05-21_17h30.20.856,RL,2022.2.5,60.05107944563209,
58,59,39,46,0,70,70,70,,,,,,,,,,,None,418.647773100005,418.647773100005,418.647773100005,418.647773100005,418.647773100005,418.647773100005,r,0.21714910000446253,418.9032852000091,418.9032852000091,418.9032852000091,418.9032852000091,418.9032852000091,418.9032852000091,419.18144620000385,420.4651622000092,420.4814367000072,420.4814367000072,420.4814367000072,420.4814367000072,420.4814367000072,420.4814367000072,420.4814367000072,420.4814367000072,420.4814367000072,420.4814367000072,420.4814367000072,420.4814367000072,420.4814367000072,422.06264920000103,422.06264920000103,422.06264920000103,422.06264920000103,422.06264920000103,422.06264920000103,422.06264920000103,46,58,39,59,58,60,422.06264920000103,423.9637495999923,,,,,,,,,,,,３４５,f,２０,2023-05-21_17h30.20.856,RL,2022.2.5,60.05107944563209,
48,63,41,44,0,71,71,71,,,,,,,,,,,None,423.9637495999923,423.9637495999923,423.9637495999923,423.9637495999923,423.9637495999923,423.9637495999923,j,0.2581184000009671,424.24936929999967,424.24936929999967,424.24936929999967,424.24936929999967,424.24936929999967,424.24936929999967,424.5471988999925,425.86379649999435,425.86379649999435,425.86379649999435,425.86379649999435,425.86379649999435,425.86379649999435,425.86379649999435,425.86379649999435,425.86379649999435,425.86379649999435,425.86379649999435,425.86379649999435,425.86379649999435,425.86379649999435,427.4784323000058,427.4784323000058,427.4784323000058,427.4784323000058,427.4784323000058,427.4784323000058,427.4784323000058,44,48,41,63,63,60,427.4784323000058,429.36241750000045,,,,,,,,,,,,３４５,f,２０,2023-05-21_17h30.20.856,RL,2022.2.5,60.05107944563209,
50,58,54,52,0,72,72,72,,,,,,,,,,,None,429.36241750000045,429.36241750000045,429.36241750000045,429.36241750000045,429.36241750000045,429.36241750000045,r,0.3295209000061732,429.71487960001105,429.71487960001105,429.71487960001105,429.71487960001105,429.71487960001105,429.71487960001105,429.99662690001423,431.6793437000015,431.712649699999,431.712649699999,431.712649699999,431.712649699999,431.712649699999,431.712649699999,431.712649699999,431.712649699999,431.712649699999,431.712649699999,431.712649699999,431.712649699999,431.712649699999,433.69425880000927,433.69425880000927,433.69425880000927,433.69425880000927,433.69425880000927,433.69425880000927,433.69425880000927,52,50,54,58,50,60,433.69425880000927,435.4618743000028,,,,,,,,,,,,３４５,f,２０,2023-05-21_17h30.20.856,RL,2022.2.5,60.05107944563209,
50,71,59,52,0,73,73,73,,,,,,,,,,,None,435.4618743000028,435.4618743000028,435.4618743000028,435.4618743000028,435.4618743000028,435.4618743000028,j,0.28019059999496676,435.7643352000159,435.7643352000159,435.7643352000159,435.7643352000159,435.7643352000159,435.7643352000159,436.062617699994,437.66158300000825,437.6782198000001,437.6782198000001,437.6782198000001,437.6782198000001,437.6782198000001,437.6782198000001,437.6782198000001,437.6782198000001,437.6782198000001,437.6782198000001,437.6782198000001,437.6782198000001,437.6782198000001,439.5763220000081,439.5763220000081,439.5763220000081,439.5763220000081,439.5763220000081,439.5763220000081,439.5763220000081,52,50,59,71,71,60,439.5763220000081,441.3606096000003,,,,,,,,,,,,３４５,f,２０,2023-05-21_17h30.20.856,RL,2022.2.5,60.05107944563209,
64,70,53,44,0,74,74,74,,,,,,,,,,,None,441.3606096000003,441.3606096000003,441.3606096000003,441.3606096000003,441.3606096000003,441.3606096000003,j,0.2685158000094816,441.6657919000136,441.6657919000136,441.6657919000136,441.6657919000136,441.6657919000136,441.6657919000136,441.94430589998956,443.0273077999882,443.06043449998833,443.06043449998833,443.06043449998833,443.06043449998833,443.06043449998833,443.06043449998833,443.06043449998833,443.06043449998833,443.06043449998833,443.06043449998833,443.06043449998833,443.06043449998833,443.06043449998833,444.4424272000033,444.4424272000033,444.4424272000033,444.4424272000033,444.4424272000033,444.4424272000033,444.4424272000033,44,64,53,70,70,60,444.4424272000033,446.0420673000044,,,,,,,,,,,,３４５,f,２０,2023-05-21_17h30.20.856,RL,2022.2.5,60.05107944563209,
60,67,59,45,0,75,75,75,,,,,,,,,,,q,467.3225945000013,467.3225945000013,467.3225945000013,467.3225945000013,467.3225945000013,467.3225945000013,r,1.0011157999979332,468.3626692999969,468.3626692999969,468.3626692999969,468.3626692999969,468.3626692999969,468.3626692999969,468.63967949998914,469.6562130000093,469.6731559000036,469.6731559000036,469.6731559000036,469.6731559000036,469.6731559000036,469.6731559000036,469.6731559000036,469.6731559000036,469.6731559000036,469.6731559000036,469.6731559000036,469.6731559000036,469.6731559000036,470.98747100000037,470.98747100000037,470.98747100000037,470.98747100000037,470.98747100000037,470.98747100000037,470.98747100000037,45,60,59,67,60,60,470.98747100000037,472.58883429999696,446.0420673000044,446.0420673000044,16.2346877999953,462.30762649999815,462.30762649999815,467.3225945000013,467.3225945000013,,,,,３４５,f,２０,2023-05-21_17h30.20.856,RL,2022.2.5,60.05107944563209,
60,61,62,48,0,76,76,76,,,,,,,,,,,None,472.58883429999696,472.58883429999696,472.58883429999696,472.58883429999696,472.58883429999696,472.58883429999696,i,0.2441623999911826,472.8564269999915,472.8564269999915,472.8564269999915,472.8564269999915,472.8564269999915,472.8564269999915,473.155565699999,474.8388038999983,474.8388038999983,474.8388038999983,474.8388038999983,474.8388038999983,474.8388038999983,474.8388038999983,474.8388038999983,474.8388038999983,474.8388038999983,474.8388038999983,474.8388038999983,474.8388038999983,474.8388038999983,476.82004019999295,476.82004019999295,476.82004019999295,476.82004019999295,476.82004019999295,476.82004019999295,476.82004019999295,48,60,62,61,62,60,476.82004019999295,478.48780709999846,,,,,,,,,,,,３４５,f,２０,2023-05-21_17h30.20.856,RL,2022.2.5,60.05107944563209,
61,77,58,48,0,77,77,77,,,,,,,,,,,None,478.48780709999846,478.48780709999846,478.48780709999846,478.48780709999846,478.48780709999846,478.48780709999846,j,0.2258436999982223,478.7379701999889,478.7379701999889,478.7379701999889,478.7379701999889,478.7379701999889,478.7379701999889,479.021527600009,480.28762069999357,480.3044460999954,480.3044460999954,480.3044460999954,480.3044460999954,480.3044460999954,480.3044460999954,480.3044460999954,480.3044460999954,480.3044460999954,480.3044460999954,480.3044460999954,480.3044460999954,480.3044460999954,481.86908150001545,481.86908150001545,481.86908150001545,481.86908150001545,481.86908150001545,481.86908150001545,481.86908150001545,48,61,58,77,77,60,481.86908150001545,483.45375720001175,,,,,,,,,,,,３４５,f,２０,2023-05-21_17h30.20.856,RL,2022.2.5,60.05107944563209,
61,65,58,45,0,78,78,78,,,,,,,,,,,None,483.45375720001175,483.45375720001175,483.45375720001175,483.45375720001175,483.45375720001175,483.45375720001175,f,0.2485500999900978,483.72151880001184,483.72151880001184,483.72151880001184,483.72151880001184,483.72151880001184,483.72151880001184,484.0201795999892,484.90356690000044,484.90356690000044,484.90356690000044,484.90356690000044,484.90356690000044,484.90356690000044,484.90356690000044,484.90356690000044,484.90356690000044,484.90356690000044,484.90356690000044,484.90356690000044,484.90356690000044,484.90356690000044,486.0848077000119,486.0848077000119,486.0848077000119,486.0848077000119,486.0848077000119,486.0848077000119,486.0848077000119,45,61,58,65,45,60,486.0848077000119,487.66908369999146,,,,,,,,,,,,３４５,f,２０,2023-05-21_17h30.20.856,RL,2022.2.5,60.05107944563209,
70,63,57,37,0,79,79,79,,,,,,,,,,,None,487.66908369999146,487.66908369999146,487.66908369999146,487.66908369999146,487.66908369999146,487.66908369999146,j,0.8830987999972422,488.5696902000054,488.5696902000054,488.5696902000054,488.5696902000054,488.5696902000054,488.5696902000054,488.85303530000965,489.669378599996,489.68585879998864,489.68585879998864,489.68585879998864,489.68585879998864,489.68585879998864,489.68585879998864,489.68585879998864,489.68585879998864,489.68585879998864,489.68585879998864,489.68585879998864,489.68585879998864,489.68585879998864,490.80102690000786,490.80102690000786,490.80102690000786,490.80102690000786,490.80102690000786,490.80102690000786,490.80102690000786,37,70,57,63,63,60,490.80102690000786,492.6353187999921,,,,,,,,,,,,３４５,f,２０,2023-05-21_17h30.20.856,RL,2022.2.5,60.05107944563209,
62,71,61,34,0,80,80,80,,,,,,,,,,,None,492.6353187999921,492.6353187999921,492.6353187999921,492.6353187999921,492.6353187999921,492.6353187999921,r,0.27865510000265203,492.93567720000283,492.93567720000283,492.93567720000283,492.93567720000283,492.93567720000283,492.93567720000283,493.21869989999686,494.93538680000347,494.95213600000716,494.95213600000716,494.95213600000716,494.95213600000716,494.95213600000716,494.95213600000716,494.95213600000716,494.95213600000716,494.95213600000716,494.95213600000716,494.95213600000716,494.95213600000716,494.95213600000716,496.96669299999485,496.96669299999485,496.96669299999485,496.96669299999485,496.96669299999485,496.96669299999485,496.96669299999485,34,62,61,71,62,60,496.96669299999485,498.8172479000059,,,,,,,,,,,,３４５,f,２０,2023-05-21_17h30.20.856,RL,2022.2.5,60.05107944563209,
61,70,58,21,0,81,81,81,,,,,,,,,,,None,498.8172479000059,498.8172479000059,498.8172479000059,498.8172479000059,498.8172479000059,498.8172479000059,i,0.17321730000548996,499.0210342000064,499.0210342000064,499.0210342000064,499.0210342000064,499.0210342000064,499.0210342000064,499.31810589999077,500.2007016999996,500.2007016999996,500.2007016999996,500.2007016999996,500.2007016999996,500.2007016999996,500.2007016999996,500.2007016999996,500.2007016999996,500.2007016999996,500.2007016999996,500.2007016999996,500.2007016999996,500.2007016999996,501.3820257000043,501.3820257000043,501.3820257000043,501.3820257000043,501.3820257000043,501.3820257000043,501.3820257000043,21,61,58,70,58,60,501.3820257000043,503.2330978999962,,,,,,,,,,,,３４５,f,２０,2023-05-21_17h30.20.856,RL,2022.2.5,60.05107944563209,
67,74,62,31,0,82,82,82,,,,,,,,,,,None,503.2330978999962,503.2330978999962,503.2330978999962,503.2330978999962,503.2330978999962,503.2330978999962,f,0.3049624999985099,503.56720900000073,503.56720900000073,503.56720900000073,503.56720900000073,503.56720900000073,503.56720900000073,503.8668359000003,505.5663709999935,505.5663709999935,505.5663709999935,505.5663709999935,505.5663709999935,505.5663709999935,505.5663709999935,505.5663709999935,505.5663709999935,505.5663709999935,505.5663709999935,505.5663709999935,505.5663709999935,505.5663709999935,507.56423620000714,507.56423620000714,507.56423620000714,507.56423620000714,507.56423620000714,507.56423620000714,507.56423620000714,31,67,62,74,31,60,507.56423620000714,509.13204810000025,,,,,,,,,,,,３４５,f,２０,2023-05-21_17h30.20.856,RL,2022.2.5,60.05107944563209,
64,81,64,31,0,83,83,83,,,,,,,,,,,None,509.13204810000025,509.13204810000025,509.13204810000025,509.13204810000025,509.13204810000025,509.13204810000025,j,0.2093592000019271,509.3660871000029,509.3660871000029,509.3660871000029,509.3660871000029,509.3660871000029,509.3660871000029,509.64927640001406,511.63250890001655,511.6490087000129,511.6490087000129,511.6490087000129,511.6490087000129,511.6490087000129,511.6490087000129,511.6490087000129,511.6490087000129,511.6490087000129,511.6490087000129,511.6490087000129,511.6490087000129,511.6490087000129,513.9301982999896,513.9301982999896,513.9301982999896,513.9301982999896,513.9301982999896,513.9301982999896,513.9301982999896,31,64,64,81,81,60,513.9301982999896,515.5146413999901,,,,,,,,,,,,３４５,f,２０,2023-05-21_17h30.20.856,RL,2022.2.5,60.05107944563209,
61,65,70,39,0,84,84,84,,,,,,,,,,,None,515.5146413999901,515.5146413999901,515.5146413999901,515.5146413999901,515.5146413999901,515.5146413999901,j,0.3619535000179894,515.8982192999974,515.8982192999974,515.8982192999974,515.8982192999974,515.8982192999974,515.8982192999974,516.1813364000118,517.0646985000058,517.0814754000166,517.0814754000166,517.0814754000166,517.0814754000166,517.0814754000166,517.0814754000166,517.0814754000166,517.0814754000166,517.0814754000166,517.0814754000166,517.0814754000166,517.0814754000166,517.0814754000166,518.2626800000144,518.2626800000144,518.2626800000144,518.2626800000144,518.2626800000144,518.2626800000144,518.2626800000144,39,61,70,65,65,60,518.2626800000144,520.0966438000032,,,,,,,,,,,,３４５,f,２０,2023-05-21_17h30.20.856,RL,2022.2.5,60.05107944563209,
61,76,66,42,0,85,85,85,,,,,,,,,,,None,520.0966438000032,520.0966438000032,520.0966438000032,520.0966438000032,520.0966438000032,520.0966438000032,j,0.19039239999256097,520.3161674000148,520.3161674000148,520.3161674000148,520.3161674000148,520.3161674000148,520.3161674000148,520.614225199999,521.5638785999909,521.5638785999909,521.5638785999909,521.5638785999909,521.5638785999909,521.5638785999909,521.5638785999909,521.5638785999909,521.5638785999909,521.5638785999909,521.5638785999909,521.5638785999909,521.5638785999909,521.5638785999909,522.8122465999913,522.8122465999913,522.8122465999913,522.8122465999913,522.8122465999913,522.8122465999913,522.8122465999913,42,61,66,76,76,60,522.8122465999913,524.6625189000042,,,,,,,,,,,,３４５,f,２０,2023-05-21_17h30.20.856,RL,2022.2.5,60.05107944563209,
58,69,66,39,0,86,86,86,,,,,,,,,,,None,524.6625189000042,524.6625189000042,524.6625189000042,524.6625189000042,524.6625189000042,524.6625189000042,j,0.20198870002059266,524.9012612999941,524.9012612999941,524.9012612999941,524.9012612999941,524.9012612999941,524.9012612999941,525.1798683000088,526.6129148000036,526.6294288999925,526.6294288999925,526.6294288999925,526.6294288999925,526.6294288999925,526.6294288999925,526.6294288999925,526.6294288999925,526.6294288999925,526.6294288999925,526.6294288999925,526.6294288999925,526.6294288999925,528.3606172,528.3606172,528.3606172,528.3606172,528.3606172,528.3606172,528.3606172,39,58,66,69,69,60,528.3606172,530.3455358000065,,,,,,,,,,,,３４５,f,２０,2023-05-21_17h30.20.856,RL,2022.2.5,60.05107944563209,
63,73,66,42,0,87,87,87,,,,,,,,,,,None,530.3455358000065,530.3455358000065,530.3455358000065,530.3455358000065,530.3455358000065,530.3455358000065,j,0.25698879998526536,530.6302384000155,530.6302384000155,530.6302384000155,530.6302384000155,530.6302384000155,530.6302384000155,530.9127068000089,532.1121966000064,532.12881319999,532.12881319999,532.12881319999,532.12881319999,532.12881319999,532.12881319999,532.12881319999,532.12881319999,532.12881319999,532.12881319999,532.12881319999,532.12881319999,532.12881319999,533.627012300014,533.627012300014,533.627012300014,533.627012300014,533.627012300014,533.627012300014,533.627012300014,42,63,66,73,73,60,533.627012300014,535.1610807999969,,,,,,,,,,,,３４５,f,２０,2023-05-21_17h30.20.856,RL,2022.2.5,60.05107944563209,
55,72,63,49,0,88,88,88,,,,,,,,,,,None,535.1610807999969,535.1610807999969,535.1610807999969,535.1610807999969,535.1610807999969,535.1610807999969,j,0.25417519998154603,535.4463401999965,535.4463401999965,535.4463401999965,535.4463401999965,535.4463401999965,535.4463401999965,535.7447367999994,537.6608514999971,537.6608514999971,537.6608514999971,537.6608514999971,537.6608514999971,537.6608514999971,537.6608514999971,537.6608514999971,537.6608514999971,537.6608514999971,537.6608514999971,537.6608514999971,537.6608514999971,537.6608514999971,539.8757061999931,539.8757061999931,539.8757061999931,539.8757061999931,539.8757061999931,539.8757061999931,539.8757061999931,49,55,63,72,72,60,539.8757061999931,541.5431072000065,,,,,,,,,,,,３４５,f,２０,2023-05-21_17h30.20.856,RL,2022.2.5,60.05107944563209,
56,70,75,39,0,89,89,89,,,,,,,,,,,None,541.5431072000065,541.5431072000065,541.5431072000065,541.5431072000065,541.5431072000065,541.5431072000065,r,0.27028129997779615,541.8454947000137,541.8454947000137,541.8454947000137,541.8454947000137,541.8454947000137,541.8454947000137,542.1268062000163,543.1270578000112,543.143615900015,543.143615900015,543.143615900015,543.143615900015,543.143615900015,543.143615900015,543.143615900015,543.143615900015,543.143615900015,543.143615900015,543.143615900015,543.143615900015,543.143615900015,544.4417583000031,544.4417583000031,544.4417583000031,544.4417583000031,544.4417583000031,544.4417583000031,544.4417583000031,39,56,75,70,56,60,544.4417583000031,546.1595266000077,,,,,,,,,,,,３４５,f,２０,2023-05-21_17h30.20.856,RL,2022.2.5,60.05107944563209,
50,68,68,33,0,90,90,90,,,,,,,,,,,None,546.1595266000077,546.1595266000077,546.1595266000077,546.1595266000077,546.1595266000077,546.1595266000077,j,0.3969389999983832,546.5761987000005,546.5761987000005,546.5761987000005,546.5761987000005,546.5761987000005,546.5761987000005,546.8593695000163,547.6760116000078,547.6924456999986,547.6924456999986,547.6924456999986,547.6924456999986,547.6924456999986,547.6924456999986,547.6924456999986,547.6924456999986,547.6924456999986,547.6924456999986,547.6924456999986,547.6924456999986,547.6924456999986,548.8073429999931,548.8073429999931,548.8073429999931,548.8073429999931,548.8073429999931,548.8073429999931,548.8073429999931,33,50,68,68,68,60,548.8073429999931,550.5918990999926,,,,,,,,,,,,３４５,f,２０,2023-05-21_17h30.20.856,RL,2022.2.5,60.05107944563209,
47,63,68,33,0,91,91,91,,,,,,,,,,,None,550.5918990999926,550.5918990999926,550.5918990999926,550.5918990999926,550.5918990999926,550.5918990999926,j,0.8706066999875475,551.492279099999,551.492279099999,551.492279099999,551.492279099999,551.492279099999,551.492279099999,551.7755991000158,553.7750711000117,553.7916403000127,553.7916403000127,553.7916403000127,553.7916403000127,553.7916403000127,553.7916403000127,553.7916403000127,553.7916403000127,553.7916403000127,553.7916403000127,553.7916403000127,553.7916403000127,553.7916403000127,556.0892863000045,556.0892863000045,556.0892863000045,556.0892863000045,556.0892863000045,556.0892863000045,556.0892863000045,33,47,68,63,63,60,556.0892863000045,557.8903685999976,,,,,,,,,,,,３４５,f,２０,2023-05-21_17h30.20.856,RL,2022.2.5,60.05107944563209,
49,66,65,34,0,92,92,92,,,,,,,,,,,None,557.8903685999976,557.8903685999976,557.8903685999976,557.8903685999976,557.8903685999976,557.8903685999976,f,0.2256137999938801,558.1410469000111,558.1410469000111,558.1410469000111,558.1410469000111,558.1410469000111,558.1410469000111,558.4244210000033,559.474014300009,559.4904081000132,559.4904081000132,559.4904081000132,559.4904081000132,559.4904081000132,559.4904081000132,559.4904081000132,559.4904081000132,559.4904081000132,559.4904081000132,559.4904081000132,559.4904081000132,559.4904081000132,560.8390535000071,560.8390535000071,560.8390535000071,560.8390535000071,560.8390535000071,560.8390535000071,560.8390535000071,34,49,65,66,34,60,560.8390535000071,562.5559958000085,,,,,,,,,,,,３４５,f,２０,2023-05-21_17h30.20.856,RL,2022.2.5,60.05107944563209,
49,56,65,34,0,93,93,93,,,,,,,,,,,None,562.5559958000085,562.5559958000085,562.5559958000085,562.5559958000085,562.5559958000085,562.5559958000085,r,0.2998356999887619,562.87323930001,562.87323930001,562.87323930001,562.87323930001,562.87323930001,562.87323930001,563.1564859999926,564.0894889000047,564.106462900003,564.106462900003,564.106462900003,564.106462900003,564.106462900003,564.106462900003,564.106462900003,564.106462900003,564.106462900003,564.106462900003,564.106462900003,564.106462900003,564.106462900003,565.3376493999967,565.3376493999967,565.3376493999967,565.3376493999967,565.3376493999967,565.3376493999967,565.3376493999967,34,49,65,56,49,60,565.3376493999967,566.8891879000003,,,,,,,,,,,,３４５,f,２０,2023-05-21_17h30.20.856,RL,2022.2.5,60.05107944563209,
56,68,68,38,0,94,94,94,,,,,,,,,,,None,566.8891879000003,566.8891879000003,566.8891879000003,566.8891879000003,566.8891879000003,566.8891879000003,j,0.35071810000226833,567.282869000017,567.282869000017,567.282869000017,567.282869000017,567.282869000017,567.282869000017,567.556015500013,569.1056267000095,569.1220808000071,569.1220808000071,569.1220808000071,569.1220808000071,569.1220808000071,569.1220808000071,569.1220808000071,569.1220808000071,569.1220808000071,569.1220808000071,569.1220808000071,569.1220808000071,569.1220808000071,570.9700472000113,570.9700472000113,570.9700472000113,570.9700472000113,570.9700472000113,570.9700472000113,570.9700472000113,38,56,68,68,68,60,570.9700472000113,572.6546710999974,,,,,,,,,,,,３４５,f,２０,2023-05-21_17h30.20.856,RL,2022.2.5,60.05107944563209,
50,63,65,29,0,95,95,95,,,,,,,,,,,None,572.6546710999974,572.6546710999974,572.6546710999974,572.6546710999974,572.6546710999974,572.6546710999974,j,0.2540774999943096,572.9401942999975,572.9401942999975,572.9401942999975,572.9401942999975,572.9401942999975,572.9401942999975,573.2379693000112,574.7710457000067,574.7710457000067,574.7710457000067,574.7710457000067,574.7710457000067,574.7710457000067,574.7710457000067,574.7710457000067,574.7710457000067,574.7710457000067,574.7710457000067,574.7710457000067,574.7710457000067,574.7710457000067,576.6023197000031,576.6023197000031,576.6023197000031,576.6023197000031,576.6023197000031,576.6023197000031,576.6023197000031,29,50,65,63,63,60,576.6023197000031,578.3036849999917,,,,,,,,,,,,３４５,f,２０,2023-05-21_17h30.20.856,RL,2022.2.5,60.05107944563209,
47,58,65,36,0,96,96,96,,,,,,,,,,,None,578.3036849999917,578.3036849999917,578.3036849999917,578.3036849999917,578.3036849999917,578.3036849999917,j,0.38987210000050254,578.722356400016,578.722356400016,578.722356400016,578.722356400016,578.722356400016,578.722356400016,579.0204397999914,580.7536125000042,580.7536125000042,580.7536125000042,580.7536125000042,580.7536125000042,580.7536125000042,580.7536125000042,580.7536125000042,580.7536125000042,580.7536125000042,580.7536125000042,580.7536125000042,580.7536125000042,580.7536125000042,582.7848045999999,582.7848045999999,582.7848045999999,582.7848045999999,582.7848045999999,582.7848045999999,582.7848045999999,36,47,65,58,58,60,582.7848045999999,584.7027196999989,,,,,,,,,,,,３４５,f,２０,2023-05-21_17h30.20.856,RL,2022.2.5,60.05107944563209,
61,65,63,38,0,97,97,97,,,,,,,,,,,None,584.7027196999989,584.7027196999989,584.7027196999989,584.7027196999989,584.7027196999989,584.7027196999989,j,0.2807810999802314,585.0031228000007,585.0031228000007,585.0031228000007,585.0031228000007,585.0031228000007,585.0031228000007,585.2861450999917,586.4860550000158,586.5028512999997,586.5028512999997,586.5028512999997,586.5028512999997,586.5028512999997,586.5028512999997,586.5028512999997,586.5028512999997,586.5028512999997,586.5028512999997,586.5028512999997,586.5028512999997,586.5028512999997,588.0010044999945,588.0010044999945,588.0010044999945,588.0010044999945,588.0010044999945,588.0010044999945,588.0010044999945,38,61,63,65,65,60,588.0010044999945,589.7850242000131,,,,,,,,,,,,３４５,f,２０,2023-05-21_17h30.20.856,RL,2022.2.5,60.05107944563209,
50,66,66,44,0,98,98,98,,,,,,,,,,,None,589.7850242000131,589.7850242000131,589.7850242000131,589.7850242000131,589.7850242000131,589.7850242000131,i,0.27081149999867193,590.085500199988,590.085500199988,590.085500199988,590.085500199988,590.085500199988,590.085500199988,590.3694632000115,592.2186690999952,592.2348255999968,592.2348255999968,592.2348255999968,592.2348255999968,592.2348255999968,592.2348255999968,592.2348255999968,592.2348255999968,592.2348255999968,592.2348255999968,592.2348255999968,592.2348255999968,592.2348255999968,594.3829717999906,594.3829717999906,594.3829717999906,594.3829717999906,594.3829717999906,594.3829717999906,594.3829717999906,44,50,66,66,66,60,594.3829717999906,596.3170273000142,,,,,,,,,,,,３４５,f,２０,2023-05-21_17h30.20.856,RL,2022.2.5,60.05107944563209,
58,66,65,36,0,99,99,99,,,,,,,,,,,None,596.3170273000142,596.3170273000142,596.3170273000142,596.3170273000142,596.3170273000142,596.3170273000142,r,0.2738905000151135,596.6220106999972,596.6220106999972,596.6220106999972,596.6220106999972,596.6220106999972,596.6220106999972,596.917506800004,598.0505395999935,598.0505395999935,598.0505395999935,598.0505395999935,598.0505395999935,598.0505395999935,598.0505395999935,598.0505395999935,598.0505395999935,598.0505395999935,598.0505395999935,598.0505395999935,598.0505395999935,598.0505395999935,599.4819192000141,599.4819192000141,599.4819192000141,599.4819192000141,599.4819192000141,599.4819192000141,599.4819192000141,36,58,65,66,58,60,599.4819192000141,601.3827902000048,,,,,,,,,,,,３４５,f,２０,2023-05-21_17h30.20.856,RL,2022.2.5,60.05107944563209,
58,67,64,37,0,100,100,100,,,,,,,,,,,None,601.3827902000048,601.3827902000048,601.3827902000048,601.3827902000048,601.3827902000048,601.3827902000048,r,0.24579439999070019,601.6499604000128,601.6499604000128,601.6499604000128,601.6499604000128,601.6499604000128,601.6499604000128,601.9334776999895,603.8162153000012,603.8327025999897,603.8327025999897,603.8327025999897,603.8327025999897,603.8327025999897,603.8327025999897,603.8327025999897,603.8327025999897,603.8327025999897,603.8327025999897,603.8327025999897,603.8327025999897,603.8327025999897,606.0166801000014,606.0166801000014,606.0166801000014,606.0166801000014,606.0166801000014,606.0166801000014,606.0166801000014,37,58,64,67,58,60,606.0166801000014,607.9987300999928,,,,,,,,,,,,３４５,f,２０,2023-05-21_17h30.20.856,RL,2022.2.5,60.05107944563209,
61,70,60,45,0,101,101,101,,,,,,,,,,,None,607.9987300999928,607.9987300999928,607.9987300999928,607.9987300999928,607.9987300999928,607.9987300999928,f,0.26147349999519065,608.2847978000063,608.2847978000063,608.2847978000063,608.2847978000063,608.2847978000063,608.2847978000063,608.5819189999893,610.3816210000077,610.3816210000077,610.3816210000077,610.3816210000077,610.3816210000077,610.3816210000077,610.3816210000077,610.3816210000077,610.3816210000077,610.3816210000077,610.3816210000077,610.3816210000077,610.3816210000077,610.3816210000077,612.4800681000052,612.4800681000052,612.4800681000052,612.4800681000052,612.4800681000052,612.4800681000052,612.4800681000052,45,61,60,70,45,60,612.4800681000052,614.4638510000077,,,,,,,,,,,,３４５,f,２０,2023-05-21_17h30.20.856,RL,2022.2.5,60.05107944563209,
66,66,56,33,0,102,102,102,,,,,,,,,,,None,614.4638510000077,614.4638510000077,614.4638510000077,614.4638510000077,614.4638510000077,614.4638510000077,r,0.18761069999891333,614.6851960000058,614.6851960000058,614.6851960000058,614.6851960000058,614.6851960000058,614.6851960000058,614.9810145999945,616.847477000003,616.8642365999985,616.8642365999985,616.8642365999985,616.8642365999985,616.8642365999985,616.8642365999985,616.8642365999985,616.8642365999985,616.8642365999985,616.8642365999985,616.8642365999985,616.8642365999985,616.8642365999985,619.0285097000015,619.0285097000015,619.0285097000015,619.0285097000015,619.0285097000015,619.0285097000015,619.0285097000015,33,66,56,66,66,60,619.0285097000015,620.8629189000058,,,,,,,,,,,,３４５,f,２０,2023-05-21_17h30.20.856,RL,2022.2.5,60.05107944563209,
53,66,55,35,0,103,103,103,,,,,,,,,,,None,620.8629189000058,620.8629189000058,620.8629189000058,620.8629189000058,620.8629189000058,620.8629189000058,i,0.3809412999835331,621.2696062999894,621.2696062999894,621.2696062999894,621.2696062999894,621.2696062999894,621.2696062999894,621.5628767000162,622.4297565000015,622.4297565000015,622.4297565000015,622.4297565000015,622.4297565000015,622.4297565000015,622.4297565000015,622.4297565000015,622.4297565000015,622.4297565000015,622.4297565000015,622.4297565000015,622.4297565000015,622.4297565000015,623.59473479999,623.59473479999,623.59473479999,623.59473479999,623.59473479999,623.59473479999,623.59473479999,35,53,55,66,55,60,623.59473479999,625.2466946000059,,,,,,,,,,,,３４５,f,２０,2023-05-21_17h30.20.856,RL,2022.2.5,60.05107944563209,
48,66,54,42,0,104,104,104,,,,,,,,,,,None,625.2466946000059,625.2466946000059,625.2466946000059,625.2466946000059,625.2466946000059,625.2466946000059,j,1.4778483000118285,626.7491995000164,626.7491995000164,626.7491995000164,626.7491995000164,626.7491995000164,626.7491995000164,627.0455924000125,628.6618153000018,628.6618153000018,628.6618153000018,628.6618153000018,628.6618153000018,628.6618153000018,628.6618153000018,628.6618153000018,628.6618153000018,628.6618153000018,628.6618153000018,628.6618153000018,628.6618153000018,628.6618153000018,630.5771874999919,630.5771874999919,630.5771874999919,630.5771874999919,630.5771874999919,630.5771874999919,630.5771874999919,42,48,54,66,66,60,630.5771874999919,632.3607928999991,,,,,,,,,,,,３４５,f,２０,2023-05-21_17h30.20.856,RL,2022.2.5,60.05107944563209,
40,71,59,41,0,105,105,105,,,,,,,,,,,None,632.3607928999991,632.3607928999991,632.3607928999991,632.3607928999991,632.3607928999991,632.3607928999991,r,0.321965100010857,632.7111911000102,632.7111911000102,632.7111911000102,632.7111911000102,632.7111911000102,632.7111911000102,633.010955900012,634.3445871000004,634.3445871000004,634.3445871000004,634.3445871000004,634.3445871000004,634.3445871000004,634.3445871000004,634.3445871000004,634.3445871000004,634.3445871000004,634.3445871000004,634.3445871000004,634.3445871000004,634.3445871000004,635.9756246999896,635.9756246999896,635.9756246999896,635.9756246999896,635.9756246999896,635.9756246999896,635.9756246999896,41,40,59,71,40,60,635.9756246999896,637.5934617999883,,,,,,,,,,,,３４５,f,２０,2023-05-21_17h30.20.856,RL,2022.2.5,60.05107944563209,
45,80,56,32,0,106,106,106,,,,,,,,,,,None,637.5934617999883,637.5934617999883,637.5934617999883,637.5934617999883,637.5934617999883,637.5934617999883,f,0.36143049999373034,637.9772545000014,637.9772545000014,637.9772545000014,637.9772545000014,637.9772545000014,637.9772545000014,638.2604106999934,640.2101046000025,640.2265584999986,640.2265584999986,640.2265584999986,640.2265584999986,640.2265584999986,640.2265584999986,640.2265584999986,640.2265584999986,640.2265584999986,640.2265584999986,640.2265584999986,640.2265584999986,640.2265584999986,642.4747784000065,642.4747784000065,642.4747784000065,642.4747784000065,642.4747784000065,642.4747784000065,642.4747784000065,32,45,56,80,32,60,642.4747784000065,644.0590573000081,,,,,,,,,,,,３４５,f,２０,2023-05-21_17h30.20.856,RL,2022.2.5,60.05107944563209,
38,72,63,41,0,107,107,107,,,,,,,,,,,None,644.0590573000081,644.0590573000081,644.0590573000081,644.0590573000081,644.0590573000081,644.0590573000081,j,0.24686029998701997,644.3302303999953,644.3302303999953,644.3302303999953,644.3302303999953,644.3302303999953,644.3302303999953,644.6257100999937,645.4921985999972,645.4921985999972,645.4921985999972,645.4921985999972,645.4921985999972,645.4921985999972,645.4921985999972,645.4921985999972,645.4921985999972,645.4921985999972,645.4921985999972,645.4921985999972,645.4921985999972,645.4921985999972,646.6569885000063,646.6569885000063,646.6569885000063,646.6569885000063,646.6569885000063,646.6569885000063,646.6569885000063,41,38,63,72,72,60,646.6569885000063,648.1747521999932,,,,,,,,,,,,３４５,f,２０,2023-05-21_17h30.20.856,RL,2022.2.5,60.05107944563209,
41,66,60,42,0,108,108,108,,,,,,,,,,,None,648.1747521999932,648.1747521999932,648.1747521999932,648.1747521999932,648.1747521999932,648.1747521999932,j,0.4605485000065528,648.6600907999964,648.6600907999964,648.6600907999964,648.6600907999964,648.6600907999964,648.6600907999964,648.958613099996,650.8411369000096,650.8411369000096,650.8411369000096,650.8411369000096,650.8411369000096,650.8411369000096,650.8411369000096,650.8411369000096,650.8411369000096,650.8411369000096,650.8411369000096,650.8411369000096,650.8411369000096,650.8411369000096,653.0227527999959,653.0227527999959,653.0227527999959,653.0227527999959,653.0227527999959,653.0227527999959,653.0227527999959,42,41,60,66,66,60,653.0227527999959,654.9235110000009,,,,,,,,,,,,３４５,f,２０,2023-05-21_17h30.20.856,RL,2022.2.5,60.05107944563209,
40,66,64,39,0,109,109,109,,,,,,,,,,,None,654.9235110000009,654.9235110000009,654.9235110000009,654.9235110000009,654.9235110000009,654.9235110000009,j,0.5308744999929331,655.4749858000141,655.4749858000141,655.4749858000141,655.4749858000141,655.4749858000141,655.4749858000141,655.7738372999884,657.706305300002,657.706305300002,657.706305300002,657.706305300002,657.706305300002,657.706305300002,657.706305300002,657.706305300002,657.706305300002,657.706305300002,657.706305300002,657.706305300002,657.706305300002,657.706305300002,659.9377850000164,659.9377850000164,659.9377850000164,659.9377850000164,659.9377850000164,659.9377850000164,659.9377850000164,39,40,64,66,66,60,659.9377850000164,661.4892467999889,,,,,,,,,,,,３４５,f,２０,2023-05-21_17h30.20.856,RL,2022.2.5,60.05107944563209,
40,62,59,43,0,110,110,110,,,,,,,,,,,None,661.4892467999889,661.4892467999889,661.4892467999889,661.4892467999889,661.4892467999889,661.4892467999889,j,0.38201450000633486,661.8895383999916,661.8895383999916,661.8895383999916,661.8895383999916,661.8895383999916,661.8895383999916,662.1892069000169,664.0392698000069,664.0392698000069,664.0392698000069,664.0392698000069,664.0392698000069,664.0392698000069,664.0392698000069,664.0392698000069,664.0392698000069,664.0392698000069,664.0392698000069,664.0392698000069,664.0392698000069,664.0392698000069,666.1869398000126,666.1869398000126,666.1869398000126,666.1869398000126,666.1869398000126,666.1869398000126,666.1869398000126,43,40,59,62,62,60,666.1869398000126,667.8712087000022,,,,,,,,,,,,３４５,f,２０,2023-05-21_17h30.20.856,RL,2022.2.5,60.05107944563209,
29,63,54,38,0,111,111,111,,,,,,,,,,,None,667.8712087000022,667.8712087000022,667.8712087000022,667.8712087000022,667.8712087000022,667.8712087000022,j,0.3085743000265211,668.2050662999973,668.2050662999973,668.2050662999973,668.2050662999973,668.2050662999973,668.2050662999973,668.4884262999985,669.9216614000034,669.937968400016,669.937968400016,669.937968400016,669.937968400016,669.937968400016,669.937968400016,669.937968400016,669.937968400016,669.937968400016,669.937968400016,669.937968400016,669.937968400016,669.937968400016,671.6694730000163,671.6694730000163,671.6694730000163,671.6694730000163,671.6694730000163,671.6694730000163,671.6694730000163,38,29,54,63,63,60,671.6694730000163,673.303952199989,,,,,,,,,,,,３４５,f,２０,2023-05-21_17h30.20.856,RL,2022.2.5,60.05107944563209,
24,59,58,35,0,112,112,112,,,,,,,,,,,None,673.303952199989,673.303952199989,673.303952199989,673.303952199989,673.303952199989,673.303952199989,j,0.2956529000075534,673.6212902000116,673.6212902000116,673.6212902000116,673.6212902000116,673.6212902000116,673.6212902000116,673.9040363999957,675.0540949999995,675.0704864000145,675.0704864000145,675.0704864000145,675.0704864000145,675.0704864000145,675.0704864000145,675.0704864000145,675.0704864000145,675.0704864000145,675.0704864000145,675.0704864000145,675.0704864000145,675.0704864000145,676.518513499992,676.518513499992,676.518513499992,676.518513499992,676.518513499992,676.518513499992,676.518513499992,35,24,58,59,59,60,676.518513499992,678.136473999999,,,,,,,,,,,,３４５,f,２０,2023-05-21_17h30.20.856,RL,2022.2.5,60.05107944563209,
39,66,61,35,0,113,113,113,,,,,,,,,,,None,678.136473999999,678.136473999999,678.136473999999,678.136473999999,678.136473999999,678.136473999999,j,0.3207373000041116,678.4914699000074,678.4914699000074,678.4914699000074,678.4914699000074,678.4914699000074,678.4914699000074,678.7862704000145,679.7028197000036,679.7028197000036,679.7028197000036,679.7028197000036,679.7028197000036,679.7028197000036,679.7028197000036,679.7028197000036,679.7028197000036,679.7028197000036,679.7028197000036,679.7028197000036,679.7028197000036,679.7028197000036,680.9178013000055,680.9178013000055,680.9178013000055,680.9178013000055,680.9178013000055,680.9178013000055,680.9178013000055,35,39,61,66,66,60,680.9178013000055,682.8687229999923,,,,,,,,,,,,３４５,f,２０,2023-05-21_17h30.20.856,RL,2022.2.5,60.05107944563209,
39,63,53,45,0,114,114,114,,,,,,,,,,,None,682.8687229999923,682.8687229999923,682.8687229999923,682.8687229999923,682.8687229999923,682.8687229999923,j,0.2830098000122234,683.1886971000058,683.1886971000058,683.1886971000058,683.1886971000058,683.1886971000058,683.1886971000058,683.469184000016,684.7353869999934,684.768945799995,684.768945799995,684.768945799995,684.768945799995,684.768945799995,684.768945799995,684.768945799995,684.768945799995,684.768945799995,684.768945799995,684.768945799995,684.768945799995,684.768945799995,686.3335331999988,686.3335331999988,686.3335331999988,686.3335331999988,686.3335331999988,686.3335331999988,686.3335331999988,45,39,53,63,63,60,686.3335331999988,688.1508644999994,,,,,,,,,,,,３４５,f,２０,2023-05-21_17h30.20.856,RL,2022.2.5,60.05107944563209,
42,65,50,35,0,115,115,115,,,,,,,,,,,None,688.1508644999994,688.1508644999994,688.1508644999994,688.1508644999994,688.1508644999994,688.1508644999994,j,0.3753001999866683,688.551815200015,688.551815200015,688.551815200015,688.551815200015,688.551815200015,688.551815200015,688.8352054000134,689.651454900013,689.66785659999,689.66785659999,689.66785659999,689.66785659999,689.66785659999,689.66785659999,689.66785659999,689.66785659999,689.66785659999,689.66785659999,689.66785659999,689.66785659999,689.66785659999,690.7823852000001,690.7823852000001,690.7823852000001,690.7823852000001,690.7823852000001,690.7823852000001,690.7823852000001,35,42,50,65,65,60,690.7823852000001,692.5671489000088,,,,,,,,,,,,３４５,f,２０,2023-05-21_17h30.20.856,RL,2022.2.5,60.05107944563209,
35,57,51,33,0,116,116,116,,,,,,,,,,,None,692.5671489000088,692.5671489000088,692.5671489000088,692.5671489000088,692.5671489000088,692.5671489000088,j,0.3916244000138249,692.9840205000073,692.9840205000073,692.9840205000073,692.9840205000073,692.9840205000073,692.9840205000073,693.267144500016,694.4835481999908,694.5000719999953,694.5000719999953,694.5000719999953,694.5000719999953,694.5000719999953,694.5000719999953,694.5000719999953,694.5000719999953,694.5000719999953,694.5000719999953,694.5000719999953,694.5000719999953,694.5000719999953,696.0152224999911,696.0152224999911,696.0152224999911,696.0152224999911,696.0152224999911,696.0152224999911,696.0152224999911,33,35,51,57,57,60,696.0152224999911,697.7494653000031,,,,,,,,,,,,３４５,f,２０,2023-05-21_17h30.20.856,RL,2022.2.5,60.05107944563209,
32,61,59,44,0,117,117,117,,,,,,,,,,,None,697.7494653000031,697.7494653000031,697.7494653000031,697.7494653000031,697.7494653000031,697.7494653000031,j,0.08741549999103881,697.8664946999925,697.8664946999925,697.8664946999925,697.8664946999925,697.8664946999925,697.8664946999925,698.1662671999948,699.4493935999926,699.4493935999926,699.4493935999926,699.4493935999926,699.4493935999926,699.4493935999926,699.4493935999926,699.4493935999926,699.4493935999926,699.4493935999926,699.4493935999926,699.4493935999926,699.4493935999926,699.4493935999926,701.0307818000147,701.0307818000147,701.0307818000147,701.0307818000147,701.0307818000147,701.0307818000147,701.0307818000147,44,32,59,61,61,60,701.0307818000147,702.9317480000027,,,,,,,,,,,,３４５,f,２０,2023-05-21_17h30.20.856,RL,2022.2.5,60.05107944563209,
31,55,57,45,0,118,118,118,,,,,,,,,,,None,702.9317480000027,702.9317480000027,702.9317480000027,702.9317480000027,702.9317480000027,702.9317480000027,j,0.29096499999286607,703.2502685000072,703.2502685000072,703.2502685000072,703.2502685000072,703.2502685000072,703.2502685000072,703.5488320000004,704.515355200012,704.515355200012,704.515355200012,704.515355200012,704.515355200012,704.515355200012,704.515355200012,704.515355200012,704.515355200012,704.515355200012,704.515355200012,704.515355200012,704.515355200012,704.515355200012,705.7803182000061,705.7803182000061,705.7803182000061,705.7803182000061,705.7803182000061,705.7803182000061,705.7803182000061,45,31,57,55,55,60,705.7803182000061,707.7809156000149,,,,,,,,,,,,３４５,f,２０,2023-05-21_17h30.20.856,RL,2022.2.5,60.05107944563209,
35,55,56,44,0,119,119,119,,,,,,,,,,,None,707.7809156000149,707.7809156000149,707.7809156000149,707.7809156000149,707.7809156000149,707.7809156000149,r,0.12338740000268444,707.9314490999968,707.9314490999968,707.9314490999968,707.9314490999968,707.9314490999968,707.9314490999968,708.2144934000098,710.0309527000063,710.0476349999954,710.0476349999954,710.0476349999954,710.0476349999954,710.0476349999954,710.0476349999954,710.0476349999954,710.0476349999954,710.0476349999954,710.0476349999954,710.0476349999954,710.0476349999954,710.0476349999954,712.1620454000076,712.1620454000076,712.1620454000076,712.1620454000076,712.1620454000076,712.1620454000076,712.1620454000076,44,35,56,55,35,60,712.1620454000076,713.8797872000141,,,,,,,,,,,,３４５,f,２０,2023-05-21_17h30.20.856,RL,2022.2.5,60.05107944563209,
32,52,71,28,0,120,120,120,,,,,,,,,,,None,713.8797872000141,713.8797872000141,713.8797872000141,713.8797872000141,713.8797872000141,713.8797872000141,i,0.2821617999870796,714.1803878000064,714.1803878000064,714.1803878000064,714.1803878000064,714.1803878000064,714.1803878000064,714.4636190999881,715.4465167000017,715.4631333000143,715.4631333000143,715.4631333000143,715.4631333000143,715.4631333000143,715.4631333000143,715.4631333000143,715.4631333000143,715.4631333000143,715.4631333000143,715.4631333000143,715.4631333000143,715.4631333000143,716.7449979000085,716.7449979000085,716.7449979000085,716.7449979000085,716.7449979000085,716.7449979000085,716.7449979000085,28,32,71,52,71,60,716.7449979000085,718.2960759999987,,,,,,,,,,,,３４５,f,２０,2023-05-21_17h30.20.856,RL,2022.2.5,60.05107944563209,
