arm1,arm2,arm3,arm4,trials.thisRepN,trials.thisTrialN,trials.thisN,trials.thisIndex,instru_img1.started,instru_resp.started,instru_resp.keys,instru_resp.rt,image_2.started,text_2.started,image_2.stopped,text_2.stopped,fixbefore_2.started,fixbefore_2.stopped,rest_response.keys,red.started,green.started,yellow.started,blue.started,choose_bandit.started,Fixation.started,choose_bandit.keys,choose_bandit.rt,black.started,red_2.started,green_2.started,yellow_2.started,blue_2.started,fixation_2.started,docs.started,docs.stopped,black.stopped,red_2.stopped,green_2.stopped,yellow_2.stopped,blue_2.stopped,fixation_2.stopped,black_com.started,reward_sub.started,reward__sub.started,red_compare.started,green_com.started,yellow_com.started,blue_com.started,black_com.stopped,reward_sub.stopped,reward__sub.stopped,red_compare.stopped,green_com.stopped,yellow_com.stopped,blue_com.stopped,rewardred,rewardyellow,rewardblue,rewardgreen,subchoose,expectation,intertrialfix.started,intertrialfix.stopped,rest_image.started,rest_response.started,rest_response.rt,image_expect_after.started,text_exp_after.started,image_expect_after.stopped,text_exp_after.stopped,image.started,key_resp.started,key_resp.keys,key_resp.rt,participant,Gender,Age,date,expName,psychopyVersion,frameRate,
,,,,,,,,14.403622500016354,14.403622500016354,space,6.168341700016754,,,,,,,,,,,,,,,,,,,,,,,,,,,,,,,,,,,,,,,,,,,,,,,,,,,,,,,,,,,,,,,３４６,f,２３,2023-05-21_17h56.08.421,RL,2022.2.5,60.352652614077776,
30,46,51,74,0,0,0,0,,,,,20.59691560000647,20.59691560000647,25.596428999997443,25.596428999997443,25.596428999997443,26.61248889999115,None,26.61248889999115,26.61248889999115,26.61248889999115,26.61248889999115,26.61248889999115,26.61248889999115,i,0.7633922999957576,27.40700989999459,27.40700989999459,27.40700989999459,27.40700989999459,27.40700989999459,27.40700989999459,27.697985100006917,29.580756400013342,29.601597600005334,29.601597600005334,29.601597600005334,29.601597600005334,29.601597600005334,29.601597600005334,29.601597600005334,29.601597600005334,29.601597600005334,29.601597600005334,29.601597600005334,29.601597600005334,29.601597600005334,31.823124999995343,31.823124999995343,31.823124999995343,31.823124999995343,31.823124999995343,31.823124999995343,31.823124999995343,51,30,46,74,46,70,31.823124999995343,33.59653470001649,,,,,,,,,,,,３４６,f,２３,2023-05-21_17h56.08.421,RL,2022.2.5,60.352652614077776,
40,43,62,74,0,1,1,1,,,,,,,,,,,None,33.59653470001649,33.59653470001649,33.59653470001649,33.59653470001649,33.59653470001649,33.59653470001649,i,0.26252820002264343,33.881591300014406,33.881591300014406,33.881591300014406,33.881591300014406,33.881591300014406,33.881591300014406,34.18030199999339,35.96292300001369,35.96292300001369,35.96292300001369,35.96292300001369,35.96292300001369,35.96292300001369,35.96292300001369,35.96292300001369,35.96292300001369,35.96292300001369,35.96292300001369,35.96292300001369,35.96292300001369,35.96292300001369,38.02764740001294,38.02764740001294,38.02764740001294,38.02764740001294,38.02764740001294,38.02764740001294,38.02764740001294,62,40,43,74,43,70,38.02764740001294,39.61226739999256,,,,,,,,,,,,３４６,f,２３,2023-05-21_17h56.08.421,RL,2022.2.5,60.352652614077776,
32,49,60,69,0,2,2,2,,,,,,,,,,,None,39.61226739999256,39.61226739999256,39.61226739999256,39.61226739999256,39.61226739999256,39.61226739999256,i,0.30913930002134293,39.946189700014656,39.946189700014656,39.946189700014656,39.946189700014656,39.946189700014656,39.946189700014656,40.245696700003464,41.761790299991844,41.761790299991844,41.761790299991844,41.761790299991844,41.761790299991844,41.761790299991844,41.761790299991844,41.761790299991844,41.761790299991844,41.761790299991844,41.761790299991844,41.761790299991844,41.761790299991844,41.761790299991844,43.576679299992975,43.576679299992975,43.576679299992975,43.576679299992975,43.576679299992975,43.576679299992975,43.576679299992975,60,32,49,69,49,70,43.576679299992975,45.32724079999025,,,,,,,,,,,,３４６,f,２３,2023-05-21_17h56.08.421,RL,2022.2.5,60.352652614077776,
37,40,61,69,0,3,3,3,,,,,,,,,,,None,45.32724079999025,45.32724079999025,45.32724079999025,45.32724079999025,45.32724079999025,45.32724079999025,i,0.40863449999596924,45.76150029999553,45.76150029999553,45.76150029999553,45.76150029999553,45.76150029999553,45.76150029999553,46.044496799993794,47.72775950000505,47.74402690000716,47.74402690000716,47.74402690000716,47.74402690000716,47.74402690000716,47.74402690000716,47.74402690000716,47.74402690000716,47.74402690000716,47.74402690000716,47.74402690000716,47.74402690000716,47.74402690000716,49.72550339999725,49.72550339999725,49.72550339999725,49.72550339999725,49.72550339999725,49.72550339999725,49.72550339999725,61,37,40,69,40,70,49.72550339999725,51.44309099999373,,,,,,,,,,,,３４６,f,２３,2023-05-21_17h56.08.421,RL,2022.2.5,60.352652614077776,
42,44,61,72,0,4,4,4,,,,,,,,,,,None,51.44309099999373,51.44309099999373,51.44309099999373,51.44309099999373,51.44309099999373,51.44309099999373,i,0.6895109000033699,52.16149040000164,52.16149040000164,52.16149040000164,52.16149040000164,52.16149040000164,52.16149040000164,52.459919599990826,54.4435039999953,54.4435039999953,54.4435039999953,54.4435039999953,54.4435039999953,54.4435039999953,54.4435039999953,54.4435039999953,54.4435039999953,54.4435039999953,54.4435039999953,54.4435039999953,54.4435039999953,54.4435039999953,56.724328000011155,56.724328000011155,56.724328000011155,56.724328000011155,56.724328000011155,56.724328000011155,56.724328000011155,61,42,44,72,44,70,56.724328000011155,58.44209329999285,,,,,,,,,,,,３４６,f,２３,2023-05-21_17h56.08.421,RL,2022.2.5,60.352652614077776,
30,52,59,73,0,5,5,5,,,,,,,,,,,None,58.44209329999285,58.44209329999285,58.44209329999285,58.44209329999285,58.44209329999285,58.44209329999285,j,0.4737553000159096,58.94245520001277,58.94245520001277,58.94245520001277,58.94245520001277,58.94245520001277,58.94245520001277,59.22549909999361,60.09230540000135,60.108505700016394,60.108505700016394,60.108505700016394,60.108505700016394,60.108505700016394,60.108505700016394,60.108505700016394,60.108505700016394,60.108505700016394,60.108505700016394,60.108505700016394,60.108505700016394,60.108505700016394,61.27345830001286,61.27345830001286,61.27345830001286,61.27345830001286,61.27345830001286,61.27345830001286,61.27345830001286,59,30,52,73,73,70,61.27345830001286,63.091257699998096,,,,,,,,,,,,３４６,f,２３,2023-05-21_17h56.08.421,RL,2022.2.5,60.352652614077776,
39,49,58,76,0,6,6,6,,,,,,,,,,,None,63.091257699998096,63.091257699998096,63.091257699998096,63.091257699998096,63.091257699998096,63.091257699998096,j,0.4314742999849841,63.5446096000087,63.5446096000087,63.5446096000087,63.5446096000087,63.5446096000087,63.5446096000087,63.824877900013234,64.65777039999375,64.67435760001536,64.67435760001536,64.67435760001536,64.67435760001536,64.67435760001536,64.67435760001536,64.67435760001536,64.67435760001536,64.67435760001536,64.67435760001536,64.67435760001536,64.67435760001536,64.67435760001536,65.80588600001647,65.80588600001647,65.80588600001647,65.80588600001647,65.80588600001647,65.80588600001647,65.80588600001647,58,39,49,76,76,70,65.80588600001647,67.3404440000013,,,,,,,,,,,,３４６,f,２３,2023-05-21_17h56.08.421,RL,2022.2.5,60.352652614077776,
41,40,62,72,0,7,7,7,,,,,,,,,,,None,67.3404440000013,67.3404440000013,67.3404440000013,67.3404440000013,67.3404440000013,67.3404440000013,j,0.3792449999891687,67.74089869999443,67.74089869999443,67.74089869999443,67.74089869999443,67.74089869999443,67.74089869999443,68.02389489999041,69.92366810000385,69.94014970000717,69.94014970000717,69.94014970000717,69.94014970000717,69.94014970000717,69.94014970000717,69.94014970000717,69.94014970000717,69.94014970000717,69.94014970000717,69.94014970000717,69.94014970000717,69.94014970000717,72.1382816999976,72.1382816999976,72.1382816999976,72.1382816999976,72.1382816999976,72.1382816999976,72.1382816999976,62,41,40,72,72,70,72.1382816999976,73.77269889999297,,,,,,,,,,,,３４６,f,２３,2023-05-21_17h56.08.421,RL,2022.2.5,60.352652614077776,
34,41,71,63,0,8,8,8,,,,,,,,,,,None,73.77269889999297,73.77269889999297,73.77269889999297,73.77269889999297,73.77269889999297,73.77269889999297,j,0.3323221000027843,74.12423970000236,74.12423970000236,74.12423970000236,74.12423970000236,74.12423970000236,74.12423970000236,74.40660509999725,76.22256900000502,76.23922540000058,76.23922540000058,76.23922540000058,76.23922540000058,76.23922540000058,76.23922540000058,76.23922540000058,76.23922540000058,76.23922540000058,76.23922540000058,76.23922540000058,76.23922540000058,76.23922540000058,78.35436820000177,78.35436820000177,78.35436820000177,78.35436820000177,78.35436820000177,78.35436820000177,78.35436820000177,71,34,41,63,63,70,78.35436820000177,80.3047276000143,,,,,,,,,,,,３４６,f,２３,2023-05-21_17h56.08.421,RL,2022.2.5,60.352652614077776,
44,47,64,70,0,9,9,9,,,,,,,,,,,None,80.3047276000143,80.3047276000143,80.3047276000143,80.3047276000143,80.3047276000143,80.3047276000143,f,0.23741520001203753,80.57308600001852,80.57308600001852,80.57308600001852,80.57308600001852,80.57308600001852,80.57308600001852,80.85518169999705,82.67181120000896,82.7051128000021,82.7051128000021,82.7051128000021,82.7051128000021,82.7051128000021,82.7051128000021,82.7051128000021,82.7051128000021,82.7051128000021,82.7051128000021,82.7051128000021,82.7051128000021,82.7051128000021,84.83593960001599,84.83593960001599,84.83593960001599,84.83593960001599,84.83593960001599,84.83593960001599,84.83593960001599,64,44,47,70,64,70,84.83593960001599,86.82052999999723,,,,,,,,,,,,３４６,f,２３,2023-05-21_17h56.08.421,RL,2022.2.5,60.352652614077776,
42,42,63,69,0,10,10,10,,,,,,,,,,,None,86.82052999999723,86.82052999999723,86.82052999999723,86.82052999999723,86.82052999999723,86.82052999999723,j,0.2515529000083916,87.11496450001141,87.11496450001141,87.11496450001141,87.11496450001141,87.11496450001141,87.11496450001141,87.38736950000748,88.53695320000406,88.57035349999205,88.57035349999205,88.57035349999205,88.57035349999205,88.57035349999205,88.57035349999205,88.57035349999205,88.57035349999205,88.57035349999205,88.57035349999205,88.57035349999205,88.57035349999205,88.57035349999205,90.01855020000949,90.01855020000949,90.01855020000949,90.01855020000949,90.01855020000949,90.01855020000949,90.01855020000949,63,42,42,69,69,70,90.01855020000949,91.93606939999154,,,,,,,,,,,,３４６,f,２３,2023-05-21_17h56.08.421,RL,2022.2.5,60.352652614077776,
47,45,64,60,0,11,11,11,,,,,,,,,,,None,91.93606939999154,91.93606939999154,91.93606939999154,91.93606939999154,91.93606939999154,91.93606939999154,j,0.3805659999779891,92.33863030001521,92.33863030001521,92.33863030001521,92.33863030001521,92.33863030001521,92.33863030001521,92.63662979999208,94.6360140000179,94.6360140000179,94.6360140000179,94.6360140000179,94.6360140000179,94.6360140000179,94.6360140000179,94.6360140000179,94.6360140000179,94.6360140000179,94.6360140000179,94.6360140000179,94.6360140000179,94.6360140000179,96.93384119999246,96.93384119999246,96.93384119999246,96.93384119999246,96.93384119999246,96.93384119999246,96.93384119999246,64,47,45,60,60,70,96.93384119999246,98.85164410001016,,,,,,,,,,,,３４６,f,２３,2023-05-21_17h56.08.421,RL,2022.2.5,60.352652614077776,
44,46,64,66,0,12,12,12,,,,,,,,,,,None,98.85164410001016,98.85164410001016,98.85164410001016,98.85164410001016,98.85164410001016,98.85164410001016,r,0.23651250000693835,99.12472809999599,99.12472809999599,99.12472809999599,99.12472809999599,99.12472809999599,99.12472809999599,99.40202139999019,100.35141440000734,100.38492770001176,100.38492770001176,100.38492770001176,100.38492770001176,100.38492770001176,100.38492770001176,100.38492770001176,100.38492770001176,100.38492770001176,100.38492770001176,100.38492770001176,100.38492770001176,100.38492770001176,101.6331434000167,101.6331434000167,101.6331434000167,101.6331434000167,101.6331434000167,101.6331434000167,101.6331434000167,64,44,46,66,44,70,101.6331434000167,103.25104259999353,,,,,,,,,,,,３４６,f,２３,2023-05-21_17h56.08.421,RL,2022.2.5,60.352652614077776,
44,47,60,60,0,13,13,13,,,,,,,,,,,None,103.25104259999353,103.25104259999353,103.25104259999353,103.25104259999353,103.25104259999353,103.25104259999353,j,0.30065300001297146,103.57255680000526,103.57255680000526,103.57255680000526,103.57255680000526,103.57255680000526,103.57255680000526,103.86789480000152,105.85105309999199,105.85105309999199,105.85105309999199,105.85105309999199,105.85105309999199,105.85105309999199,105.85105309999199,105.85105309999199,105.85105309999199,105.85105309999199,105.85105309999199,105.85105309999199,105.85105309999199,105.85105309999199,108.13198969999212,108.13198969999212,108.13198969999212,108.13198969999212,108.13198969999212,108.13198969999212,108.13198969999212,60,44,47,60,60,70,108.13198969999212,109.7998166999896,,,,,,,,,,,,３４６,f,２３,2023-05-21_17h56.08.421,RL,2022.2.5,60.352652614077776,
43,48,57,61,0,14,14,14,,,,,,,,,,,None,109.7998166999896,109.7998166999896,109.7998166999896,109.7998166999896,109.7998166999896,109.7998166999896,f,0.3465448999777436,110.16676530000404,110.16676530000404,110.16676530000404,110.16676530000404,110.16676530000404,110.16676530000404,110.46687870001188,111.99981169999228,111.99981169999228,111.99981169999228,111.99981169999228,111.99981169999228,111.99981169999228,111.99981169999228,111.99981169999228,111.99981169999228,111.99981169999228,111.99981169999228,111.99981169999228,111.99981169999228,111.99981169999228,113.83088349999161,113.83088349999161,113.83088349999161,113.83088349999161,113.83088349999161,113.83088349999161,113.83088349999161,57,43,48,61,57,70,113.83088349999161,115.66538650001166,,,,,,,,,,,,３４６,f,２３,2023-05-21_17h56.08.421,RL,2022.2.5,60.352652614077776,
40,43,59,50,0,15,15,15,,,,,,,,,,,None,115.66538650001166,115.66538650001166,115.66538650001166,115.66538650001166,115.66538650001166,115.66538650001166,j,0.31978720001643524,116.01601029999438,116.01601029999438,116.01601029999438,116.01601029999438,116.01601029999438,116.01601029999438,116.29910229999223,117.2152986000001,117.23223160000634,117.23223160000634,117.23223160000634,117.23223160000634,117.23223160000634,117.23223160000634,117.23223160000634,117.23223160000634,117.23223160000634,117.23223160000634,117.23223160000634,117.23223160000634,117.23223160000634,118.44673200001125,118.44673200001125,118.44673200001125,118.44673200001125,118.44673200001125,118.44673200001125,118.44673200001125,59,40,43,50,50,70,118.44673200001125,120.39798380000866,,,,,,,,,,,,３４６,f,２３,2023-05-21_17h56.08.421,RL,2022.2.5,60.352652614077776,
51,51,74,59,0,16,16,16,,,,,,,,,,,None,120.39798380000866,120.39798380000866,120.39798380000866,120.39798380000866,120.39798380000866,120.39798380000866,f,0.29925290000392124,120.71718310000142,120.71718310000142,120.71718310000142,120.71718310000142,120.71718310000142,120.71718310000142,120.99806270000408,122.51492750001489,122.53138150001178,122.53138150001178,122.53138150001178,122.53138150001178,122.53138150001178,122.53138150001178,122.53138150001178,122.53138150001178,122.53138150001178,122.53138150001178,122.53138150001178,122.53138150001178,122.53138150001178,124.34555600001477,124.34555600001477,124.34555600001477,124.34555600001477,124.34555600001477,124.34555600001477,124.34555600001477,74,51,51,59,74,70,124.34555600001477,126.28061710001202,,,,,,,,,,,,３４６,f,２３,2023-05-21_17h56.08.421,RL,2022.2.5,60.352652614077776,
49,46,54,65,0,17,17,17,,,,,,,,,,,None,126.28061710001202,126.28061710001202,126.28061710001202,126.28061710001202,126.28061710001202,126.28061710001202,f,0.5072492999897804,126.8153985000099,126.8153985000099,126.8153985000099,126.8153985000099,126.8153985000099,126.8153985000099,127.11429319999297,128.84727389999898,128.84727389999898,128.84727389999898,128.84727389999898,128.84727389999898,128.84727389999898,128.84727389999898,128.84727389999898,128.84727389999898,128.84727389999898,128.84727389999898,128.84727389999898,128.84727389999898,128.84727389999898,130.8780834999925,130.8780834999925,130.8780834999925,130.8780834999925,130.8780834999925,130.8780834999925,130.8780834999925,54,49,46,65,54,70,130.8780834999925,132.86241460000747,,,,,,,,,,,,３４６,f,２３,2023-05-21_17h56.08.421,RL,2022.2.5,60.352652614077776,
48,49,46,59,0,18,18,18,,,,,,,,,,,None,132.86241460000747,132.86241460000747,132.86241460000747,132.86241460000747,132.86241460000747,132.86241460000747,j,0.2842403999820817,133.1799580999941,133.1799580999941,133.1799580999941,133.1799580999941,133.1799580999941,133.1799580999941,133.46331809999538,134.82902930001728,134.84548930000165,134.84548930000165,134.84548930000165,134.84548930000165,134.84548930000165,134.84548930000165,134.84548930000165,134.84548930000165,134.84548930000165,134.84548930000165,134.84548930000165,134.84548930000165,134.84548930000165,136.5103206000058,136.5103206000058,136.5103206000058,136.5103206000058,136.5103206000058,136.5103206000058,136.5103206000058,46,48,49,59,59,70,136.5103206000058,138.12857699999586,,,,,,,,,,,,３４６,f,２３,2023-05-21_17h56.08.421,RL,2022.2.5,60.352652614077776,
41,44,59,75,0,19,19,19,,,,,,,,,,,None,138.12857699999586,138.12857699999586,138.12857699999586,138.12857699999586,138.12857699999586,138.12857699999586,i,0.3448731999960728,138.49627880001208,138.49627880001208,138.49627880001208,138.49627880001208,138.49627880001208,138.49627880001208,138.79510200000368,140.3614549000049,140.3614549000049,140.3614549000049,140.3614549000049,140.3614549000049,140.3614549000049,140.3614549000049,140.3614549000049,140.3614549000049,140.3614549000049,140.3614549000049,140.3614549000049,140.3614549000049,140.3614549000049,142.22642359999008,142.22642359999008,142.22642359999008,142.22642359999008,142.22642359999008,142.22642359999008,142.22642359999008,59,41,44,75,44,70,142.22642359999008,143.91065390000585,,,,,,,,,,,,３４６,f,２３,2023-05-21_17h56.08.421,RL,2022.2.5,60.352652614077776,
39,53,57,63,0,20,20,20,,,,,,,,,,,None,143.91065390000585,143.91065390000585,143.91065390000585,143.91065390000585,143.91065390000585,143.91065390000585,j,0.3069459999969695,144.2467314999958,144.2467314999958,144.2467314999958,144.2467314999958,144.2467314999958,144.2467314999958,144.52789260001737,145.36079189999145,145.37731969999732,145.37731969999732,145.37731969999732,145.37731969999732,145.37731969999732,145.37731969999732,145.37731969999732,145.37731969999732,145.37731969999732,145.37731969999732,145.37731969999732,145.37731969999732,145.37731969999732,146.50915120000718,146.50915120000718,146.50915120000718,146.50915120000718,146.50915120000718,146.50915120000718,146.50915120000718,57,39,53,63,63,70,146.50915120000718,148.04334900001413,,,,,,,,,,,,３４６,f,２３,2023-05-21_17h56.08.421,RL,2022.2.5,60.352652614077776,
39,48,61,59,0,21,21,21,,,,,,,,,,,None,148.04334900001413,148.04334900001413,148.04334900001413,148.04334900001413,148.04334900001413,148.04334900001413,f,0.6370898000022862,148.7108026999922,148.7108026999922,148.7108026999922,148.7108026999922,148.7108026999922,148.7108026999922,149.01009970001178,149.89277310000034,149.89277310000034,149.89277310000034,149.89277310000034,149.89277310000034,149.89277310000034,149.89277310000034,149.89277310000034,149.89277310000034,149.89277310000034,149.89277310000034,149.89277310000034,149.89277310000034,149.89277310000034,151.07474080001703,151.07474080001703,151.07474080001703,151.07474080001703,151.07474080001703,151.07474080001703,151.07474080001703,61,39,48,59,61,70,151.07474080001703,153.0590635999979,,,,,,,,,,,,３４６,f,２３,2023-05-21_17h56.08.421,RL,2022.2.5,60.352652614077776,
33,56,39,68,0,22,22,22,,,,,,,,,,,None,153.0590635999979,153.0590635999979,153.0590635999979,153.0590635999979,153.0590635999979,153.0590635999979,j,0.24203769999439828,153.32827240001643,153.32827240001643,153.32827240001643,153.32827240001643,153.32827240001643,153.32827240001643,153.62594339999487,155.27543880001758,155.27543880001758,155.27543880001758,155.27543880001758,155.27543880001758,155.27543880001758,155.27543880001758,155.27543880001758,155.27543880001758,155.27543880001758,155.27543880001758,155.27543880001758,155.27543880001758,155.27543880001758,157.22356949999812,157.22356949999812,157.22356949999812,157.22356949999812,157.22356949999812,157.22356949999812,157.22356949999812,39,33,56,68,68,70,157.22356949999812,158.95820339999045,,,,,,,,,,,,３４６,f,２３,2023-05-21_17h56.08.421,RL,2022.2.5,60.352652614077776,
32,52,49,67,0,23,23,23,,,,,,,,,,,None,158.95820339999045,158.95820339999045,158.95820339999045,158.95820339999045,158.95820339999045,158.95820339999045,j,0.38650009999400936,159.37503560000914,159.37503560000914,159.37503560000914,159.37503560000914,159.37503560000914,159.37503560000914,159.6585630000045,160.77468989999034,160.7913310000149,160.7913310000149,160.7913310000149,160.7913310000149,160.7913310000149,160.7913310000149,160.7913310000149,160.7913310000149,160.7913310000149,160.7913310000149,160.7913310000149,160.7913310000149,160.7913310000149,162.2062755000079,162.2062755000079,162.2062755000079,162.2062755000079,162.2062755000079,162.2062755000079,162.2062755000079,49,32,52,67,67,70,162.2062755000079,164.19038489999366,,,,,,,,,,,,３４６,f,２３,2023-05-21_17h56.08.421,RL,2022.2.5,60.352652614077776,
36,49,56,61,0,24,24,24,,,,,,,,,,,None,164.19038489999366,164.19038489999366,164.19038489999366,164.19038489999366,164.19038489999366,164.19038489999366,f,0.2833847000147216,164.49278329999652,164.49278329999652,164.49278329999652,164.49278329999652,164.49278329999652,164.49278329999652,164.7905287000176,166.30717400001595,166.30717400001595,166.30717400001595,166.30717400001595,166.30717400001595,166.30717400001595,166.30717400001595,166.30717400001595,166.30717400001595,166.30717400001595,166.30717400001595,166.30717400001595,166.30717400001595,166.30717400001595,168.12194450001698,168.12194450001698,168.12194450001698,168.12194450001698,168.12194450001698,168.12194450001698,168.12194450001698,56,36,49,61,56,70,168.12194450001698,170.10596020001685,,,,,,,,,,,,３４６,f,２３,2023-05-21_17h56.08.421,RL,2022.2.5,60.352652614077776,
34,51,52,59,0,25,25,25,,,,,,,,,,,None,170.10596020001685,170.10596020001685,170.10596020001685,170.10596020001685,170.10596020001685,170.10596020001685,j,0.24521019999519922,170.3731412999914,170.3731412999914,170.3731412999914,170.3731412999914,170.3731412999914,170.3731412999914,170.65613340001437,171.989722600003,172.00622280000243,172.00622280000243,172.00622280000243,172.00622280000243,172.00622280000243,172.00622280000243,172.00622280000243,172.00622280000243,172.00622280000243,172.00622280000243,172.00622280000243,172.00622280000243,172.00622280000243,173.63705550000304,173.63705550000304,173.63705550000304,173.63705550000304,173.63705550000304,173.63705550000304,173.63705550000304,52,34,51,59,59,70,173.63705550000304,175.2720188999956,,,,,,,,,,,,３４６,f,２３,2023-05-21_17h56.08.421,RL,2022.2.5,60.352652614077776,
30,54,57,67,0,26,26,26,,,,,,,,,,,None,175.2720188999956,175.2720188999956,175.2720188999956,175.2720188999956,175.2720188999956,175.2720188999956,j,0.3117596000083722,175.60561739999685,175.60561739999685,175.60561739999685,175.60561739999685,175.60561739999685,175.60561739999685,175.88849469998968,176.7721811000083,176.7884682000149,176.7884682000149,176.7884682000149,176.7884682000149,176.7884682000149,176.7884682000149,176.7884682000149,176.7884682000149,176.7884682000149,176.7884682000149,176.7884682000149,176.7884682000149,176.7884682000149,177.97014029999264,177.97014029999264,177.97014029999264,177.97014029999264,177.97014029999264,177.97014029999264,177.97014029999264,57,30,54,67,67,70,177.97014029999264,179.8713349000027,,,,,,,,,,,,３４６,f,２３,2023-05-21_17h56.08.421,RL,2022.2.5,60.352652614077776,
18,56,56,72,0,27,27,27,,,,,,,,,,,None,179.8713349000027,179.8713349000027,179.8713349000027,179.8713349000027,179.8713349000027,179.8713349000027,j,0.603503999998793,180.50453619999462,180.50453619999462,180.50453619999462,180.50453619999462,180.50453619999462,180.50453619999462,180.78817050001817,182.45464599999832,182.47107470000628,182.47107470000628,182.47107470000628,182.47107470000628,182.47107470000628,182.47107470000628,182.47107470000628,182.47107470000628,182.47107470000628,182.47107470000628,182.47107470000628,182.47107470000628,182.47107470000628,184.43558819999453,184.43558819999453,184.43558819999453,184.43558819999453,184.43558819999453,184.43558819999453,184.43558819999453,56,18,56,72,72,70,184.43558819999453,186.35300219999044,,,,,,,,,,,,３４６,f,２３,2023-05-21_17h56.08.421,RL,2022.2.5,60.352652614077776,
27,52,49,67,0,28,28,28,,,,,,,,,,,None,186.35300219999044,186.35300219999044,186.35300219999044,186.35300219999044,186.35300219999044,186.35300219999044,j,0.2872759000165388,186.67092299999786,186.67092299999786,186.67092299999786,186.67092299999786,186.67092299999786,186.67092299999786,186.9700717999949,188.15332440001657,188.15332440001657,188.15332440001657,188.15332440001657,188.15332440001657,188.15332440001657,188.15332440001657,188.15332440001657,188.15332440001657,188.15332440001657,188.15332440001657,188.15332440001657,188.15332440001657,188.15332440001657,189.63461130001815,189.63461130001815,189.63461130001815,189.63461130001815,189.63461130001815,189.63461130001815,189.63461130001815,49,27,52,67,67,70,189.63461130001815,191.61940930000856,,,,,,,,,,,,３４６,f,２３,2023-05-21_17h56.08.421,RL,2022.2.5,60.352652614077776,
28,57,50,73,0,29,29,29,,,,,,,,,,,None,191.61940930000856,191.61940930000856,191.61940930000856,191.61940930000856,191.61940930000856,191.61940930000856,j,0.275891600002069,191.91933110001264,191.91933110001264,191.91933110001264,191.91933110001264,191.91933110001264,191.91933110001264,192.2024570000067,194.13554250000743,194.15248740001698,194.15248740001698,194.15248740001698,194.15248740001698,194.15248740001698,194.15248740001698,194.15248740001698,194.15248740001698,194.15248740001698,194.15248740001698,194.15248740001698,194.15248740001698,194.15248740001698,196.3835015000077,196.3835015000077,196.3835015000077,196.3835015000077,196.3835015000077,196.3835015000077,196.3835015000077,50,28,57,73,73,70,196.3835015000077,198.2680009000178,,,,,,,,,,,,３４６,f,２３,2023-05-21_17h56.08.421,RL,2022.2.5,60.352652614077776,
30,60,47,64,0,30,30,30,,,,,,,,,,,None,198.2680009000178,198.2680009000178,198.2680009000178,198.2680009000178,198.2680009000178,198.2680009000178,j,0.36474530000123195,198.65148950001458,198.65148950001458,198.65148950001458,198.65148950001458,198.65148950001458,198.65148950001458,198.95152229999076,200.0511036000098,200.0511036000098,200.0511036000098,200.0511036000098,200.0511036000098,200.0511036000098,200.0511036000098,200.0511036000098,200.0511036000098,200.0511036000098,200.0511036000098,200.0511036000098,200.0511036000098,200.0511036000098,201.44932420001714,201.44932420001714,201.44932420001714,201.44932420001714,201.44932420001714,201.44932420001714,201.44932420001714,47,30,60,64,64,70,201.44932420001714,203.11725159999332,,,,,,,,,,,,３４６,f,２３,2023-05-21_17h56.08.421,RL,2022.2.5,60.352652614077776,
20,56,55,68,0,31,31,31,,,,,,,,,,,None,203.11725159999332,203.11725159999332,203.11725159999332,203.11725159999332,203.11725159999332,203.11725159999332,j,0.4568544999929145,203.60081470001023,203.60081470001023,203.60081470001023,203.60081470001023,203.60081470001023,203.60081470001023,203.88369799999055,205.1167429999914,205.13398280000547,205.13398280000547,205.13398280000547,205.13398280000547,205.13398280000547,205.13398280000547,205.13398280000547,205.13398280000547,205.13398280000547,205.13398280000547,205.13398280000547,205.13398280000547,205.13398280000547,206.66504680001526,206.66504680001526,206.66504680001526,206.66504680001526,206.66504680001526,206.66504680001526,206.66504680001526,55,20,56,68,68,70,206.66504680001526,208.282999499992,,,,,,,,,,,,３４６,f,２３,2023-05-21_17h56.08.421,RL,2022.2.5,60.352652614077776,
18,62,46,73,0,32,32,32,,,,,,,,,,,None,208.282999499992,208.282999499992,208.282999499992,208.282999499992,208.282999499992,208.282999499992,j,0.4030927999992855,208.71933039999567,208.71933039999567,208.71933039999567,208.71933039999567,208.71933039999567,208.71933039999567,208.99954069999512,210.36593170001288,210.3825169999909,210.3825169999909,210.3825169999909,210.3825169999909,210.3825169999909,210.3825169999909,210.3825169999909,210.3825169999909,210.3825169999909,210.3825169999909,210.3825169999909,210.3825169999909,210.3825169999909,212.0476416000165,212.0476416000165,212.0476416000165,212.0476416000165,212.0476416000165,212.0476416000165,212.0476416000165,46,18,62,73,73,70,212.0476416000165,213.89812279999023,,,,,,,,,,,,３４６,f,２３,2023-05-21_17h56.08.421,RL,2022.2.5,60.352652614077776,
20,58,48,72,0,33,33,33,,,,,,,,,,,None,213.89812279999023,213.89812279999023,213.89812279999023,213.89812279999023,213.89812279999023,213.89812279999023,j,0.5423114000004716,214.46655479999026,214.46655479999026,214.46655479999026,214.46655479999026,214.46655479999026,214.46655479999026,214.76515210000798,216.4483165999991,216.4483165999991,216.4483165999991,216.4483165999991,216.4483165999991,216.4483165999991,216.4483165999991,216.4483165999991,216.4483165999991,216.4483165999991,216.4483165999991,216.4483165999991,216.4483165999991,216.4483165999991,218.42953290001606,218.42953290001606,218.42953290001606,218.42953290001606,218.42953290001606,218.42953290001606,218.42953290001606,48,20,58,72,72,70,218.42953290001606,219.98080710001523,,,,,,,,,,,,３４６,f,２３,2023-05-21_17h56.08.421,RL,2022.2.5,60.352652614077776,
27,58,61,77,0,34,34,34,,,,,,,,,,,None,219.98080710001523,219.98080710001523,219.98080710001523,219.98080710001523,219.98080710001523,219.98080710001523,j,0.29556850000517443,220.29922420001822,220.29922420001822,220.29922420001822,220.29922420001822,220.29922420001822,220.29922420001822,220.5973682999902,222.33068600000115,222.33068600000115,222.33068600000115,222.33068600000115,222.33068600000115,222.33068600000115,222.33068600000115,222.33068600000115,222.33068600000115,222.33068600000115,222.33068600000115,222.33068600000115,222.33068600000115,222.33068600000115,224.36192329999176,224.36192329999176,224.36192329999176,224.36192329999176,224.36192329999176,224.36192329999176,224.36192329999176,61,27,58,77,77,70,224.36192329999176,226.34610280001652,,,,,,,,,,,,３４６,f,２３,2023-05-21_17h56.08.421,RL,2022.2.5,60.352652614077776,
23,52,53,68,0,35,35,35,,,,,,,,,,,None,226.34610280001652,226.34610280001652,226.34610280001652,226.34610280001652,226.34610280001652,226.34610280001652,j,0.4575336999841966,226.83053510001628,226.83053510001628,226.83053510001628,226.83053510001628,226.83053510001628,226.83053510001628,227.13022580000688,228.64665780001087,228.64665780001087,228.64665780001087,228.64665780001087,228.64665780001087,228.64665780001087,228.64665780001087,228.64665780001087,228.64665780001087,228.64665780001087,228.64665780001087,228.64665780001087,228.64665780001087,228.64665780001087,230.4608164000092,230.4608164000092,230.4608164000092,230.4608164000092,230.4608164000092,230.4608164000092,230.4608164000092,53,23,52,68,68,70,230.4608164000092,232.46172419999493,,,,,,,,,,,,３４６,f,２３,2023-05-21_17h56.08.421,RL,2022.2.5,60.352652614077776,
22,44,50,72,0,36,36,36,,,,,,,,,,,None,232.46172419999493,232.46172419999493,232.46172419999493,232.46172419999493,232.46172419999493,232.46172419999493,j,0.3349545999953989,232.8330896999978,232.8330896999978,232.8330896999978,232.8330896999978,232.8330896999978,232.8330896999978,233.1288399999903,235.01190260000294,235.01190260000294,235.01190260000294,235.01190260000294,235.01190260000294,235.01190260000294,235.01190260000294,235.01190260000294,235.01190260000294,235.01190260000294,235.01190260000294,235.01190260000294,235.01190260000294,235.01190260000294,237.19334910000907,237.19334910000907,237.19334910000907,237.19334910000907,237.19334910000907,237.19334910000907,237.19334910000907,50,22,44,72,72,70,237.19334910000907,239.14389860001393,,,,,,,,,,,,３４６,f,２３,2023-05-21_17h56.08.421,RL,2022.2.5,60.352652614077776,
26,46,62,82,0,37,37,37,,,,,,,,,,,None,239.14389860001393,239.14389860001393,239.14389860001393,239.14389860001393,239.14389860001393,239.14389860001393,j,0.24586379999527708,239.4109843999904,239.4109843999904,239.4109843999904,239.4109843999904,239.4109843999904,239.4109843999904,239.71057389999623,240.76050989999203,240.76050989999203,240.76050989999203,240.76050989999203,240.76050989999203,240.76050989999203,240.76050989999203,240.76050989999203,240.76050989999203,240.76050989999203,240.76050989999203,240.76050989999203,240.76050989999203,240.76050989999203,242.1088555000024,242.1088555000024,242.1088555000024,242.1088555000024,242.1088555000024,242.1088555000024,242.1088555000024,62,26,46,82,82,70,242.1088555000024,244.0098413999949,,,,,,,,,,,,３４６,f,２３,2023-05-21_17h56.08.421,RL,2022.2.5,60.352652614077776,
29,56,52,84,0,38,38,38,,,,,,,,,,,None,244.0098413999949,244.0098413999949,244.0098413999949,244.0098413999949,244.0098413999949,244.0098413999949,j,0.39659789999132045,244.42693710001186,244.42693710001186,244.42693710001186,244.42693710001186,244.42693710001186,244.42693710001186,244.71020050000516,246.67673169999034,246.6930338999955,246.6930338999955,246.6930338999955,246.6930338999955,246.6930338999955,246.6930338999955,246.6930338999955,246.6930338999955,246.6930338999955,246.6930338999955,246.6930338999955,246.6930338999955,246.6930338999955,248.9576531999919,248.9576531999919,248.9576531999919,248.9576531999919,248.9576531999919,248.9576531999919,248.9576531999919,52,29,56,84,84,70,248.9576531999919,250.7922794999904,,,,,,,,,,,,３４６,f,２３,2023-05-21_17h56.08.421,RL,2022.2.5,60.352652614077776,
29,59,59,72,0,39,39,39,,,,,,,,,,,None,250.7922794999904,250.7922794999904,250.7922794999904,250.7922794999904,250.7922794999904,250.7922794999904,j,0.28097420002450235,251.09404660001746,251.09404660001746,251.09404660001746,251.09404660001746,251.09404660001746,251.09404660001746,251.3921427000023,253.37533629999962,253.37533629999962,253.37533629999962,253.37533629999962,253.37533629999962,253.37533629999962,253.37533629999962,253.37533629999962,253.37533629999962,253.37533629999962,253.37533629999962,253.37533629999962,253.37533629999962,253.37533629999962,255.65693520000787,255.65693520000787,255.65693520000787,255.65693520000787,255.65693520000787,255.65693520000787,255.65693520000787,59,29,59,72,72,70,255.65693520000787,257.64104119999683,,,,,,,,,,,,３４６,f,２３,2023-05-21_17h56.08.421,RL,2022.2.5,60.352652614077776,
24,53,52,69,0,40,40,40,,,,,,,,,,,None,257.64104119999683,257.64104119999683,257.64104119999683,257.64104119999683,257.64104119999683,257.64104119999683,j,0.2616072000237182,257.92445439999574,257.92445439999574,257.92445439999574,257.92445439999574,257.92445439999574,257.92445439999574,258.2075848999957,260.02406170000904,260.0405745000171,260.0405745000171,260.0405745000171,260.0405745000171,260.0405745000171,260.0405745000171,260.0405745000171,260.0405745000171,260.0405745000171,260.0405745000171,260.0405745000171,260.0405745000171,260.0405745000171,262.1554603000113,262.1554603000113,262.1554603000113,262.1554603000113,262.1554603000113,262.1554603000113,262.1554603000113,52,24,53,69,69,70,262.1554603000113,264.13961040001595,,,,,,,,,,,,３４６,f,２３,2023-05-21_17h56.08.421,RL,2022.2.5,60.352652614077776,
22,62,55,68,0,41,41,41,,,,,,,,,,,None,264.13961040001595,264.13961040001595,264.13961040001595,264.13961040001595,264.13961040001595,264.13961040001595,j,0.30602399999042973,264.47528250000323,264.47528250000323,264.47528250000323,264.47528250000323,264.47528250000323,264.47528250000323,264.75648720000754,266.2394950000162,266.2561672000156,266.2561672000156,266.2561672000156,266.2561672000156,266.2561672000156,266.2561672000156,266.2561672000156,266.2561672000156,266.2561672000156,266.2561672000156,266.2561672000156,266.2561672000156,266.2561672000156,268.0380579000048,268.0380579000048,268.0380579000048,268.0380579000048,268.0380579000048,268.0380579000048,268.0380579000048,55,22,62,68,68,70,268.0380579000048,269.95509200001834,,,,,,,,,,,,３４６,f,２３,2023-05-21_17h56.08.421,RL,2022.2.5,60.352652614077776,
33,51,62,53,0,42,42,42,,,,,,,,,,,None,269.95509200001834,269.95509200001834,269.95509200001834,269.95509200001834,269.95509200001834,269.95509200001834,j,0.3757859999896027,270.3563992000127,270.3563992000127,270.3563992000127,270.3563992000127,270.3563992000127,270.3563992000127,270.6388907000073,271.73857220000355,271.7554378999921,271.7554378999921,271.7554378999921,271.7554378999921,271.7554378999921,271.7554378999921,271.7554378999921,271.7554378999921,271.7554378999921,271.7554378999921,271.7554378999921,271.7554378999921,271.7554378999921,273.15333200001623,273.15333200001623,273.15333200001623,273.15333200001623,273.15333200001623,273.15333200001623,273.15333200001623,62,33,51,53,53,70,273.15333200001623,275.12139270000625,,,,,,,,,,,,３４６,f,２３,2023-05-21_17h56.08.421,RL,2022.2.5,60.352652614077776,
25,49,63,66,0,43,43,43,,,,,,,,,,,None,275.12139270000625,275.12139270000625,275.12139270000625,275.12139270000625,275.12139270000625,275.12139270000625,r,0.4216934999858495,275.57143270000233,275.57143270000233,275.57143270000233,275.57143270000233,275.57143270000233,275.57143270000233,275.85483810000005,277.53776559999096,277.5543039999902,277.5543039999902,277.5543039999902,277.5543039999902,277.5543039999902,277.5543039999902,277.5543039999902,277.5543039999902,277.5543039999902,277.5543039999902,277.5543039999902,277.5543039999902,277.5543039999902,279.5354867000133,279.5354867000133,279.5354867000133,279.5354867000133,279.5354867000133,279.5354867000133,279.5354867000133,63,25,49,66,25,70,279.5354867000133,281.48661439999705,,,,,,,,,,,,３４６,f,２３,2023-05-21_17h56.08.421,RL,2022.2.5,60.352652614077776,
32,52,65,73,0,44,44,44,,,,,,,,,,,None,281.48661439999705,281.48661439999705,281.48661439999705,281.48661439999705,281.48661439999705,281.48661439999705,j,0.23750529999961145,281.7540899000014,281.7540899000014,281.7540899000014,281.7540899000014,281.7540899000014,281.7540899000014,282.0373080999998,282.93718030001037,282.9533222000173,282.9533222000173,282.9533222000173,282.9533222000173,282.9533222000173,282.9533222000173,282.9533222000173,282.9533222000173,282.9533222000173,282.9533222000173,282.9533222000173,282.9533222000173,282.9533222000173,284.1516743999964,284.1516743999964,284.1516743999964,284.1516743999964,284.1516743999964,284.1516743999964,284.1516743999964,65,32,52,73,73,70,284.1516743999964,285.91943790001096,,,,,,,,,,,,３４６,f,２３,2023-05-21_17h56.08.421,RL,2022.2.5,60.352652614077776,
30,55,56,62,0,45,45,45,,,,,,,,,,,None,285.91943790001096,285.91943790001096,285.91943790001096,285.91943790001096,285.91943790001096,285.91943790001096,j,0.4081380999996327,286.3550739999919,286.3550739999919,286.3550739999919,286.3550739999919,286.3550739999919,286.3550739999919,286.6361196000071,287.46953740000026,287.48636680000345,287.48636680000345,287.48636680000345,287.48636680000345,287.48636680000345,287.48636680000345,287.48636680000345,287.48636680000345,287.48636680000345,287.48636680000345,287.48636680000345,287.48636680000345,287.48636680000345,288.61725199999637,288.61725199999637,288.61725199999637,288.61725199999637,288.61725199999637,288.61725199999637,288.61725199999637,56,30,55,62,62,70,288.61725199999637,290.2522292000067,,,,,,,,,,,,３４６,f,２３,2023-05-21_17h56.08.421,RL,2022.2.5,60.352652614077776,
29,49,56,62,0,46,46,46,,,,,,,,,,,None,290.2522292000067,290.2522292000067,290.2522292000067,290.2522292000067,290.2522292000067,290.2522292000067,j,0.2784840999811422,290.5544995999953,290.5544995999953,290.5544995999953,290.5544995999953,290.5544995999953,290.5544995999953,290.85252720001154,292.70166049999534,292.70166049999534,292.70166049999534,292.70166049999534,292.70166049999534,292.70166049999534,292.70166049999534,292.70166049999534,292.70166049999534,292.70166049999534,292.70166049999534,292.70166049999534,292.70166049999534,292.70166049999534,294.8499468000082,294.8499468000082,294.8499468000082,294.8499468000082,294.8499468000082,294.8499468000082,294.8499468000082,56,29,49,62,62,70,294.8499468000082,296.651007700013,,,,,,,,,,,,３４６,f,２３,2023-05-21_17h56.08.421,RL,2022.2.5,60.352652614077776,
41,55,68,55,0,47,47,47,,,,,,,,,,,None,296.651007700013,296.651007700013,296.651007700013,296.651007700013,296.651007700013,296.651007700013,j,0.27207660002750345,296.9512778999924,296.9512778999924,296.9512778999924,296.9512778999924,296.9512778999924,296.9512778999924,297.25093909999123,298.35065350000514,298.35065350000514,298.35065350000514,298.35065350000514,298.35065350000514,298.35065350000514,298.35065350000514,298.35065350000514,298.35065350000514,298.35065350000514,298.35065350000514,298.35065350000514,298.35065350000514,298.35065350000514,299.7486704000039,299.7486704000039,299.7486704000039,299.7486704000039,299.7486704000039,299.7486704000039,299.7486704000039,68,41,55,55,55,70,299.7486704000039,301.45026489999145,,,,,,,,,,,,３４６,f,２３,2023-05-21_17h56.08.421,RL,2022.2.5,60.352652614077776,
45,48,58,56,0,48,48,48,,,,,,,,,,,None,301.45026489999145,301.45026489999145,301.45026489999145,301.45026489999145,301.45026489999145,301.45026489999145,r,0.28146850000484847,301.75166969999555,301.75166969999555,301.75166969999555,301.75166969999555,301.75166969999555,301.75166969999555,302.0340545999934,303.7665951999952,303.78331810000236,303.78331810000236,303.78331810000236,303.78331810000236,303.78331810000236,303.78331810000236,303.78331810000236,303.78331810000236,303.78331810000236,303.78331810000236,303.78331810000236,303.78331810000236,303.78331810000236,305.81491559999995,305.81491559999995,305.81491559999995,305.81491559999995,305.81491559999995,305.81491559999995,305.81491559999995,58,45,48,56,45,70,305.81491559999995,307.5490995,,,,,,,,,,,,３４６,f,２３,2023-05-21_17h56.08.421,RL,2022.2.5,60.352652614077776,
39,56,52,54,0,49,49,49,,,,,,,,,,,None,307.5490995,307.5490995,307.5490995,307.5490995,307.5490995,307.5490995,j,0.22601330000907183,307.80015399999684,307.80015399999684,307.80015399999684,307.80015399999684,307.80015399999684,307.80015399999684,308.082324100018,309.8321700000088,309.84900930000003,309.84900930000003,309.84900930000003,309.84900930000003,309.84900930000003,309.84900930000003,309.84900930000003,309.84900930000003,309.84900930000003,309.84900930000003,309.84900930000003,309.84900930000003,309.84900930000003,311.89649800001644,311.89649800001644,311.89649800001644,311.89649800001644,311.89649800001644,311.89649800001644,311.89649800001644,52,39,56,54,54,70,311.89649800001644,313.6150734999974,,,,,,,,,,,,３４６,f,２３,2023-05-21_17h56.08.421,RL,2022.2.5,60.352652614077776,
45,53,59,65,0,50,50,50,,,,,,,,,,,None,313.6150734999974,313.6150734999974,313.6150734999974,313.6150734999974,313.6150734999974,313.6150734999974,f,0.30512579999049194,313.9496485000127,313.9496485000127,313.9496485000127,313.9496485000127,313.9496485000127,313.9496485000127,314.24792749999324,316.14763690001564,316.14763690001564,316.14763690001564,316.14763690001564,316.14763690001564,316.14763690001564,316.14763690001564,316.14763690001564,316.14763690001564,316.14763690001564,316.14763690001564,316.14763690001564,316.14763690001564,316.14763690001564,318.3456273000047,318.3456273000047,318.3456273000047,318.3456273000047,318.3456273000047,318.3456273000047,318.3456273000047,59,45,53,65,59,70,318.3456273000047,320.14667670000927,,,,,,,,,,,,３４６,f,２３,2023-05-21_17h56.08.421,RL,2022.2.5,60.352652614077776,
32,45,55,70,0,51,51,51,,,,,,,,,,,None,320.14667670000927,320.14667670000927,320.14667670000927,320.14667670000927,320.14667670000927,320.14667670000927,j,0.26198049998492934,320.43097770001623,320.43097770001623,320.43097770001623,320.43097770001623,320.43097770001623,320.43097770001623,320.7301321999985,321.68001209999784,321.68001209999784,321.68001209999784,321.68001209999784,321.68001209999784,321.68001209999784,321.68001209999784,321.68001209999784,321.68001209999784,321.68001209999784,321.68001209999784,321.68001209999784,321.68001209999784,321.68001209999784,322.92849099999876,322.92849099999876,322.92849099999876,322.92849099999876,322.92849099999876,322.92849099999876,322.92849099999876,55,32,45,70,70,70,322.92849099999876,324.56278400000883,,,,,,,,,,,,３４６,f,２３,2023-05-21_17h56.08.421,RL,2022.2.5,60.352652614077776,
32,52,64,54,0,52,52,52,,,,,,,,,,,None,324.56278400000883,324.56278400000883,324.56278400000883,324.56278400000883,324.56278400000883,324.56278400000883,j,0.32982450001873076,324.9141920999973,324.9141920999973,324.9141920999973,324.9141920999973,324.9141920999973,324.9141920999973,325.1962458000053,326.5123286000162,326.52896120000514,326.52896120000514,326.52896120000514,326.52896120000514,326.52896120000514,326.52896120000514,326.52896120000514,326.52896120000514,326.52896120000514,326.52896120000514,326.52896120000514,326.52896120000514,326.52896120000514,328.14365330000874,328.14365330000874,328.14365330000874,328.14365330000874,328.14365330000874,328.14365330000874,328.14365330000874,64,32,52,54,54,70,328.14365330000874,330.1116345000046,,,,,,,,,,,,３４６,f,２３,2023-05-21_17h56.08.421,RL,2022.2.5,60.352652614077776,
32,58,60,65,0,53,53,53,,,,,,,,,,,None,330.1116345000046,330.1116345000046,330.1116345000046,330.1116345000046,330.1116345000046,330.1116345000046,f,0.2807092000148259,330.4129916999955,330.4129916999955,330.4129916999955,330.4129916999955,330.4129916999955,330.4129916999955,330.69530739999027,332.52811949999887,332.5447897000122,332.5447897000122,332.5447897000122,332.5447897000122,332.5447897000122,332.5447897000122,332.5447897000122,332.5447897000122,332.5447897000122,332.5447897000122,332.5447897000122,332.5447897000122,332.5447897000122,334.6761730000144,334.6761730000144,334.6761730000144,334.6761730000144,334.6761730000144,334.6761730000144,334.6761730000144,60,32,58,65,60,70,334.6761730000144,336.56075659999624,,,,,,,,,,,,３４６,f,２３,2023-05-21_17h56.08.421,RL,2022.2.5,60.352652614077776,
31,43,49,56,0,54,54,54,,,,,,,,,,,None,336.56075659999624,336.56075659999624,336.56075659999624,336.56075659999624,336.56075659999624,336.56075659999624,f,0.344300500000827,336.93024469999364,336.93024469999364,336.93024469999364,336.93024469999364,336.93024469999364,336.93024469999364,337.2107794000185,338.5440756000171,338.56062880001264,338.56062880001264,338.56062880001264,338.56062880001264,338.56062880001264,338.56062880001264,338.56062880001264,338.56062880001264,338.56062880001264,338.56062880001264,338.56062880001264,338.56062880001264,338.56062880001264,340.19164259999525,340.19164259999525,340.19164259999525,340.19164259999525,340.19164259999525,340.19164259999525,340.19164259999525,49,31,43,56,49,70,340.19164259999525,341.9594900000084,,,,,,,,,,,,３４６,f,２３,2023-05-21_17h56.08.421,RL,2022.2.5,60.352652614077776,
26,48,47,68,0,55,55,55,,,,,,,,,,,None,341.9594900000084,341.9594900000084,341.9594900000084,341.9594900000084,341.9594900000084,341.9594900000084,i,0.695698600000469,342.6773959000129,342.6773959000129,342.6773959000129,342.6773959000129,342.6773959000129,342.6773959000129,342.9762936999905,344.74298320000526,344.74298320000526,344.74298320000526,344.74298320000526,344.74298320000526,344.74298320000526,344.74298320000526,344.74298320000526,344.74298320000526,344.74298320000526,344.74298320000526,344.74298320000526,344.74298320000526,344.74298320000526,346.8072152000095,346.8072152000095,346.8072152000095,346.8072152000095,346.8072152000095,346.8072152000095,346.8072152000095,47,26,48,68,48,70,346.8072152000095,348.6249139000138,,,,,,,,,,,,３４６,f,２３,2023-05-21_17h56.08.421,RL,2022.2.5,60.352652614077776,
22,46,49,65,0,56,56,56,,,,,,,,,,,None,348.6249139000138,348.6249139000138,348.6249139000138,348.6249139000138,348.6249139000138,348.6249139000138,j,0.2468347999965772,348.89249440000276,348.89249440000276,348.89249440000276,348.89249440000276,348.89249440000276,348.89249440000276,349.19207340001594,350.0917536999914,350.0917536999914,350.0917536999914,350.0917536999914,350.0917536999914,350.0917536999914,350.0917536999914,350.0917536999914,350.0917536999914,350.0917536999914,350.0917536999914,350.0917536999914,350.0917536999914,350.0917536999914,351.28965170000447,351.28965170000447,351.28965170000447,351.28965170000447,351.28965170000447,351.28965170000447,351.28965170000447,49,22,46,65,65,70,351.28965170000447,352.9411597000144,,,,,,,,,,,,３４６,f,２３,2023-05-21_17h56.08.421,RL,2022.2.5,60.352652614077776,
23,48,48,54,0,57,57,57,,,,,,,,,,,None,352.9411597000144,352.9411597000144,352.9411597000144,352.9411597000144,352.9411597000144,352.9411597000144,j,0.44710039999336004,353.40846400000737,353.40846400000737,353.40846400000737,353.40846400000737,353.40846400000737,353.40846400000737,353.7081979000068,355.04545569999027,355.04545569999027,355.04545569999027,355.04545569999027,355.04545569999027,355.04545569999027,355.04545569999027,355.04545569999027,355.04545569999027,355.04545569999027,355.04545569999027,355.04545569999027,355.04545569999027,355.04545569999027,356.6386876000033,356.6386876000033,356.6386876000033,356.6386876000033,356.6386876000033,356.6386876000033,356.6386876000033,48,23,48,54,54,70,356.6386876000033,358.52347330001066,,,,,,,,,,,,３４６,f,２３,2023-05-21_17h56.08.421,RL,2022.2.5,60.352652614077776,
23,46,45,67,0,58,58,58,,,,,,,,,,,None,358.52347330001066,358.52347330001066,358.52347330001066,358.52347330001066,358.52347330001066,358.52347330001066,f,0.3323718000028748,358.87499260000186,358.87499260000186,358.87499260000186,358.87499260000186,358.87499260000186,358.87499260000186,359.15704730001744,361.0565570000035,361.0897336000053,361.0897336000053,361.0897336000053,361.0897336000053,361.0897336000053,361.0897336000053,361.0897336000053,361.0897336000053,361.0897336000053,361.0897336000053,361.0897336000053,361.0897336000053,361.0897336000053,363.287659900001,363.287659900001,363.287659900001,363.287659900001,363.287659900001,363.287659900001,363.287659900001,45,23,46,67,45,70,363.287659900001,365.2054388000106,,,,,,,,,,,,３４６,f,２３,2023-05-21_17h56.08.421,RL,2022.2.5,60.352652614077776,
29,53,48,59,0,59,59,59,,,,,,,,,,,None,365.2054388000106,365.2054388000106,365.2054388000106,365.2054388000106,365.2054388000106,365.2054388000106,j,0.3146359999955166,365.53925870000967,365.53925870000967,365.53925870000967,365.53925870000967,365.53925870000967,365.53925870000967,365.8226067000069,367.42239490000065,367.4386993999942,367.4386993999942,367.4386993999942,367.4386993999942,367.4386993999942,367.4386993999942,367.4386993999942,367.4386993999942,367.4386993999942,367.4386993999942,367.4386993999942,367.4386993999942,367.4386993999942,369.3368635000079,369.3368635000079,369.3368635000079,369.3368635000079,369.3368635000079,369.3368635000079,369.3368635000079,48,29,53,59,59,70,369.3368635000079,371.27142790000653,,,,,,,,,,,,３４６,f,２３,2023-05-21_17h56.08.421,RL,2022.2.5,60.352652614077776,
28,56,42,51,0,60,60,60,,,,,,,,,,,None,371.27142790000653,371.27142790000653,371.27142790000653,371.27142790000653,371.27142790000653,371.27142790000653,j,0.2808309000101872,371.57152319999295,371.57152319999295,371.57152319999295,371.57152319999295,371.57152319999295,371.57152319999295,371.85501140000997,373.4545584000007,373.4711496999953,373.4711496999953,373.4711496999953,373.4711496999953,373.4711496999953,373.4711496999953,373.4711496999953,373.4711496999953,373.4711496999953,373.4711496999953,373.4711496999953,373.4711496999953,373.4711496999953,375.36895530001493,375.36895530001493,375.36895530001493,375.36895530001493,375.36895530001493,375.36895530001493,375.36895530001493,42,28,56,51,51,70,375.36895530001493,377.103603800002,,,,,,,,,,,,３４６,f,２３,2023-05-21_17h56.08.421,RL,2022.2.5,60.352652614077776,
36,61,40,62,0,61,61,61,,,,,,,,,,,None,377.103603800002,377.103603800002,377.103603800002,377.103603800002,377.103603800002,377.103603800002,i,0.2263747999968473,377.35714030000963,377.35714030000963,377.35714030000963,377.35714030000963,377.35714030000963,377.35714030000963,377.6370564000099,379.18689989999984,379.22031150001567,379.22031150001567,379.22031150001567,379.22031150001567,379.22031150001567,379.22031150001567,379.22031150001567,379.22031150001567,379.22031150001567,379.22031150001567,379.22031150001567,379.22031150001567,379.22031150001567,381.0681270000059,381.0681270000059,381.0681270000059,381.0681270000059,381.0681270000059,381.0681270000059,381.0681270000059,40,36,61,62,61,70,381.0681270000059,382.58587060001446,,,,,,,,,,,,３４６,f,２３,2023-05-21_17h56.08.421,RL,2022.2.5,60.352652614077776,
31,59,48,56,0,62,62,62,,,,,,,,,,,None,382.58587060001446,382.58587060001446,382.58587060001446,382.58587060001446,382.58587060001446,382.58587060001446,i,0.31092610000632703,382.91941590001807,382.91941590001807,382.91941590001807,382.91941590001807,382.91941590001807,382.91941590001807,383.20282480001333,385.0354973000067,385.0520945000171,385.0520945000171,385.0520945000171,385.0520945000171,385.0520945000171,385.0520945000171,385.0520945000171,385.0520945000171,385.0520945000171,385.0520945000171,385.0520945000171,385.0520945000171,385.0520945000171,387.18364410000504,387.18364410000504,387.18364410000504,387.18364410000504,387.18364410000504,387.18364410000504,387.18364410000504,48,31,59,56,59,70,387.18364410000504,388.818482600007,,,,,,,,,,,,３４６,f,２３,2023-05-21_17h56.08.421,RL,2022.2.5,60.352652614077776,
34,59,47,50,0,63,63,63,,,,,,,,,,,None,388.818482600007,388.818482600007,388.818482600007,388.818482600007,388.818482600007,388.818482600007,j,0.30329350000829436,389.15271439999924,389.15271439999924,389.15271439999924,389.15271439999924,389.15271439999924,389.15271439999924,389.4349125000008,391.1013193000108,391.1177943999937,391.1177943999937,391.1177943999937,391.1177943999937,391.1177943999937,391.1177943999937,391.1177943999937,391.1177943999937,391.1177943999937,391.1177943999937,391.1177943999937,391.1177943999937,391.1177943999937,393.08285390000674,393.08285390000674,393.08285390000674,393.08285390000674,393.08285390000674,393.08285390000674,393.08285390000674,47,34,59,50,50,70,393.08285390000674,395.01687890000176,,,,,,,,,,,,３４６,f,２３,2023-05-21_17h56.08.421,RL,2022.2.5,60.352652614077776,
35,61,43,52,0,64,64,64,,,,,,,,,,,None,395.01687890000176,395.01687890000176,395.01687890000176,395.01687890000176,395.01687890000176,395.01687890000176,f,0.52273339999374,395.5681482999935,395.5681482999935,395.5681482999935,395.5681482999935,395.5681482999935,395.5681482999935,395.86733870001626,397.28322400001343,397.28322400001343,397.28322400001343,397.28322400001343,397.28322400001343,397.28322400001343,397.28322400001343,397.28322400001343,397.28322400001343,397.28322400001343,397.28322400001343,397.28322400001343,397.28322400001343,397.28322400001343,398.9981807000004,398.9981807000004,398.9981807000004,398.9981807000004,398.9981807000004,398.9981807000004,398.9981807000004,43,35,61,52,43,70,398.9981807000004,400.7990170000121,,,,,,,,,,,,３４６,f,２３,2023-05-21_17h56.08.421,RL,2022.2.5,60.352652614077776,
42,65,42,54,0,65,65,65,,,,,,,,,,,None,400.7990170000121,400.7990170000121,400.7990170000121,400.7990170000121,400.7990170000121,400.7990170000121,i,0.2741188000072725,401.0994890000147,401.0994890000147,401.0994890000147,401.0994890000147,401.0994890000147,401.0994890000147,401.3833256000071,402.3663968000037,402.3825652000087,402.3825652000087,402.3825652000087,402.3825652000087,402.3825652000087,402.3825652000087,402.3825652000087,402.3825652000087,402.3825652000087,402.3825652000087,402.3825652000087,402.3825652000087,402.3825652000087,403.66448100001435,403.66448100001435,403.66448100001435,403.66448100001435,403.66448100001435,403.66448100001435,403.66448100001435,42,42,65,54,65,70,403.66448100001435,405.61482029999024,,,,,,,,,,,,３４６,f,２３,2023-05-21_17h56.08.421,RL,2022.2.5,60.352652614077776,
41,67,40,50,0,66,66,66,,,,,,,,,,,None,405.61482029999024,405.61482029999024,405.61482029999024,405.61482029999024,405.61482029999024,405.61482029999024,i,0.29578859999310225,405.9329393999942,405.9329393999942,405.9329393999942,405.9329393999942,405.9329393999942,405.9329393999942,406.2320376000134,408.0986045000027,408.0986045000027,408.0986045000027,408.0986045000027,408.0986045000027,408.0986045000027,408.0986045000027,408.0986045000027,408.0986045000027,408.0986045000027,408.0986045000027,408.0986045000027,408.0986045000027,408.0986045000027,410.26281149999704,410.26281149999704,410.26281149999704,410.26281149999704,410.26281149999704,410.26281149999704,410.26281149999704,40,41,67,50,67,70,410.26281149999704,411.99725790001685,,,,,,,,,,,,３４６,f,２３,2023-05-21_17h56.08.421,RL,2022.2.5,60.352652614077776,
38,67,45,47,0,67,67,67,,,,,,,,,,,None,411.99725790001685,411.99725790001685,411.99725790001685,411.99725790001685,411.99725790001685,411.99725790001685,i,0.2439911000255961,412.26510540000163,412.26510540000163,412.26510540000163,412.26510540000163,412.26510540000163,412.26510540000163,412.5478727000009,413.3977417999995,413.41409679999924,413.41409679999924,413.41409679999924,413.41409679999924,413.41409679999924,413.41409679999924,413.41409679999924,413.41409679999924,413.41409679999924,413.41409679999924,413.41409679999924,413.41409679999924,413.41409679999924,414.56200000000536,414.56200000000536,414.56200000000536,414.56200000000536,414.56200000000536,414.56200000000536,414.56200000000536,45,38,67,47,67,70,414.56200000000536,416.3468576000014,,,,,,,,,,,,３４６,f,２３,2023-05-21_17h56.08.421,RL,2022.2.5,60.352652614077776,
39,68,45,53,0,68,68,68,,,,,,,,,,,None,416.3468576000014,416.3468576000014,416.3468576000014,416.3468576000014,416.3468576000014,416.3468576000014,i,0.47973669998464175,416.8478646000149,416.8478646000149,416.8478646000149,416.8478646000149,416.8478646000149,416.8478646000149,417.1303054000018,418.5129637999926,418.52947790001053,418.52947790001053,418.52947790001053,418.52947790001053,418.52947790001053,418.52947790001053,418.52947790001053,418.52947790001053,418.52947790001053,418.52947790001053,418.52947790001053,418.52947790001053,418.52947790001053,420.2110410000023,420.2110410000023,420.2110410000023,420.2110410000023,420.2110410000023,420.2110410000023,420.2110410000023,45,39,68,53,68,70,420.2110410000023,421.81242659999407,,,,,,,,,,,,３４６,f,２３,2023-05-21_17h56.08.421,RL,2022.2.5,60.352652614077776,
47,62,49,48,0,69,69,69,,,,,,,,,,,None,421.81242659999407,421.81242659999407,421.81242659999407,421.81242659999407,421.81242659999407,421.81242659999407,i,0.293635699985316,422.1293171000143,422.1293171000143,422.1293171000143,422.1293171000143,422.1293171000143,422.1293171000143,422.4123258999898,423.66225130000385,423.67886559999897,423.67886559999897,423.67886559999897,423.67886559999897,423.67886559999897,423.67886559999897,423.67886559999897,423.67886559999897,423.67886559999897,423.67886559999897,423.67886559999897,423.67886559999897,423.67886559999897,425.22727649999433,425.22727649999433,425.22727649999433,425.22727649999433,425.22727649999433,425.22727649999433,425.22727649999433,49,47,62,48,62,70,425.22727649999433,426.7446053000167,,,,,,,,,,,,３４６,f,２３,2023-05-21_17h56.08.421,RL,2022.2.5,60.352652614077776,
58,59,39,46,0,70,70,70,,,,,,,,,,,None,426.7446053000167,426.7446053000167,426.7446053000167,426.7446053000167,426.7446053000167,426.7446053000167,i,0.35245629999553785,427.12853330001235,427.12853330001235,427.12853330001235,427.12853330001235,427.12853330001235,427.12853330001235,427.41164330000174,429.26155920000747,429.2777223000012,429.2777223000012,429.2777223000012,429.2777223000012,429.2777223000012,429.2777223000012,429.2777223000012,429.2777223000012,429.2777223000012,429.2777223000012,429.2777223000012,429.2777223000012,429.2777223000012,431.4258790000167,431.4258790000167,431.4258790000167,431.4258790000167,431.4258790000167,431.4258790000167,431.4258790000167,39,58,59,46,59,70,431.4258790000167,432.9769949000038,,,,,,,,,,,,３４６,f,２３,2023-05-21_17h56.08.421,RL,2022.2.5,60.352652614077776,
48,63,41,44,0,71,71,71,,,,,,,,,,,None,432.9769949000038,432.9769949000038,432.9769949000038,432.9769949000038,432.9769949000038,432.9769949000038,i,0.29422330000670627,433.29743599999347,433.29743599999347,433.29743599999347,433.29743599999347,433.29743599999347,433.29743599999347,433.5773330999946,434.92683489999035,434.94388700000127,434.94388700000127,434.94388700000127,434.94388700000127,434.94388700000127,434.94388700000127,434.94388700000127,434.94388700000127,434.94388700000127,434.94388700000127,434.94388700000127,434.94388700000127,434.94388700000127,436.5915192000102,436.5915192000102,436.5915192000102,436.5915192000102,436.5915192000102,436.5915192000102,436.5915192000102,41,48,63,44,63,70,436.5915192000102,438.1594258999976,,,,,,,,,,,,３４６,f,２３,2023-05-21_17h56.08.421,RL,2022.2.5,60.352652614077776,
50,58,54,52,0,72,72,72,,,,,,,,,,,None,438.1594258999976,438.1594258999976,438.1594258999976,438.1594258999976,438.1594258999976,438.1594258999976,i,0.2918614999798592,438.47987280000234,438.47987280000234,438.47987280000234,438.47987280000234,438.47987280000234,438.47987280000234,438.77642700000433,440.50950159999775,440.50950159999775,440.50950159999775,440.50950159999775,440.50950159999775,440.50950159999775,440.50950159999775,440.50950159999775,440.50950159999775,440.50950159999775,440.50950159999775,440.50950159999775,440.50950159999775,440.50950159999775,442.54056510000373,442.54056510000373,442.54056510000373,442.54056510000373,442.54056510000373,442.54056510000373,442.54056510000373,54,50,58,52,58,70,442.54056510000373,444.3913625999994,,,,,,,,,,,,３４６,f,２３,2023-05-21_17h56.08.421,RL,2022.2.5,60.352652614077776,
50,71,59,52,0,73,73,73,,,,,,,,,,,None,444.3913625999994,444.3913625999994,444.3913625999994,444.3913625999994,444.3913625999994,444.3913625999994,i,0.2981627999979537,444.70853720000014,444.70853720000014,444.70853720000014,444.70853720000014,444.70853720000014,444.70853720000014,444.99206370001775,445.8250709999993,445.8418064000143,445.8418064000143,445.8418064000143,445.8418064000143,445.8418064000143,445.8418064000143,445.8418064000143,445.8418064000143,445.8418064000143,445.8418064000143,445.8418064000143,445.8418064000143,445.8418064000143,446.973275700002,446.973275700002,446.973275700002,446.973275700002,446.973275700002,446.973275700002,446.973275700002,59,50,71,52,71,70,446.973275700002,448.9409291000047,,,,,,,,,,,,３４６,f,２３,2023-05-21_17h56.08.421,RL,2022.2.5,60.352652614077776,
64,70,53,44,0,74,74,74,,,,,,,,,,,None,448.9409291000047,448.9409291000047,448.9409291000047,448.9409291000047,448.9409291000047,448.9409291000047,i,0.30975479999324307,449.2745250000153,449.2745250000153,449.2745250000153,449.2745250000153,449.2745250000153,449.2745250000153,449.5582176000171,451.00743329999386,451.0240587000153,451.0240587000153,451.0240587000153,451.0240587000153,451.0240587000153,451.0240587000153,451.0240587000153,451.0240587000153,451.0240587000153,451.0240587000153,451.0240587000153,451.0240587000153,451.0240587000153,452.77221379999537,452.77221379999537,452.77221379999537,452.77221379999537,452.77221379999537,452.77221379999537,452.77221379999537,53,64,70,44,70,70,452.77221379999537,454.65541890001623,,,,,,,,,,,,３４６,f,２３,2023-05-21_17h56.08.421,RL,2022.2.5,60.352652614077776,
60,67,59,45,0,75,75,75,,,,,,,,,,,q,470.78683450000244,470.78683450000244,470.78683450000244,470.78683450000244,470.78683450000244,470.78683450000244,i,0.8165003000176512,471.6234300000069,471.6234300000069,471.6234300000069,471.6234300000069,471.6234300000069,471.6234300000069,471.9208665000042,473.43706080000266,473.43706080000266,473.43706080000266,473.43706080000266,473.43706080000266,473.43706080000266,473.43706080000266,473.43706080000266,473.43706080000266,473.43706080000266,473.43706080000266,473.43706080000266,473.43706080000266,473.43706080000266,475.25148239999544,475.25148239999544,475.25148239999544,475.25148239999544,475.25148239999544,475.25148239999544,475.25148239999544,59,60,67,45,67,70,475.25148239999544,477.1523422000173,454.65541890001623,454.65541890001623,11.097477499977686,465.77177449999726,465.77177449999726,470.78683450000244,470.78683450000244,,,,,３４６,f,２３,2023-05-21_17h56.08.421,RL,2022.2.5,60.352652614077776,
60,61,62,48,0,76,76,76,,,,,,,,,,,None,477.1523422000173,477.1523422000173,477.1523422000173,477.1523422000173,477.1523422000173,477.1523422000173,j,0.26063730000169016,477.43965819998994,477.43965819998994,477.43965819998994,477.43965819998994,477.43965819998994,477.43965819998994,477.7198705000046,479.5196680999943,479.5359078000183,479.5359078000183,479.5359078000183,479.5359078000183,479.5359078000183,479.5359078000183,479.5359078000183,479.5359078000183,479.5359078000183,479.5359078000183,479.5359078000183,479.5359078000183,479.5359078000183,481.6341465000005,481.6341465000005,481.6341465000005,481.6341465000005,481.6341465000005,481.6341465000005,481.6341465000005,62,60,61,48,48,70,481.6341465000005,483.6017584000074,,,,,,,,,,,,３４６,f,２３,2023-05-21_17h56.08.421,RL,2022.2.5,60.352652614077776,
61,77,58,48,0,77,77,77,,,,,,,,,,,None,483.6017584000074,483.6017584000074,483.6017584000074,483.6017584000074,483.6017584000074,483.6017584000074,i,0.23214670000015758,483.8521793000109,483.8521793000109,483.8521793000109,483.8521793000109,483.8521793000109,483.8521793000109,484.1350165999902,485.33467060001567,485.351851799991,485.351851799991,485.351851799991,485.351851799991,485.351851799991,485.351851799991,485.351851799991,485.351851799991,485.351851799991,485.351851799991,485.351851799991,485.351851799991,485.351851799991,486.84944730001735,486.84944730001735,486.84944730001735,486.84944730001735,486.84944730001735,486.84944730001735,486.84944730001735,58,61,77,48,77,70,486.84944730001735,488.38430320000043,,,,,,,,,,,,３４６,f,２３,2023-05-21_17h56.08.421,RL,2022.2.5,60.352652614077776,
61,65,58,45,0,78,78,78,,,,,,,,,,,None,488.38430320000043,488.38430320000043,488.38430320000043,488.38430320000043,488.38430320000043,488.38430320000043,i,0.42213550000451505,488.83537099999376,488.83537099999376,488.83537099999376,488.83537099999376,488.83537099999376,488.83537099999376,489.1343180999975,490.0342888000014,490.0342888000014,490.0342888000014,490.0342888000014,490.0342888000014,490.0342888000014,490.0342888000014,490.0342888000014,490.0342888000014,490.0342888000014,490.0342888000014,490.0342888000014,490.0342888000014,490.0342888000014,491.23181709999335,491.23181709999335,491.23181709999335,491.23181709999335,491.23181709999335,491.23181709999335,491.23181709999335,58,61,65,45,65,70,491.23181709999335,493.066699100018,,,,,,,,,,,,３４６,f,２３,2023-05-21_17h56.08.421,RL,2022.2.5,60.352652614077776,
70,63,57,37,0,79,79,79,,,,,,,,,,,None,493.066699100018,493.066699100018,493.066699100018,493.066699100018,493.066699100018,493.066699100018,i,0.24924959999043494,493.33361840000725,493.33361840000725,493.33361840000725,493.33361840000725,493.33361840000725,493.33361840000725,493.63353759999154,495.5661492999934,495.5661492999934,495.5661492999934,495.5661492999934,495.5661492999934,495.5661492999934,495.5661492999934,495.5661492999934,495.5661492999934,495.5661492999934,495.5661492999934,495.5661492999934,495.5661492999934,495.5661492999934,497.79814240001724,497.79814240001724,497.79814240001724,497.79814240001724,497.79814240001724,497.79814240001724,497.79814240001724,57,70,63,37,63,70,497.79814240001724,499.648995800002,,,,,,,,,,,,３４６,f,２３,2023-05-21_17h56.08.421,RL,2022.2.5,60.352652614077776,
62,71,61,34,0,80,80,80,,,,,,,,,,,None,499.648995800002,499.648995800002,499.648995800002,499.648995800002,499.648995800002,499.648995800002,i,0.26314010002533905,499.93396409999696,499.93396409999696,499.93396409999696,499.93396409999696,499.93396409999696,499.93396409999696,500.21551090001594,501.7324472000182,501.74879840001813,501.74879840001813,501.74879840001813,501.74879840001813,501.74879840001813,501.74879840001813,501.74879840001813,501.74879840001813,501.74879840001813,501.74879840001813,501.74879840001813,501.74879840001813,501.74879840001813,503.56355700001586,503.56355700001586,503.56355700001586,503.56355700001586,503.56355700001586,503.56355700001586,503.56355700001586,61,62,71,34,71,70,503.56355700001586,505.36454090001644,,,,,,,,,,,,３４６,f,２３,2023-05-21_17h56.08.421,RL,2022.2.5,60.352652614077776,
61,70,58,21,0,81,81,81,,,,,,,,,,,None,505.36454090001644,505.36454090001644,505.36454090001644,505.36454090001644,505.36454090001644,505.36454090001644,i,0.15869569999631494,505.54914109999663,505.54914109999663,505.54914109999663,505.54914109999663,505.54914109999663,505.54914109999663,505.84785479999846,506.6975705999939,506.6975705999939,506.6975705999939,506.6975705999939,506.6975705999939,506.6975705999939,506.6975705999939,506.6975705999939,506.6975705999939,506.6975705999939,506.6975705999939,506.6975705999939,506.6975705999939,506.6975705999939,507.846034599992,507.846034599992,507.846034599992,507.846034599992,507.846034599992,507.846034599992,507.846034599992,58,61,70,21,70,70,507.846034599992,509.6471094000153,,,,,,,,,,,,３４６,f,２３,2023-05-21_17h56.08.421,RL,2022.2.5,60.352652614077776,
67,74,62,31,0,82,82,82,,,,,,,,,,,None,509.6471094000153,509.6471094000153,509.6471094000153,509.6471094000153,509.6471094000153,509.6471094000153,i,0.2487486000172794,509.9182112000126,509.9182112000126,509.9182112000126,509.9182112000126,509.9182112000126,509.9182112000126,510.1975556999969,511.78062070001033,511.79706400001305,511.79706400001305,511.79706400001305,511.79706400001305,511.79706400001305,511.79706400001305,511.79706400001305,511.79706400001305,511.79706400001305,511.79706400001305,511.79706400001305,511.79706400001305,511.79706400001305,513.678034600016,513.678034600016,513.678034600016,513.678034600016,513.678034600016,513.678034600016,513.678034600016,62,67,74,31,74,70,513.678034600016,515.6289921000134,,,,,,,,,,,,３４６,f,２３,2023-05-21_17h56.08.421,RL,2022.2.5,60.352652614077776,
64,81,64,31,0,83,83,83,,,,,,,,,,,None,515.6289921000134,515.6289921000134,515.6289921000134,515.6289921000134,515.6289921000134,515.6289921000134,i,0.2434802999778185,515.896648599999,515.896648599999,515.896648599999,515.896648599999,515.896648599999,515.896648599999,516.1961386000039,517.7623338999983,517.7623338999983,517.7623338999983,517.7623338999983,517.7623338999983,517.7623338999983,517.7623338999983,517.7623338999983,517.7623338999983,517.7623338999983,517.7623338999983,517.7623338999983,517.7623338999983,517.7623338999983,519.627513000014,519.627513000014,519.627513000014,519.627513000014,519.627513000014,519.627513000014,519.627513000014,64,64,81,31,81,70,519.627513000014,521.5448671999911,,,,,,,,,,,,３４６,f,２３,2023-05-21_17h56.08.421,RL,2022.2.5,60.352652614077776,
61,65,70,39,0,84,84,84,,,,,,,,,,,None,521.5448671999911,521.5448671999911,521.5448671999911,521.5448671999911,521.5448671999911,521.5448671999911,i,0.2690520000178367,521.8563536000147,521.8563536000147,521.8563536000147,521.8563536000147,521.8563536000147,521.8563536000147,522.1451388999994,523.0780802000081,523.0947084999934,523.0947084999934,523.0947084999934,523.0947084999934,523.0947084999934,523.0947084999934,523.0947084999934,523.0947084999934,523.0947084999934,523.0947084999934,523.0947084999934,523.0947084999934,523.0947084999934,524.3264437000034,524.3264437000034,524.3264437000034,524.3264437000034,524.3264437000034,524.3264437000034,524.3264437000034,70,61,65,39,65,70,524.3264437000034,525.9777239999967,,,,,,,,,,,,３４６,f,２３,2023-05-21_17h56.08.421,RL,2022.2.5,60.352652614077776,
61,76,66,42,0,85,85,85,,,,,,,,,,,None,525.9777239999967,525.9777239999967,525.9777239999967,525.9777239999967,525.9777239999967,525.9777239999967,i,0.3005888999905437,526.3114425000094,526.3114425000094,526.3114425000094,526.3114425000094,526.3114425000094,526.3114425000094,526.5940803000121,527.5775250000006,527.5940971999953,527.5940971999953,527.5940971999953,527.5940971999953,527.5940971999953,527.5940971999953,527.5940971999953,527.5940971999953,527.5940971999953,527.5940971999953,527.5940971999953,527.5940971999953,527.5940971999953,528.8757879000041,528.8757879000041,528.8757879000041,528.8757879000041,528.8757879000041,528.8757879000041,528.8757879000041,66,61,76,42,76,70,528.8757879000041,530.6930263999966,,,,,,,,,,,,３４６,f,２３,2023-05-21_17h56.08.421,RL,2022.2.5,60.352652614077776,
58,69,66,39,0,86,86,86,,,,,,,,,,,None,530.6930263999966,530.6930263999966,530.6930263999966,530.6930263999966,530.6930263999966,530.6930263999966,i,0.38439230000949465,531.1139052000071,531.1139052000071,531.1139052000071,531.1139052000071,531.1139052000071,531.1139052000071,531.4102249999996,532.7264927999931,532.7264927999931,532.7264927999931,532.7264927999931,532.7264927999931,532.7264927999931,532.7264927999931,532.7264927999931,532.7264927999931,532.7264927999931,532.7264927999931,532.7264927999931,532.7264927999931,532.7264927999931,534.3413948999951,534.3413948999951,534.3413948999951,534.3413948999951,534.3413948999951,534.3413948999951,534.3413948999951,66,58,69,39,69,70,534.3413948999951,536.3424943000136,,,,,,,,,,,,３４６,f,２３,2023-05-21_17h56.08.421,RL,2022.2.5,60.352652614077776,
63,73,66,42,0,87,87,87,,,,,,,,,,,None,536.3424943000136,536.3424943000136,536.3424943000136,536.3424943000136,536.3424943000136,536.3424943000136,i,0.23209259999566711,536.5933820999926,536.5933820999926,536.5933820999926,536.5933820999926,536.5933820999926,536.5933820999926,536.8757706999895,537.6923368000134,537.7086868000042,537.7086868000042,537.7086868000042,537.7086868000042,537.7086868000042,537.7086868000042,537.7086868000042,537.7086868000042,537.7086868000042,537.7086868000042,537.7086868000042,537.7086868000042,537.7086868000042,538.8237761000055,538.8237761000055,538.8237761000055,538.8237761000055,538.8237761000055,538.8237761000055,538.8237761000055,66,63,73,42,73,70,538.8237761000055,540.6255138000124,,,,,,,,,,,,３４６,f,２３,2023-05-21_17h56.08.421,RL,2022.2.5,60.352652614077776,
55,72,63,49,0,88,88,88,,,,,,,,,,,None,540.6255138000124,540.6255138000124,540.6255138000124,540.6255138000124,540.6255138000124,540.6255138000124,i,0.26832679999643005,540.9363503000059,540.9363503000059,540.9363503000059,540.9363503000059,540.9363503000059,540.9363503000059,541.2256620000117,542.2254820000089,542.2416859999939,542.2416859999939,542.2416859999939,542.2416859999939,542.2416859999939,542.2416859999939,542.2416859999939,542.2416859999939,542.2416859999939,542.2416859999939,542.2416859999939,542.2416859999939,542.2416859999939,543.539524199994,543.539524199994,543.539524199994,543.539524199994,543.539524199994,543.539524199994,543.539524199994,63,55,72,49,72,70,543.539524199994,545.1405463000119,,,,,,,,,,,,３４６,f,２３,2023-05-21_17h56.08.421,RL,2022.2.5,60.352652614077776,
56,70,75,39,0,89,89,89,,,,,,,,,,,None,545.1405463000119,545.1405463000119,545.1405463000119,545.1405463000119,545.1405463000119,545.1405463000119,i,0.2630019999924116,545.4264171000104,545.4264171000104,545.4264171000104,545.4264171000104,545.4264171000104,545.4264171000104,545.7240907000087,547.5240281000151,547.5240281000151,547.5240281000151,547.5240281000151,547.5240281000151,547.5240281000151,547.5240281000151,547.5240281000151,547.5240281000151,547.5240281000151,547.5240281000151,547.5240281000151,547.5240281000151,547.5240281000151,549.6218729999964,549.6218729999964,549.6218729999964,549.6218729999964,549.6218729999964,549.6218729999964,549.6218729999964,75,56,70,39,70,70,549.6218729999964,551.306103400013,,,,,,,,,,,,３４６,f,２３,2023-05-21_17h56.08.421,RL,2022.2.5,60.352652614077776,
50,68,68,33,0,90,90,90,,,,,,,,,,,None,551.306103400013,551.306103400013,551.306103400013,551.306103400013,551.306103400013,551.306103400013,i,0.33690170000772923,551.6801974000118,551.6801974000118,551.6801974000118,551.6801974000118,551.6801974000118,551.6801974000118,551.9564239000028,553.6899588000088,553.7064471000049,553.7064471000049,553.7064471000049,553.7064471000049,553.7064471000049,553.7064471000049,553.7064471000049,553.7064471000049,553.7064471000049,553.7064471000049,553.7064471000049,553.7064471000049,553.7064471000049,555.7375422999903,555.7375422999903,555.7375422999903,555.7375422999903,555.7375422999903,555.7375422999903,555.7375422999903,68,50,68,33,68,70,555.7375422999903,557.4555469999905,,,,,,,,,,,,３４６,f,２３,2023-05-21_17h56.08.421,RL,2022.2.5,60.352652614077776,
47,63,68,33,0,91,91,91,,,,,,,,,,,None,557.4555469999905,557.4555469999905,557.4555469999905,557.4555469999905,557.4555469999905,557.4555469999905,i,0.21445289999246597,557.6891062000068,557.6891062000068,557.6891062000068,557.6891062000068,557.6891062000068,557.6891062000068,557.9726281999901,559.6726250000065,559.6884918000142,559.6884918000142,559.6884918000142,559.6884918000142,559.6884918000142,559.6884918000142,559.6884918000142,559.6884918000142,559.6884918000142,559.6884918000142,559.6884918000142,559.6884918000142,559.6884918000142,561.6866968999966,561.6866968999966,561.6866968999966,561.6866968999966,561.6866968999966,561.6866968999966,561.6866968999966,68,47,63,33,63,70,561.6866968999966,563.5545283000101,,,,,,,,,,,,３４６,f,２３,2023-05-21_17h56.08.421,RL,2022.2.5,60.352652614077776,
49,66,65,34,0,92,92,92,,,,,,,,,,,None,563.5545283000101,563.5545283000101,563.5545283000101,563.5545283000101,563.5545283000101,563.5545283000101,i,0.234056099987356,563.833639199991,563.833639199991,563.833639199991,563.833639199991,563.833639199991,563.833639199991,564.1208561999956,565.4876644000178,565.5040987000102,565.5040987000102,565.5040987000102,565.5040987000102,565.5040987000102,565.5040987000102,565.5040987000102,565.5040987000102,565.5040987000102,565.5040987000102,565.5040987000102,565.5040987000102,565.5040987000102,567.1688354999933,567.1688354999933,567.1688354999933,567.1688354999933,567.1688354999933,567.1688354999933,567.1688354999933,65,49,66,34,66,70,567.1688354999933,568.969877399999,,,,,,,,,,,,３４６,f,２３,2023-05-21_17h56.08.421,RL,2022.2.5,60.352652614077776,
49,56,65,34,0,93,93,93,,,,,,,,,,,None,568.969877399999,568.969877399999,568.969877399999,568.969877399999,568.969877399999,568.969877399999,i,0.3108736999856774,569.3045143999916,569.3045143999916,569.3045143999916,569.3045143999916,569.3045143999916,569.3045143999916,569.5869819000072,570.7700125999982,570.7865745000017,570.7865745000017,570.7865745000017,570.7865745000017,570.7865745000017,570.7865745000017,570.7865745000017,570.7865745000017,570.7865745000017,570.7865745000017,570.7865745000017,570.7865745000017,570.7865745000017,572.2680716000032,572.2680716000032,572.2680716000032,572.2680716000032,572.2680716000032,572.2680716000032,572.2680716000032,65,49,56,34,56,70,572.2680716000032,573.8693794000137,,,,,,,,,,,,３４６,f,２３,2023-05-21_17h56.08.421,RL,2022.2.5,60.352652614077776,
56,68,68,38,0,94,94,94,,,,,,,,,,,None,573.8693794000137,573.8693794000137,573.8693794000137,573.8693794000137,573.8693794000137,573.8693794000137,i,0.22248659998876974,574.1209709999966,574.1209709999966,574.1209709999966,574.1209709999966,574.1209709999966,574.1209709999966,574.402697100013,576.3525017999928,576.3689833999961,576.3689833999961,576.3689833999961,576.3689833999961,576.3689833999961,576.3689833999961,576.3689833999961,576.3689833999961,576.3689833999961,576.3689833999961,576.3689833999961,576.3689833999961,576.3689833999961,578.617159699992,578.617159699992,578.617159699992,578.617159699992,578.617159699992,578.617159699992,578.617159699992,68,56,68,38,68,70,578.617159699992,580.4515896000084,,,,,,,,,,,,３４６,f,２３,2023-05-21_17h56.08.421,RL,2022.2.5,60.352652614077776,
50,63,65,29,0,95,95,95,,,,,,,,,,,None,580.4515896000084,580.4515896000084,580.4515896000084,580.4515896000084,580.4515896000084,580.4515896000084,i,0.4740374000102747,580.9515473000065,580.9515473000065,580.9515473000065,580.9515473000065,580.9515473000065,580.9515473000065,581.2516192999901,582.5512217000069,582.5512217000069,582.5512217000069,582.5512217000069,582.5512217000069,582.5512217000069,582.5512217000069,582.5512217000069,582.5512217000069,582.5512217000069,582.5512217000069,582.5512217000069,582.5512217000069,582.5512217000069,584.1496154000051,584.1496154000051,584.1496154000051,584.1496154000051,584.1496154000051,584.1496154000051,584.1496154000051,65,50,63,29,63,70,584.1496154000051,586.0006536000001,,,,,,,,,,,,３４６,f,２３,2023-05-21_17h56.08.421,RL,2022.2.5,60.352652614077776,
47,58,65,36,0,96,96,96,,,,,,,,,,,None,586.0006536000001,586.0006536000001,586.0006536000001,586.0006536000001,586.0006536000001,586.0006536000001,i,0.37592240000958554,586.4008056000166,586.4008056000166,586.4008056000166,586.4008056000166,586.4008056000166,586.4008056000166,586.7007393999957,588.0671017999994,588.0671017999994,588.0671017999994,588.0671017999994,588.0671017999994,588.0671017999994,588.0671017999994,588.0671017999994,588.0671017999994,588.0671017999994,588.0671017999994,588.0671017999994,588.0671017999994,588.0671017999994,589.731403999991,589.731403999991,589.731403999991,589.731403999991,589.731403999991,589.731403999991,589.731403999991,65,47,58,36,58,70,589.731403999991,591.6494892000046,,,,,,,,,,,,３４６,f,２３,2023-05-21_17h56.08.421,RL,2022.2.5,60.352652614077776,
61,65,63,38,0,97,97,97,,,,,,,,,,,None,591.6494892000046,591.6494892000046,591.6494892000046,591.6494892000046,591.6494892000046,591.6494892000046,i,0.35881140001583844,592.0344738000131,592.0344738000131,592.0344738000131,592.0344738000131,592.0344738000131,592.0344738000131,592.3165491000109,593.8831236000115,593.8992115000146,593.8992115000146,593.8992115000146,593.8992115000146,593.8992115000146,593.8992115000146,593.8992115000146,593.8992115000146,593.8992115000146,593.8992115000146,593.8992115000146,593.8992115000146,593.8992115000146,595.7642527999997,595.7642527999997,595.7642527999997,595.7642527999997,595.7642527999997,595.7642527999997,595.7642527999997,63,61,65,38,65,70,595.7642527999997,597.7482982999936,,,,,,,,,,,,３４６,f,２３,2023-05-21_17h56.08.421,RL,2022.2.5,60.352652614077776,
50,66,66,44,0,98,98,98,,,,,,,,,,,None,597.7482982999936,597.7482982999936,597.7482982999936,597.7482982999936,597.7482982999936,597.7482982999936,i,0.45140369998989627,598.237658099999,598.237658099999,598.237658099999,598.237658099999,598.237658099999,598.237658099999,598.5317396000028,599.9314882000035,599.9314882000035,599.9314882000035,599.9314882000035,599.9314882000035,599.9314882000035,599.9314882000035,599.9314882000035,599.9314882000035,599.9314882000035,599.9314882000035,599.9314882000035,599.9314882000035,599.9314882000035,601.629623899993,601.629623899993,601.629623899993,601.629623899993,601.629623899993,601.629623899993,601.629623899993,66,50,66,44,66,70,601.629623899993,603.5968695000047,,,,,,,,,,,,３４６,f,２３,2023-05-21_17h56.08.421,RL,2022.2.5,60.352652614077776,
58,66,65,36,0,99,99,99,,,,,,,,,,,None,603.5968695000047,603.5968695000047,603.5968695000047,603.5968695000047,603.5968695000047,603.5968695000047,i,0.2317423000058625,603.8490752000071,603.8490752000071,603.8490752000071,603.8490752000071,603.8490752000071,603.8490752000071,604.1476783000107,605.4306097000081,605.4306097000081,605.4306097000081,605.4306097000081,605.4306097000081,605.4306097000081,605.4306097000081,605.4306097000081,605.4306097000081,605.4306097000081,605.4306097000081,605.4306097000081,605.4306097000081,605.4306097000081,607.0119715000037,607.0119715000037,607.0119715000037,607.0119715000037,607.0119715000037,607.0119715000037,607.0119715000037,65,58,66,36,66,70,607.0119715000037,608.7465086000157,,,,,,,,,,,,３４６,f,２３,2023-05-21_17h56.08.421,RL,2022.2.5,60.352652614077776,
58,67,64,37,0,100,100,100,,,,,,,,,,,None,608.7465086000157,608.7465086000157,608.7465086000157,608.7465086000157,608.7465086000157,608.7465086000157,i,0.24382410000544041,609.0150600000052,609.0150600000052,609.0150600000052,609.0150600000052,609.0150600000052,609.0150600000052,609.3136218000145,610.3964040999999,610.3964040999999,610.3964040999999,610.3964040999999,610.3964040999999,610.3964040999999,610.3964040999999,610.3964040999999,610.3964040999999,610.3964040999999,610.3964040999999,610.3964040999999,610.3964040999999,610.3964040999999,611.7778840000101,611.7778840000101,611.7778840000101,611.7778840000101,611.7778840000101,611.7778840000101,611.7778840000101,64,58,67,37,67,70,611.7778840000101,613.41206100001,,,,,,,,,,,,３４６,f,２３,2023-05-21_17h56.08.421,RL,2022.2.5,60.352652614077776,
61,70,60,45,0,101,101,101,,,,,,,,,,,None,613.41206100001,613.41206100001,613.41206100001,613.41206100001,613.41206100001,613.41206100001,i,0.28076880000298843,613.7143989999895,613.7143989999895,613.7143989999895,613.7143989999895,613.7143989999895,613.7143989999895,614.0123815000115,615.8123068000132,615.8123068000132,615.8123068000132,615.8123068000132,615.8123068000132,615.8123068000132,615.8123068000132,615.8123068000132,615.8123068000132,615.8123068000132,615.8123068000132,615.8123068000132,615.8123068000132,615.8123068000132,617.9100389000087,617.9100389000087,617.9100389000087,617.9100389000087,617.9100389000087,617.9100389000087,617.9100389000087,60,61,70,45,70,70,617.9100389000087,619.5946485000022,,,,,,,,,,,,３４６,f,２３,2023-05-21_17h56.08.421,RL,2022.2.5,60.352652614077776,
66,66,56,33,0,102,102,102,,,,,,,,,,,None,619.5946485000022,619.5946485000022,619.5946485000022,619.5946485000022,619.5946485000022,619.5946485000022,i,0.28758609999204054,619.912851000001,619.912851000001,619.912851000001,619.912851000001,619.912851000001,619.912851000001,620.2117845000175,621.1783346000011,621.1783346000011,621.1783346000011,621.1783346000011,621.1783346000011,621.1783346000011,621.1783346000011,621.1783346000011,621.1783346000011,621.1783346000011,621.1783346000011,621.1783346000011,621.1783346000011,621.1783346000011,622.4425314000109,622.4425314000109,622.4425314000109,622.4425314000109,622.4425314000109,622.4425314000109,622.4425314000109,56,66,66,33,66,70,622.4425314000109,624.3439491000026,,,,,,,,,,,,３４６,f,２３,2023-05-21_17h56.08.421,RL,2022.2.5,60.352652614077776,
53,66,55,35,0,103,103,103,,,,,,,,,,,None,624.3439491000026,624.3439491000026,624.3439491000026,624.3439491000026,624.3439491000026,624.3439491000026,i,0.2581303999759257,624.6284795000101,624.6284795000101,624.6284795000101,624.6284795000101,624.6284795000101,624.6284795000101,624.9273662999913,626.3438609000004,626.3438609000004,626.3438609000004,626.3438609000004,626.3438609000004,626.3438609000004,626.3438609000004,626.3438609000004,626.3438609000004,626.3438609000004,626.3438609000004,626.3438609000004,626.3438609000004,626.3438609000004,628.0582106999937,628.0582106999937,628.0582106999937,628.0582106999937,628.0582106999937,628.0582106999937,628.0582106999937,55,53,66,35,66,70,628.0582106999937,629.7596511000011,,,,,,,,,,,,３４６,f,２３,2023-05-21_17h56.08.421,RL,2022.2.5,60.352652614077776,
48,66,54,42,0,104,104,104,,,,,,,,,,,None,629.7596511000011,629.7596511000011,629.7596511000011,629.7596511000011,629.7596511000011,629.7596511000011,i,0.23012150000431575,630.0102170000027,630.0102170000027,630.0102170000027,630.0102170000027,630.0102170000027,630.0102170000027,630.3094596000155,632.292415200005,632.292415200005,632.292415200005,632.292415200005,632.292415200005,632.292415200005,632.292415200005,632.292415200005,632.292415200005,632.292415200005,632.292415200005,632.292415200005,632.292415200005,632.292415200005,634.5737330999982,634.5737330999982,634.5737330999982,634.5737330999982,634.5737330999982,634.5737330999982,634.5737330999982,54,48,66,42,66,70,634.5737330999982,636.4578327999916,,,,,,,,,,,,３４６,f,２３,2023-05-21_17h56.08.421,RL,2022.2.5,60.352652614077776,
40,71,59,41,0,105,105,105,,,,,,,,,,,None,636.4578327999916,636.4578327999916,636.4578327999916,636.4578327999916,636.4578327999916,636.4578327999916,i,0.25685130001511425,636.7419617999985,636.7419617999985,636.7419617999985,636.7419617999985,636.7419617999985,636.7419617999985,637.0250630000082,638.0414052999986,638.0579666999984,638.0579666999984,638.0579666999984,638.0579666999984,638.0579666999984,638.0579666999984,638.0579666999984,638.0579666999984,638.0579666999984,638.0579666999984,638.0579666999984,638.0579666999984,638.0579666999984,639.3728991000098,639.3728991000098,639.3728991000098,639.3728991000098,639.3728991000098,639.3728991000098,639.3728991000098,59,40,71,41,71,70,639.3728991000098,641.0910895999987,,,,,,,,,,,,３４６,f,２３,2023-05-21_17h56.08.421,RL,2022.2.5,60.352652614077776,
45,80,56,32,0,106,106,106,,,,,,,,,,,None,641.0910895999987,641.0910895999987,641.0910895999987,641.0910895999987,641.0910895999987,641.0910895999987,i,0.2475267999980133,641.3579996000044,641.3579996000044,641.3579996000044,641.3579996000044,641.3579996000044,641.3579996000044,641.6411511999904,643.6405606000044,643.6573505999986,643.6573505999986,643.6573505999986,643.6573505999986,643.6573505999986,643.6573505999986,643.6573505999986,643.6573505999986,643.6573505999986,643.6573505999986,643.6573505999986,643.6573505999986,643.6573505999986,645.955565900018,645.955565900018,645.955565900018,645.955565900018,645.955565900018,645.955565900018,645.955565900018,56,45,80,32,80,70,645.955565900018,647.7395977000124,,,,,,,,,,,,３４６,f,２３,2023-05-21_17h56.08.421,RL,2022.2.5,60.352652614077776,
38,72,63,41,0,107,107,107,,,,,,,,,,,None,647.7395977000124,647.7395977000124,647.7395977000124,647.7395977000124,647.7395977000124,647.7395977000124,i,0.43222819999209605,648.1899858000106,648.1899858000106,648.1899858000106,648.1899858000106,648.1899858000106,648.1899858000106,648.4899527000089,650.0902567000012,650.0902567000012,650.0902567000012,650.0902567000012,650.0902567000012,650.0902567000012,650.0902567000012,650.0902567000012,650.0902567000012,650.0902567000012,650.0902567000012,650.0902567000012,650.0902567000012,650.0902567000012,651.9874550999957,651.9874550999957,651.9874550999957,651.9874550999957,651.9874550999957,651.9874550999957,651.9874550999957,63,38,72,41,72,70,651.9874550999957,653.6888608000008,,,,,,,,,,,,３４６,f,２３,2023-05-21_17h56.08.421,RL,2022.2.5,60.352652614077776,
41,66,60,42,0,108,108,108,,,,,,,,,,,None,653.6888608000008,653.6888608000008,653.6888608000008,653.6888608000008,653.6888608000008,653.6888608000008,i,0.37146530000609346,654.0929807999928,654.0929807999928,654.0929807999928,654.0929807999928,654.0929807999928,654.0929807999928,654.3889220000128,655.9716908000119,655.9716908000119,655.9716908000119,655.9716908000119,655.9716908000119,655.9716908000119,655.9716908000119,655.9716908000119,655.9716908000119,655.9716908000119,655.9716908000119,655.9716908000119,655.9716908000119,655.9716908000119,657.8531116000086,657.8531116000086,657.8531116000086,657.8531116000086,657.8531116000086,657.8531116000086,657.8531116000086,60,41,66,42,66,70,657.8531116000086,659.7875434000161,,,,,,,,,,,,３４６,f,２３,2023-05-21_17h56.08.421,RL,2022.2.5,60.352652614077776,
40,66,64,39,0,109,109,109,,,,,,,,,,,None,659.7875434000161,659.7875434000161,659.7875434000161,659.7875434000161,659.7875434000161,659.7875434000161,i,0.30685590000939555,660.1250074999989,660.1250074999989,660.1250074999989,660.1250074999989,660.1250074999989,660.1250074999989,660.4211910000013,662.0040040000167,662.0040040000167,662.0040040000167,662.0040040000167,662.0040040000167,662.0040040000167,662.0040040000167,662.0040040000167,662.0040040000167,662.0040040000167,662.0040040000167,662.0040040000167,662.0040040000167,662.0040040000167,663.8850627999927,663.8850627999927,663.8850627999927,663.8850627999927,663.8850627999927,663.8850627999927,663.8850627999927,64,40,66,39,66,70,663.8850627999927,665.7862677999947,,,,,,,,,,,,３４６,f,２３,2023-05-21_17h56.08.421,RL,2022.2.5,60.352652614077776,
40,62,59,43,0,110,110,110,,,,,,,,,,,None,665.7862677999947,665.7862677999947,665.7862677999947,665.7862677999947,665.7862677999947,665.7862677999947,i,0.2511446000135038,666.0701598000014,666.0701598000014,666.0701598000014,666.0701598000014,666.0701598000014,666.0701598000014,666.3536166000122,667.4365565000044,667.4530522999994,667.4530522999994,667.4530522999994,667.4530522999994,667.4530522999994,667.4530522999994,667.4530522999994,667.4530522999994,667.4530522999994,667.4530522999994,667.4530522999994,667.4530522999994,667.4530522999994,668.8348921000143,668.8348921000143,668.8348921000143,668.8348921000143,668.8348921000143,668.8348921000143,668.8348921000143,59,40,62,43,62,70,668.8348921000143,670.4858960999991,,,,,,,,,,,,３４６,f,２３,2023-05-21_17h56.08.421,RL,2022.2.5,60.352652614077776,
29,63,54,38,0,111,111,111,,,,,,,,,,,None,670.4858960999991,670.4858960999991,670.4858960999991,670.4858960999991,670.4858960999991,670.4858960999991,i,0.2531340999994427,670.7692161000159,670.7692161000159,670.7692161000159,670.7692161000159,670.7692161000159,670.7692161000159,671.0692572999978,672.3523664000095,672.3523664000095,672.3523664000095,672.3523664000095,672.3523664000095,672.3523664000095,672.3523664000095,672.3523664000095,672.3523664000095,672.3523664000095,672.3523664000095,672.3523664000095,672.3523664000095,672.3523664000095,673.9335339000099,673.9335339000099,673.9335339000099,673.9335339000099,673.9335339000099,673.9335339000099,673.9335339000099,54,29,63,38,63,70,673.9335339000099,675.651814700017,,,,,,,,,,,,３４６,f,２３,2023-05-21_17h56.08.421,RL,2022.2.5,60.352652614077776,
24,59,58,35,0,112,112,112,,,,,,,,,,,None,675.651814700017,675.651814700017,675.651814700017,675.651814700017,675.651814700017,675.651814700017,i,0.30725840001832694,675.9862464999896,675.9862464999896,675.9862464999896,675.9862464999896,675.9862464999896,675.9862464999896,676.2683487000177,677.1352224000148,677.1517643000116,677.1517643000116,677.1517643000116,677.1517643000116,677.1517643000116,677.1517643000116,677.1517643000116,677.1517643000116,677.1517643000116,677.1517643000116,677.1517643000116,677.1517643000116,677.1517643000116,678.3163980999961,678.3163980999961,678.3163980999961,678.3163980999961,678.3163980999961,678.3163980999961,678.3163980999961,58,24,59,35,59,70,678.3163980999961,679.9671185000043,,,,,,,,,,,,３４６,f,２３,2023-05-21_17h56.08.421,RL,2022.2.5,60.352652614077776,
39,66,61,35,0,113,113,113,,,,,,,,,,,None,679.9671185000043,679.9671185000043,679.9671185000043,679.9671185000043,679.9671185000043,679.9671185000043,i,0.25972179998643696,680.251148100011,680.251148100011,680.251148100011,680.251148100011,680.251148100011,680.251148100011,680.5512039000168,681.7005445999966,681.7005445999966,681.7005445999966,681.7005445999966,681.7005445999966,681.7005445999966,681.7005445999966,681.7005445999966,681.7005445999966,681.7005445999966,681.7005445999966,681.7005445999966,681.7005445999966,681.7005445999966,683.1487632000062,683.1487632000062,683.1487632000062,683.1487632000062,683.1487632000062,683.1487632000062,683.1487632000062,61,39,66,35,66,70,683.1487632000062,684.883154900017,,,,,,,,,,,,３４６,f,２３,2023-05-21_17h56.08.421,RL,2022.2.5,60.352652614077776,
39,63,53,45,0,114,114,114,,,,,,,,,,,None,684.883154900017,684.883154900017,684.883154900017,684.883154900017,684.883154900017,684.883154900017,i,0.2477645999751985,685.151978400012,685.151978400012,685.151978400012,685.151978400012,685.151978400012,685.151978400012,685.4333679999982,686.9662975000101,686.9830024999974,686.9830024999974,686.9830024999974,686.9830024999974,686.9830024999974,686.9830024999974,686.9830024999974,686.9830024999974,686.9830024999974,686.9830024999974,686.9830024999974,686.9830024999974,686.9830024999974,688.8146692000155,688.8146692000155,688.8146692000155,688.8146692000155,688.8146692000155,688.8146692000155,688.8146692000155,53,39,63,45,63,70,688.8146692000155,690.749001499993,,,,,,,,,,,,３４６,f,２３,2023-05-21_17h56.08.421,RL,2022.2.5,60.352652614077776,
42,65,50,35,0,115,115,115,,,,,,,,,,,None,690.749001499993,690.749001499993,690.749001499993,690.749001499993,690.749001499993,690.749001499993,i,0.2999061999726109,691.0891100000008,691.0891100000008,691.0891100000008,691.0891100000008,691.0891100000008,691.0891100000008,691.3822782000061,692.3157534000056,692.3157534000056,692.3157534000056,692.3157534000056,692.3157534000056,692.3157534000056,692.3157534000056,692.3157534000056,692.3157534000056,692.3157534000056,692.3157534000056,692.3157534000056,692.3157534000056,692.3157534000056,693.547324300016,693.547324300016,693.547324300016,693.547324300016,693.547324300016,693.547324300016,693.547324300016,50,42,65,35,65,70,693.547324300016,695.448254100018,,,,,,,,,,,,３４６,f,２３,2023-05-21_17h56.08.421,RL,2022.2.5,60.352652614077776,
35,57,51,33,0,116,116,116,,,,,,,,,,,None,695.448254100018,695.448254100018,695.448254100018,695.448254100018,695.448254100018,695.448254100018,i,0.22459670001990162,695.6982935999986,695.6982935999986,695.6982935999986,695.6982935999986,695.6982935999986,695.6982935999986,695.9816712000174,696.7982088999997,696.8146053999953,696.8146053999953,696.8146053999953,696.8146053999953,696.8146053999953,696.8146053999953,696.8146053999953,696.8146053999953,696.8146053999953,696.8146053999953,696.8146053999953,696.8146053999953,696.8146053999953,697.9298303000105,697.9298303000105,697.9298303000105,697.9298303000105,697.9298303000105,697.9298303000105,697.9298303000105,51,35,57,33,57,70,697.9298303000105,699.9308719999972,,,,,,,,,,,,３４６,f,２３,2023-05-21_17h56.08.421,RL,2022.2.5,60.352652614077776,
32,61,59,44,0,117,117,117,,,,,,,,,,,None,699.9308719999972,699.9308719999972,699.9308719999972,699.9308719999972,699.9308719999972,699.9308719999972,i,0.24571979997563176,700.1974928000127,700.1974928000127,700.1974928000127,700.1974928000127,700.1974928000127,700.1974928000127,700.497262799996,701.7804561000085,701.7804561000085,701.7804561000085,701.7804561000085,701.7804561000085,701.7804561000085,701.7804561000085,701.7804561000085,701.7804561000085,701.7804561000085,701.7804561000085,701.7804561000085,701.7804561000085,701.7804561000085,703.3617423000105,703.3617423000105,703.3617423000105,703.3617423000105,703.3617423000105,703.3617423000105,703.3617423000105,59,32,61,44,61,70,703.3617423000105,704.9962714000139,,,,,,,,,,,,３４６,f,２３,2023-05-21_17h56.08.421,RL,2022.2.5,60.352652614077776,
31,55,57,45,0,118,118,118,,,,,,,,,,,None,704.9962714000139,704.9962714000139,704.9962714000139,704.9962714000139,704.9962714000139,704.9962714000139,i,0.27573470000061207,705.297421299998,705.297421299998,705.297421299998,705.297421299998,705.297421299998,705.297421299998,705.5796401000116,707.3297792999947,707.3464143000019,707.3464143000019,707.3464143000019,707.3464143000019,707.3464143000019,707.3464143000019,707.3464143000019,707.3464143000019,707.3464143000019,707.3464143000019,707.3464143000019,707.3464143000019,707.3464143000019,709.3942012999905,709.3942012999905,709.3942012999905,709.3942012999905,709.3942012999905,709.3942012999905,709.3942012999905,57,31,55,45,55,70,709.3942012999905,711.245545200014,,,,,,,,,,,,３４６,f,２３,2023-05-21_17h56.08.421,RL,2022.2.5,60.352652614077776,
35,55,56,44,0,119,119,119,,,,,,,,,,,None,711.245545200014,711.245545200014,711.245545200014,711.245545200014,711.245545200014,711.245545200014,j,0.4679630000027828,711.7576035000093,711.7576035000093,711.7576035000093,711.7576035000093,711.7576035000093,711.7576035000093,712.0452575999952,712.995153099997,713.0119574000128,713.0119574000128,713.0119574000128,713.0119574000128,713.0119574000128,713.0119574000128,713.0119574000128,713.0119574000128,713.0119574000128,713.0119574000128,713.0119574000128,713.0119574000128,713.0119574000128,714.2602196999942,714.2602196999942,714.2602196999942,714.2602196999942,714.2602196999942,714.2602196999942,714.2602196999942,56,35,55,44,44,70,714.2602196999942,715.7944500000158,,,,,,,,,,,,３４６,f,２３,2023-05-21_17h56.08.421,RL,2022.2.5,60.352652614077776,
32,52,71,28,0,120,120,120,,,,,,,,,,,None,715.7944500000158,715.7944500000158,715.7944500000158,715.7944500000158,715.7944500000158,715.7944500000158,r,0.3452959000132978,716.161443399993,716.161443399993,716.161443399993,716.161443399993,716.161443399993,716.161443399993,716.4445303000102,718.2948570000008,718.3110447000072,718.3110447000072,718.3110447000072,718.3110447000072,718.3110447000072,718.3110447000072,718.3110447000072,718.3110447000072,718.3110447000072,718.3110447000072,718.3110447000072,718.3110447000072,718.3110447000072,720.4588919999951,720.4588919999951,720.4588919999951,720.4588919999951,720.4588919999951,720.4588919999951,720.4588919999951,71,32,52,28,32,70,720.4588919999951,722.4601328000135,,,,,,,,,,,,３４６,f,２３,2023-05-21_17h56.08.421,RL,2022.2.5,60.352652614077776,
