arm1,arm2,arm3,arm4,trials.thisRepN,trials.thisTrialN,trials.thisN,trials.thisIndex,instru_img1.started,instru_resp.started,instru_resp.keys,instru_resp.rt,image_2.started,text_2.started,fixbefore_2.started,rest_response.keys,red.started,green.started,yellow.started,blue.started,choose_bandit.started,Fixation.started,choose_bandit.keys,choose_bandit.rt,black.started,red_2.started,green_2.started,yellow_2.started,blue_2.started,fixation_2.started,docs.started,docs.stopped,black.stopped,red_2.stopped,green_2.stopped,yellow_2.stopped,blue_2.stopped,fixation_2.stopped,black_com.started,reward_sub.started,reward__sub.started,red_compare.started,green_com.started,yellow_com.started,blue_com.started,black_com.stopped,reward_sub.stopped,reward__sub.stopped,red_compare.stopped,green_com.stopped,yellow_com.stopped,blue_com.stopped,rewardred,rewardyellow,rewardblue,rewardgreen,subchoose,expectation,intertrialfix.started,intertrialfix.stopped,rest_image.started,rest_response.started,rest_response.rt,image_expect_after.started,text_exp_after.started,image_expect_after.stopped,text_exp_after.stopped,red.stopped,green.stopped,yellow.stopped,blue.stopped,choose_bandit.stopped,Fixation.stopped,bigx.started,bigx.stopped,image.started,key_resp.started,key_resp.keys,key_resp.rt,participant,Gender,Age,date,expName,psychopyVersion,frameRate,
,,,,,,,,40.09659939998528,40.09659939998528,space,17.232418400002643,,,,,,,,,,,,,,,,,,,,,,,,,,,,,,,,,,,,,,,,,,,,,,,,,,,,,,,,,,,,,,,,,,,,３４７,f,１９,2023-05-21_18h37.35.231,RL,2022.2.5,59.95045693852534,
25,48,67,59,0,0,0,0,,,,,57.35973189998185,57.35973189998185,62.37317129998701,None,63.37751339998795,63.37751339998795,63.37751339998795,63.37751339998795,63.37751339998795,63.37751339998795,j,0.32180330000119284,63.72863279999001,63.72863279999001,63.72863279999001,63.72863279999001,63.72863279999001,63.72863279999001,64.00786549999611,65.14114629998221,65.17467429998214,65.17467429998214,65.17467429998214,65.17467429998214,65.17467429998214,65.17467429998214,65.17467429998214,65.17467429998214,65.17467429998214,65.17467429998214,65.17467429998214,65.17467429998214,65.17467429998214,66.6541969999962,66.6541969999962,66.6541969999962,66.6541969999962,66.6541969999962,66.6541969999962,66.6541969999962,25,59,67,48,48,60,66.6541969999962,68.29040309999255,,,,,,,,,,,,,,,,,,,,３４７,f,１９,2023-05-21_18h37.35.231,RL,2022.2.5,59.95045693852534,
32,46,44,65,0,1,1,1,,,,,,,,None,68.29040309999255,68.29040309999255,68.29040309999255,68.29040309999255,68.29040309999255,68.29040309999255,r,0.42260399999213405,68.74207769997884,68.74207769997884,68.74207769997884,68.74207769997884,68.74207769997884,68.74207769997884,69.02359749999596,70.0065498999902,70.02308189999894,70.02308189999894,70.02308189999894,70.02308189999894,70.02308189999894,70.02308189999894,70.02308189999894,70.02308189999894,70.02308189999894,70.02308189999894,70.02308189999894,70.02308189999894,70.02308189999894,71.30479549997835,71.30479549997835,71.30479549997835,71.30479549997835,71.30479549997835,71.30479549997835,71.30479549997835,32,65,44,46,65,60,71.30479549997835,73.18930599998566,,,,,,,,,,,,,,,,,,,,３４７,f,１９,2023-05-21_18h37.35.231,RL,2022.2.5,59.95045693852534,
27,49,40,68,0,2,2,2,,,,,,,,None,73.18930599998566,73.18930599998566,73.18930599998566,73.18930599998566,73.18930599998566,73.18930599998566,r,0.44541869999375194,73.65713169999071,73.65713169999071,73.65713169999071,73.65713169999071,73.65713169999071,73.65713169999071,73.95630699998583,75.10543169997982,75.10543169997982,75.10543169997982,75.10543169997982,75.10543169997982,75.10543169997982,75.10543169997982,75.10543169997982,75.10543169997982,75.10543169997982,75.10543169997982,75.10543169997982,75.10543169997982,75.10543169997982,76.55423929999233,76.55423929999233,76.55423929999233,76.55423929999233,76.55423929999233,76.55423929999233,76.55423929999233,27,68,40,49,68,60,76.55423929999233,78.3717115999898,,,,,,,,,,,,,,,,,,,,３４７,f,１９,2023-05-21_18h37.35.231,RL,2022.2.5,59.95045693852534,
25,41,46,62,0,3,3,3,,,,,,,,None,78.3717115999898,78.3717115999898,78.3717115999898,78.3717115999898,78.3717115999898,78.3717115999898,f,0.2650382999854628,78.65676339998026,78.65676339998026,78.65676339998026,78.65676339998026,78.65676339998026,78.65676339998026,78.9555063000007,80.17121529998258,80.17121529998258,80.17121529998258,80.17121529998258,80.17121529998258,80.17121529998258,80.17121529998258,80.17121529998258,80.17121529998258,80.17121529998258,80.17121529998258,80.17121529998258,80.17121529998258,80.17121529998258,81.66978379999637,81.66978379999637,81.66978379999637,81.66978379999637,81.66978379999637,81.66978379999637,81.66978379999637,25,62,46,41,25,60,81.66978379999637,83.22070659999736,,,,,,,,,,,,,,,,,,,,３４７,f,１９,2023-05-21_18h37.35.231,RL,2022.2.5,59.95045693852534,
26,54,39,58,0,4,4,4,,,,,,,,None,83.22070659999736,83.22070659999736,83.22070659999736,83.22070659999736,83.22070659999736,83.22070659999736,j,0.6059111000213306,83.85541839999496,83.85541839999496,83.85541839999496,83.85541839999496,83.85541839999496,83.85541839999496,84.15409559998079,85.40365809999639,85.40365809999639,85.40365809999639,85.40365809999639,85.40365809999639,85.40365809999639,85.40365809999639,85.40365809999639,85.40365809999639,85.40365809999639,85.40365809999639,85.40365809999639,85.40365809999639,85.40365809999639,86.95199010000215,86.95199010000215,86.95199010000215,86.95199010000215,86.95199010000215,86.95199010000215,86.95199010000215,26,58,39,54,54,60,86.95199010000215,88.70317920000525,,,,,,,,,,,,,,,,,,,,３４７,f,１９,2023-05-21_18h37.35.231,RL,2022.2.5,59.95045693852534,
30,57,50,61,0,5,5,5,,,,,,,,None,88.70317920000525,88.70317920000525,88.70317920000525,88.70317920000525,88.70317920000525,88.70317920000525,i,0.2990986999939196,89.02212519999011,89.02212519999011,89.02212519999011,89.02212519999011,89.02212519999011,89.02212519999011,89.32021509998594,90.8693581999978,90.8693581999978,90.8693581999978,90.8693581999978,90.8693581999978,90.8693581999978,90.8693581999978,90.8693581999978,90.8693581999978,90.8693581999978,90.8693581999978,90.8693581999978,90.8693581999978,90.8693581999978,92.7175658000051,92.7175658000051,92.7175658000051,92.7175658000051,92.7175658000051,92.7175658000051,92.7175658000051,30,61,50,57,50,60,92.7175658000051,94.55234019999625,,,,,,,,,,,,,,,,,,,,３４７,f,１９,2023-05-21_18h37.35.231,RL,2022.2.5,59.95045693852534,
28,50,44,64,0,6,6,6,,,,,,,,None,94.55234019999625,94.55234019999625,94.55234019999625,94.55234019999625,94.55234019999625,94.55234019999625,r,0.34306630000355653,94.91971479999484,94.91971479999484,94.91971479999484,94.91971479999484,94.91971479999484,94.91971479999484,95.20224799998687,96.76886389998253,96.78532880000421,96.78532880000421,96.78532880000421,96.78532880000421,96.78532880000421,96.78532880000421,96.78532880000421,96.78532880000421,96.78532880000421,96.78532880000421,96.78532880000421,96.78532880000421,96.78532880000421,98.64996779998182,98.64996779998182,98.64996779998182,98.64996779998182,98.64996779998182,98.64996779998182,98.64996779998182,28,64,44,50,64,60,98.64996779998182,100.56798599998001,,,,,,,,,,,,,,,,,,,,３４７,f,１９,2023-05-21_18h37.35.231,RL,2022.2.5,59.95045693852534,
24,50,40,68,0,7,7,7,,,,,,,,None,100.56798599998001,100.56798599998001,100.56798599998001,100.56798599998001,100.56798599998001,100.56798599998001,j,0.3518266000028234,100.95568630000344,100.95568630000344,100.95568630000344,100.95568630000344,100.95568630000344,100.95568630000344,101.234592599998,103.11750439999742,103.13408459999482,103.13408459999482,103.13408459999482,103.13408459999482,103.13408459999482,103.13408459999482,103.13408459999482,103.13408459999482,103.13408459999482,103.13408459999482,103.13408459999482,103.13408459999482,103.13408459999482,105.31547599998885,105.31547599998885,105.31547599998885,105.31547599998885,105.31547599998885,105.31547599998885,105.31547599998885,24,68,40,50,50,60,105.31547599998885,106.96685409999918,,,,,,,,,,,,,,,,,,,,３４７,f,１９,2023-05-21_18h37.35.231,RL,2022.2.5,59.95045693852534,
28,50,52,64,0,8,8,8,,,,,,,,None,106.96685409999918,106.96685409999918,106.96685409999918,106.96685409999918,106.96685409999918,106.96685409999918,r,0.4554043999814894,107.45183119998546,107.45183119998546,107.45183119998546,107.45183119998546,107.45183119998546,107.45183119998546,107.74980069999583,108.9997391999932,108.9997391999932,108.9997391999932,108.9997391999932,108.9997391999932,108.9997391999932,108.9997391999932,108.9997391999932,108.9997391999932,108.9997391999932,108.9997391999932,108.9997391999932,108.9997391999932,108.9997391999932,110.5480508999899,110.5480508999899,110.5480508999899,110.5480508999899,110.5480508999899,110.5480508999899,110.5480508999899,28,64,52,50,64,60,110.5480508999899,112.3990116000059,,,,,,,,,,,,,,,,,,,,３４７,f,１９,2023-05-21_18h37.35.231,RL,2022.2.5,59.95045693852534,
30,57,55,66,0,9,9,9,,,,,,,,None,112.3990116000059,112.3990116000059,112.3990116000059,112.3990116000059,112.3990116000059,112.3990116000059,f,0.40294950001407415,112.83861730000353,112.83861730000353,112.83861730000353,112.83861730000353,112.83861730000353,112.83861730000353,113.1328169000044,115.04864530000486,115.04864530000486,115.04864530000486,115.04864530000486,115.04864530000486,115.04864530000486,115.04864530000486,115.04864530000486,115.04864530000486,115.04864530000486,115.04864530000486,115.04864530000486,115.04864530000486,115.04864530000486,117.26378969999496,117.26378969999496,117.26378969999496,117.26378969999496,117.26378969999496,117.26378969999496,117.26378969999496,30,66,55,57,30,60,117.26378969999496,119.1646805999917,,,,,,,,,,,,,,,,,,,,３４７,f,１９,2023-05-21_18h37.35.231,RL,2022.2.5,59.95045693852534,
25,51,34,74,0,10,10,10,,,,,,,,None,119.1646805999917,119.1646805999917,119.1646805999917,119.1646805999917,119.1646805999917,119.1646805999917,r,0.3463972000172362,119.53191970000626,119.53191970000626,119.53191970000626,119.53191970000626,119.53191970000626,119.53191970000626,119.81466069997987,120.98119180000504,120.99738329998218,120.99738329998218,120.99738329998218,120.99738329998218,120.99738329998218,120.99738329998218,120.99738329998218,120.99738329998218,120.99738329998218,120.99738329998218,120.99738329998218,120.99738329998218,120.99738329998218,122.46218709999812,122.46218709999812,122.46218709999812,122.46218709999812,122.46218709999812,122.46218709999812,122.46218709999812,25,74,34,51,74,60,122.46218709999812,124.09742549998919,,,,,,,,,,,,,,,,,,,,３４７,f,１９,2023-05-21_18h37.35.231,RL,2022.2.5,59.95045693852534,
19,43,44,70,0,11,11,11,,,,,,,,None,124.09742549998919,124.09742549998919,124.09742549998919,124.09742549998919,124.09742549998919,124.09742549998919,i,0.24138600000878796,124.36499129998265,124.36499129998265,124.36499129998265,124.36499129998265,124.36499129998265,124.36499129998265,124.64689350000117,126.33022149998578,126.36350710000261,126.36350710000261,126.36350710000261,126.36350710000261,126.36350710000261,126.36350710000261,126.36350710000261,126.36350710000261,126.36350710000261,126.36350710000261,126.36350710000261,126.36350710000261,126.36350710000261,128.34502409998095,128.34502409998095,128.34502409998095,128.34502409998095,128.34502409998095,128.34502409998095,128.34502409998095,19,70,44,43,44,60,128.34502409998095,130.2626876999857,,,,,,,,,,,,,,,,,,,,３４７,f,１９,2023-05-21_18h37.35.231,RL,2022.2.5,59.95045693852534,
32,40,43,68,0,12,12,12,,,,,,,,None,130.2626876999857,130.2626876999857,130.2626876999857,130.2626876999857,130.2626876999857,130.2626876999857,r,0.3480585999786854,130.62986499999533,130.62986499999533,130.62986499999533,130.62986499999533,130.62986499999533,130.62986499999533,130.91300729999784,132.4461010999803,132.46276039999793,132.46276039999793,132.46276039999793,132.46276039999793,132.46276039999793,132.46276039999793,132.46276039999793,132.46276039999793,132.46276039999793,132.46276039999793,132.46276039999793,132.46276039999793,132.46276039999793,134.29361520000384,134.29361520000384,134.29361520000384,134.29361520000384,134.29361520000384,134.29361520000384,134.29361520000384,32,68,43,40,68,60,134.29361520000384,135.86200009999448,,,,,,,,,,,,,,,,,,,,３４７,f,１９,2023-05-21_18h37.35.231,RL,2022.2.5,59.95045693852534,
23,57,42,75,0,13,13,13,,,,,,,,None,135.86200009999448,135.86200009999448,135.86200009999448,135.86200009999448,135.86200009999448,135.86200009999448,j,0.30847359998733737,136.19520759998704,136.19520759998704,136.19520759998704,136.19520759998704,136.19520759998704,136.19520759998704,136.4787376000022,137.7115617999807,137.72796489999746,137.72796489999746,137.72796489999746,137.72796489999746,137.72796489999746,137.72796489999746,137.72796489999746,137.72796489999746,137.72796489999746,137.72796489999746,137.72796489999746,137.72796489999746,137.72796489999746,139.25982999999542,139.25982999999542,139.25982999999542,139.25982999999542,139.25982999999542,139.25982999999542,139.25982999999542,23,75,42,57,57,60,139.25982999999542,141.22722050000448,,,,,,,,,,,,,,,,,,,,３４７,f,１９,2023-05-21_18h37.35.231,RL,2022.2.5,59.95045693852534,
27,47,44,70,0,14,14,14,,,,,,,,None,141.22722050000448,141.22722050000448,141.22722050000448,141.22722050000448,141.22722050000448,141.22722050000448,r,0.24194559999159537,141.49421790000633,141.49421790000633,141.49421790000633,141.49421790000633,141.49421790000633,141.49421790000633,141.77758520000498,142.7607916999841,142.7772552999959,142.7772552999959,142.7772552999959,142.7772552999959,142.7772552999959,142.7772552999959,142.7772552999959,142.7772552999959,142.7772552999959,142.7772552999959,142.7772552999959,142.7772552999959,142.7772552999959,144.05886089999694,144.05886089999694,144.05886089999694,144.05886089999694,144.05886089999694,144.05886089999694,144.05886089999694,27,70,44,47,70,60,144.05886089999694,145.7265172000043,,,,,,,,,,,,,,,,,,,,３４７,f,１９,2023-05-21_18h37.35.231,RL,2022.2.5,59.95045693852534,
21,48,47,74,0,15,15,15,,,,,,,,None,145.7265172000043,145.7265172000043,145.7265172000043,145.7265172000043,145.7265172000043,145.7265172000043,j,0.40302100000553764,146.16621229998418,146.16621229998418,146.16621229998418,146.16621229998418,146.16621229998418,146.16621229998418,146.44322580000153,147.39352339998004,147.41004349998548,147.41004349998548,147.41004349998548,147.41004349998548,147.41004349998548,147.41004349998548,147.41004349998548,147.41004349998548,147.41004349998548,147.41004349998548,147.41004349998548,147.41004349998548,147.41004349998548,148.6581624999817,148.6581624999817,148.6581624999817,148.6581624999817,148.6581624999817,148.6581624999817,148.6581624999817,21,74,47,48,48,60,148.6581624999817,150.65891939998255,,,,,,,,,,,,,,,,,,,,３４７,f,１９,2023-05-21_18h37.35.231,RL,2022.2.5,59.95045693852534,
19,49,43,75,0,16,16,16,,,,,,,,None,150.65891939998255,150.65891939998255,150.65891939998255,150.65891939998255,150.65891939998255,150.65891939998255,r,0.26422610000008717,150.94573779997882,150.94573779997882,150.94573779997882,150.94573779997882,150.94573779997882,150.94573779997882,151.22644430000219,153.15953939998872,153.17560279997997,153.17560279997997,153.17560279997997,153.17560279997997,153.17560279997997,153.17560279997997,153.17560279997997,153.17560279997997,153.17560279997997,153.17560279997997,153.17560279997997,153.17560279997997,153.17560279997997,155.40653389997897,155.40653389997897,155.40653389997897,155.40653389997897,155.40653389997897,155.40653389997897,155.40653389997897,19,75,43,49,75,60,155.40653389997897,157.05772609999985,,,,,,,,,,,,,,,,,,,,３４７,f,１９,2023-05-21_18h37.35.231,RL,2022.2.5,59.95045693852534,
25,52,48,80,0,17,17,17,,,,,,,,None,157.05772609999985,157.05772609999985,157.05772609999985,157.05772609999985,157.05772609999985,157.05772609999985,f,0.2807376999990083,157.358493799984,157.358493799984,157.358493799984,157.358493799984,157.358493799984,157.358493799984,157.6581298999954,158.5580975000048,158.5580975000048,158.5580975000048,158.5580975000048,158.5580975000048,158.5580975000048,158.5580975000048,158.5580975000048,158.5580975000048,158.5580975000048,158.5580975000048,158.5580975000048,158.5580975000048,158.5580975000048,159.7562404999917,159.7562404999917,159.7562404999917,159.7562404999917,159.7562404999917,159.7562404999917,159.7562404999917,25,80,48,52,25,60,159.7562404999917,161.60748489998514,,,,,,,,,,,,,,,,,,,,３４７,f,１９,2023-05-21_18h37.35.231,RL,2022.2.5,59.95045693852534,
24,48,44,72,0,18,18,18,,,,,,,,None,161.60748489998514,161.60748489998514,161.60748489998514,161.60748489998514,161.60748489998514,161.60748489998514,r,0.21284929997636937,161.84174239999265,161.84174239999265,161.84174239999265,161.84174239999265,161.84174239999265,161.84174239999265,162.14073439998901,163.6570406999963,163.6570406999963,163.6570406999963,163.6570406999963,163.6570406999963,163.6570406999963,163.6570406999963,163.6570406999963,163.6570406999963,163.6570406999963,163.6570406999963,163.6570406999963,163.6570406999963,163.6570406999963,165.47165409999434,165.47165409999434,165.47165409999434,165.47165409999434,165.47165409999434,165.47165409999434,165.47165409999434,24,72,44,48,72,60,165.47165409999434,167.17286890000105,,,,,,,,,,,,,,,,,,,,３４７,f,１９,2023-05-21_18h37.35.231,RL,2022.2.5,59.95045693852534,
25,50,44,79,0,19,19,19,,,,,,,,None,167.17286890000105,167.17286890000105,167.17286890000105,167.17286890000105,167.17286890000105,167.17286890000105,i,0.2088965000002645,167.40706569998292,167.40706569998292,167.40706569998292,167.40706569998292,167.40706569998292,167.40706569998292,167.6899102999887,168.52296390000265,168.53978299998562,168.53978299998562,168.53978299998562,168.53978299998562,168.53978299998562,168.53978299998562,168.53978299998562,168.53978299998562,168.53978299998562,168.53978299998562,168.53978299998562,168.53978299998562,168.53978299998562,169.67130309998174,169.67130309998174,169.67130309998174,169.67130309998174,169.67130309998174,169.67130309998174,169.67130309998174,25,79,44,50,44,60,169.67130309998174,171.43879149999702,,,,,,,,,,,,,,,,,,,,３４７,f,１９,2023-05-21_18h37.35.231,RL,2022.2.5,59.95045693852534,
24,49,45,80,0,20,20,20,,,,,,,,None,171.43879149999702,171.43879149999702,171.43879149999702,171.43879149999702,171.43879149999702,171.43879149999702,r,0.2360787000216078,171.71241759997793,171.71241759997793,171.71241759997793,171.71241759997793,171.71241759997793,171.71241759997793,171.98928519999026,173.55546269999468,173.57194110000273,173.57194110000273,173.57194110000273,173.57194110000273,173.57194110000273,173.57194110000273,173.57194110000273,173.57194110000273,173.57194110000273,173.57194110000273,173.57194110000273,173.57194110000273,173.57194110000273,175.43674289999763,175.43674289999763,175.43674289999763,175.43674289999763,175.43674289999763,175.43674289999763,175.43674289999763,24,80,45,49,80,60,175.43674289999763,177.23759909998626,,,,,,,,,,,,,,,,,,,,３４７,f,１９,2023-05-21_18h37.35.231,RL,2022.2.5,59.95045693852534,
17,36,41,77,0,21,21,21,,,,,,,,None,177.23759909998626,177.23759909998626,177.23759909998626,177.23759909998626,177.23759909998626,177.23759909998626,r,0.29304670001147315,177.55511269997805,177.55511269997805,177.55511269997805,177.55511269997805,177.55511269997805,177.55511269997805,177.8380976000044,179.82103209997877,179.8378642000025,179.8378642000025,179.8378642000025,179.8378642000025,179.8378642000025,179.8378642000025,179.8378642000025,179.8378642000025,179.8378642000025,179.8378642000025,179.8378642000025,179.8378642000025,179.8378642000025,182.11910589999752,182.11910589999752,182.11910589999752,182.11910589999752,182.11910589999752,182.11910589999752,182.11910589999752,17,77,41,36,77,60,182.11910589999752,184.12018629998784,,,,,,,,,,,,,,,,,,,,３４７,f,１９,2023-05-21_18h37.35.231,RL,2022.2.5,59.95045693852534,
22,46,41,71,0,22,22,22,,,,,,,,None,184.12018629998784,184.12018629998784,184.12018629998784,184.12018629998784,184.12018629998784,184.12018629998784,j,0.2595475999987684,184.40416299999924,184.40416299999924,184.40416299999924,184.40416299999924,184.40416299999924,184.40416299999924,184.68685080000432,185.72005169998738,185.7364631999808,185.7364631999808,185.7364631999808,185.7364631999808,185.7364631999808,185.7364631999808,185.7364631999808,185.7364631999808,185.7364631999808,185.7364631999808,185.7364631999808,185.7364631999808,185.7364631999808,187.06787649999023,187.06787649999023,187.06787649999023,187.06787649999023,187.06787649999023,187.06787649999023,187.06787649999023,22,71,41,46,46,60,187.06787649999023,188.88581290000002,,,,,,,,,,,,,,,,,,,,３４７,f,１９,2023-05-21_18h37.35.231,RL,2022.2.5,59.95045693852534,
14,37,35,73,0,23,23,23,,,,,,,,None,188.88581290000002,188.88581290000002,188.88581290000002,188.88581290000002,188.88581290000002,188.88581290000002,r,0.24325890000909567,189.15270039997995,189.15270039997995,189.15270039997995,189.15270039997995,189.15270039997995,189.15270039997995,189.435561899998,191.43548069999088,191.45225010000286,191.45225010000286,191.45225010000286,191.45225010000286,191.45225010000286,191.45225010000286,191.45225010000286,191.45225010000286,191.45225010000286,191.45225010000286,191.45225010000286,191.45225010000286,191.45225010000286,193.75007489998825,193.75007489998825,193.75007489998825,193.75007489998825,193.75007489998825,193.75007489998825,193.75007489998825,14,73,35,37,73,60,193.75007489998825,195.46754270000383,,,,,,,,,,,,,,,,,,,,３４７,f,１９,2023-05-21_18h37.35.231,RL,2022.2.5,59.95045693852534,
21,37,51,81,0,24,24,24,,,,,,,,None,195.46754270000383,195.46754270000383,195.46754270000383,195.46754270000383,195.46754270000383,195.46754270000383,r,0.2466392999922391,195.73702390000108,195.73702390000108,195.73702390000108,195.73702390000108,195.73702390000108,195.73702390000108,196.01851349999197,196.96783769998,196.9840925000026,196.9840925000026,196.9840925000026,196.9840925000026,196.9840925000026,196.9840925000026,196.9840925000026,196.9840925000026,196.9840925000026,196.9840925000026,196.9840925000026,196.9840925000026,196.9840925000026,198.23257439999725,198.23257439999725,198.23257439999725,198.23257439999725,198.23257439999725,198.23257439999725,198.23257439999725,21,81,51,37,81,60,198.23257439999725,200.00010239999392,,,,,,,,,,,,,,,,,,,,３４７,f,１９,2023-05-21_18h37.35.231,RL,2022.2.5,59.95045693852534,
15,48,49,75,0,25,25,25,,,,,,,,None,200.00010239999392,200.00010239999392,200.00010239999392,200.00010239999392,200.00010239999392,200.00010239999392,r,0.3497423000226263,200.36772939999355,200.36772939999355,200.36772939999355,200.36772939999355,200.36772939999355,200.36772939999355,200.6506332999852,201.81718309997814,201.833501599991,201.833501599991,201.833501599991,201.833501599991,201.833501599991,201.833501599991,201.833501599991,201.833501599991,201.833501599991,201.833501599991,201.833501599991,201.833501599991,201.833501599991,203.29850439997972,203.29850439997972,203.29850439997972,203.29850439997972,203.29850439997972,203.29850439997972,203.29850439997972,15,75,49,48,75,60,203.29850439997972,205.16639020000002,,,,,,,,,,,,,,,,,,,,３４７,f,１９,2023-05-21_18h37.35.231,RL,2022.2.5,59.95045693852534,
14,44,43,74,0,26,26,26,,,,,,,,None,205.16639020000002,205.16639020000002,205.16639020000002,205.16639020000002,205.16639020000002,205.16639020000002,f,0.25892779999412596,205.44982539999182,205.44982539999182,205.44982539999182,205.44982539999182,205.44982539999182,205.44982539999182,205.73263579999912,207.4162543999846,207.43297910000547,207.43297910000547,207.43297910000547,207.43297910000547,207.43297910000547,207.43297910000547,207.43297910000547,207.43297910000547,207.43297910000547,207.43297910000547,207.43297910000547,207.43297910000547,207.43297910000547,209.41437929999665,209.41437929999665,209.41437929999665,209.41437929999665,209.41437929999665,209.41437929999665,209.41437929999665,14,74,43,44,14,60,209.41437929999665,210.98157619999256,,,,,,,,,,,,,,,,,,,,３４７,f,１９,2023-05-21_18h37.35.231,RL,2022.2.5,59.95045693852534,
24,39,36,69,0,27,27,27,,,,,,,,None,210.98157619999256,210.98157619999256,210.98157619999256,210.98157619999256,210.98157619999256,210.98157619999256,r,0.23650689999340102,211.24969070000225,211.24969070000225,211.24969070000225,211.24969070000225,211.24969070000225,211.24969070000225,211.53240739999455,212.44865979999304,212.4649950999883,212.4649950999883,212.4649950999883,212.4649950999883,212.4649950999883,212.4649950999883,212.4649950999883,212.4649950999883,212.4649950999883,212.4649950999883,212.4649950999883,212.4649950999883,212.4649950999883,213.67970700000296,213.67970700000296,213.67970700000296,213.67970700000296,213.67970700000296,213.67970700000296,213.67970700000296,24,69,36,39,69,60,213.67970700000296,215.39797599997837,,,,,,,,,,,,,,,,,,,,３４７,f,１９,2023-05-21_18h37.35.231,RL,2022.2.5,59.95045693852534,
30,37,29,73,0,28,28,28,,,,,,,,None,215.39797599997837,215.39797599997837,215.39797599997837,215.39797599997837,215.39797599997837,215.39797599997837,r,0.25269129997468553,215.68250819999957,215.68250819999957,215.68250819999957,215.68250819999957,215.68250819999957,215.68250819999957,215.96482059999835,217.3140530999808,217.33074209999177,217.33074209999177,217.33074209999177,217.33074209999177,217.33074209999177,217.33074209999177,217.33074209999177,217.33074209999177,217.33074209999177,217.33074209999177,217.33074209999177,217.33074209999177,217.33074209999177,218.97944349999307,218.97944349999307,218.97944349999307,218.97944349999307,218.97944349999307,218.97944349999307,218.97944349999307,30,73,29,37,73,60,218.97944349999307,220.497060099995,,,,,,,,,,,,,,,,,,,,３４７,f,１９,2023-05-21_18h37.35.231,RL,2022.2.5,59.95045693852534,
25,40,43,67,0,29,29,29,,,,,,,,None,220.497060099995,220.497060099995,220.497060099995,220.497060099995,220.497060099995,220.497060099995,j,0.31191460002446547,220.83871630000067,220.83871630000067,220.83871630000067,220.83871630000067,220.83871630000067,220.83871630000067,221.1305730000022,222.38033349998295,222.38033349998295,222.38033349998295,222.38033349998295,222.38033349998295,222.38033349998295,222.38033349998295,222.38033349998295,222.38033349998295,222.38033349998295,222.38033349998295,222.38033349998295,222.38033349998295,222.38033349998295,223.92854789999546,223.92854789999546,223.92854789999546,223.92854789999546,223.92854789999546,223.92854789999546,223.92854789999546,25,67,43,40,40,60,223.92854789999546,225.91293170000426,,,,,,,,,,,,,,,,,,,,３４７,f,１９,2023-05-21_18h37.35.231,RL,2022.2.5,59.95045693852534,
39,50,34,70,0,30,30,30,,,,,,,,None,225.91293170000426,225.91293170000426,225.91293170000426,225.91293170000426,225.91293170000426,225.91293170000426,r,0.22347810000064783,226.16317749998416,226.16317749998416,226.16317749998416,226.16317749998416,226.16317749998416,226.16317749998416,226.4632517999853,227.54623399997945,227.54623399997945,227.54623399997945,227.54623399997945,227.54623399997945,227.54623399997945,227.54623399997945,227.54623399997945,227.54623399997945,227.54623399997945,227.54623399997945,227.54623399997945,227.54623399997945,227.54623399997945,228.9271330999909,228.9271330999909,228.9271330999909,228.9271330999909,228.9271330999909,228.9271330999909,228.9271330999909,39,70,34,50,70,60,228.9271330999909,230.4784224999894,,,,,,,,,,,,,,,,,,,,３４７,f,１９,2023-05-21_18h37.35.231,RL,2022.2.5,59.95045693852534,
32,37,46,72,0,31,31,31,,,,,,,,None,230.4784224999894,230.4784224999894,230.4784224999894,230.4784224999894,230.4784224999894,230.4784224999894,j,0.4621280999854207,230.96475689997897,230.96475689997897,230.96475689997897,230.96475689997897,230.96475689997897,230.96475689997897,231.26212219998706,232.71231609999086,232.7283199999947,232.7283199999947,232.7283199999947,232.7283199999947,232.7283199999947,232.7283199999947,232.7283199999947,232.7283199999947,232.7283199999947,232.7283199999947,232.7283199999947,232.7283199999947,232.7283199999947,234.47622869999032,234.47622869999032,234.47622869999032,234.47622869999032,234.47622869999032,234.47622869999032,234.47622869999032,32,72,46,37,37,60,234.47622869999032,236.31084920000285,,,,,,,,,,,,,,,,,,,,３４７,f,１９,2023-05-21_18h37.35.231,RL,2022.2.5,59.95045693852534,
35,52,53,65,0,32,32,32,,,,,,,,None,236.31084920000285,236.31084920000285,236.31084920000285,236.31084920000285,236.31084920000285,236.31084920000285,r,0.23279639999964274,236.5857618000009,236.5857618000009,236.5857618000009,236.5857618000009,236.5857618000009,236.5857618000009,236.8773014000035,238.09447949999594,238.09447949999594,238.09447949999594,238.09447949999594,238.09447949999594,238.09447949999594,238.09447949999594,238.09447949999594,238.09447949999594,238.09447949999594,238.09447949999594,238.09447949999594,238.09447949999594,238.09447949999594,239.60934840000118,239.60934840000118,239.60934840000118,239.60934840000118,239.60934840000118,239.60934840000118,239.60934840000118,35,65,53,52,65,60,239.60934840000118,241.37620289999177,,,,,,,,,,,,,,,,,,,,３４７,f,１９,2023-05-21_18h37.35.231,RL,2022.2.5,59.95045693852534,
28,38,44,67,0,33,33,33,,,,,,,,None,241.37620289999177,241.37620289999177,241.37620289999177,241.37620289999177,241.37620289999177,241.37620289999177,i,0.2900773000146728,241.6937215999933,241.6937215999933,241.6937215999933,241.6937215999933,241.6937215999933,241.6937215999933,241.9936156999902,242.99337979999837,242.99337979999837,242.99337979999837,242.99337979999837,242.99337979999837,242.99337979999837,242.99337979999837,242.99337979999837,242.99337979999837,242.99337979999837,242.99337979999837,242.99337979999837,242.99337979999837,242.99337979999837,244.29147619998548,244.29147619998548,244.29147619998548,244.29147619998548,244.29147619998548,244.29147619998548,244.29147619998548,28,67,44,38,44,60,244.29147619998548,245.9255232999858,,,,,,,,,,,,,,,,,,,,３４７,f,１９,2023-05-21_18h37.35.231,RL,2022.2.5,59.95045693852534,
29,41,40,65,0,34,34,34,,,,,,,,None,245.9255232999858,245.9255232999858,245.9255232999858,245.9255232999858,245.9255232999858,245.9255232999858,r,0.2546287000004668,246.21104989998275,246.21104989998275,246.21104989998275,246.21104989998275,246.21104989998275,246.21104989998275,246.49273329999414,248.0255807999929,248.04228379999404,248.04228379999404,248.04228379999404,248.04228379999404,248.04228379999404,248.04228379999404,248.04228379999404,248.04228379999404,248.04228379999404,248.04228379999404,248.04228379999404,248.04228379999404,248.04228379999404,249.87377380000544,249.87377380000544,249.87377380000544,249.87377380000544,249.87377380000544,249.87377380000544,249.87377380000544,29,65,40,41,65,60,249.87377380000544,251.79139249998843,,,,,,,,,,,,,,,,,,,,３４７,f,１９,2023-05-21_18h37.35.231,RL,2022.2.5,59.95045693852534,
35,44,35,74,0,35,35,35,,,,,,,,None,251.79139249998843,251.79139249998843,251.79139249998843,251.79139249998843,251.79139249998843,251.79139249998843,r,0.4477500999928452,252.25890549999895,252.25890549999895,252.25890549999895,252.25890549999895,252.25890549999895,252.25890549999895,252.5585181999777,254.37462449999293,254.37462449999293,254.37462449999293,254.37462449999293,254.37462449999293,254.37462449999293,254.37462449999293,254.37462449999293,254.37462449999293,254.37462449999293,254.37462449999293,254.37462449999293,254.37462449999293,254.37462449999293,256.4894909999857,256.4894909999857,256.4894909999857,256.4894909999857,256.4894909999857,256.4894909999857,256.4894909999857,35,74,35,44,74,60,256.4894909999857,258.1235301999841,,,,,,,,,,,,,,,,,,,,３４７,f,１９,2023-05-21_18h37.35.231,RL,2022.2.5,59.95045693852534,
33,39,37,71,0,36,36,36,,,,,,,,None,258.1235301999841,258.1235301999841,258.1235301999841,258.1235301999841,258.1235301999841,258.1235301999841,r,0.26581899999291636,258.41192919999594,258.41192919999594,258.41192919999594,258.41192919999594,258.41192919999594,258.41192919999594,258.7071231000009,259.57369910000125,259.59037659998285,259.59037659998285,259.59037659998285,259.59037659998285,259.59037659998285,259.59037659998285,259.59037659998285,259.59037659998285,259.59037659998285,259.59037659998285,259.59037659998285,259.59037659998285,259.59037659998285,260.75523109998903,260.75523109998903,260.75523109998903,260.75523109998903,260.75523109998903,260.75523109998903,260.75523109998903,33,71,37,39,71,60,260.75523109998903,262.40647190000163,,,,,,,,,,,,,,,,,,,,３４７,f,１９,2023-05-21_18h37.35.231,RL,2022.2.5,59.95045693852534,
42,37,37,70,0,37,37,37,,,,,,,,None,262.40647190000163,262.40647190000163,262.40647190000163,262.40647190000163,262.40647190000163,262.40647190000163,f,0.26529879998997785,262.6907550999895,262.6907550999895,262.6907550999895,262.6907550999895,262.6907550999895,262.6907550999895,262.9729782999784,264.7563547999889,264.77309119998245,264.77309119998245,264.77309119998245,264.77309119998245,264.77309119998245,264.77309119998245,264.77309119998245,264.77309119998245,264.77309119998245,264.77309119998245,264.77309119998245,264.77309119998245,264.77309119998245,266.85397080000257,266.85397080000257,266.85397080000257,266.85397080000257,266.85397080000257,266.85397080000257,266.85397080000257,42,70,37,37,42,60,266.85397080000257,268.7887689000054,,,,,,,,,,,,,,,,,,,,３４７,f,１９,2023-05-21_18h37.35.231,RL,2022.2.5,59.95045693852534,
34,37,28,63,0,38,38,38,,,,,,,,None,268.7887689000054,268.7887689000054,268.7887689000054,268.7887689000054,268.7887689000054,268.7887689000054,r,0.36883380002109334,269.19548679998843,269.19548679998843,269.19548679998843,269.19548679998843,269.19548679998843,269.19548679998843,269.47199170000385,270.30554820000543,270.32207709999057,270.32207709999057,270.32207709999057,270.32207709999057,270.32207709999057,270.32207709999057,270.32207709999057,270.32207709999057,270.32207709999057,270.32207709999057,270.32207709999057,270.32207709999057,270.32207709999057,271.45365710000624,271.45365710000624,271.45365710000624,271.45365710000624,271.45365710000624,271.45365710000624,271.45365710000624,34,63,28,37,63,60,271.45365710000624,272.9709949999815,,,,,,,,,,,,,,,,,,,,３４７,f,１９,2023-05-21_18h37.35.231,RL,2022.2.5,59.95045693852534,
36,36,30,66,0,39,39,39,,,,,,,,None,272.9709949999815,272.9709949999815,272.9709949999815,272.9709949999815,272.9709949999815,272.9709949999815,j,0.4290061999927275,273.42289289998007,273.42289289998007,273.42289289998007,273.42289289998007,273.42289289998007,273.42289289998007,273.72103600000264,275.137605099997,275.137605099997,275.137605099997,275.137605099997,275.137605099997,275.137605099997,275.137605099997,275.137605099997,275.137605099997,275.137605099997,275.137605099997,275.137605099997,275.137605099997,275.137605099997,276.85230909998063,276.85230909998063,276.85230909998063,276.85230909998063,276.85230909998063,276.85230909998063,276.85230909998063,36,66,30,36,36,60,276.85230909998063,278.7534078999888,,,,,,,,,,,,,,,,,,,,３４７,f,１９,2023-05-21_18h37.35.231,RL,2022.2.5,59.95045693852534,
38,33,40,61,0,40,40,40,,,,,,,,None,278.7534078999888,278.7534078999888,278.7534078999888,278.7534078999888,278.7534078999888,278.7534078999888,r,0.40295940000214614,279.18704869999783,279.18704869999783,279.18704869999783,279.18704869999783,279.18704869999783,279.18704869999783,279.4702653999848,281.0538913999917,281.0700819999911,281.0700819999911,281.0700819999911,281.0700819999911,281.0700819999911,281.0700819999911,281.0700819999911,281.0700819999911,281.0700819999911,281.0700819999911,281.0700819999911,281.0700819999911,281.0700819999911,282.9509881999984,282.9509881999984,282.9509881999984,282.9509881999984,282.9509881999984,282.9509881999984,282.9509881999984,38,61,40,33,61,60,282.9509881999984,284.7021892000048,,,,,,,,,,,,,,,,,,,,３４７,f,１９,2023-05-21_18h37.35.231,RL,2022.2.5,59.95045693852534,
32,37,42,68,0,41,41,41,,,,,,,,None,284.7021892000048,284.7021892000048,284.7021892000048,284.7021892000048,284.7021892000048,284.7021892000048,i,0.4331891000038013,285.15352239998174,285.15352239998174,285.15352239998174,285.15352239998174,285.15352239998174,285.15352239998174,285.45267810000223,286.71896749999723,286.71896749999723,286.71896749999723,286.71896749999723,286.71896749999723,286.71896749999723,286.71896749999723,286.71896749999723,286.71896749999723,286.71896749999723,286.71896749999723,286.71896749999723,286.71896749999723,286.71896749999723,288.2841432999994,288.2841432999994,288.2841432999994,288.2841432999994,288.2841432999994,288.2841432999994,288.2841432999994,32,68,42,37,42,60,288.2841432999994,289.8684072000033,,,,,,,,,,,,,,,,,,,,３４７,f,１９,2023-05-21_18h37.35.231,RL,2022.2.5,59.95045693852534,
48,32,41,62,0,42,42,42,,,,,,,,None,289.8684072000033,289.8684072000033,289.8684072000033,289.8684072000033,289.8684072000033,289.8684072000033,f,0.41568450001068413,290.3018645999837,290.3018645999837,290.3018645999837,290.3018645999837,290.3018645999837,290.3018645999837,290.60216879998916,292.41827910000575,292.41827910000575,292.41827910000575,292.41827910000575,292.41827910000575,292.41827910000575,292.41827910000575,292.41827910000575,292.41827910000575,292.41827910000575,292.41827910000575,292.41827910000575,292.41827910000575,292.41827910000575,294.5326468999847,294.5326468999847,294.5326468999847,294.5326468999847,294.5326468999847,294.5326468999847,294.5326468999847,48,62,41,32,48,60,294.5326468999847,296.10049539999454,,,,,,,,,,,,,,,,,,,,３４７,f,１９,2023-05-21_18h37.35.231,RL,2022.2.5,59.95045693852534,
38,29,46,62,0,43,43,43,,,,,,,,None,296.10049539999454,296.10049539999454,296.10049539999454,296.10049539999454,296.10049539999454,296.10049539999454,r,0.24128479999490082,296.3677180999948,296.3677180999948,296.3677180999948,296.3677180999948,296.3677180999948,296.3677180999948,296.66736110000056,298.2672875999997,298.2672875999997,298.2672875999997,298.2672875999997,298.2672875999997,298.2672875999997,298.2672875999997,298.2672875999997,298.2672875999997,298.2672875999997,298.2672875999997,298.2672875999997,298.2672875999997,298.2672875999997,300.1651908000058,300.1651908000058,300.1651908000058,300.1651908000058,300.1651908000058,300.1651908000058,300.1651908000058,38,62,46,29,62,60,300.1651908000058,301.9496816000028,,,,,,,,,,,,,,,,,,,,３４７,f,１９,2023-05-21_18h37.35.231,RL,2022.2.5,59.95045693852534,
53,31,38,65,0,44,44,44,,,,,,,,None,301.9496816000028,301.9496816000028,301.9496816000028,301.9496816000028,301.9496816000028,301.9496816000028,r,0.4727586999943014,302.4502668000059,302.4502668000059,302.4502668000059,302.4502668000059,302.4502668000059,302.4502668000059,302.7495452000003,303.86605260000215,303.86605260000215,303.86605260000215,303.86605260000215,303.86605260000215,303.86605260000215,303.86605260000215,303.86605260000215,303.86605260000215,303.86605260000215,303.86605260000215,303.86605260000215,303.86605260000215,303.86605260000215,305.2808224000037,305.2808224000037,305.2808224000037,305.2808224000037,305.2808224000037,305.2808224000037,305.2808224000037,53,65,38,31,65,60,305.2808224000037,306.9981654000003,,,,,,,,,,,,,,,,,,,,３４７,f,１９,2023-05-21_18h37.35.231,RL,2022.2.5,59.95045693852534,
60,35,38,63,0,45,45,45,,,,,,,,None,306.9981654000003,306.9981654000003,306.9981654000003,306.9981654000003,306.9981654000003,306.9981654000003,f,0.39529819999006577,307.41752149999957,307.41752149999957,307.41752149999957,307.41752149999957,307.41752149999957,307.41752149999957,307.6991050999786,309.6317744999833,309.6484315999842,309.6484315999842,309.6484315999842,309.6484315999842,309.6484315999842,309.6484315999842,309.6484315999842,309.6484315999842,309.6484315999842,309.6484315999842,309.6484315999842,309.6484315999842,309.6484315999842,311.8796914999839,311.8796914999839,311.8796914999839,311.8796914999839,311.8796914999839,311.8796914999839,311.8796914999839,60,63,38,35,60,60,311.8796914999839,313.6475882999948,,,,,,,,,,,,,,,,,,,,３４７,f,１９,2023-05-21_18h37.35.231,RL,2022.2.5,59.95045693852534,
53,36,40,61,0,46,46,46,,,,,,,,None,313.6475882999948,313.6475882999948,313.6475882999948,313.6475882999948,313.6475882999948,313.6475882999948,i,0.4925441000086721,314.1645105999778,314.1645105999778,314.1645105999778,314.1645105999778,314.1645105999778,314.1645105999778,314.44749369999045,315.4637961999979,315.4804775999801,315.4804775999801,315.4804775999801,315.4804775999801,315.4804775999801,315.4804775999801,315.4804775999801,315.4804775999801,315.4804775999801,315.4804775999801,315.4804775999801,315.4804775999801,315.4804775999801,316.795789900003,316.795789900003,316.795789900003,316.795789900003,316.795789900003,316.795789900003,316.795789900003,53,61,40,36,40,60,316.795789900003,318.3131064999907,,,,,,,,,,,,,,,,,,,,３４７,f,１９,2023-05-21_18h37.35.231,RL,2022.2.5,59.95045693852534,
64,34,45,72,0,47,47,47,,,,,,,,None,318.3131064999907,318.3131064999907,318.3131064999907,318.3131064999907,318.3131064999907,318.3131064999907,r,0.4744596000236925,318.81563509997795,318.81563509997795,318.81563509997795,318.81563509997795,318.81563509997795,318.81563509997795,319.0969957000052,320.5796035999956,320.6131635000056,320.6131635000056,320.6131635000056,320.6131635000056,320.6131635000056,320.6131635000056,320.6131635000056,320.6131635000056,320.6131635000056,320.6131635000056,320.6131635000056,320.6131635000056,320.6131635000056,322.39496760000475,322.39496760000475,322.39496760000475,322.39496760000475,322.39496760000475,322.39496760000475,322.39496760000475,64,72,45,34,72,60,322.39496760000475,323.97855820000404,,,,,,,,,,,,,,,,,,,,３４７,f,１９,2023-05-21_18h37.35.231,RL,2022.2.5,59.95045693852534,
53,33,42,68,0,48,48,48,,,,,,,,None,323.97855820000404,323.97855820000404,323.97855820000404,323.97855820000404,323.97855820000404,323.97855820000404,r,0.44753649999620393,324.44598789999145,324.44598789999145,324.44598789999145,324.44598789999145,324.44598789999145,324.44598789999145,324.72921119999955,325.6620281999931,325.6788672999828,325.6788672999828,325.6788672999828,325.6788672999828,325.6788672999828,325.6788672999828,325.6788672999828,325.6788672999828,325.6788672999828,325.6788672999828,325.6788672999828,325.6788672999828,325.6788672999828,326.91069239997887,326.91069239997887,326.91069239997887,326.91069239997887,326.91069239997887,326.91069239997887,326.91069239997887,53,68,42,33,68,60,326.91069239997887,328.9116594999796,,,,,,,,,,,,,,,,,,,,３４７,f,１９,2023-05-21_18h37.35.231,RL,2022.2.5,59.95045693852534,
57,28,38,68,0,49,49,49,,,,,,,,None,328.9116594999796,328.9116594999796,328.9116594999796,328.9116594999796,328.9116594999796,328.9116594999796,r,0.9727166999946348,329.9153566999885,329.9153566999885,329.9153566999885,329.9153566999885,329.9153566999885,329.9153566999885,330.1949828999932,331.61134449997917,331.62762650000514,331.62762650000514,331.62762650000514,331.62762650000514,331.62762650000514,331.62762650000514,331.62762650000514,331.62762650000514,331.62762650000514,331.62762650000514,331.62762650000514,331.62762650000514,331.62762650000514,333.3427383999806,333.3427383999806,333.3427383999806,333.3427383999806,333.3427383999806,333.3427383999806,333.3427383999806,57,68,38,28,68,60,333.3427383999806,334.8607042999938,,,,,,,,,,,,,,,,,,,,３４７,f,１９,2023-05-21_18h37.35.231,RL,2022.2.5,59.95045693852534,
45,30,31,62,0,50,50,50,,,,,,,,None,334.8607042999938,334.8607042999938,334.8607042999938,334.8607042999938,334.8607042999938,334.8607042999938,f,0.3899431000172626,335.2812292999879,335.2812292999879,335.2812292999879,335.2812292999879,335.2812292999879,335.2812292999879,335.5776110999868,337.544054900005,337.544054900005,337.544054900005,337.544054900005,337.544054900005,337.544054900005,337.544054900005,337.544054900005,337.544054900005,337.544054900005,337.544054900005,337.544054900005,337.544054900005,337.544054900005,339.8082187999971,339.8082187999971,339.8082187999971,339.8082187999971,339.8082187999971,339.8082187999971,339.8082187999971,45,62,31,30,45,60,339.8082187999971,341.62615999998525,,,,,,,,,,,,,,,,,,,,３４７,f,１９,2023-05-21_18h37.35.231,RL,2022.2.5,59.95045693852534,
49,29,41,73,0,51,51,51,,,,,,,,None,341.62615999998525,341.62615999998525,341.62615999998525,341.62615999998525,341.62615999998525,341.62615999998525,r,0.2107679000182543,341.8605992999801,341.8605992999801,341.8605992999801,341.8605992999801,341.8605992999801,341.8605992999801,342.14305349998176,343.89278500000364,343.90887489999295,343.90887489999295,343.90887489999295,343.90887489999295,343.90887489999295,343.90887489999295,343.90887489999295,343.90887489999295,343.90887489999295,343.90887489999295,343.90887489999295,343.90887489999295,343.90887489999295,345.9571533999988,345.9571533999988,345.9571533999988,345.9571533999988,345.9571533999988,345.9571533999988,345.9571533999988,49,73,41,29,73,60,345.9571533999988,347.60816039997735,,,,,,,,,,,,,,,,,,,,３４７,f,１９,2023-05-21_18h37.35.231,RL,2022.2.5,59.95045693852534,
47,39,36,76,0,52,52,52,,,,,,,,None,347.60816039997735,347.60816039997735,347.60816039997735,347.60816039997735,347.60816039997735,347.60816039997735,r,0.3516144000168424,347.99332079998567,347.99332079998567,347.99332079998567,347.99332079998567,347.99332079998567,347.99332079998567,348.2751890999789,349.1416922000062,349.1580316000036,349.1580316000036,349.1580316000036,349.1580316000036,349.1580316000036,349.1580316000036,349.1580316000036,349.1580316000036,349.1580316000036,349.1580316000036,349.1580316000036,349.1580316000036,349.1580316000036,350.32300959998975,350.32300959998975,350.32300959998975,350.32300959998975,350.32300959998975,350.32300959998975,350.32300959998975,47,76,36,39,76,60,350.32300959998975,351.85734799999045,,,,,,,,,,,,,,,,,,,,３４７,f,１９,2023-05-21_18h37.35.231,RL,2022.2.5,59.95045693852534,
52,37,43,71,0,53,53,53,,,,,,,,None,351.85734799999045,351.85734799999045,351.85734799999045,351.85734799999045,351.85734799999045,351.85734799999045,r,0.6208753999962937,352.50767729998915,352.50767729998915,352.50767729998915,352.50767729998915,352.50767729998915,352.50767729998915,352.8079222999804,354.8071482999949,354.8071482999949,354.8071482999949,354.8071482999949,354.8071482999949,354.8071482999949,354.8071482999949,354.8071482999949,354.8071482999949,354.8071482999949,354.8071482999949,354.8071482999949,354.8071482999949,354.8071482999949,357.10518939999747,357.10518939999747,357.10518939999747,357.10518939999747,357.10518939999747,357.10518939999747,357.10518939999747,52,71,43,37,71,60,357.10518939999747,358.90610989998095,,,,,,,,,,,,,,,,,,,,３４７,f,１９,2023-05-21_18h37.35.231,RL,2022.2.5,59.95045693852534,
37,36,51,77,0,54,54,54,,,,,,,,None,358.90610989998095,358.90610989998095,358.90610989998095,358.90610989998095,358.90610989998095,358.90610989998095,i,0.40257710000150837,359.3433514999924,359.3433514999924,359.3433514999924,359.3433514999924,359.3433514999924,359.3433514999924,359.63967039997806,360.7726258999901,360.7726258999901,360.7726258999901,360.7726258999901,360.7726258999901,360.7726258999901,360.7726258999901,360.7726258999901,360.7726258999901,360.7726258999901,360.7726258999901,360.7726258999901,360.7726258999901,360.7726258999901,362.2044646999857,362.2044646999857,362.2044646999857,362.2044646999857,362.2044646999857,362.2044646999857,362.2044646999857,37,77,51,36,51,60,362.2044646999857,363.9551355000003,,,,,,,,,,,,,,,,,,,,３４７,f,１９,2023-05-21_18h37.35.231,RL,2022.2.5,59.95045693852534,
49,27,52,77,0,55,55,55,,,,,,,,None,363.9551355000003,363.9551355000003,363.9551355000003,363.9551355000003,363.9551355000003,363.9551355000003,r,0.3927561999880709,364.3724561999843,364.3724561999843,364.3724561999843,364.3724561999843,364.3724561999843,364.3724561999843,364.65565089997835,366.4386152999941,366.45496549998643,366.45496549998643,366.45496549998643,366.45496549998643,366.45496549998643,366.45496549998643,366.45496549998643,366.45496549998643,366.45496549998643,366.45496549998643,366.45496549998643,366.45496549998643,366.45496549998643,368.5366323000053,368.5366323000053,368.5366323000053,368.5366323000053,368.5366323000053,368.5366323000053,368.5366323000053,49,77,52,27,77,60,368.5366323000053,370.254365700006,,,,,,,,,,,,,,,,,,,,３４７,f,１９,2023-05-21_18h37.35.231,RL,2022.2.5,59.95045693852534,
50,35,49,75,0,56,56,56,,,,,,,,None,370.254365700006,370.254365700006,370.254365700006,370.254365700006,370.254365700006,370.254365700006,r,0.2862738000112586,370.57250379998004,370.57250379998004,370.57250379998004,370.57250379998004,370.57250379998004,370.57250379998004,370.8547496999963,372.60404279999784,372.62093579999055,372.62093579999055,372.62093579999055,372.62093579999055,372.62093579999055,372.62093579999055,372.62093579999055,372.62093579999055,372.62093579999055,372.62093579999055,372.62093579999055,372.62093579999055,372.62093579999055,374.6688344999857,374.6688344999857,374.6688344999857,374.6688344999857,374.6688344999857,374.6688344999857,374.6688344999857,50,75,49,35,75,60,374.6688344999857,376.6529326000018,,,,,,,,,,,,,,,,,,,,３４７,f,１９,2023-05-21_18h37.35.231,RL,2022.2.5,59.95045693852534,
53,38,58,69,0,57,57,57,,,,,,,,None,376.6529326000018,376.6529326000018,376.6529326000018,376.6529326000018,376.6529326000018,376.6529326000018,j,0.4076878000050783,377.08677460000035,377.08677460000035,377.08677460000035,377.08677460000035,377.08677460000035,377.08677460000035,377.37031229998684,379.2693374999799,379.3186630999844,379.3186630999844,379.3186630999844,379.3186630999844,379.3186630999844,379.3186630999844,379.3186630999844,379.3186630999844,379.3186630999844,379.3186630999844,379.3186630999844,379.3186630999844,379.3186630999844,381.5172277999809,381.5172277999809,381.5172277999809,381.5172277999809,381.5172277999809,381.5172277999809,381.5172277999809,53,69,58,38,38,60,381.5172277999809,383.1017828999902,,,,,,,,,,,,,,,,,,,,３４７,f,１９,2023-05-21_18h37.35.231,RL,2022.2.5,59.95045693852534,
52,44,55,77,0,58,58,58,,,,,,,,None,383.1017828999902,383.1017828999902,383.1017828999902,383.1017828999902,383.1017828999902,383.1017828999902,r,0.3674812999961432,383.50800929998513,383.50800929998513,383.50800929998513,383.50800929998513,383.50800929998513,383.50800929998513,383.78572250000434,385.4689145000011,385.5019639999955,385.5019639999955,385.5019639999955,385.5019639999955,385.5019639999955,385.5019639999955,385.5019639999955,385.5019639999955,385.5019639999955,385.5019639999955,385.5019639999955,385.5019639999955,385.5019639999955,387.48321710000164,387.48321710000164,387.48321710000164,387.48321710000164,387.48321710000164,387.48321710000164,387.48321710000164,52,77,55,44,77,60,387.48321710000164,389.33420159999514,,,,,,,,,,,,,,,,,,,,３４７,f,１９,2023-05-21_18h37.35.231,RL,2022.2.5,59.95045693852534,
53,41,51,66,0,59,59,59,,,,,,,,None,389.33420159999514,389.33420159999514,389.33420159999514,389.33420159999514,389.33420159999514,389.33420159999514,r,0.5344041000062134,389.9077917999821,389.9077917999821,389.9077917999821,389.9077917999821,389.9077917999821,389.9077917999821,390.2011821999913,391.38415490000625,391.4006614999962,391.4006614999962,391.4006614999962,391.4006614999962,391.4006614999962,391.4006614999962,391.4006614999962,391.4006614999962,391.4006614999962,391.4006614999962,391.4006614999962,391.4006614999962,391.4006614999962,392.8824388999783,392.8824388999783,392.8824388999783,392.8824388999783,392.8824388999783,392.8824388999783,392.8824388999783,53,66,51,41,66,60,392.8824388999783,394.5998062999861,,,,,,,,,,,,,,,,,,,,３４７,f,１９,2023-05-21_18h37.35.231,RL,2022.2.5,59.95045693852534,
63,34,54,61,0,60,60,60,,,,,,,,None,394.5998062999861,394.5998062999861,394.5998062999861,394.5998062999861,394.5998062999861,394.5998062999861,r,0.5655149999947753,395.1854924999934,395.1854924999934,395.1854924999934,395.1854924999934,395.1854924999934,395.1854924999934,395.48334750000504,396.4166506000038,396.4166506000038,396.4166506000038,396.4166506000038,396.4166506000038,396.4166506000038,396.4166506000038,396.4166506000038,396.4166506000038,396.4166506000038,396.4166506000038,396.4166506000038,396.4166506000038,396.4166506000038,397.64840839998215,397.64840839998215,397.64840839998215,397.64840839998215,397.64840839998215,397.64840839998215,397.64840839998215,63,61,54,34,61,60,397.64840839998215,399.31557589999284,,,,,,,,,,,,,,,,,,,,３４７,f,１９,2023-05-21_18h37.35.231,RL,2022.2.5,59.95045693852534,
46,36,62,75,0,61,61,61,,,,,,,,None,399.31557589999284,399.31557589999284,399.31557589999284,399.31557589999284,399.31557589999284,399.31557589999284,f,0.3375401000084821,399.6843250999809,399.6843250999809,399.6843250999809,399.6843250999809,399.6843250999809,399.6843250999809,399.9663334999932,401.94909779998125,401.9656460999977,401.9656460999977,401.9656460999977,401.9656460999977,401.9656460999977,401.9656460999977,401.9656460999977,401.9656460999977,401.9656460999977,401.9656460999977,401.9656460999977,401.9656460999977,401.9656460999977,404.24647209999966,404.24647209999966,404.24647209999966,404.24647209999966,404.24647209999966,404.24647209999966,404.24647209999966,46,75,62,36,46,60,404.24647209999966,406.0479339000012,,,,,,,,,,,,,,,,,,,,３４７,f,１９,2023-05-21_18h37.35.231,RL,2022.2.5,59.95045693852534,
52,40,69,83,0,62,62,62,,,,,,,,None,406.0479339000012,406.0479339000012,406.0479339000012,406.0479339000012,406.0479339000012,406.0479339000012,r,0.32716039998922497,406.39966809999896,406.39966809999896,406.39966809999896,406.39966809999896,406.39966809999896,406.39966809999896,406.6986950999999,408.6144097999786,408.6144097999786,408.6144097999786,408.6144097999786,408.6144097999786,408.6144097999786,408.6144097999786,408.6144097999786,408.6144097999786,408.6144097999786,408.6144097999786,408.6144097999786,408.6144097999786,408.6144097999786,410.8292214999965,410.8292214999965,410.8292214999965,410.8292214999965,410.8292214999965,410.8292214999965,410.8292214999965,52,83,69,40,83,60,410.8292214999965,412.4135005999997,,,,,,,,,,,,,,,,,,,,３４７,f,１９,2023-05-21_18h37.35.231,RL,2022.2.5,59.95045693852534,
51,35,66,77,0,63,63,63,,,,,,,,None,412.4135005999997,412.4135005999997,412.4135005999997,412.4135005999997,412.4135005999997,412.4135005999997,i,0.5541004999831785,412.99712459999137,412.99712459999137,412.99712459999137,412.99712459999137,412.99712459999137,412.99712459999137,413.28042510000523,414.563178899989,414.5801963999984,414.5801963999984,414.5801963999984,414.5801963999984,414.5801963999984,414.5801963999984,414.5801963999984,414.5801963999984,414.5801963999984,414.5801963999984,414.5801963999984,414.5801963999984,414.5801963999984,416.16185959998984,416.16185959998984,416.16185959998984,416.16185959998984,416.16185959998984,416.16185959998984,416.16185959998984,51,77,66,35,66,60,416.16185959998984,418.1291380999901,,,,,,,,,,,,,,,,,,,,３４７,f,１９,2023-05-21_18h37.35.231,RL,2022.2.5,59.95045693852534,
47,42,65,73,0,64,64,64,,,,,,,,None,418.1291380999901,418.1291380999901,418.1291380999901,418.1291380999901,418.1291380999901,418.1291380999901,r,0.43815770000219345,418.59852440000395,418.59852440000395,418.59852440000395,418.59852440000395,418.59852440000395,418.59852440000395,418.89599160000216,419.9961118999927,419.9961118999927,419.9961118999927,419.9961118999927,419.9961118999927,419.9961118999927,419.9961118999927,419.9961118999927,419.9961118999927,419.9961118999927,419.9961118999927,419.9961118999927,419.9961118999927,419.9961118999927,421.3939485999872,421.3939485999872,421.3939485999872,421.3939485999872,421.3939485999872,421.3939485999872,421.3939485999872,47,73,65,42,73,60,421.3939485999872,423.3611779999919,,,,,,,,,,,,,,,,,,,,３４７,f,１９,2023-05-21_18h37.35.231,RL,2022.2.5,59.95045693852534,
57,41,73,66,0,65,65,65,,,,,,,,None,423.3611779999919,423.3611779999919,423.3611779999919,423.3611779999919,423.3611779999919,423.3611779999919,r,0.5096003000217024,423.8953260999988,423.8953260999988,423.8953260999988,423.8953260999988,423.8953260999988,423.8953260999988,424.1780779999972,425.6783663999813,425.69471260000137,425.69471260000137,425.69471260000137,425.69471260000137,425.69471260000137,425.69471260000137,425.69471260000137,425.69471260000137,425.69471260000137,425.69471260000137,425.69471260000137,425.69471260000137,425.69471260000137,427.49265849997755,427.49265849997755,427.49265849997755,427.49265849997755,427.49265849997755,427.49265849997755,427.49265849997755,57,66,73,41,66,60,427.49265849997755,429.3436999999976,,,,,,,,,,,,,,,,,,,,３４７,f,１９,2023-05-21_18h37.35.231,RL,2022.2.5,59.95045693852534,
61,41,65,68,0,66,66,66,,,,,,,,None,429.3436999999976,429.3436999999976,429.3436999999976,429.3436999999976,429.3436999999976,429.3436999999976,i,0.38318999999319203,429.7676768999954,429.7676768999954,429.7676768999954,429.7676768999954,429.7676768999954,429.7676768999954,430.0445325000037,431.76031059998786,431.7768956999935,431.7768956999935,431.7768956999935,431.7768956999935,431.7768956999935,431.7768956999935,431.7768956999935,431.7768956999935,431.7768956999935,431.7768956999935,431.7768956999935,431.7768956999935,431.7768956999935,433.7916059999843,433.7916059999843,433.7916059999843,433.7916059999843,433.7916059999843,433.7916059999843,433.7916059999843,61,68,65,41,65,60,433.7916059999843,435.7431129000033,,,,,,,,,,,,,,,,,,,,３４７,f,１９,2023-05-21_18h37.35.231,RL,2022.2.5,59.95045693852534,
47,42,70,66,0,67,67,67,,,,,,,,None,435.7431129000033,435.7431129000033,435.7431129000033,435.7431129000033,435.7431129000033,435.7431129000033,r,0.24895850001485087,436.00964289999683,436.00964289999683,436.00964289999683,436.00964289999683,436.00964289999683,436.00964289999683,436.30954749998637,437.3259444999858,437.3259444999858,437.3259444999858,437.3259444999858,437.3259444999858,437.3259444999858,437.3259444999858,437.3259444999858,437.3259444999858,437.3259444999858,437.3259444999858,437.3259444999858,437.3259444999858,437.3259444999858,438.6407408999803,438.6407408999803,438.6407408999803,438.6407408999803,438.6407408999803,438.6407408999803,438.6407408999803,47,66,70,42,66,60,438.6407408999803,440.47515179999755,,,,,,,,,,,,,,,,,,,,３４７,f,１９,2023-05-21_18h37.35.231,RL,2022.2.5,59.95045693852534,
65,43,61,65,0,68,68,68,,,,,,,,None,440.47515179999755,440.47515179999755,440.47515179999755,440.47515179999755,440.47515179999755,440.47515179999755,j,0.34585169999627396,440.84232999998494,440.84232999998494,440.84232999998494,440.84232999998494,440.84232999998494,440.84232999998494,441.12551449998864,443.075691999984,443.0918227999937,443.0918227999937,443.0918227999937,443.0918227999937,443.0918227999937,443.0918227999937,443.0918227999937,443.0918227999937,443.0918227999937,443.0918227999937,443.0918227999937,443.0918227999937,443.0918227999937,445.3396378000034,445.3396378000034,445.3396378000034,445.3396378000034,445.3396378000034,445.3396378000034,445.3396378000034,65,65,61,43,43,60,445.3396378000034,446.87422189998324,,,,,,,,,,,,,,,,,,,,３４７,f,１９,2023-05-21_18h37.35.231,RL,2022.2.5,59.95045693852534,
60,43,63,68,0,69,69,69,,,,,,,,None,446.87422189998324,446.87422189998324,446.87422189998324,446.87422189998324,446.87422189998324,446.87422189998324,r,0.48911960000987165,447.39371559998835,447.39371559998835,447.39371559998835,447.39371559998835,447.39371559998835,447.39371559998835,447.69165349999093,449.4238736999978,449.4238736999978,449.4238736999978,449.4238736999978,449.4238736999978,449.4238736999978,449.4238736999978,449.4238736999978,449.4238736999978,449.4238736999978,449.4238736999978,449.4238736999978,449.4238736999978,449.4238736999978,451.45516230000067,451.45516230000067,451.45516230000067,451.45516230000067,451.45516230000067,451.45516230000067,451.45516230000067,60,68,63,43,68,60,451.45516230000067,453.3894850999932,,,,,,,,,,,,,,,,,,,,３４７,f,１９,2023-05-21_18h37.35.231,RL,2022.2.5,59.95045693852534,
70,41,60,63,0,70,70,70,,,,,,,,None,453.3894850999932,453.3894850999932,453.3894850999932,453.3894850999932,453.3894850999932,453.3894850999932,r,0.27590500001679175,453.6910718999861,453.6910718999861,453.6910718999861,453.6910718999861,453.6910718999861,453.6910718999861,453.98980909999227,455.83972669998184,455.83972669998184,455.83972669998184,455.83972669998184,455.83972669998184,455.83972669998184,455.83972669998184,455.83972669998184,455.83972669998184,455.83972669998184,455.83972669998184,455.83972669998184,455.83972669998184,455.83972669998184,457.9874969999946,457.9874969999946,457.9874969999946,457.9874969999946,457.9874969999946,457.9874969999946,457.9874969999946,70,63,60,41,63,60,457.9874969999946,459.5386836999969,,,,,,,,,,,,,,,,,,,,３４７,f,１９,2023-05-21_18h37.35.231,RL,2022.2.5,59.95045693852534,
65,35,59,76,0,71,71,71,,,,,,,,None,459.5386836999969,459.5386836999969,459.5386836999969,459.5386836999969,459.5386836999969,459.5386836999969,i,0.29642410000087693,459.85697389999405,459.85697389999405,459.85697389999405,459.85697389999405,459.85697389999405,459.85697389999405,460.1553989999811,461.8050682999892,461.8050682999892,461.8050682999892,461.8050682999892,461.8050682999892,461.8050682999892,461.8050682999892,461.8050682999892,461.8050682999892,461.8050682999892,461.8050682999892,461.8050682999892,461.8050682999892,461.8050682999892,463.752895099984,463.752895099984,463.752895099984,463.752895099984,463.752895099984,463.752895099984,463.752895099984,65,76,59,35,59,60,463.752895099984,465.5045501999848,,,,,,,,,,,,,,,,,,,,３４７,f,１９,2023-05-21_18h37.35.231,RL,2022.2.5,59.95045693852534,
69,42,61,74,0,72,72,72,,,,,,,,None,465.5045501999848,465.5045501999848,465.5045501999848,465.5045501999848,465.5045501999848,465.5045501999848,r,0.2787685999937821,465.8068246000039,465.8068246000039,465.8068246000039,465.8068246000039,465.8068246000039,465.8068246000039,466.10447409999324,467.07074860000284,467.07074860000284,467.07074860000284,467.07074860000284,467.07074860000284,467.07074860000284,467.07074860000284,467.07074860000284,467.07074860000284,467.07074860000284,467.07074860000284,467.07074860000284,467.07074860000284,467.07074860000284,468.33568049999303,468.33568049999303,468.33568049999303,468.33568049999303,468.33568049999303,468.33568049999303,468.33568049999303,69,74,61,42,74,60,468.33568049999303,470.1533015999885,,,,,,,,,,,,,,,,,,,,３４７,f,１９,2023-05-21_18h37.35.231,RL,2022.2.5,59.95045693852534,
61,37,57,72,0,73,73,73,,,,,,,,None,470.1533015999885,470.1533015999885,470.1533015999885,470.1533015999885,470.1533015999885,470.1533015999885,r,0.24655370000982657,470.42072219998227,470.42072219998227,470.42072219998227,470.42072219998227,470.42072219998227,470.42072219998227,470.7033886999998,472.5699137999909,472.58653579998645,472.58653579998645,472.58653579998645,472.58653579998645,472.58653579998645,472.58653579998645,472.58653579998645,472.58653579998645,472.58653579998645,472.58653579998645,472.58653579998645,472.58653579998645,472.58653579998645,474.75097809999716,474.75097809999716,474.75097809999716,474.75097809999716,474.75097809999716,474.75097809999716,474.75097809999716,61,72,57,37,72,60,474.75097809999716,476.6356255999999,,,,,,,,,,,,,,,,,,,,３４７,f,１９,2023-05-21_18h37.35.231,RL,2022.2.5,59.95045693852534,
66,45,62,76,0,74,74,74,,,,,,,,None,476.6356255999999,476.6356255999999,476.6356255999999,476.6356255999999,476.6356255999999,476.6356255999999,r,0.5250551000062842,477.1859794000047,477.1859794000047,477.1859794000047,477.1859794000047,477.1859794000047,477.1859794000047,477.4691657999938,478.4524250999966,478.4689204999886,478.4689204999886,478.4689204999886,478.4689204999886,478.4689204999886,478.4689204999886,478.4689204999886,478.4689204999886,478.4689204999886,478.4689204999886,478.4689204999886,478.4689204999886,478.4689204999886,479.75008189998334,479.75008189998334,479.75008189998334,479.75008189998334,479.75008189998334,479.75008189998334,479.75008189998334,66,76,62,45,76,60,479.75008189998334,481.6503119999834,,,,,,,,,,,,,,,,,,,,３４７,f,１９,2023-05-21_18h37.35.231,RL,2022.2.5,59.95045693852534,
58,45,59,81,0,75,75,75,,,,,,,,q,499.0816644000006,499.0816644000006,499.0816644000006,499.0816644000006,499.0816644000006,499.0816644000006,None,,,,,,,,,,,,,,,,,,,,,,,,,,,,,,58,81,59,45,0,60,506.59526599998935,508.54673259999254,481.6503119999834,481.6503119999834,12.388653800007887,494.0666925999976,494.0666925999976,499.0816644000006,499.0816644000006,500.58505480000167,500.58505480000167,500.58505480000167,500.58505480000167,500.58505480000167,500.58505480000167,500.58505480000167,506.59526599998935,,,,,３４７,f,１９,2023-05-21_18h37.35.231,RL,2022.2.5,59.95045693852534,
61,46,57,65,0,76,76,76,,,,,,,,None,508.54673259999254,508.54673259999254,508.54673259999254,508.54673259999254,508.54673259999254,508.54673259999254,r,0.5454508000111673,509.11848750000354,509.11848750000354,509.11848750000354,509.11848750000354,509.11848750000354,509.11848750000354,509.41395649997867,510.9465173999779,510.9465173999779,510.9465173999779,510.9465173999779,510.9465173999779,510.9465173999779,510.9465173999779,510.9465173999779,510.9465173999779,510.9465173999779,510.9465173999779,510.9465173999779,510.9465173999779,510.9465173999779,512.7615743999777,512.7615743999777,512.7615743999777,512.7615743999777,512.7615743999777,512.7615743999777,512.7615743999777,61,65,57,46,65,60,512.7615743999777,514.429547399981,,,,,,,,,,,,,,,,,,,,３４７,f,１９,2023-05-21_18h37.35.231,RL,2022.2.5,59.95045693852534,
50,50,56,62,0,77,77,77,,,,,,,,None,514.429547399981,514.429547399981,514.429547399981,514.429547399981,514.429547399981,514.429547399981,f,0.5084182000136934,514.9641684999806,514.9641684999806,514.9641684999806,514.9641684999806,514.9641684999806,514.9641684999806,515.2625472999935,517.1953330999822,517.1953330999822,517.1953330999822,517.1953330999822,517.1953330999822,517.1953330999822,517.1953330999822,517.1953330999822,517.1953330999822,517.1953330999822,517.1953330999822,517.1953330999822,517.1953330999822,517.1953330999822,519.4272437999898,519.4272437999898,519.4272437999898,519.4272437999898,519.4272437999898,519.4272437999898,519.4272437999898,50,62,56,50,50,60,519.4272437999898,521.2776564999949,,,,,,,,,,,,,,,,,,,,３４７,f,１９,2023-05-21_18h37.35.231,RL,2022.2.5,59.95045693852534,
54,44,55,63,0,78,78,78,,,,,,,,None,521.2776564999949,521.2776564999949,521.2776564999949,521.2776564999949,521.2776564999949,521.2776564999949,r,0.3143045000033453,521.612125899992,521.612125899992,521.612125899992,521.612125899992,521.612125899992,521.612125899992,521.9113079999806,522.7612953999778,522.7612953999778,522.7612953999778,522.7612953999778,522.7612953999778,522.7612953999778,522.7612953999778,522.7612953999778,522.7612953999778,522.7612953999778,522.7612953999778,522.7612953999778,522.7612953999778,522.7612953999778,523.9092340999923,523.9092340999923,523.9092340999923,523.9092340999923,523.9092340999923,523.9092340999923,523.9092340999923,54,63,55,44,63,60,523.9092340999923,525.7934684999927,,,,,,,,,,,,,,,,,,,,３４７,f,１９,2023-05-21_18h37.35.231,RL,2022.2.5,59.95045693852534,
60,39,49,51,0,79,79,79,,,,,,,,None,525.7934684999927,525.7934684999927,525.7934684999927,525.7934684999927,525.7934684999927,525.7934684999927,i,0.38193120001233183,526.1950182,526.1950182,526.1950182,526.1950182,526.1950182,526.1950182,526.4772831999871,528.0273735999945,528.0438138000027,528.0438138000027,528.0438138000027,528.0438138000027,528.0438138000027,528.0438138000027,528.0438138000027,528.0438138000027,528.0438138000027,528.0438138000027,528.0438138000027,528.0438138000027,528.0438138000027,529.8915957999998,529.8915957999998,529.8915957999998,529.8915957999998,529.8915957999998,529.8915957999998,529.8915957999998,60,51,49,39,49,60,529.8915957999998,531.8097116999852,,,,,,,,,,,,,,,,,,,,３４７,f,１９,2023-05-21_18h37.35.231,RL,2022.2.5,59.95045693852534,
59,46,59,45,0,80,80,80,,,,,,,,None,531.8097116999852,531.8097116999852,531.8097116999852,531.8097116999852,531.8097116999852,531.8097116999852,r,0.3088944999908563,532.1430386999855,532.1430386999855,532.1430386999855,532.1430386999855,532.1430386999855,532.1430386999855,532.426564399997,534.1423756000004,534.1591090000002,534.1591090000002,534.1591090000002,534.1591090000002,534.1591090000002,534.1591090000002,534.1591090000002,534.1591090000002,534.1591090000002,534.1591090000002,534.1591090000002,534.1591090000002,534.1591090000002,536.1739348999981,536.1739348999981,536.1739348999981,536.1739348999981,536.1739348999981,536.1739348999981,536.1739348999981,59,45,59,46,45,60,536.1739348999981,538.0082052999933,,,,,,,,,,,,,,,,,,,,３４７,f,１９,2023-05-21_18h37.35.231,RL,2022.2.5,59.95045693852534,
67,45,62,59,0,81,81,81,,,,,,,,None,538.0082052999933,538.0082052999933,538.0082052999933,538.0082052999933,538.0082052999933,538.0082052999933,f,0.3933096000109799,538.4267315999896,538.4267315999896,538.4267315999896,538.4267315999896,538.4267315999896,538.4267315999896,538.7253157999949,540.6247787000029,540.6247787000029,540.6247787000029,540.6247787000029,540.6247787000029,540.6247787000029,540.6247787000029,540.6247787000029,540.6247787000029,540.6247787000029,540.6247787000029,540.6247787000029,540.6247787000029,540.6247787000029,542.8227109999862,542.8227109999862,542.8227109999862,542.8227109999862,542.8227109999862,542.8227109999862,542.8227109999862,67,59,62,45,67,60,542.8227109999862,544.8240759999899,,,,,,,,,,,,,,,,,,,,３４７,f,１９,2023-05-21_18h37.35.231,RL,2022.2.5,59.95045693852534,
67,35,45,51,0,82,82,82,,,,,,,,None,544.8240759999899,544.8240759999899,544.8240759999899,544.8240759999899,544.8240759999899,544.8240759999899,j,0.4389010999875609,545.2910592999833,545.2910592999833,545.2910592999833,545.2910592999833,545.2910592999833,545.2910592999833,545.5908044999815,546.7234938000038,546.7234938000038,546.7234938000038,546.7234938000038,546.7234938000038,546.7234938000038,546.7234938000038,546.7234938000038,546.7234938000038,546.7234938000038,546.7234938000038,546.7234938000038,546.7234938000038,546.7234938000038,548.1552178999991,548.1552178999991,548.1552178999991,548.1552178999991,548.1552178999991,548.1552178999991,548.1552178999991,67,51,45,35,35,60,548.1552178999991,549.8396563999995,,,,,,,,,,,,,,,,,,,,３４７,f,１９,2023-05-21_18h37.35.231,RL,2022.2.5,59.95045693852534,
66,38,50,52,0,83,83,83,,,,,,,,None,549.8396563999995,549.8396563999995,549.8396563999995,549.8396563999995,549.8396563999995,549.8396563999995,f,0.40196339998510666,550.2814806999813,550.2814806999813,550.2814806999813,550.2814806999813,550.2814806999813,550.2814806999813,550.556739599997,551.6898523999844,551.7064267999958,551.7064267999958,551.7064267999958,551.7064267999958,551.7064267999958,551.7064267999958,551.7064267999958,551.7064267999958,551.7064267999958,551.7064267999958,551.7064267999958,551.7064267999958,551.7064267999958,553.1375508999918,553.1375508999918,553.1375508999918,553.1375508999918,553.1375508999918,553.1375508999918,553.1375508999918,66,52,50,38,66,60,553.1375508999918,555.1054693000042,,,,,,,,,,,,,,,,,,,,３４７,f,１９,2023-05-21_18h37.35.231,RL,2022.2.5,59.95045693852534,
58,30,49,43,0,84,84,84,,,,,,,,None,555.1054693000042,555.1054693000042,555.1054693000042,555.1054693000042,555.1054693000042,555.1054693000042,f,0.46766859997296706,555.6174008999951,555.6174008999951,555.6174008999951,555.6174008999951,555.6174008999951,555.6174008999951,555.8889014000015,557.0051231999823,557.0388290999981,557.0388290999981,557.0388290999981,557.0388290999981,557.0388290999981,557.0388290999981,557.0388290999981,557.0388290999981,557.0388290999981,557.0388290999981,557.0388290999981,557.0388290999981,557.0388290999981,558.4537020999996,558.4537020999996,558.4537020999996,558.4537020999996,558.4537020999996,558.4537020999996,558.4537020999996,58,43,49,30,58,60,558.4537020999996,560.1546764999803,,,,,,,,,,,,,,,,,,,,３４７,f,１９,2023-05-21_18h37.35.231,RL,2022.2.5,59.95045693852534,
62,42,52,49,0,85,85,85,,,,,,,,None,560.1546764999803,560.1546764999803,560.1546764999803,560.1546764999803,560.1546764999803,560.1546764999803,i,0.3439287999935914,560.521559899993,560.521559899993,560.521559899993,560.521559899993,560.521559899993,560.521559899993,560.8047599999991,562.3877068999864,562.4045322999882,562.4045322999882,562.4045322999882,562.4045322999882,562.4045322999882,562.4045322999882,562.4045322999882,562.4045322999882,562.4045322999882,562.4045322999882,562.4045322999882,562.4045322999882,562.4045322999882,564.2859731999924,564.2859731999924,564.2859731999924,564.2859731999924,564.2859731999924,564.2859731999924,564.2859731999924,62,49,52,42,52,60,564.2859731999924,565.9534266999981,,,,,,,,,,,,,,,,,,,,３４７,f,１９,2023-05-21_18h37.35.231,RL,2022.2.5,59.95045693852534,
63,45,50,54,0,86,86,86,,,,,,,,None,565.9534266999981,565.9534266999981,565.9534266999981,565.9534266999981,565.9534266999981,565.9534266999981,r,0.49184520001290366,566.4706900999881,566.4706900999881,566.4706900999881,566.4706900999881,566.4706900999881,566.4706900999881,566.7536888000031,568.3538540999871,568.3701919000014,568.3701919000014,568.3701919000014,568.3701919000014,568.3701919000014,568.3701919000014,568.3701919000014,568.3701919000014,568.3701919000014,568.3701919000014,568.3701919000014,568.3701919000014,568.3701919000014,570.2682646999892,570.2682646999892,570.2682646999892,570.2682646999892,570.2682646999892,570.2682646999892,570.2682646999892,63,54,50,45,54,60,570.2682646999892,571.8859497999947,,,,,,,,,,,,,,,,,,,,３４７,f,１９,2023-05-21_18h37.35.231,RL,2022.2.5,59.95045693852534,
56,33,53,50,0,87,87,87,,,,,,,,None,571.8859497999947,571.8859497999947,571.8859497999947,571.8859497999947,571.8859497999947,571.8859497999947,f,0.48683960002381355,572.4026975999877,572.4026975999877,572.4026975999877,572.4026975999877,572.4026975999877,572.4026975999877,572.6858141999983,573.9021553999919,573.9187388999853,573.9187388999853,573.9187388999853,573.9187388999853,573.9187388999853,573.9187388999853,573.9187388999853,573.9187388999853,573.9187388999853,573.9187388999853,573.9187388999853,573.9187388999853,573.9187388999853,575.4340225000051,575.4340225000051,575.4340225000051,575.4340225000051,575.4340225000051,575.4340225000051,575.4340225000051,56,50,53,33,56,60,575.4340225000051,577.2847049999982,,,,,,,,,,,,,,,,,,,,３４７,f,１９,2023-05-21_18h37.35.231,RL,2022.2.5,59.95045693852534,
66,20,51,48,0,88,88,88,,,,,,,,None,577.2847049999982,577.2847049999982,577.2847049999982,577.2847049999982,577.2847049999982,577.2847049999982,r,0.40351360000204295,577.7207471999864,577.7207471999864,577.7207471999864,577.7207471999864,577.7207471999864,577.7207471999864,578.0019806000055,579.0845840999973,579.1013492999773,579.1013492999773,579.1013492999773,579.1013492999773,579.1013492999773,579.1013492999773,579.1013492999773,579.1013492999773,579.1013492999773,579.1013492999773,579.1013492999773,579.1013492999773,579.1013492999773,580.4830801000062,580.4830801000062,580.4830801000062,580.4830801000062,580.4830801000062,580.4830801000062,580.4830801000062,66,48,51,20,48,60,580.4830801000062,582.3676157000009,,,,,,,,,,,,,,,,,,,,３４７,f,１９,2023-05-21_18h37.35.231,RL,2022.2.5,59.95045693852534,
67,29,53,53,0,89,89,89,,,,,,,,None,582.3676157000009,582.3676157000009,582.3676157000009,582.3676157000009,582.3676157000009,582.3676157000009,i,0.36310539999976754,582.751004699996,582.751004699996,582.751004699996,582.751004699996,582.751004699996,582.751004699996,583.0343561999907,584.3171432999952,584.3338170999778,584.3338170999778,584.3338170999778,584.3338170999778,584.3338170999778,584.3338170999778,584.3338170999778,584.3338170999778,584.3338170999778,584.3338170999778,584.3338170999778,584.3338170999778,584.3338170999778,585.915574099985,585.915574099985,585.915574099985,585.915574099985,585.915574099985,585.915574099985,585.915574099985,67,53,53,29,53,60,585.915574099985,587.5827570999973,,,,,,,,,,,,,,,,,,,,３４７,f,１９,2023-05-21_18h37.35.231,RL,2022.2.5,59.95045693852534,
62,24,49,51,0,90,90,90,,,,,,,,None,587.5827570999973,587.5827570999973,587.5827570999973,587.5827570999973,587.5827570999973,587.5827570999973,f,0.4193663999903947,588.0382361999946,588.0382361999946,588.0382361999946,588.0382361999946,588.0382361999946,588.0382361999946,588.3168951999978,589.5666707000055,589.5830676000041,589.5830676000041,589.5830676000041,589.5830676000041,589.5830676000041,589.5830676000041,589.5830676000041,589.5830676000041,589.5830676000041,589.5830676000041,589.5830676000041,589.5830676000041,589.5830676000041,591.1309907999821,591.1309907999821,591.1309907999821,591.1309907999821,591.1309907999821,591.1309907999821,591.1309907999821,62,51,49,24,62,60,591.1309907999821,592.8985484000004,,,,,,,,,,,,,,,,,,,,３４７,f,１９,2023-05-21_18h37.35.231,RL,2022.2.5,59.95045693852534,
61,26,46,55,0,91,91,91,,,,,,,,None,592.8985484000004,592.8985484000004,592.8985484000004,592.8985484000004,592.8985484000004,592.8985484000004,f,0.42420060001313686,593.3503595999791,593.3503595999791,593.3503595999791,593.3503595999791,593.3503595999791,593.3503595999791,593.632595300005,594.7325884999882,594.7484599000018,594.7484599000018,594.7484599000018,594.7484599000018,594.7484599000018,594.7484599000018,594.7484599000018,594.7484599000018,594.7484599000018,594.7484599000018,594.7484599000018,594.7484599000018,594.7484599000018,596.1467116999847,596.1467116999847,596.1467116999847,596.1467116999847,596.1467116999847,596.1467116999847,596.1467116999847,61,55,46,26,61,60,596.1467116999847,597.8477200999914,,,,,,,,,,,,,,,,,,,,３４７,f,１９,2023-05-21_18h37.35.231,RL,2022.2.5,59.95045693852534,
68,26,46,43,0,92,92,92,,,,,,,,None,597.8477200999914,597.8477200999914,597.8477200999914,597.8477200999914,597.8477200999914,597.8477200999914,i,0.4074615999998059,598.283369599987,598.283369599987,598.283369599987,598.283369599987,598.283369599987,598.283369599987,598.5815103999921,599.864353699988,599.864353699988,599.864353699988,599.864353699988,599.864353699988,599.864353699988,599.864353699988,599.864353699988,599.864353699988,599.864353699988,599.864353699988,599.864353699988,599.864353699988,599.864353699988,601.4462506999844,601.4462506999844,601.4462506999844,601.4462506999844,601.4462506999844,601.4462506999844,601.4462506999844,68,43,46,26,46,60,601.4462506999844,603.0469619999931,,,,,,,,,,,,,,,,,,,,３４７,f,１９,2023-05-21_18h37.35.231,RL,2022.2.5,59.95045693852534,
63,20,49,59,0,93,93,93,,,,,,,,None,603.0469619999931,603.0469619999931,603.0469619999931,603.0469619999931,603.0469619999931,603.0469619999931,f,0.5970373000018299,603.6652448999812,603.6652448999812,603.6652448999812,603.6652448999812,603.6652448999812,603.6652448999812,603.963824299979,605.1969683000061,605.1969683000061,605.1969683000061,605.1969683000061,605.1969683000061,605.1969683000061,605.1969683000061,605.1969683000061,605.1969683000061,605.1969683000061,605.1969683000061,605.1969683000061,605.1969683000061,605.1969683000061,606.7283531999856,606.7283531999856,606.7283531999856,606.7283531999856,606.7283531999856,606.7283531999856,606.7283531999856,63,59,49,20,63,60,606.7283531999856,608.2461912999861,,,,,,,,,,,,,,,,,,,,３４７,f,１９,2023-05-21_18h37.35.231,RL,2022.2.5,59.95045693852534,
57,19,48,50,0,94,94,94,,,,,,,,None,608.2461912999861,608.2461912999861,608.2461912999861,608.2461912999861,608.2461912999861,608.2461912999861,f,0.44614200000069104,608.713523399987,608.713523399987,608.713523399987,608.713523399987,608.713523399987,608.713523399987,609.0129736999806,610.9794819999952,610.9794819999952,610.9794819999952,610.9794819999952,610.9794819999952,610.9794819999952,610.9794819999952,610.9794819999952,610.9794819999952,610.9794819999952,610.9794819999952,610.9794819999952,610.9794819999952,610.9794819999952,613.2438865999866,613.2438865999866,613.2438865999866,613.2438865999866,613.2438865999866,613.2438865999866,613.2438865999866,57,50,48,19,57,60,613.2438865999866,614.8279892999853,,,,,,,,,,,,,,,,,,,,３４７,f,１９,2023-05-21_18h37.35.231,RL,2022.2.5,59.95045693852534,
57,26,41,53,0,95,95,95,,,,,,,,None,614.8279892999853,614.8279892999853,614.8279892999853,614.8279892999853,614.8279892999853,614.8279892999853,j,0.49622359999921173,615.3471420999849,615.3471420999849,615.3471420999849,615.3471420999849,615.3471420999849,615.3471420999849,615.6451556999818,616.5780993999797,616.5946772999887,616.5946772999887,616.5946772999887,616.5946772999887,616.5946772999887,616.5946772999887,616.5946772999887,616.5946772999887,616.5946772999887,616.5946772999887,616.5946772999887,616.5946772999887,616.5946772999887,617.8260743999854,617.8260743999854,617.8260743999854,617.8260743999854,617.8260743999854,617.8260743999854,617.8260743999854,57,53,41,26,26,60,617.8260743999854,619.5110586999799,,,,,,,,,,,,,,,,,,,,３４７,f,１９,2023-05-21_18h37.35.231,RL,2022.2.5,59.95045693852534,
55,13,44,49,0,96,96,96,,,,,,,,None,619.5110586999799,619.5110586999799,619.5110586999799,619.5110586999799,619.5110586999799,619.5110586999799,f,0.5797038000018802,620.1113380999886,620.1113380999886,620.1113380999886,620.1113380999886,620.1113380999886,620.1113380999886,620.4108122999896,622.0941271999909,622.0941271999909,622.0941271999909,622.0941271999909,622.0941271999909,622.0941271999909,622.0941271999909,622.0941271999909,622.0941271999909,622.0941271999909,622.0941271999909,622.0941271999909,622.0941271999909,622.0941271999909,624.075412199978,624.075412199978,624.075412199978,624.075412199978,624.075412199978,624.075412199978,624.075412199978,55,49,44,13,55,60,624.075412199978,625.6428169999854,,,,,,,,,,,,,,,,,,,,３４７,f,１９,2023-05-21_18h37.35.231,RL,2022.2.5,59.95045693852534,
50,20,43,56,0,97,97,97,,,,,,,,None,625.6428169999854,625.6428169999854,625.6428169999854,625.6428169999854,625.6428169999854,625.6428169999854,r,0.34803379999357276,626.0143946000026,626.0143946000026,626.0143946000026,626.0143946000026,626.0143946000026,626.0143946000026,626.3097485000035,628.0431989000062,628.0431989000062,628.0431989000062,628.0431989000062,628.0431989000062,628.0431989000062,628.0431989000062,628.0431989000062,628.0431989000062,628.0431989000062,628.0431989000062,628.0431989000062,628.0431989000062,628.0431989000062,630.0739994999894,630.0739994999894,630.0739994999894,630.0739994999894,630.0739994999894,630.0739994999894,630.0739994999894,50,56,43,20,56,60,630.0739994999894,632.0753052999789,,,,,,,,,,,,,,,,,,,,３４７,f,１９,2023-05-21_18h37.35.231,RL,2022.2.5,59.95045693852534,
57,9,38,55,0,98,98,98,,,,,,,,None,632.0753052999789,632.0753052999789,632.0753052999789,632.0753052999789,632.0753052999789,632.0753052999789,i,0.4152325000031851,632.5099566999997,632.5099566999997,632.5099566999997,632.5099566999997,632.5099566999997,632.5099566999997,632.7924456000037,634.3750880000007,634.3916863999912,634.3916863999912,634.3916863999912,634.3916863999912,634.3916863999912,634.3916863999912,634.3916863999912,634.3916863999912,634.3916863999912,634.3916863999912,634.3916863999912,634.3916863999912,634.3916863999912,636.2731923999963,636.2731923999963,636.2731923999963,636.2731923999963,636.2731923999963,636.2731923999963,636.2731923999963,57,55,38,9,38,60,636.2731923999963,637.8242471999838,,,,,,,,,,,,,,,,,,,,３４７,f,１９,2023-05-21_18h37.35.231,RL,2022.2.5,59.95045693852534,
63,10,32,51,0,99,99,99,,,,,,,,None,637.8242471999838,637.8242471999838,637.8242471999838,637.8242471999838,637.8242471999838,637.8242471999838,f,0.41416009998647496,638.2579454999941,638.2579454999941,638.2579454999941,638.2579454999941,638.2579454999941,638.2579454999941,638.5417959000042,640.3411483999807,640.3578080000007,640.3578080000007,640.3578080000007,640.3578080000007,640.3578080000007,640.3578080000007,640.3578080000007,640.3578080000007,640.3578080000007,640.3578080000007,640.3578080000007,640.3578080000007,640.3578080000007,642.455054799997,642.455054799997,642.455054799997,642.455054799997,642.455054799997,642.455054799997,642.455054799997,63,51,32,10,63,60,642.455054799997,644.3733024999965,,,,,,,,,,,,,,,,,,,,３４７,f,１９,2023-05-21_18h37.35.231,RL,2022.2.5,59.95045693852534,
62,13,39,53,0,100,100,100,,,,,,,,None,644.3733024999965,644.3733024999965,644.3733024999965,644.3733024999965,644.3733024999965,644.3733024999965,f,0.4848338000010699,644.9023601999797,644.9023601999797,644.9023601999797,644.9023601999797,644.9023601999797,644.9023601999797,645.1736512999923,646.4566041999788,646.4898288999975,646.4898288999975,646.4898288999975,646.4898288999975,646.4898288999975,646.4898288999975,646.4898288999975,646.4898288999975,646.4898288999975,646.4898288999975,646.4898288999975,646.4898288999975,646.4898288999975,648.0714248000004,648.0714248000004,648.0714248000004,648.0714248000004,648.0714248000004,648.0714248000004,648.0714248000004,62,53,39,13,62,60,648.0714248000004,649.7721777999832,,,,,,,,,,,,,,,,,,,,３４７,f,１９,2023-05-21_18h37.35.231,RL,2022.2.5,59.95045693852534,
53,10,38,54,0,101,101,101,,,,,,,,None,649.7721777999832,649.7721777999832,649.7721777999832,649.7721777999832,649.7721777999832,649.7721777999832,r,0.5344766000052914,650.3503395000007,650.3503395000007,650.3503395000007,650.3503395000007,650.3503395000007,650.3503395000007,650.6224500999961,651.8223861999868,651.8390693999827,651.8390693999827,651.8390693999827,651.8390693999827,651.8390693999827,651.8390693999827,651.8390693999827,651.8390693999827,651.8390693999827,651.8390693999827,651.8390693999827,651.8390693999827,651.8390693999827,653.3370646999974,653.3370646999974,653.3370646999974,653.3370646999974,653.3370646999974,653.3370646999974,653.3370646999974,53,54,38,10,54,60,653.3370646999974,655.1548863999778,,,,,,,,,,,,,,,,,,,,３４７,f,１９,2023-05-21_18h37.35.231,RL,2022.2.5,59.95045693852534,
51,12,41,55,0,102,102,102,,,,,,,,None,655.1548863999778,655.1548863999778,655.1548863999778,655.1548863999778,655.1548863999778,655.1548863999778,f,0.4375667999847792,655.6217416999862,655.6217416999862,655.6217416999862,655.6217416999862,655.6217416999862,655.6217416999862,655.905269299983,657.0543703000003,657.0711870999949,657.0711870999949,657.0711870999949,657.0711870999949,657.0711870999949,657.0711870999949,657.0711870999949,657.0711870999949,657.0711870999949,657.0711870999949,657.0711870999949,657.0711870999949,657.0711870999949,658.5193144999794,658.5193144999794,658.5193144999794,658.5193144999794,658.5193144999794,658.5193144999794,658.5193144999794,51,55,41,12,51,60,658.5193144999794,660.3703861999966,,,,,,,,,,,,,,,,,,,,３４７,f,１９,2023-05-21_18h37.35.231,RL,2022.2.5,59.95045693852534,
57,12,39,46,0,103,103,103,,,,,,,,None,660.3703861999966,660.3703861999966,660.3703861999966,660.3703861999966,660.3703861999966,660.3703861999966,r,0.5866076000093017,660.9873683000042,660.9873683000042,660.9873683000042,660.9873683000042,660.9873683000042,660.9873683000042,661.2705905000039,662.753662699979,662.7699906000053,662.7699906000053,662.7699906000053,662.7699906000053,662.7699906000053,662.7699906000053,662.7699906000053,662.7699906000053,662.7699906000053,662.7699906000053,662.7699906000053,662.7699906000053,662.7699906000053,664.5516779999889,664.5516779999889,664.5516779999889,664.5516779999889,664.5516779999889,664.5516779999889,664.5516779999889,57,46,39,12,46,60,664.5516779999889,666.3861777999846,,,,,,,,,,,,,,,,,,,,３４７,f,１９,2023-05-21_18h37.35.231,RL,2022.2.5,59.95045693852534,
52,29,47,53,0,104,104,104,,,,,,,,None,666.3861777999846,666.3861777999846,666.3861777999846,666.3861777999846,666.3861777999846,666.3861777999846,f,0.362201499985531,666.7707345999952,666.7707345999952,666.7707345999952,666.7707345999952,666.7707345999952,666.7707345999952,667.0698108999932,668.019082999992,668.019082999992,668.019082999992,668.019082999992,668.019082999992,668.019082999992,668.019082999992,668.019082999992,668.019082999992,668.019082999992,668.019082999992,668.019082999992,668.019082999992,668.019082999992,669.2670165000018,669.2670165000018,669.2670165000018,669.2670165000018,669.2670165000018,669.2670165000018,669.2670165000018,52,53,47,29,52,60,669.2670165000018,670.918660299998,,,,,,,,,,,,,,,,,,,,３４７,f,１９,2023-05-21_18h37.35.231,RL,2022.2.5,59.95045693852534,
52,14,40,42,0,105,105,105,,,,,,,,None,670.918660299998,670.918660299998,670.918660299998,670.918660299998,670.918660299998,670.918660299998,i,0.2947402999852784,671.2354588999879,671.2354588999879,671.2354588999879,671.2354588999879,671.2354588999879,671.2354588999879,671.5186151999806,673.3186281999806,673.3352545999805,673.3352545999805,673.3352545999805,673.3352545999805,673.3352545999805,673.3352545999805,673.3352545999805,673.3352545999805,673.3352545999805,673.3352545999805,673.3352545999805,673.3352545999805,673.3352545999805,675.4327981999959,675.4327981999959,675.4327981999959,675.4327981999959,675.4327981999959,675.4327981999959,675.4327981999959,52,42,40,14,40,60,675.4327981999959,677.4343304999929,,,,,,,,,,,,,,,,,,,,３４７,f,１９,2023-05-21_18h37.35.231,RL,2022.2.5,59.95045693852534,
55,20,43,36,0,106,106,106,,,,,,,,None,677.4343304999929,677.4343304999929,677.4343304999929,677.4343304999929,677.4343304999929,677.4343304999929,f,0.2671323999820743,677.7397288999928,677.7397288999928,677.7397288999928,677.7397288999928,677.7397288999928,677.7397288999928,678.0177671999845,679.2006491999782,679.217141000001,679.217141000001,679.217141000001,679.217141000001,679.217141000001,679.217141000001,679.217141000001,679.217141000001,679.217141000001,679.217141000001,679.217141000001,679.217141000001,679.217141000001,680.6987898999942,680.6987898999942,680.6987898999942,680.6987898999942,680.6987898999942,680.6987898999942,680.6987898999942,55,36,43,20,55,60,680.6987898999942,682.2666902999918,,,,,,,,,,,,,,,,,,,,３４７,f,１９,2023-05-21_18h37.35.231,RL,2022.2.5,59.95045693852534,
52,31,45,43,0,107,107,107,,,,,,,,None,682.2666902999918,682.2666902999918,682.2666902999918,682.2666902999918,682.2666902999918,682.2666902999918,j,0.6513284999819007,682.9558181999892,682.9558181999892,682.9558181999892,682.9558181999892,682.9558181999892,682.9558181999892,683.2336837000039,685.2165908000025,685.2495015999884,685.2495015999884,685.2495015999884,685.2495015999884,685.2495015999884,685.2495015999884,685.2495015999884,685.2495015999884,685.2495015999884,685.2495015999884,685.2495015999884,685.2495015999884,685.2495015999884,687.5308187000046,687.5308187000046,687.5308187000046,687.5308187000046,687.5308187000046,687.5308187000046,687.5308187000046,52,43,45,31,31,60,687.5308187000046,689.4319698000036,,,,,,,,,,,,,,,,,,,,３４７,f,１９,2023-05-21_18h37.35.231,RL,2022.2.5,59.95045693852534,
41,15,52,44,0,108,108,108,,,,,,,,None,689.4319698000036,689.4319698000036,689.4319698000036,689.4319698000036,689.4319698000036,689.4319698000036,f,0.23547580000013113,689.7072364999913,689.7072364999913,689.7072364999913,689.7072364999913,689.7072364999913,689.7072364999913,689.9823100999929,691.6325764999783,691.6486122999922,691.6486122999922,691.6486122999922,691.6486122999922,691.6486122999922,691.6486122999922,691.6486122999922,691.6486122999922,691.6486122999922,691.6486122999922,691.6486122999922,691.6486122999922,691.6486122999922,693.5966729999927,693.5966729999927,693.5966729999927,693.5966729999927,693.5966729999927,693.5966729999927,693.5966729999927,41,44,52,15,41,60,693.5966729999927,695.5974161000049,,,,,,,,,,,,,,,,,,,,３４７,f,１９,2023-05-21_18h37.35.231,RL,2022.2.5,59.95045693852534,
46,16,44,32,0,109,109,109,,,,,,,,None,695.5974161000049,695.5974161000049,695.5974161000049,695.5974161000049,695.5974161000049,695.5974161000049,i,0.36749439997947775,696.0017069999885,696.0017069999885,696.0017069999885,696.0017069999885,696.0017069999885,696.0017069999885,696.2814315999858,697.4479413999943,697.4811041999783,697.4811041999783,697.4811041999783,697.4811041999783,697.4811041999783,697.4811041999783,697.4811041999783,697.4811041999783,697.4811041999783,697.4811041999783,697.4811041999783,697.4811041999783,697.4811041999783,698.9456686000049,698.9456686000049,698.9456686000049,698.9456686000049,698.9456686000049,698.9456686000049,698.9456686000049,46,32,44,16,44,60,698.9456686000049,700.5967017999792,,,,,,,,,,,,,,,,,,,,３４７,f,１９,2023-05-21_18h37.35.231,RL,2022.2.5,59.95045693852534,
50,8,49,38,0,110,110,110,,,,,,,,None,700.5967017999792,700.5967017999792,700.5967017999792,700.5967017999792,700.5967017999792,700.5967017999792,r,0.6956238000129815,701.3173625000054,701.3173625000054,701.3173625000054,701.3173625000054,701.3173625000054,701.3173625000054,701.6132318000018,702.7130619999953,702.7130619999953,702.7130619999953,702.7130619999953,702.7130619999953,702.7130619999953,702.7130619999953,702.7130619999953,702.7130619999953,702.7130619999953,702.7130619999953,702.7130619999953,702.7130619999953,702.7130619999953,704.1113480999775,704.1113480999775,704.1113480999775,704.1113480999775,704.1113480999775,704.1113480999775,704.1113480999775,50,38,49,8,38,60,704.1113480999775,705.8293590999965,,,,,,,,,,,,,,,,,,,,３４７,f,１９,2023-05-21_18h37.35.231,RL,2022.2.5,59.95045693852534,
36,23,47,47,0,111,111,111,,,,,,,,None,705.8293590999965,705.8293590999965,705.8293590999965,705.8293590999965,705.8293590999965,705.8293590999965,f,0.5673337000189349,706.4127171,706.4127171,706.4127171,706.4127171,706.4127171,706.4127171,706.7126980999892,707.7955950000032,707.7955950000032,707.7955950000032,707.7955950000032,707.7955950000032,707.7955950000032,707.7955950000032,707.7955950000032,707.7955950000032,707.7955950000032,707.7955950000032,707.7955950000032,707.7955950000032,707.7955950000032,709.1775097000063,709.1775097000063,709.1775097000063,709.1775097000063,709.1775097000063,709.1775097000063,709.1775097000063,36,47,47,23,36,60,709.1775097000063,710.7114147999964,,,,,,,,,,,,,,,,,,,,３４７,f,１９,2023-05-21_18h37.35.231,RL,2022.2.5,59.95045693852534,
42,11,54,34,0,112,112,112,,,,,,,,None,710.7114147999964,710.7114147999964,710.7114147999964,710.7114147999964,710.7114147999964,710.7114147999964,i,0.7730527000094298,711.5135195000039,711.5135195000039,711.5135195000039,711.5135195000039,711.5135195000039,711.5135195000039,711.7952897999785,713.6112067999784,713.6281522999925,713.6281522999925,713.6281522999925,713.6281522999925,713.6281522999925,713.6281522999925,713.6281522999925,713.6281522999925,713.6281522999925,713.6281522999925,713.6281522999925,713.6281522999925,713.6281522999925,715.7426262999943,715.7426262999943,715.7426262999943,715.7426262999943,715.7426262999943,715.7426262999943,715.7426262999943,42,34,54,11,54,60,715.7426262999943,717.5771976999822,,,,,,,,,,,,,,,,,,,,３４７,f,１９,2023-05-21_18h37.35.231,RL,2022.2.5,59.95045693852534,
35,11,47,45,0,113,113,113,,,,,,,,None,717.5771976999822,717.5771976999822,717.5771976999822,717.5771976999822,717.5771976999822,717.5771976999822,i,0.44066839999868535,718.0441937999858,718.0441937999858,718.0441937999858,718.0441937999858,718.0441937999858,718.0441937999858,718.3443738999777,719.8104450999817,719.8104450999817,719.8104450999817,719.8104450999817,719.8104450999817,719.8104450999817,719.8104450999817,719.8104450999817,719.8104450999817,719.8104450999817,719.8104450999817,719.8104450999817,719.8104450999817,719.8104450999817,721.5749795000011,721.5749795000011,721.5749795000011,721.5749795000011,721.5749795000011,721.5749795000011,721.5749795000011,35,45,47,11,47,60,721.5749795000011,723.3759792000055,,,,,,,,,,,,,,,,,,,,３４７,f,１９,2023-05-21_18h37.35.231,RL,2022.2.5,59.95045693852534,
37,26,46,45,0,114,114,114,,,,,,,,None,723.3759792000055,723.3759792000055,723.3759792000055,723.3759792000055,723.3759792000055,723.3759792000055,j,0.3512486999970861,723.7649582999875,723.7649582999875,723.7649582999875,723.7649582999875,723.7649582999875,723.7649582999875,724.0434993999952,725.659387599997,725.6759482999914,725.6759482999914,725.6759482999914,725.6759482999914,725.6759482999914,725.6759482999914,725.6759482999914,725.6759482999914,725.6759482999914,725.6759482999914,725.6759482999914,725.6759482999914,725.6759482999914,727.5904260999814,727.5904260999814,727.5904260999814,727.5904260999814,727.5904260999814,727.5904260999814,727.5904260999814,37,45,46,26,26,60,727.5904260999814,729.4913523999858,,,,,,,,,,,,,,,,,,,,３４７,f,１９,2023-05-21_18h37.35.231,RL,2022.2.5,59.95045693852534,
33,15,49,45,0,115,115,115,,,,,,,,None,729.4913523999858,729.4913523999858,729.4913523999858,729.4913523999858,729.4913523999858,729.4913523999858,i,0.35285080000176094,729.8806871999986,729.8806871999986,729.8806871999986,729.8806871999986,729.8806871999986,729.8806871999986,730.1585011999996,731.4748072999937,731.4916416000051,731.4916416000051,731.4916416000051,731.4916416000051,731.4916416000051,731.4916416000051,731.4916416000051,731.4916416000051,731.4916416000051,731.4916416000051,731.4916416000051,731.4916416000051,731.4916416000051,733.106603399996,733.106603399996,733.106603399996,733.106603399996,733.106603399996,733.106603399996,733.106603399996,33,45,49,15,49,60,733.106603399996,734.7739479999873,,,,,,,,,,,,,,,,,,,,３４７,f,１９,2023-05-21_18h37.35.231,RL,2022.2.5,59.95045693852534,
44,18,50,49,0,116,116,116,,,,,,,,None,734.7739479999873,734.7739479999873,734.7739479999873,734.7739479999873,734.7739479999873,734.7739479999873,i,0.6718987000058405,735.4743990999996,735.4743990999996,735.4743990999996,735.4743990999996,735.4743990999996,735.4743990999996,735.7575263000035,737.1911231999984,737.2074635000026,737.2074635000026,737.2074635000026,737.2074635000026,737.2074635000026,737.2074635000026,737.2074635000026,737.2074635000026,737.2074635000026,737.2074635000026,737.2074635000026,737.2074635000026,737.2074635000026,738.9385106999835,738.9385106999835,738.9385106999835,738.9385106999835,738.9385106999835,738.9385106999835,738.9385106999835,44,49,50,18,50,60,738.9385106999835,740.6063028999779,,,,,,,,,,,,,,,,,,,,３４７,f,１９,2023-05-21_18h37.35.231,RL,2022.2.5,59.95045693852534,
45,18,49,47,0,117,117,117,,,,,,,,None,740.6063028999779,740.6063028999779,740.6063028999779,740.6063028999779,740.6063028999779,740.6063028999779,r,0.28611250000540167,740.927471300005,740.927471300005,740.927471300005,740.927471300005,740.927471300005,740.927471300005,741.2069209000038,742.4900909999851,742.5065390999953,742.5065390999953,742.5065390999953,742.5065390999953,742.5065390999953,742.5065390999953,742.5065390999953,742.5065390999953,742.5065390999953,742.5065390999953,742.5065390999953,742.5065390999953,742.5065390999953,744.0878383999807,744.0878383999807,744.0878383999807,744.0878383999807,744.0878383999807,744.0878383999807,744.0878383999807,45,47,49,18,47,60,744.0878383999807,746.0722175999836,,,,,,,,,,,,,,,,,,,,３４７,f,１９,2023-05-21_18h37.35.231,RL,2022.2.5,59.95045693852534,
52,23,61,49,0,118,118,118,,,,,,,,None,746.0722175999836,746.0722175999836,746.0722175999836,746.0722175999836,746.0722175999836,746.0722175999836,i,0.3798802999954205,746.4735130000045,746.4735130000045,746.4735130000045,746.4735130000045,746.4735130000045,746.4735130000045,746.7727062999911,748.055326200003,748.055326200003,748.055326200003,748.055326200003,748.055326200003,748.055326200003,748.055326200003,748.055326200003,748.055326200003,748.055326200003,748.055326200003,748.055326200003,748.055326200003,748.055326200003,749.6366490999935,749.6366490999935,749.6366490999935,749.6366490999935,749.6366490999935,749.6366490999935,749.6366490999935,52,49,61,23,61,60,749.6366490999935,751.6043176999956,,,,,,,,,,,,,,,,,,,,３４７,f,１９,2023-05-21_18h37.35.231,RL,2022.2.5,59.95045693852534,
45,20,58,47,0,119,119,119,,,,,,,,None,751.6043176999956,751.6043176999956,751.6043176999956,751.6043176999956,751.6043176999956,751.6043176999956,i,0.3861204000131693,752.0368874999986,752.0368874999986,752.0368874999986,752.0368874999986,752.0368874999986,752.0368874999986,752.3051309000002,753.5383284999989,753.554490199982,753.554490199982,753.554490199982,753.554490199982,753.554490199982,753.554490199982,753.554490199982,753.554490199982,753.554490199982,753.554490199982,753.554490199982,753.554490199982,753.554490199982,755.0862111999886,755.0862111999886,755.0862111999886,755.0862111999886,755.0862111999886,755.0862111999886,755.0862111999886,45,47,58,20,58,60,755.0862111999886,756.753387499979,,,,,,,,,,,,,,,,,,,,３４７,f,１９,2023-05-21_18h37.35.231,RL,2022.2.5,59.95045693852534,
39,14,61,42,0,120,120,120,,,,,,,,None,756.753387499979,756.753387499979,756.753387499979,756.753387499979,756.753387499979,756.753387499979,f,0.43220569999539293,757.2059388000052,757.2059388000052,757.2059388000052,757.2059388000052,757.2059388000052,757.2059388000052,757.4874882999866,759.4204558999918,759.4368828999868,759.4368828999868,759.4368828999868,759.4368828999868,759.4368828999868,759.4368828999868,759.4368828999868,759.4368828999868,759.4368828999868,759.4368828999868,759.4368828999868,759.4368828999868,759.4368828999868,761.667995900003,761.667995900003,761.667995900003,761.667995900003,761.667995900003,761.667995900003,761.667995900003,39,42,61,14,39,60,761.667995900003,763.4195073999872,,,,,,,,,,,,,,,,,,,,３４７,f,１９,2023-05-21_18h37.35.231,RL,2022.2.5,59.95045693852534,
