arm1,arm2,arm3,arm4,trials.thisRepN,trials.thisTrialN,trials.thisN,trials.thisIndex,instru_img1.started,instru_resp.started,instru_resp.keys,instru_resp.rt,image_2.started,text_2.started,image_2.stopped,text_2.stopped,fixbefore_2.started,fixbefore_2.stopped,rest_response.keys,red.started,green.started,yellow.started,blue.started,choose_bandit.started,Fixation.started,choose_bandit.keys,choose_bandit.rt,black.started,red_2.started,green_2.started,yellow_2.started,blue_2.started,fixation_2.started,docs.started,docs.stopped,black.stopped,red_2.stopped,green_2.stopped,yellow_2.stopped,blue_2.stopped,fixation_2.stopped,black_com.started,reward_sub.started,reward__sub.started,red_compare.started,green_com.started,yellow_com.started,blue_com.started,black_com.stopped,reward_sub.stopped,reward__sub.stopped,red_compare.stopped,green_com.stopped,yellow_com.stopped,blue_com.stopped,rewardred,rewardyellow,rewardblue,rewardgreen,subchoose,expectation,intertrialfix.started,intertrialfix.stopped,rest_image.started,rest_response.started,rest_response.rt,image_expect_after.started,text_exp_after.started,image_expect_after.stopped,text_exp_after.stopped,image.started,key_resp.started,key_resp.keys,key_resp.rt,participant,Gender,Age,date,expName,psychopyVersion,frameRate,
,,,,,,,,46.63503380000475,46.63503380000475,space,6.0818416999827605,,,,,,,,,,,,,,,,,,,,,,,,,,,,,,,,,,,,,,,,,,,,,,,,,,,,,,,,,,,,,,,３４８,f,２７,2023-05-21_19h05.23.554,RL,2022.2.5,60.08741517268136,
25,48,67,59,0,0,0,0,,,,,52.73039660000359,52.73039660000359,57.729979800002184,57.729979800002184,57.729979800002184,58.7320876000158,None,58.7320876000158,58.7320876000158,58.7320876000158,58.7320876000158,58.7320876000158,58.7320876000158,r,1.4356477000110317,60.20347080001375,60.20347080001375,60.20347080001375,60.20347080001375,60.20347080001375,60.20347080001375,60.49785420001717,61.69732480001403,61.71510510001099,61.71510510001099,61.71510510001099,61.71510510001099,61.71510510001099,61.71510510001099,61.71510510001099,61.71510510001099,61.71510510001099,61.71510510001099,61.71510510001099,61.71510510001099,61.71510510001099,63.267383500002325,63.267383500002325,63.267383500002325,63.267383500002325,63.267383500002325,63.267383500002325,63.267383500002325,67,59,48,25,59,70,63.267383500002325,64.93037720001303,,,,,,,,,,,,３４８,f,２７,2023-05-21_19h05.23.554,RL,2022.2.5,60.08741517268136,
32,46,44,65,0,1,1,1,,,,,,,,,,,None,64.93037720001303,64.93037720001303,64.93037720001303,64.93037720001303,64.93037720001303,64.93037720001303,i,0.6446387000032701,65.59737670002505,65.59737670002505,65.59737670002505,65.59737670002505,65.59737670002505,65.59737670002505,65.88005410000915,67.2967376000015,67.31391150000854,67.31391150000854,67.31391150000854,67.31391150000854,67.31391150000854,67.31391150000854,67.31391150000854,67.31391150000854,67.31391150000854,67.31391150000854,67.31391150000854,67.31391150000854,67.31391150000854,69.02794960001484,69.02794960001484,69.02794960001484,69.02794960001484,69.02794960001484,69.02794960001484,69.02794960001484,44,65,46,32,46,70,69.02794960001484,70.69575610000174,,,,,,,,,,,,３４８,f,２７,2023-05-21_19h05.23.554,RL,2022.2.5,60.08741517268136,
27,49,40,68,0,2,2,2,,,,,,,,,,,None,70.69575610000174,70.69575610000174,70.69575610000174,70.69575610000174,70.69575610000174,70.69575610000174,j,0.670912400004454,71.39849250001134,71.39849250001134,71.39849250001134,71.39849250001134,71.39849250001134,71.39849250001134,71.67967979999958,73.36226590001024,73.37843540002359,73.37843540002359,73.37843540002359,73.37843540002359,73.37843540002359,73.37843540002359,73.37843540002359,73.37843540002359,73.37843540002359,73.37843540002359,73.37843540002359,73.37843540002359,73.37843540002359,75.35998320000363,75.35998320000363,75.35998320000363,75.35998320000363,75.35998320000363,75.35998320000363,75.35998320000363,40,68,49,27,27,70,75.35998320000363,77.07793790000142,,,,,,,,,,,,３４８,f,２７,2023-05-21_19h05.23.554,RL,2022.2.5,60.08741517268136,
25,41,46,62,0,3,3,3,,,,,,,,,,,None,77.07793790000142,77.07793790000142,77.07793790000142,77.07793790000142,77.07793790000142,77.07793790000142,j,0.6901328999956604,77.79786820002482,77.79786820002482,77.79786820002482,77.79786820002482,77.79786820002482,77.79786820002482,78.09468360000756,79.32785420000437,79.32785420000437,79.32785420000437,79.32785420000437,79.32785420000437,79.32785420000437,79.32785420000437,79.32785420000437,79.32785420000437,79.32785420000437,79.32785420000437,79.32785420000437,79.32785420000437,79.32785420000437,80.85918160001165,80.85918160001165,80.85918160001165,80.85918160001165,80.85918160001165,80.85918160001165,80.85918160001165,46,62,41,25,25,70,80.85918160001165,82.59333790000528,,,,,,,,,,,,３４８,f,２７,2023-05-21_19h05.23.554,RL,2022.2.5,60.08741517268136,
26,54,39,58,0,4,4,4,,,,,,,,,,,None,82.59333790000528,82.59333790000528,82.59333790000528,82.59333790000528,82.59333790000528,82.59333790000528,r,0.43965170002775267,83.06133100000443,83.06133100000443,83.06133100000443,83.06133100000443,83.06133100000443,83.06133100000443,83.36089520002133,84.99358610002673,84.99358610002673,84.99358610002673,84.99358610002673,84.99358610002673,84.99358610002673,84.99358610002673,84.99358610002673,84.99358610002673,84.99358610002673,84.99358610002673,84.99358610002673,84.99358610002673,84.99358610002673,86.92483590001939,86.92483590001939,86.92483590001939,86.92483590001939,86.92483590001939,86.92483590001939,86.92483590001939,39,58,54,26,58,70,86.92483590001939,88.7930438000185,,,,,,,,,,,,３４８,f,２７,2023-05-21_19h05.23.554,RL,2022.2.5,60.08741517268136,
30,57,50,61,0,5,5,5,,,,,,,,,,,None,88.7930438000185,88.7930438000185,88.7930438000185,88.7930438000185,88.7930438000185,88.7930438000185,f,0.420831299998099,89.2428501000104,89.2428501000104,89.2428501000104,89.2428501000104,89.2428501000104,89.2428501000104,89.52617900000769,91.39247220000834,91.40898590002325,91.40898590002325,91.40898590002325,91.40898590002325,91.40898590002325,91.40898590002325,91.40898590002325,91.40898590002325,91.40898590002325,91.40898590002325,91.40898590002325,91.40898590002325,91.40898590002325,93.57384710002225,93.57384710002225,93.57384710002225,93.57384710002225,93.57384710002225,93.57384710002225,93.57384710002225,50,61,57,30,50,70,93.57384710002225,95.32471040001838,,,,,,,,,,,,３４８,f,２７,2023-05-21_19h05.23.554,RL,2022.2.5,60.08741517268136,
28,50,44,64,0,6,6,6,,,,,,,,,,,None,95.32471040001838,95.32471040001838,95.32471040001838,95.32471040001838,95.32471040001838,95.32471040001838,r,0.4110412999871187,95.75850530000753,95.75850530000753,95.75850530000753,95.75850530000753,95.75850530000753,95.75850530000753,96.04232160001993,97.10804600000847,97.1245819000178,97.1245819000178,97.1245819000178,97.1245819000178,97.1245819000178,97.1245819000178,97.1245819000178,97.1245819000178,97.1245819000178,97.1245819000178,97.1245819000178,97.1245819000178,97.1245819000178,98.4896807000041,98.4896807000041,98.4896807000041,98.4896807000041,98.4896807000041,98.4896807000041,98.4896807000041,44,64,50,28,64,70,98.4896807000041,100.24069380000583,,,,,,,,,,,,３４８,f,２７,2023-05-21_19h05.23.554,RL,2022.2.5,60.08741517268136,
24,50,40,68,0,7,7,7,,,,,,,,,,,None,100.24069380000583,100.24069380000583,100.24069380000583,100.24069380000583,100.24069380000583,100.24069380000583,f,0.5432006000191905,100.80766670001321,100.80766670001321,100.80766670001321,100.80766670001321,100.80766670001321,100.80766670001321,101.09102700001677,102.9571570000262,102.97376960000838,102.97376960000838,102.97376960000838,102.97376960000838,102.97376960000838,102.97376960000838,102.97376960000838,102.97376960000838,102.97376960000838,102.97376960000838,102.97376960000838,102.97376960000838,102.97376960000838,105.13848330001929,105.13848330001929,105.13848330001929,105.13848330001929,105.13848330001929,105.13848330001929,105.13848330001929,40,68,50,24,40,70,105.13848330001929,107.13940320000984,,,,,,,,,,,,３４８,f,２７,2023-05-21_19h05.23.554,RL,2022.2.5,60.08741517268136,
28,50,52,64,0,8,8,8,,,,,,,,,,,None,107.13940320000984,107.13940320000984,107.13940320000984,107.13940320000984,107.13940320000984,107.13940320000984,i,0.436380500002997,107.6107892,107.6107892,107.6107892,107.6107892,107.6107892,107.6107892,107.90662920000614,109.87231200002134,109.87231200002134,109.87231200002134,109.87231200002134,109.87231200002134,109.87231200002134,109.87231200002134,109.87231200002134,109.87231200002134,109.87231200002134,109.87231200002134,109.87231200002134,109.87231200002134,109.87231200002134,112.13701070001116,112.13701070001116,112.13701070001116,112.13701070001116,112.13701070001116,112.13701070001116,112.13701070001116,52,64,50,28,50,70,112.13701070001116,114.12147520002327,,,,,,,,,,,,３４８,f,２７,2023-05-21_19h05.23.554,RL,2022.2.5,60.08741517268136,
30,57,55,66,0,9,9,9,,,,,,,,,,,None,114.12147520002327,114.12147520002327,114.12147520002327,114.12147520002327,114.12147520002327,114.12147520002327,j,0.3239892999990843,114.47268390000681,114.47268390000681,114.47268390000681,114.47268390000681,114.47268390000681,114.47268390000681,114.77177770002163,116.48766720001004,116.48766720001004,116.48766720001004,116.48766720001004,116.48766720001004,116.48766720001004,116.48766720001004,116.48766720001004,116.48766720001004,116.48766720001004,116.48766720001004,116.48766720001004,116.48766720001004,116.48766720001004,118.50296830001753,118.50296830001753,118.50296830001753,118.50296830001753,118.50296830001753,118.50296830001753,118.50296830001753,55,66,57,30,30,70,118.50296830001753,120.07070620000013,,,,,,,,,,,,３４８,f,２７,2023-05-21_19h05.23.554,RL,2022.2.5,60.08741517268136,
25,51,34,74,0,10,10,10,,,,,,,,,,,None,120.07070620000013,120.07070620000013,120.07070620000013,120.07070620000013,120.07070620000013,120.07070620000013,r,0.41064250000636093,120.50423830002546,120.50423830002546,120.50423830002546,120.50423830002546,120.50423830002546,120.50423830002546,120.78752500002156,121.63751140001114,121.653639199998,121.653639199998,121.653639199998,121.653639199998,121.653639199998,121.653639199998,121.653639199998,121.653639199998,121.653639199998,121.653639199998,121.653639199998,121.653639199998,121.653639199998,122.78538820001995,122.78538820001995,122.78538820001995,122.78538820001995,122.78538820001995,122.78538820001995,122.78538820001995,34,74,51,25,74,70,122.78538820001995,124.78637080002227,,,,,,,,,,,,３４８,f,２７,2023-05-21_19h05.23.554,RL,2022.2.5,60.08741517268136,
19,43,44,70,0,11,11,11,,,,,,,,,,,None,124.78637080002227,124.78637080002227,124.78637080002227,124.78637080002227,124.78637080002227,124.78637080002227,f,0.7849822999851312,125.60819660002016,125.60819660002016,125.60819660002016,125.60819660002016,125.60819660002016,125.60819660002016,125.90352710001753,127.00292590001482,127.00292590001482,127.00292590001482,127.00292590001482,127.00292590001482,127.00292590001482,127.00292590001482,127.00292590001482,127.00292590001482,127.00292590001482,127.00292590001482,127.00292590001482,127.00292590001482,127.00292590001482,128.40114550001454,128.40114550001454,128.40114550001454,128.40114550001454,128.40114550001454,128.40114550001454,128.40114550001454,44,70,43,19,44,70,128.40114550001454,130.251769399998,,,,,,,,,,,,３４８,f,２７,2023-05-21_19h05.23.554,RL,2022.2.5,60.08741517268136,
32,40,43,68,0,12,12,12,,,,,,,,,,,None,130.251769399998,130.251769399998,130.251769399998,130.251769399998,130.251769399998,130.251769399998,r,0.2986137999978382,130.56894140000804,130.56894140000804,130.56894140000804,130.56894140000804,130.56894140000804,130.56894140000804,130.8693926000269,132.1353951000201,132.1353951000201,132.1353951000201,132.1353951000201,132.1353951000201,132.1353951000201,132.1353951000201,132.1353951000201,132.1353951000201,132.1353951000201,132.1353951000201,132.1353951000201,132.1353951000201,132.1353951000201,133.70016480001505,133.70016480001505,133.70016480001505,133.70016480001505,133.70016480001505,133.70016480001505,133.70016480001505,43,68,40,32,68,70,133.70016480001505,135.63468899999862,,,,,,,,,,,,３４８,f,２７,2023-05-21_19h05.23.554,RL,2022.2.5,60.08741517268136,
23,57,42,75,0,13,13,13,,,,,,,,,,,None,135.63468899999862,135.63468899999862,135.63468899999862,135.63468899999862,135.63468899999862,135.63468899999862,r,1.245280000002822,136.90321560000302,136.90321560000302,136.90321560000302,136.90321560000302,136.90321560000302,136.90321560000302,137.18438770002103,138.9008685000008,138.9173953999998,138.9173953999998,138.9173953999998,138.9173953999998,138.9173953999998,138.9173953999998,138.9173953999998,138.9173953999998,138.9173953999998,138.9173953999998,138.9173953999998,138.9173953999998,138.9173953999998,140.93175870002597,140.93175870002597,140.93175870002597,140.93175870002597,140.93175870002597,140.93175870002597,140.93175870002597,42,75,57,23,75,70,140.93175870002597,142.79999830000452,,,,,,,,,,,,３４８,f,２７,2023-05-21_19h05.23.554,RL,2022.2.5,60.08741517268136,
27,47,44,70,0,14,14,14,,,,,,,,,,,None,142.79999830000452,142.79999830000452,142.79999830000452,142.79999830000452,142.79999830000452,142.79999830000452,r,0.3651522999862209,143.183503200009,143.183503200009,143.183503200009,143.183503200009,143.183503200009,143.183503200009,143.4666724000126,145.38364910002565,145.3996146999998,145.3996146999998,145.3996146999998,145.3996146999998,145.3996146999998,145.3996146999998,145.3996146999998,145.3996146999998,145.3996146999998,145.3996146999998,145.3996146999998,145.3996146999998,145.3996146999998,147.61458570000832,147.61458570000832,147.61458570000832,147.61458570000832,147.61458570000832,147.61458570000832,147.61458570000832,44,70,47,27,70,70,147.61458570000832,149.28185020000092,,,,,,,,,,,,３４８,f,２７,2023-05-21_19h05.23.554,RL,2022.2.5,60.08741517268136,
21,48,47,74,0,15,15,15,,,,,,,,,,,None,149.28185020000092,149.28185020000092,149.28185020000092,149.28185020000092,149.28185020000092,149.28185020000092,r,0.4403885999927297,149.75053080002544,149.75053080002544,149.75053080002544,149.75053080002544,149.75053080002544,149.75053080002544,150.04921190001187,151.9320225000265,151.9320225000265,151.9320225000265,151.9320225000265,151.9320225000265,151.9320225000265,151.9320225000265,151.9320225000265,151.9320225000265,151.9320225000265,151.9320225000265,151.9320225000265,151.9320225000265,151.9320225000265,154.11310000001686,154.11310000001686,154.11310000001686,154.11310000001686,154.11310000001686,154.11310000001686,154.11310000001686,47,74,48,21,74,70,154.11310000001686,156.01383989999886,,,,,,,,,,,,３４８,f,２７,2023-05-21_19h05.23.554,RL,2022.2.5,60.08741517268136,
19,49,43,75,0,16,16,16,,,,,,,,,,,None,156.01383989999886,156.01383989999886,156.01383989999886,156.01383989999886,156.01383989999886,156.01383989999886,r,0.33229650001158006,156.36649370001396,156.36649370001396,156.36649370001396,156.36649370001396,156.36649370001396,156.36649370001396,156.6644012000179,158.54742550000083,158.54742550000083,158.54742550000083,158.54742550000083,158.54742550000083,158.54742550000083,158.54742550000083,158.54742550000083,158.54742550000083,158.54742550000083,158.54742550000083,158.54742550000083,158.54742550000083,158.54742550000083,160.72865970002022,160.72865970002022,160.72865970002022,160.72865970002022,160.72865970002022,160.72865970002022,160.72865970002022,43,75,49,19,75,70,160.72865970002022,162.57981950000976,,,,,,,,,,,,３４８,f,２７,2023-05-21_19h05.23.554,RL,2022.2.5,60.08741517268136,
25,52,48,80,0,17,17,17,,,,,,,,,,,None,162.57981950000976,162.57981950000976,162.57981950000976,162.57981950000976,162.57981950000976,162.57981950000976,r,0.48362499999348074,163.09749030001694,163.09749030001694,163.09749030001694,163.09749030001694,163.09749030001694,163.09749030001694,163.3801311000134,164.39648730002227,164.41302160001942,164.41302160001942,164.41302160001942,164.41302160001942,164.41302160001942,164.41302160001942,164.41302160001942,164.41302160001942,164.41302160001942,164.41302160001942,164.41302160001942,164.41302160001942,164.41302160001942,165.72764770002686,165.72764770002686,165.72764770002686,165.72764770002686,165.72764770002686,165.72764770002686,165.72764770002686,48,80,52,25,80,70,165.72764770002686,167.52870450000046,,,,,,,,,,,,３４８,f,２７,2023-05-21_19h05.23.554,RL,2022.2.5,60.08741517268136,
24,48,44,72,0,18,18,18,,,,,,,,,,,None,167.52870450000046,167.52870450000046,167.52870450000046,167.52870450000046,167.52870450000046,167.52870450000046,r,0.378962099988712,167.93012950001867,167.93012950001867,167.93012950001867,167.93012950001867,167.93012950001867,167.93012950001867,168.22926020002342,170.09576580001158,170.09576580001158,170.09576580001158,170.09576580001158,170.09576580001158,170.09576580001158,170.09576580001158,170.09576580001158,170.09576580001158,170.09576580001158,170.09576580001158,170.09576580001158,170.09576580001158,170.09576580001158,172.26012510000146,172.26012510000146,172.26012510000146,172.26012510000146,172.26012510000146,172.26012510000146,172.26012510000146,44,72,48,24,72,70,172.26012510000146,174.07794139999896,,,,,,,,,,,,３４８,f,２７,2023-05-21_19h05.23.554,RL,2022.2.5,60.08741517268136,
25,50,44,79,0,19,19,19,,,,,,,,,,,None,174.07794139999896,174.07794139999896,174.07794139999896,174.07794139999896,174.07794139999896,174.07794139999896,r,0.403568500012625,174.51349760001176,174.51349760001176,174.51349760001176,174.51349760001176,174.51349760001176,174.51349760001176,174.79502600000706,176.31091070000548,176.34455780001008,176.34455780001008,176.34455780001008,176.34455780001008,176.34455780001008,176.34455780001008,176.34455780001008,176.34455780001008,176.34455780001008,176.34455780001008,176.34455780001008,176.34455780001008,176.34455780001008,178.15902440002537,178.15902440002537,178.15902440002537,178.15902440002537,178.15902440002537,178.15902440002537,178.15902440002537,44,79,50,25,79,70,178.15902440002537,179.72701390000293,,,,,,,,,,,,３４８,f,２７,2023-05-21_19h05.23.554,RL,2022.2.5,60.08741517268136,
24,49,45,80,0,20,20,20,,,,,,,,,,,None,179.72701390000293,179.72701390000293,179.72701390000293,179.72701390000293,179.72701390000293,179.72701390000293,r,0.4422971000021789,180.19564980000723,180.19564980000723,180.19564980000723,180.19564980000723,180.19564980000723,180.19564980000723,180.49349790002452,182.0101364000002,182.02683060002164,182.02683060002164,182.02683060002164,182.02683060002164,182.02683060002164,182.02683060002164,182.02683060002164,182.02683060002164,182.02683060002164,182.02683060002164,182.02683060002164,182.02683060002164,182.02683060002164,183.8416207000264,183.8416207000264,183.8416207000264,183.8416207000264,183.8416207000264,183.8416207000264,183.8416207000264,45,80,49,24,80,70,183.8416207000264,185.55884260000312,,,,,,,,,,,,３４８,f,２７,2023-05-21_19h05.23.554,RL,2022.2.5,60.08741517268136,
17,36,41,77,0,21,21,21,,,,,,,,,,,None,185.55884260000312,185.55884260000312,185.55884260000312,185.55884260000312,185.55884260000312,185.55884260000312,f,0.4132613000110723,185.9933748000185,185.9933748000185,185.9933748000185,185.9933748000185,185.9933748000185,185.9933748000185,186.27584810002008,187.15892000001622,187.17539889999898,187.17539889999898,187.17539889999898,187.17539889999898,187.17539889999898,187.17539889999898,187.17539889999898,187.17539889999898,187.17539889999898,187.17539889999898,187.17539889999898,187.17539889999898,187.17539889999898,188.35701990002417,188.35701990002417,188.35701990002417,188.35701990002417,188.35701990002417,188.35701990002417,188.35701990002417,41,77,36,17,41,70,188.35701990002417,189.95866170001682,,,,,,,,,,,,３４８,f,２７,2023-05-21_19h05.23.554,RL,2022.2.5,60.08741517268136,
22,46,41,71,0,22,22,22,,,,,,,,,,,None,189.95866170001682,189.95866170001682,189.95866170001682,189.95866170001682,189.95866170001682,189.95866170001682,r,0.40142609999747947,190.40100080001866,190.40100080001866,190.40100080001866,190.40100080001866,190.40100080001866,190.40100080001866,190.6754827000259,192.1915951000119,192.224918300024,192.224918300024,192.224918300024,192.224918300024,192.224918300024,192.224918300024,192.224918300024,192.224918300024,192.224918300024,192.224918300024,192.224918300024,192.224918300024,192.224918300024,194.03952160000335,194.03952160000335,194.03952160000335,194.03952160000335,194.03952160000335,194.03952160000335,194.03952160000335,41,71,46,22,71,70,194.03952160000335,195.97378850000678,,,,,,,,,,,,３４８,f,２７,2023-05-21_19h05.23.554,RL,2022.2.5,60.08741517268136,
14,37,35,73,0,23,23,23,,,,,,,,,,,None,195.97378850000678,195.97378850000678,195.97378850000678,195.97378850000678,195.97378850000678,195.97378850000678,r,0.3020658000023104,196.30777760001365,196.30777760001365,196.30777760001365,196.30777760001365,196.30777760001365,196.30777760001365,196.59126380001544,198.190559700015,198.20720050000818,198.20720050000818,198.20720050000818,198.20720050000818,198.20720050000818,198.20720050000818,198.20720050000818,198.20720050000818,198.20720050000818,198.20720050000818,198.20720050000818,198.20720050000818,198.20720050000818,200.10550920001697,200.10550920001697,200.10550920001697,200.10550920001697,200.10550920001697,200.10550920001697,200.10550920001697,35,73,37,14,73,70,200.10550920001697,201.97307210002327,,,,,,,,,,,,３４８,f,２７,2023-05-21_19h05.23.554,RL,2022.2.5,60.08741517268136,
21,37,51,81,0,24,24,24,,,,,,,,,,,None,201.97307210002327,201.97307210002327,201.97307210002327,201.97307210002327,201.97307210002327,201.97307210002327,r,0.34558240001206286,202.34201900000335,202.34201900000335,202.34201900000335,202.34201900000335,202.34201900000335,202.34201900000335,202.6234016000235,203.55607099999906,203.5728822000092,203.5728822000092,203.5728822000092,203.5728822000092,203.5728822000092,203.5728822000092,203.5728822000092,203.5728822000092,203.5728822000092,203.5728822000092,203.5728822000092,203.5728822000092,203.5728822000092,204.80417690001195,204.80417690001195,204.80417690001195,204.80417690001195,204.80417690001195,204.80417690001195,204.80417690001195,51,81,37,21,81,70,204.80417690001195,206.78844430000754,,,,,,,,,,,,３４８,f,２７,2023-05-21_19h05.23.554,RL,2022.2.5,60.08741517268136,
15,48,49,75,0,25,25,25,,,,,,,,,,,None,206.78844430000754,206.78844430000754,206.78844430000754,206.78844430000754,206.78844430000754,206.78844430000754,r,0.35587980001582764,207.17467610002495,207.17467610002495,207.17467610002495,207.17467610002495,207.17467610002495,207.17467610002495,207.47269020002568,209.32192390001728,209.32192390001728,209.32192390001728,209.32192390001728,209.32192390001728,209.32192390001728,209.32192390001728,209.32192390001728,209.32192390001728,209.32192390001728,209.32192390001728,209.32192390001728,209.32192390001728,209.32192390001728,211.46975770001882,211.46975770001882,211.46975770001882,211.46975770001882,211.46975770001882,211.46975770001882,211.46975770001882,49,75,48,15,75,70,211.46975770001882,213.05413010000484,,,,,,,,,,,,３４８,f,２７,2023-05-21_19h05.23.554,RL,2022.2.5,60.08741517268136,
14,44,43,74,0,26,26,26,,,,,,,,,,,None,213.05413010000484,213.05413010000484,213.05413010000484,213.05413010000484,213.05413010000484,213.05413010000484,r,0.4760161000012886,213.55478850001236,213.55478850001236,213.55478850001236,213.55478850001236,213.55478850001236,213.55478850001236,213.8381051000033,214.83754610002507,214.85428390000015,214.85428390000015,214.85428390000015,214.85428390000015,214.85428390000015,214.85428390000015,214.85428390000015,214.85428390000015,214.85428390000015,214.85428390000015,214.85428390000015,214.85428390000015,214.85428390000015,216.15218270002515,216.15218270002515,216.15218270002515,216.15218270002515,216.15218270002515,216.15218270002515,216.15218270002515,43,74,44,14,74,70,216.15218270002515,217.7532605000015,,,,,,,,,,,,３４８,f,２７,2023-05-21_19h05.23.554,RL,2022.2.5,60.08741517268136,
24,39,36,69,0,27,27,27,,,,,,,,,,,None,217.7532605000015,217.7532605000015,217.7532605000015,217.7532605000015,217.7532605000015,217.7532605000015,r,0.30623390001710504,218.08744630002184,218.08744630002184,218.08744630002184,218.08744630002184,218.08744630002184,218.08744630002184,218.37062840000726,219.72039970001788,219.7368148000096,219.7368148000096,219.7368148000096,219.7368148000096,219.7368148000096,219.7368148000096,219.7368148000096,219.7368148000096,219.7368148000096,219.7368148000096,219.7368148000096,219.7368148000096,219.7368148000096,221.3851972000266,221.3851972000266,221.3851972000266,221.3851972000266,221.3851972000266,221.3851972000266,221.3851972000266,36,69,39,24,69,70,221.3851972000266,223.20270970001002,,,,,,,,,,,,３４８,f,２７,2023-05-21_19h05.23.554,RL,2022.2.5,60.08741517268136,
30,37,29,73,0,28,28,28,,,,,,,,,,,None,223.20270970001002,223.20270970001002,223.20270970001002,223.20270970001002,223.20270970001002,223.20270970001002,r,0.34167880000313744,223.56967080000322,223.56967080000322,223.56967080000322,223.56967080000322,223.56967080000322,223.56967080000322,223.8531239000149,225.08571970000048,225.10229040001286,225.10229040001286,225.10229040001286,225.10229040001286,225.10229040001286,225.10229040001286,225.10229040001286,225.10229040001286,225.10229040001286,225.10229040001286,225.10229040001286,225.10229040001286,225.10229040001286,226.63403570000082,226.63403570000082,226.63403570000082,226.63403570000082,226.63403570000082,226.63403570000082,226.63403570000082,29,73,37,30,73,70,226.63403570000082,228.15167590000783,,,,,,,,,,,,３４８,f,２７,2023-05-21_19h05.23.554,RL,2022.2.5,60.08741517268136,
25,40,43,67,0,29,29,29,,,,,,,,,,,None,228.15167590000783,228.15167590000783,228.15167590000783,228.15167590000783,228.15167590000783,228.15167590000783,r,0.3093640000151936,228.485456000024,228.485456000024,228.485456000024,228.485456000024,228.485456000024,228.485456000024,228.76848930001142,229.7684055000136,229.78495260002092,229.78495260002092,229.78495260002092,229.78495260002092,229.78495260002092,229.78495260002092,229.78495260002092,229.78495260002092,229.78495260002092,229.78495260002092,229.78495260002092,229.78495260002092,229.78495260002092,231.0834209000168,231.0834209000168,231.0834209000168,231.0834209000168,231.0834209000168,231.0834209000168,231.0834209000168,43,67,40,25,67,70,231.0834209000168,232.76760550000472,,,,,,,,,,,,３４８,f,２７,2023-05-21_19h05.23.554,RL,2022.2.5,60.08741517268136,
39,50,34,70,0,30,30,30,,,,,,,,,,,None,232.76760550000472,232.76760550000472,232.76760550000472,232.76760550000472,232.76760550000472,232.76760550000472,r,0.3089190000027884,233.1027234000212,233.1027234000212,233.1027234000212,233.1027234000212,233.1027234000212,233.1027234000212,233.3843770000094,234.61739280002075,234.63411720001022,234.63411720001022,234.63411720001022,234.63411720001022,234.63411720001022,234.63411720001022,234.63411720001022,234.63411720001022,234.63411720001022,234.63411720001022,234.63411720001022,234.63411720001022,234.63411720001022,236.16561700002057,236.16561700002057,236.16561700002057,236.16561700002057,236.16561700002057,236.16561700002057,236.16561700002057,34,70,50,39,70,70,236.16561700002057,238.1165686000022,,,,,,,,,,,,３４８,f,２７,2023-05-21_19h05.23.554,RL,2022.2.5,60.08741517268136,
32,37,46,72,0,31,31,31,,,,,,,,,,,None,238.1165686000022,238.1165686000022,238.1165686000022,238.1165686000022,238.1165686000022,238.1165686000022,r,0.3022108000004664,238.45628579999902,238.45628579999902,238.45628579999902,238.45628579999902,238.45628579999902,238.45628579999902,238.74985940000624,240.41644240001915,240.41644240001915,240.41644240001915,240.41644240001915,240.41644240001915,240.41644240001915,240.41644240001915,240.41644240001915,240.41644240001915,240.41644240001915,240.41644240001915,240.41644240001915,240.41644240001915,240.41644240001915,242.38136420000228,242.38136420000228,242.38136420000228,242.38136420000228,242.38136420000228,242.38136420000228,242.38136420000228,46,72,37,32,72,70,242.38136420000228,243.94894820000627,,,,,,,,,,,,３４８,f,２７,2023-05-21_19h05.23.554,RL,2022.2.5,60.08741517268136,
35,52,53,65,0,32,32,32,,,,,,,,,,,None,243.94894820000627,243.94894820000627,243.94894820000627,243.94894820000627,243.94894820000627,243.94894820000627,r,0.3238295999763068,244.29916150000645,244.29916150000645,244.29916150000645,244.29916150000645,244.29916150000645,244.29916150000645,244.58272790000774,246.24905250000302,246.26555950002512,246.26555950002512,246.26555950002512,246.26555950002512,246.26555950002512,246.26555950002512,246.26555950002512,246.26555950002512,246.26555950002512,246.26555950002512,246.26555950002512,246.26555950002512,246.26555950002512,248.23030830000062,248.23030830000062,248.23030830000062,248.23030830000062,248.23030830000062,248.23030830000062,248.23030830000062,53,65,52,35,65,70,248.23030830000062,249.96475300000748,,,,,,,,,,,,３４８,f,２７,2023-05-21_19h05.23.554,RL,2022.2.5,60.08741517268136,
28,38,44,67,0,33,33,33,,,,,,,,,,,None,249.96475300000748,249.96475300000748,249.96475300000748,249.96475300000748,249.96475300000748,249.96475300000748,r,0.33742150000762194,250.33368210002664,250.33368210002664,250.33368210002664,250.33368210002664,250.33368210002664,250.33368210002664,250.61504350000178,252.51459310000064,252.53087110002525,252.53087110002525,252.53087110002525,252.53087110002525,252.53087110002525,252.53087110002525,252.53087110002525,252.53087110002525,252.53087110002525,252.53087110002525,252.53087110002525,252.53087110002525,252.53087110002525,254.72914780001156,254.72914780001156,254.72914780001156,254.72914780001156,254.72914780001156,254.72914780001156,254.72914780001156,44,67,38,28,67,70,254.72914780001156,256.3973146000062,,,,,,,,,,,,３４８,f,２７,2023-05-21_19h05.23.554,RL,2022.2.5,60.08741517268136,
29,41,40,65,0,34,34,34,,,,,,,,,,,None,256.3973146000062,256.3973146000062,256.3973146000062,256.3973146000062,256.3973146000062,256.3973146000062,r,0.27723440001136623,256.7007435000269,256.7007435000269,256.7007435000269,256.7007435000269,256.7007435000269,256.7007435000269,256.9803172000102,258.3970875000232,258.41330590000143,258.41330590000143,258.41330590000143,258.41330590000143,258.41330590000143,258.41330590000143,258.41330590000143,258.41330590000143,258.41330590000143,258.41330590000143,258.41330590000143,258.41330590000143,258.41330590000143,260.12838040001225,260.12838040001225,260.12838040001225,260.12838040001225,260.12838040001225,260.12838040001225,260.12838040001225,40,65,41,29,65,70,260.12838040001225,261.71286720002536,,,,,,,,,,,,３４８,f,２７,2023-05-21_19h05.23.554,RL,2022.2.5,60.08741517268136,
35,44,35,74,0,35,35,35,,,,,,,,,,,None,261.71286720002536,261.71286720002536,261.71286720002536,261.71286720002536,261.71286720002536,261.71286720002536,r,0.29038890000083484,262.03095130002475,262.03095130002475,262.03095130002475,262.03095130002475,262.03095130002475,262.03095130002475,262.3299384000129,264.1789753000194,264.1789753000194,264.1789753000194,264.1789753000194,264.1789753000194,264.1789753000194,264.1789753000194,264.1789753000194,264.1789753000194,264.1789753000194,264.1789753000194,264.1789753000194,264.1789753000194,264.1789753000194,266.32701780000934,266.32701780000934,266.32701780000934,266.32701780000934,266.32701780000934,266.32701780000934,266.32701780000934,35,74,44,35,74,70,266.32701780000934,267.91163450002205,,,,,,,,,,,,３４８,f,２７,2023-05-21_19h05.23.554,RL,2022.2.5,60.08741517268136,
33,39,37,71,0,36,36,36,,,,,,,,,,,None,267.91163450002205,267.91163450002205,267.91163450002205,267.91163450002205,267.91163450002205,267.91163450002205,r,0.2375641000107862,268.178390200017,268.178390200017,268.178390200017,268.178390200017,268.178390200017,268.178390200017,268.4612946000125,270.2116570000071,270.2277399000013,270.2277399000013,270.2277399000013,270.2277399000013,270.2277399000013,270.2277399000013,270.2277399000013,270.2277399000013,270.2277399000013,270.2277399000013,270.2277399000013,270.2277399000013,270.2277399000013,272.27608000001055,272.27608000001055,272.27608000001055,272.27608000001055,272.27608000001055,272.27608000001055,272.27608000001055,37,71,39,33,71,70,272.27608000001055,273.94346090001636,,,,,,,,,,,,３４８,f,２７,2023-05-21_19h05.23.554,RL,2022.2.5,60.08741517268136,
42,37,37,70,0,37,37,37,,,,,,,,,,,None,273.94346090001636,273.94346090001636,273.94346090001636,273.94346090001636,273.94346090001636,273.94346090001636,f,0.31913159997202456,274.3028557000216,274.3028557000216,274.3028557000216,274.3028557000216,274.3028557000216,274.3028557000216,274.5776107000129,276.47744850002346,276.5103488000168,276.5103488000168,276.5103488000168,276.5103488000168,276.5103488000168,276.5103488000168,276.5103488000168,276.5103488000168,276.5103488000168,276.5103488000168,276.5103488000168,276.5103488000168,276.5103488000168,278.70827300002566,278.70827300002566,278.70827300002566,278.70827300002566,278.70827300002566,278.70827300002566,278.70827300002566,37,70,37,42,37,70,278.70827300002566,280.35907400000724,,,,,,,,,,,,３４８,f,２７,2023-05-21_19h05.23.554,RL,2022.2.5,60.08741517268136,
34,37,28,63,0,38,38,38,,,,,,,,,,,None,280.35907400000724,280.35907400000724,280.35907400000724,280.35907400000724,280.35907400000724,280.35907400000724,r,0.3044660000014119,280.69362240002374,280.69362240002374,280.69362240002374,280.69362240002374,280.69362240002374,280.69362240002374,280.99284510000143,282.7757337000221,282.7757337000221,282.7757337000221,282.7757337000221,282.7757337000221,282.7757337000221,282.7757337000221,282.7757337000221,282.7757337000221,282.7757337000221,282.7757337000221,282.7757337000221,282.7757337000221,282.7757337000221,284.85722770000575,284.85722770000575,284.85722770000575,284.85722770000575,284.85722770000575,284.85722770000575,284.85722770000575,28,63,37,34,63,70,284.85722770000575,286.3915137000149,,,,,,,,,,,,３４８,f,２７,2023-05-21_19h05.23.554,RL,2022.2.5,60.08741517268136,
36,36,30,66,0,39,39,39,,,,,,,,,,,None,286.3915137000149,286.3915137000149,286.3915137000149,286.3915137000149,286.3915137000149,286.3915137000149,r,0.37228609999874607,286.79417090001516,286.79417090001516,286.79417090001516,286.79417090001516,286.79417090001516,286.79417090001516,287.09183070002473,288.24142820001,288.24142820001,288.24142820001,288.24142820001,288.24142820001,288.24142820001,288.24142820001,288.24142820001,288.24142820001,288.24142820001,288.24142820001,288.24142820001,288.24142820001,288.24142820001,289.68954380002106,289.68954380002106,289.68954380002106,289.68954380002106,289.68954380002106,289.68954380002106,289.68954380002106,30,66,36,36,66,70,289.68954380002106,291.207693400007,,,,,,,,,,,,３４８,f,２７,2023-05-21_19h05.23.554,RL,2022.2.5,60.08741517268136,
38,33,40,61,0,40,40,40,,,,,,,,,,,None,291.207693400007,291.207693400007,291.207693400007,291.207693400007,291.207693400007,291.207693400007,r,0.38464430000749417,291.6278377000126,291.6278377000126,291.6278377000126,291.6278377000126,291.6278377000126,291.6278377000126,291.90788740001153,292.9908074000268,293.007299400022,293.007299400022,293.007299400022,293.007299400022,293.007299400022,293.007299400022,293.007299400022,293.007299400022,293.007299400022,293.007299400022,293.007299400022,293.007299400022,293.007299400022,294.38905080000404,294.38905080000404,294.38905080000404,294.38905080000404,294.38905080000404,294.38905080000404,294.38905080000404,40,61,33,38,61,70,294.38905080000404,296.23989530000836,,,,,,,,,,,,３４８,f,２７,2023-05-21_19h05.23.554,RL,2022.2.5,60.08741517268136,
32,37,42,68,0,41,41,41,,,,,,,,,,,None,296.23989530000836,296.23989530000836,296.23989530000836,296.23989530000836,296.23989530000836,296.23989530000836,r,0.23649550002301112,296.507093000022,296.507093000022,296.507093000022,296.507093000022,296.507093000022,296.507093000022,296.8068450000137,298.8064171000151,298.8064171000151,298.8064171000151,298.8064171000151,298.8064171000151,298.8064171000151,298.8064171000151,298.8064171000151,298.8064171000151,298.8064171000151,298.8064171000151,298.8064171000151,298.8064171000151,298.8064171000151,301.1042379999999,301.1042379999999,301.1042379999999,301.1042379999999,301.1042379999999,301.1042379999999,301.1042379999999,42,68,37,32,68,70,301.1042379999999,302.83886100002564,,,,,,,,,,,,３４８,f,２７,2023-05-21_19h05.23.554,RL,2022.2.5,60.08741517268136,
48,32,41,62,0,42,42,42,,,,,,,,,,,None,302.83886100002564,302.83886100002564,302.83886100002564,302.83886100002564,302.83886100002564,302.83886100002564,r,0.28324600000632927,303.1603925000236,303.1603925000236,303.1603925000236,303.1603925000236,303.1603925000236,303.1603925000236,303.4554732000106,305.2054328000231,305.2054328000231,305.2054328000231,305.2054328000231,305.2054328000231,305.2054328000231,305.2054328000231,305.2054328000231,305.2054328000231,305.2054328000231,305.2054328000231,305.2054328000231,305.2054328000231,305.2054328000231,307.2534366000036,307.2534366000036,307.2534366000036,307.2534366000036,307.2534366000036,307.2534366000036,307.2534366000036,41,62,32,48,62,70,307.2534366000036,308.9707750000234,,,,,,,,,,,,３４８,f,２７,2023-05-21_19h05.23.554,RL,2022.2.5,60.08741517268136,
38,29,46,62,0,43,43,43,,,,,,,,,,,None,308.9707750000234,308.9707750000234,308.9707750000234,308.9707750000234,308.9707750000234,308.9707750000234,r,0.4603204999875743,309.45612320001237,309.45612320001237,309.45612320001237,309.45612320001237,309.45612320001237,309.45612320001237,309.73806690002675,310.8713631000137,310.8879110000271,310.8879110000271,310.8879110000271,310.8879110000271,310.8879110000271,310.8879110000271,310.8879110000271,310.8879110000271,310.8879110000271,310.8879110000271,310.8879110000271,310.8879110000271,310.8879110000271,312.31902620001347,312.31902620001347,312.31902620001347,312.31902620001347,312.31902620001347,312.31902620001347,312.31902620001347,46,62,29,38,62,70,312.31902620001347,314.0532477000088,,,,,,,,,,,,３４８,f,２７,2023-05-21_19h05.23.554,RL,2022.2.5,60.08741517268136,
53,31,38,65,0,44,44,44,,,,,,,,,,,None,314.0532477000088,314.0532477000088,314.0532477000088,314.0532477000088,314.0532477000088,314.0532477000088,r,0.3244148999801837,314.4051217000233,314.4051217000233,314.4051217000233,314.4051217000233,314.4051217000233,314.4051217000233,314.70384390000254,316.33661340002436,316.33661340002436,316.33661340002436,316.33661340002436,316.33661340002436,316.33661340002436,316.33661340002436,316.33661340002436,316.33661340002436,316.33661340002436,316.33661340002436,316.33661340002436,316.33661340002436,316.33661340002436,318.2682174000074,318.2682174000074,318.2682174000074,318.2682174000074,318.2682174000074,318.2682174000074,318.2682174000074,38,65,31,53,65,70,318.2682174000074,320.06932249999954,,,,,,,,,,,,３４８,f,２７,2023-05-21_19h05.23.554,RL,2022.2.5,60.08741517268136,
60,35,38,63,0,45,45,45,,,,,,,,,,,None,320.06932249999954,320.06932249999954,320.06932249999954,320.06932249999954,320.06932249999954,320.06932249999954,r,0.7143142000131775,320.80291610001586,320.80291610001586,320.80291610001586,320.80291610001586,320.80291610001586,320.80291610001586,321.08569880001596,322.20227320000413,322.2189267000067,322.2189267000067,322.2189267000067,322.2189267000067,322.2189267000067,322.2189267000067,322.2189267000067,322.2189267000067,322.2189267000067,322.2189267000067,322.2189267000067,322.2189267000067,322.2189267000067,323.6339460000163,323.6339460000163,323.6339460000163,323.6339460000163,323.6339460000163,323.6339460000163,323.6339460000163,38,63,35,60,63,70,323.6339460000163,325.551268500014,,,,,,,,,,,,３４８,f,２７,2023-05-21_19h05.23.554,RL,2022.2.5,60.08741517268136,
53,36,40,61,0,46,46,46,,,,,,,,,,,None,325.551268500014,325.551268500014,325.551268500014,325.551268500014,325.551268500014,325.551268500014,r,0.5372567000158597,326.12014199999976,326.12014199999976,326.12014199999976,326.12014199999976,326.12014199999976,326.12014199999976,326.4018931000028,328.00168370001484,328.0182886000257,328.0182886000257,328.0182886000257,328.0182886000257,328.0182886000257,328.0182886000257,328.0182886000257,328.0182886000257,328.0182886000257,328.0182886000257,328.0182886000257,328.0182886000257,328.0182886000257,329.9162495000055,329.9162495000055,329.9162495000055,329.9162495000055,329.9162495000055,329.9162495000055,329.9162495000055,40,61,36,53,61,70,329.9162495000055,331.8502357000252,,,,,,,,,,,,３４８,f,２７,2023-05-21_19h05.23.554,RL,2022.2.5,60.08741517268136,
64,34,45,72,0,47,47,47,,,,,,,,,,,None,331.8502357000252,331.8502357000252,331.8502357000252,331.8502357000252,331.8502357000252,331.8502357000252,r,0.3345635999867227,332.20398879999993,332.20398879999993,332.20398879999993,332.20398879999993,332.20398879999993,332.20398879999993,332.5010038000182,333.35062599999947,333.36719260000973,333.36719260000973,333.36719260000973,333.36719260000973,333.36719260000973,333.36719260000973,333.36719260000973,333.36719260000973,333.36719260000973,333.36719260000973,333.36719260000973,333.36719260000973,333.36719260000973,334.51518380001653,334.51518380001653,334.51518380001653,334.51518380001653,334.51518380001653,334.51518380001653,334.51518380001653,45,72,34,64,72,70,334.51518380001653,336.1493651000201,,,,,,,,,,,,３４８,f,２７,2023-05-21_19h05.23.554,RL,2022.2.5,60.08741517268136,
53,33,42,68,0,48,48,48,,,,,,,,,,,None,336.1493651000201,336.1493651000201,336.1493651000201,336.1493651000201,336.1493651000201,336.1493651000201,r,0.3910766000044532,336.5693143000244,336.5693143000244,336.5693143000244,336.5693143000244,336.5693143000244,336.5693143000244,336.8668625999999,338.01631180002005,338.01631180002005,338.01631180002005,338.01631180002005,338.01631180002005,338.01631180002005,338.01631180002005,338.01631180002005,338.01631180002005,338.01631180002005,338.01631180002005,338.01631180002005,338.01631180002005,338.01631180002005,339.4637617000262,339.4637617000262,339.4637617000262,339.4637617000262,339.4637617000262,339.4637617000262,339.4637617000262,42,68,33,53,68,70,339.4637617000262,341.3988069000188,,,,,,,,,,,,３４８,f,２７,2023-05-21_19h05.23.554,RL,2022.2.5,60.08741517268136,
57,28,38,68,0,49,49,49,,,,,,,,,,,None,341.3988069000188,341.3988069000188,341.3988069000188,341.3988069000188,341.3988069000188,341.3988069000188,r,0.2990367000165861,341.71582630000194,341.71582630000194,341.71582630000194,341.71582630000194,341.71582630000194,341.71582630000194,341.99900580002577,343.4990373000037,343.51524480001535,343.51524480001535,343.51524480001535,343.51524480001535,343.51524480001535,343.51524480001535,343.51524480001535,343.51524480001535,343.51524480001535,343.51524480001535,343.51524480001535,343.51524480001535,343.51524480001535,345.31353890002356,345.31353890002356,345.31353890002356,345.31353890002356,345.31353890002356,345.31353890002356,345.31353890002356,38,68,28,57,68,70,345.31353890002356,347.1313787000254,,,,,,,,,,,,３４８,f,２７,2023-05-21_19h05.23.554,RL,2022.2.5,60.08741517268136,
45,30,31,62,0,50,50,50,,,,,,,,,,,None,347.1313787000254,347.1313787000254,347.1313787000254,347.1313787000254,347.1313787000254,347.1313787000254,r,0.3169339000014588,347.4818208000215,347.4818208000215,347.4818208000215,347.4818208000215,347.4818208000215,347.4818208000215,347.76478840000345,349.580863900017,349.597642800014,349.597642800014,349.597642800014,349.597642800014,349.597642800014,349.597642800014,349.597642800014,349.597642800014,349.597642800014,349.597642800014,349.597642800014,349.597642800014,349.597642800014,351.7124182000116,351.7124182000116,351.7124182000116,351.7124182000116,351.7124182000116,351.7124182000116,351.7124182000116,31,62,30,45,62,70,351.7124182000116,353.480460700026,,,,,,,,,,,,３４８,f,２７,2023-05-21_19h05.23.554,RL,2022.2.5,60.08741517268136,
49,29,41,73,0,51,51,51,,,,,,,,,,,None,353.480460700026,353.480460700026,353.480460700026,353.480460700026,353.480460700026,353.480460700026,r,0.2678592000156641,353.78451680002036,353.78451680002036,353.78451680002036,353.78451680002036,353.78451680002036,353.78451680002036,354.0638347000058,355.09684420001577,355.129932300013,355.129932300013,355.129932300013,355.129932300013,355.129932300013,355.129932300013,355.129932300013,355.129932300013,355.129932300013,355.129932300013,355.129932300013,355.129932300013,355.129932300013,356.4615360000171,356.4615360000171,356.4615360000171,356.4615360000171,356.4615360000171,356.4615360000171,356.4615360000171,41,73,29,49,73,70,356.4615360000171,358.32934220001334,,,,,,,,,,,,３４８,f,２７,2023-05-21_19h05.23.554,RL,2022.2.5,60.08741517268136,
47,39,36,76,0,52,52,52,,,,,,,,,,,None,358.32934220001334,358.32934220001334,358.32934220001334,358.32934220001334,358.32934220001334,358.32934220001334,r,0.3140603000065312,358.6640581000247,358.6640581000247,358.6640581000247,358.6640581000247,358.6640581000247,358.6640581000247,358.9459948000149,359.7959612000268,359.8125313000055,359.8125313000055,359.8125313000055,359.8125313000055,359.8125313000055,359.8125313000055,359.8125313000055,359.8125313000055,359.8125313000055,359.8125313000055,359.8125313000055,359.8125313000055,359.8125313000055,360.9608182000229,360.9608182000229,360.9608182000229,360.9608182000229,360.9608182000229,360.9608182000229,360.9608182000229,36,76,39,47,76,70,360.9608182000229,362.7620535000169,,,,,,,,,,,,３４８,f,２７,2023-05-21_19h05.23.554,RL,2022.2.5,60.08741517268136,
52,37,43,71,0,53,53,53,,,,,,,,,,,None,362.7620535000169,362.7620535000169,362.7620535000169,362.7620535000169,362.7620535000169,362.7620535000169,r,0.3831802000058815,363.18478970002616,363.18478970002616,363.18478970002616,363.18478970002616,363.18478970002616,363.18478970002616,363.46197150001535,364.74496580002597,364.76206170002115,364.76206170002115,364.76206170002115,364.76206170002115,364.76206170002115,364.76206170002115,364.76206170002115,364.76206170002115,364.76206170002115,364.76206170002115,364.76206170002115,364.76206170002115,364.76206170002115,366.3433704000199,366.3433704000199,366.3433704000199,366.3433704000199,366.3433704000199,366.3433704000199,366.3433704000199,43,71,37,52,71,70,366.3433704000199,368.31069780001417,,,,,,,,,,,,３４８,f,２７,2023-05-21_19h05.23.554,RL,2022.2.5,60.08741517268136,
37,36,51,77,0,54,54,54,,,,,,,,,,,None,368.31069780001417,368.31069780001417,368.31069780001417,368.31069780001417,368.31069780001417,368.31069780001417,r,0.48878489999333397,368.82774950002204,368.82774950002204,368.82774950002204,368.82774950002204,368.82774950002204,368.82774950002204,369.12741090002237,370.2106364000065,370.2106364000065,370.2106364000065,370.2106364000065,370.2106364000065,370.2106364000065,370.2106364000065,370.2106364000065,370.2106364000065,370.2106364000065,370.2106364000065,370.2106364000065,370.2106364000065,370.2106364000065,371.5923165999993,371.5923165999993,371.5923165999993,371.5923165999993,371.5923165999993,371.5923165999993,371.5923165999993,51,77,36,37,77,70,371.5923165999993,373.4095956000092,,,,,,,,,,,,３４８,f,２７,2023-05-21_19h05.23.554,RL,2022.2.5,60.08741517268136,
49,27,52,77,0,55,55,55,,,,,,,,,,,None,373.4095956000092,373.4095956000092,373.4095956000092,373.4095956000092,373.4095956000092,373.4095956000092,r,0.6704408000223339,374.11318310000934,374.11318310000934,374.11318310000934,374.11318310000934,374.11318310000934,374.11318310000934,374.410106299998,375.85981910000555,375.876172600023,375.876172600023,375.876172600023,375.876172600023,375.876172600023,375.876172600023,375.876172600023,375.876172600023,375.876172600023,375.876172600023,375.876172600023,375.876172600023,375.876172600023,377.6246799000073,377.6246799000073,377.6246799000073,377.6246799000073,377.6246799000073,377.6246799000073,377.6246799000073,52,77,27,49,77,70,377.6246799000073,379.22566170000937,,,,,,,,,,,,３４８,f,２７,2023-05-21_19h05.23.554,RL,2022.2.5,60.08741517268136,
50,35,49,75,0,56,56,56,,,,,,,,,,,None,379.22566170000937,379.22566170000937,379.22566170000937,379.22566170000937,379.22566170000937,379.22566170000937,r,0.2722895999904722,379.52755940001225,379.52755940001225,379.52755940001225,379.52755940001225,379.52755940001225,379.52755940001225,379.825579700002,381.49215299999923,381.49215299999923,381.49215299999923,381.49215299999923,381.49215299999923,381.49215299999923,381.49215299999923,381.49215299999923,381.49215299999923,381.49215299999923,381.49215299999923,381.49215299999923,381.49215299999923,381.49215299999923,383.4568217000051,383.4568217000051,383.4568217000051,383.4568217000051,383.4568217000051,383.4568217000051,383.4568217000051,49,75,35,50,75,70,383.4568217000051,385.1578161000216,,,,,,,,,,,,３４８,f,２７,2023-05-21_19h05.23.554,RL,2022.2.5,60.08741517268136,
53,38,58,69,0,57,57,57,,,,,,,,,,,None,385.1578161000216,385.1578161000216,385.1578161000216,385.1578161000216,385.1578161000216,385.1578161000216,r,0.36342129998956807,385.54302140002255,385.54302140002255,385.54302140002255,385.54302140002255,385.54302140002255,385.54302140002255,385.84125029999996,387.68005790002644,387.68005790002644,387.68005790002644,387.68005790002644,387.68005790002644,387.68005790002644,387.68005790002644,387.68005790002644,387.68005790002644,387.68005790002644,387.68005790002644,387.68005790002644,387.68005790002644,387.68005790002644,389.7726913000224,389.7726913000224,389.7726913000224,389.7726913000224,389.7726913000224,389.7726913000224,389.7726913000224,58,69,38,53,69,70,389.7726913000224,391.5397841000231,,,,,,,,,,,,３４８,f,２７,2023-05-21_19h05.23.554,RL,2022.2.5,60.08741517268136,
52,44,55,77,0,58,58,58,,,,,,,,,,,None,391.5397841000231,391.5397841000231,391.5397841000231,391.5397841000231,391.5397841000231,391.5397841000231,i,0.35673469997709617,391.92350180001813,391.92350180001813,391.92350180001813,391.92350180001813,391.92350180001813,391.92350180001813,392.2071810000052,393.9069247000152,393.9229971000168,393.9229971000168,393.9229971000168,393.9229971000168,393.9229971000168,393.9229971000168,393.9229971000168,393.9229971000168,393.9229971000168,393.9229971000168,393.9229971000168,393.9229971000168,393.9229971000168,395.92104050001944,395.92104050001944,395.92104050001944,395.92104050001944,395.92104050001944,395.92104050001944,395.92104050001944,55,77,44,52,44,70,395.92104050001944,397.5887255000125,,,,,,,,,,,,３４８,f,２７,2023-05-21_19h05.23.554,RL,2022.2.5,60.08741517268136,
53,41,51,66,0,59,59,59,,,,,,,,,,,None,397.5887255000125,397.5887255000125,397.5887255000125,397.5887255000125,397.5887255000125,397.5887255000125,r,0.33847300001070835,397.9605269000167,397.9605269000167,397.9605269000167,397.9605269000167,397.9605269000167,397.9605269000167,398.23952840000857,399.23931960001937,399.25569760001963,399.25569760001963,399.25569760001963,399.25569760001963,399.25569760001963,399.25569760001963,399.25569760001963,399.25569760001963,399.25569760001963,399.25569760001963,399.25569760001963,399.25569760001963,399.25569760001963,400.5369753000268,400.5369753000268,400.5369753000268,400.5369753000268,400.5369753000268,400.5369753000268,400.5369753000268,51,66,41,53,66,70,400.5369753000268,402.2883472000249,,,,,,,,,,,,３４８,f,２７,2023-05-21_19h05.23.554,RL,2022.2.5,60.08741517268136,
63,34,54,61,0,60,60,60,,,,,,,,,,,None,402.2883472000249,402.2883472000249,402.2883472000249,402.2883472000249,402.2883472000249,402.2883472000249,r,0.3453166999970563,402.6568839000247,402.6568839000247,402.6568839000247,402.6568839000247,402.6568839000247,402.6568839000247,402.95506140001817,404.1714843000227,404.1714843000227,404.1714843000227,404.1714843000227,404.1714843000227,404.1714843000227,404.1714843000227,404.1714843000227,404.1714843000227,404.1714843000227,404.1714843000227,404.1714843000227,404.1714843000227,404.1714843000227,405.68565310002305,405.68565310002305,405.68565310002305,405.68565310002305,405.68565310002305,405.68565310002305,405.68565310002305,54,61,34,63,61,70,405.68565310002305,407.5369916000054,,,,,,,,,,,,３４８,f,２７,2023-05-21_19h05.23.554,RL,2022.2.5,60.08741517268136,
46,36,62,75,0,61,61,61,,,,,,,,,,,None,407.5369916000054,407.5369916000054,407.5369916000054,407.5369916000054,407.5369916000054,407.5369916000054,j,0.3971912999986671,407.95582210001885,407.95582210001885,407.95582210001885,407.95582210001885,407.95582210001885,407.95582210001885,408.25433530000737,409.7368715000048,409.7368715000048,409.7368715000048,409.7368715000048,409.7368715000048,409.7368715000048,409.7368715000048,409.7368715000048,409.7368715000048,409.7368715000048,409.7368715000048,409.7368715000048,409.7368715000048,409.7368715000048,411.5183122000017,411.5183122000017,411.5183122000017,411.5183122000017,411.5183122000017,411.5183122000017,411.5183122000017,62,75,36,46,46,70,411.5183122000017,413.285844500002,,,,,,,,,,,,３４８,f,２７,2023-05-21_19h05.23.554,RL,2022.2.5,60.08741517268136,
52,40,69,83,0,62,62,62,,,,,,,,,,,None,413.285844500002,413.285844500002,413.285844500002,413.285844500002,413.285844500002,413.285844500002,r,0.26594489999115467,413.57111050002277,413.57111050002277,413.57111050002277,413.57111050002277,413.57111050002277,413.57111050002277,413.8534467999998,414.6861913000175,414.70270520000486,414.70270520000486,414.70270520000486,414.70270520000486,414.70270520000486,414.70270520000486,414.70270520000486,414.70270520000486,414.70270520000486,414.70270520000486,414.70270520000486,414.70270520000486,414.70270520000486,415.83428130001994,415.83428130001994,415.83428130001994,415.83428130001994,415.83428130001994,415.83428130001994,415.83428130001994,69,83,40,52,83,70,415.83428130001994,417.6189588000125,,,,,,,,,,,,３４８,f,２７,2023-05-21_19h05.23.554,RL,2022.2.5,60.08741517268136,
51,35,66,77,0,63,63,63,,,,,,,,,,,None,417.6189588000125,417.6189588000125,417.6189588000125,417.6189588000125,417.6189588000125,417.6189588000125,r,0.2790808000136167,417.91917460001423,417.91917460001423,417.91917460001423,417.91917460001423,417.91917460001423,417.91917460001423,418.2188923000067,419.7353352000064,419.7353352000064,419.7353352000064,419.7353352000064,419.7353352000064,419.7353352000064,419.7353352000064,419.7353352000064,419.7353352000064,419.7353352000064,419.7353352000064,419.7353352000064,419.7353352000064,419.7353352000064,421.5500558000058,421.5500558000058,421.5500558000058,421.5500558000058,421.5500558000058,421.5500558000058,421.5500558000058,66,77,35,51,77,70,421.5500558000058,423.10135230000014,,,,,,,,,,,,３４８,f,２７,2023-05-21_19h05.23.554,RL,2022.2.5,60.08741517268136,
47,42,65,73,0,64,64,64,,,,,,,,,,,None,423.10135230000014,423.10135230000014,423.10135230000014,423.10135230000014,423.10135230000014,423.10135230000014,r,0.2535718000144698,423.3852298000129,423.3852298000129,423.3852298000129,423.3852298000129,423.3852298000129,423.3852298000129,423.6682459000149,425.01797690000967,425.0343121000042,425.0343121000042,425.0343121000042,425.0343121000042,425.0343121000042,425.0343121000042,425.0343121000042,425.0343121000042,425.0343121000042,425.0343121000042,425.0343121000042,425.0343121000042,425.0343121000042,426.68262340000365,426.68262340000365,426.68262340000365,426.68262340000365,426.68262340000365,426.68262340000365,426.68262340000365,65,73,42,47,73,70,426.68262340000365,428.2334813000052,,,,,,,,,,,,３４８,f,２７,2023-05-21_19h05.23.554,RL,2022.2.5,60.08741517268136,
57,41,73,66,0,65,65,65,,,,,,,,,,,None,428.2334813000052,428.2334813000052,428.2334813000052,428.2334813000052,428.2334813000052,428.2334813000052,r,0.38824770000064746,428.65056619999814,428.65056619999814,428.65056619999814,428.65056619999814,428.65056619999814,428.65056619999814,428.9336427000235,430.0175828000065,430.0334098000021,430.0334098000021,430.0334098000021,430.0334098000021,430.0334098000021,430.0334098000021,430.0334098000021,430.0334098000021,430.0334098000021,430.0334098000021,430.0334098000021,430.0334098000021,430.0334098000021,431.41530120000243,431.41530120000243,431.41530120000243,431.41530120000243,431.41530120000243,431.41530120000243,431.41530120000243,73,66,41,57,66,70,431.41530120000243,433.21636260001105,,,,,,,,,,,,３４８,f,２７,2023-05-21_19h05.23.554,RL,2022.2.5,60.08741517268136,
61,41,65,68,0,66,66,66,,,,,,,,,,,None,433.21636260001105,433.21636260001105,433.21636260001105,433.21636260001105,433.21636260001105,433.21636260001105,r,0.3789474000222981,433.6173264000099,433.6173264000099,433.6173264000099,433.6173264000099,433.6173264000099,433.6173264000099,433.91670990001876,435.34919190002256,435.34919190002256,435.34919190002256,435.34919190002256,435.34919190002256,435.34919190002256,435.34919190002256,435.34919190002256,435.34919190002256,435.34919190002256,435.34919190002256,435.34919190002256,435.34919190002256,435.34919190002256,437.0806101000053,437.0806101000053,437.0806101000053,437.0806101000053,437.0806101000053,437.0806101000053,437.0806101000053,65,68,41,61,68,70,437.0806101000053,438.88188460000674,,,,,,,,,,,,３４８,f,２７,2023-05-21_19h05.23.554,RL,2022.2.5,60.08741517268136,
47,42,70,66,0,67,67,67,,,,,,,,,,,None,438.88188460000674,438.88188460000674,438.88188460000674,438.88188460000674,438.88188460000674,438.88188460000674,r,0.2970565000141505,439.198887800012,439.198887800012,439.198887800012,439.198887800012,439.198887800012,439.198887800012,439.49877090001246,441.21477869999944,441.21477869999944,441.21477869999944,441.21477869999944,441.21477869999944,441.21477869999944,441.21477869999944,441.21477869999944,441.21477869999944,441.21477869999944,441.21477869999944,441.21477869999944,441.21477869999944,441.21477869999944,443.2297273000004,443.2297273000004,443.2297273000004,443.2297273000004,443.2297273000004,443.2297273000004,443.2297273000004,70,66,42,47,66,70,443.2297273000004,444.81390420001117,,,,,,,,,,,,３４８,f,２７,2023-05-21_19h05.23.554,RL,2022.2.5,60.08741517268136,
65,43,61,65,0,68,68,68,,,,,,,,,,,None,444.81390420001117,444.81390420001117,444.81390420001117,444.81390420001117,444.81390420001117,444.81390420001117,r,0.3344675999833271,445.18562329999986,445.18562329999986,445.18562329999986,445.18562329999986,445.18562329999986,445.18562329999986,445.46447880001506,446.41450949999853,446.44750790001126,446.44750790001126,446.44750790001126,446.44750790001126,446.44750790001126,446.44750790001126,446.44750790001126,446.44750790001126,446.44750790001126,446.44750790001126,446.44750790001126,446.44750790001126,446.44750790001126,447.69594750000397,447.69594750000397,447.69594750000397,447.69594750000397,447.69594750000397,447.69594750000397,447.69594750000397,61,65,43,65,65,70,447.69594750000397,449.63005900001735,,,,,,,,,,,,３４８,f,２７,2023-05-21_19h05.23.554,RL,2022.2.5,60.08741517268136,
60,43,63,68,0,69,69,69,,,,,,,,,,,None,449.63005900001735,449.63005900001735,449.63005900001735,449.63005900001735,449.63005900001735,449.63005900001735,f,0.283548300008988,449.9594319000025,449.9594319000025,449.9594319000025,449.9594319000025,449.9594319000025,449.9594319000025,450.2300181000028,451.41315630002646,451.44673380002496,451.44673380002496,451.44673380002496,451.44673380002496,451.44673380002496,451.44673380002496,451.44673380002496,451.44673380002496,451.44673380002496,451.44673380002496,451.44673380002496,451.44673380002496,451.44673380002496,452.92793240002356,452.92793240002356,452.92793240002356,452.92793240002356,452.92793240002356,452.92793240002356,452.92793240002356,63,68,43,60,63,70,452.92793240002356,454.92883310001343,,,,,,,,,,,,３４８,f,２７,2023-05-21_19h05.23.554,RL,2022.2.5,60.08741517268136,
70,41,60,63,0,70,70,70,,,,,,,,,,,None,454.92883310001343,454.92883310001343,454.92883310001343,454.92883310001343,454.92883310001343,454.92883310001343,r,0.2539090999925975,455.21608370001195,455.21608370001195,455.21608370001195,455.21608370001195,455.21608370001195,455.21608370001195,455.49584760001744,457.21254980002414,457.2457517000148,457.2457517000148,457.2457517000148,457.2457517000148,457.2457517000148,457.2457517000148,457.2457517000148,457.2457517000148,457.2457517000148,457.2457517000148,457.2457517000148,457.2457517000148,457.2457517000148,459.2607755000063,459.2607755000063,459.2607755000063,459.2607755000063,459.2607755000063,459.2607755000063,459.2607755000063,60,63,41,70,63,70,459.2607755000063,461.1945861999993,,,,,,,,,,,,３４８,f,２７,2023-05-21_19h05.23.554,RL,2022.2.5,60.08741517268136,
65,35,59,76,0,71,71,71,,,,,,,,,,,None,461.1945861999993,461.1945861999993,461.1945861999993,461.1945861999993,461.1945861999993,461.1945861999993,f,0.5678376999858301,461.78576700002304,461.78576700002304,461.78576700002304,461.78576700002304,461.78576700002304,461.78576700002304,462.0781869000057,463.99452630002634,464.0110350000032,464.0110350000032,464.0110350000032,464.0110350000032,464.0110350000032,464.0110350000032,464.0110350000032,464.0110350000032,464.0110350000032,464.0110350000032,464.0110350000032,464.0110350000032,464.0110350000032,466.2255488000228,466.2255488000228,466.2255488000228,466.2255488000228,466.2255488000228,466.2255488000228,466.2255488000228,59,76,35,65,59,70,466.2255488000228,467.7435970000224,,,,,,,,,,,,３４８,f,２７,2023-05-21_19h05.23.554,RL,2022.2.5,60.08741517268136,
69,42,61,74,0,72,72,72,,,,,,,,,,,None,467.7435970000224,467.7435970000224,467.7435970000224,467.7435970000224,467.7435970000224,467.7435970000224,r,0.32680559999425896,468.09431179999956,468.09431179999956,468.09431179999956,468.09431179999956,468.09431179999956,468.09431179999956,468.37675890000537,469.8603545000078,469.876625600009,469.876625600009,469.876625600009,469.876625600009,469.876625600009,469.876625600009,469.876625600009,469.876625600009,469.876625600009,469.876625600009,469.876625600009,469.876625600009,469.876625600009,471.6583159000147,471.6583159000147,471.6583159000147,471.6583159000147,471.6583159000147,471.6583159000147,471.6583159000147,61,74,42,69,74,70,471.6583159000147,473.4588475000055,,,,,,,,,,,,３４８,f,２７,2023-05-21_19h05.23.554,RL,2022.2.5,60.08741517268136,
61,37,57,72,0,73,73,73,,,,,,,,,,,None,473.4588475000055,473.4588475000055,473.4588475000055,473.4588475000055,473.4588475000055,473.4588475000055,r,0.4014933000144083,473.9031422000262,473.9031422000262,473.9031422000262,473.9031422000262,473.9031422000262,473.9031422000262,474.1926222000038,475.10916040002485,475.10916040002485,475.10916040002485,475.10916040002485,475.10916040002485,475.10916040002485,475.10916040002485,475.10916040002485,475.10916040002485,475.10916040002485,475.10916040002485,475.10916040002485,475.10916040002485,475.10916040002485,476.3240439000074,476.3240439000074,476.3240439000074,476.3240439000074,476.3240439000074,476.3240439000074,476.3240439000074,57,72,37,61,72,70,476.3240439000074,478.2583369000058,,,,,,,,,,,,３４８,f,２７,2023-05-21_19h05.23.554,RL,2022.2.5,60.08741517268136,
66,45,62,76,0,74,74,74,,,,,,,,,,,None,478.2583369000058,478.2583369000058,478.2583369000058,478.2583369000058,478.2583369000058,478.2583369000058,r,0.3059672999952454,478.5922704000259,478.5922704000259,478.5922704000259,478.5922704000259,478.5922704000259,478.5922704000259,478.87551190002705,480.1086772000126,480.12496650000685,480.12496650000685,480.12496650000685,480.12496650000685,480.12496650000685,480.12496650000685,480.12496650000685,480.12496650000685,480.12496650000685,480.12496650000685,480.12496650000685,480.12496650000685,480.12496650000685,481.65615570000955,481.65615570000955,481.65615570000955,481.65615570000955,481.65615570000955,481.65615570000955,481.65615570000955,62,76,45,66,76,70,481.65615570000955,483.63940760001424,,,,,,,,,,,,３４８,f,２７,2023-05-21_19h05.23.554,RL,2022.2.5,60.08741517268136,
58,45,59,81,0,75,75,75,,,,,,,,,,,q,510.4027679999999,510.4027679999999,510.4027679999999,510.4027679999999,510.4027679999999,510.4027679999999,r,0.704743399983272,511.1399052000197,511.1399052000197,511.1399052000197,511.1399052000197,511.1399052000197,511.1399052000197,511.4363798999984,513.1190271000087,513.1190271000087,513.1190271000087,513.1190271000087,513.1190271000087,513.1190271000087,513.1190271000087,513.1190271000087,513.1190271000087,513.1190271000087,513.1190271000087,513.1190271000087,513.1190271000087,513.1190271000087,515.1002406000043,515.1002406000043,515.1002406000043,515.1002406000043,515.1002406000043,515.1002406000043,515.1002406000043,59,81,45,58,81,70,515.1002406000043,516.7516060000053,483.63940760001424,483.63940760001424,21.717750099982368,505.38755170002696,505.38755170002696,510.4027679999999,510.4027679999999,,,,,３４８,f,２７,2023-05-21_19h05.23.554,RL,2022.2.5,60.08741517268136,
61,46,57,65,0,76,76,76,,,,,,,,,,,None,516.7516060000053,516.7516060000053,516.7516060000053,516.7516060000053,516.7516060000053,516.7516060000053,r,0.6068860999948811,517.3865719000169,517.3865719000169,517.3865719000169,517.3865719000169,517.3865719000169,517.3865719000169,517.668267400004,518.7186457000207,518.7348660000134,518.7348660000134,518.7348660000134,518.7348660000134,518.7348660000134,518.7348660000134,518.7348660000134,518.7348660000134,518.7348660000134,518.7348660000134,518.7348660000134,518.7348660000134,518.7348660000134,520.0832010000013,520.0832010000013,520.0832010000013,520.0832010000013,520.0832010000013,520.0832010000013,520.0832010000013,57,65,46,61,65,70,520.0832010000013,521.9507520000043,,,,,,,,,,,,３４８,f,２７,2023-05-21_19h05.23.554,RL,2022.2.5,60.08741517268136,
50,50,56,62,0,77,77,77,,,,,,,,,,,None,521.9507520000043,521.9507520000043,521.9507520000043,521.9507520000043,521.9507520000043,521.9507520000043,r,0.662104500021087,522.6378833000199,522.6378833000199,522.6378833000199,522.6378833000199,522.6378833000199,522.6378833000199,522.9174812000128,524.6169013000035,524.6336086000083,524.6336086000083,524.6336086000083,524.6336086000083,524.6336086000083,524.6336086000083,524.6336086000083,524.6336086000083,524.6336086000083,524.6336086000083,524.6336086000083,524.6336086000083,524.6336086000083,526.6314260000072,526.6314260000072,526.6314260000072,526.6314260000072,526.6314260000072,526.6314260000072,526.6314260000072,56,62,50,50,62,70,526.6314260000072,528.4493765000079,,,,,,,,,,,,３４８,f,２７,2023-05-21_19h05.23.554,RL,2022.2.5,60.08741517268136,
54,44,55,63,0,78,78,78,,,,,,,,,,,None,528.4493765000079,528.4493765000079,528.4493765000079,528.4493765000079,528.4493765000079,528.4493765000079,r,0.30047370001557283,528.7898176000162,528.7898176000162,528.7898176000162,528.7898176000162,528.7898176000162,528.7898176000162,529.0667574000254,530.0825760000153,530.1159344000043,530.1159344000043,530.1159344000043,530.1159344000043,530.1159344000043,530.1159344000043,530.1159344000043,530.1159344000043,530.1159344000043,530.1159344000043,530.1159344000043,530.1159344000043,530.1159344000043,531.4310972000239,531.4310972000239,531.4310972000239,531.4310972000239,531.4310972000239,531.4310972000239,531.4310972000239,55,63,44,54,63,70,531.4310972000239,533.148543200019,,,,,,,,,,,,３４８,f,２７,2023-05-21_19h05.23.554,RL,2022.2.5,60.08741517268136,
60,39,49,51,0,79,79,79,,,,,,,,,,,None,533.148543200019,533.148543200019,533.148543200019,533.148543200019,533.148543200019,533.148543200019,r,0.23794760002056137,533.4161824000184,533.4161824000184,533.4161824000184,533.4161824000184,533.4161824000184,533.4161824000184,533.6990522000124,535.6487296000123,535.6649757999985,535.6649757999985,535.6649757999985,535.6649757999985,535.6649757999985,535.6649757999985,535.6649757999985,535.6649757999985,535.6649757999985,535.6649757999985,535.6649757999985,535.6649757999985,535.6649757999985,537.9128148000163,537.9128148000163,537.9128148000163,537.9128148000163,537.9128148000163,537.9128148000163,537.9128148000163,49,51,39,60,51,70,537.9128148000163,539.847562800016,,,,,,,,,,,,３４８,f,２７,2023-05-21_19h05.23.554,RL,2022.2.5,60.08741517268136,
59,46,59,45,0,80,80,80,,,,,,,,,,,None,539.847562800016,539.847562800016,539.847562800016,539.847562800016,539.847562800016,539.847562800016,f,0.2907204999937676,540.1653290000104,540.1653290000104,540.1653290000104,540.1653290000104,540.1653290000104,540.1653290000104,540.4474872999999,541.8471850000205,541.8640254000202,541.8640254000202,541.8640254000202,541.8640254000202,541.8640254000202,541.8640254000202,541.8640254000202,541.8640254000202,541.8640254000202,541.8640254000202,541.8640254000202,541.8640254000202,541.8640254000202,543.5621917000099,543.5621917000099,543.5621917000099,543.5621917000099,543.5621917000099,543.5621917000099,543.5621917000099,59,45,46,59,59,70,543.5621917000099,545.3799361000129,,,,,,,,,,,,３４８,f,２７,2023-05-21_19h05.23.554,RL,2022.2.5,60.08741517268136,
67,45,62,59,0,81,81,81,,,,,,,,,,,None,545.3799361000129,545.3799361000129,545.3799361000129,545.3799361000129,545.3799361000129,545.3799361000129,i,0.29008170001907274,545.698581500008,545.698581500008,545.698581500008,545.698581500008,545.698581500008,545.698581500008,545.9967304000165,547.729784300027,547.729784300027,547.729784300027,547.729784300027,547.729784300027,547.729784300027,547.729784300027,547.729784300027,547.729784300027,547.729784300027,547.729784300027,547.729784300027,547.729784300027,547.729784300027,549.7612404000247,549.7612404000247,549.7612404000247,549.7612404000247,549.7612404000247,549.7612404000247,549.7612404000247,62,59,45,67,45,70,549.7612404000247,551.5289325000194,,,,,,,,,,,,３４８,f,２７,2023-05-21_19h05.23.554,RL,2022.2.5,60.08741517268136,
67,35,45,51,0,82,82,82,,,,,,,,,,,None,551.5289325000194,551.5289325000194,551.5289325000194,551.5289325000194,551.5289325000194,551.5289325000194,j,0.3011734999890905,551.8673658000189,551.8673658000189,551.8673658000189,551.8673658000189,551.8673658000189,551.8673658000189,552.1460351000133,553.6787219000107,553.695152100001,553.695152100001,553.695152100001,553.695152100001,553.695152100001,553.695152100001,553.695152100001,553.695152100001,553.695152100001,553.695152100001,553.695152100001,553.695152100001,553.695152100001,555.5264113000012,555.5264113000012,555.5264113000012,555.5264113000012,555.5264113000012,555.5264113000012,555.5264113000012,45,51,35,67,67,70,555.5264113000012,557.3107492999989,,,,,,,,,,,,３４８,f,２７,2023-05-21_19h05.23.554,RL,2022.2.5,60.08741517268136,
66,38,50,52,0,83,83,83,,,,,,,,,,,None,557.3107492999989,557.3107492999989,557.3107492999989,557.3107492999989,557.3107492999989,557.3107492999989,j,0.31587210000725463,557.6473371000029,557.6473371000029,557.6473371000029,557.6473371000029,557.6473371000029,557.6473371000029,557.9446445000067,559.8110420000157,559.8110420000157,559.8110420000157,559.8110420000157,559.8110420000157,559.8110420000157,559.8110420000157,559.8110420000157,559.8110420000157,559.8110420000157,559.8110420000157,559.8110420000157,559.8110420000157,559.8110420000157,561.9753620999982,561.9753620999982,561.9753620999982,561.9753620999982,561.9753620999982,561.9753620999982,561.9753620999982,50,52,38,66,66,70,561.9753620999982,563.859978100023,,,,,,,,,,,,３４８,f,２７,2023-05-21_19h05.23.554,RL,2022.2.5,60.08741517268136,
58,30,49,43,0,84,84,84,,,,,,,,,,,None,563.859978100023,563.859978100023,563.859978100023,563.859978100023,563.859978100023,563.859978100023,r,0.29271340000559576,564.1783403000154,564.1783403000154,564.1783403000154,564.1783403000154,564.1783403000154,564.1783403000154,564.4771974000032,565.3767598000122,565.3767598000122,565.3767598000122,565.3767598000122,565.3767598000122,565.3767598000122,565.3767598000122,565.3767598000122,565.3767598000122,565.3767598000122,565.3767598000122,565.3767598000122,565.3767598000122,565.3767598000122,566.5748654000054,566.5748654000054,566.5748654000054,566.5748654000054,566.5748654000054,566.5748654000054,566.5748654000054,49,43,30,58,43,70,566.5748654000054,568.1925690000062,,,,,,,,,,,,３４８,f,２７,2023-05-21_19h05.23.554,RL,2022.2.5,60.08741517268136,
62,42,52,49,0,85,85,85,,,,,,,,,,,None,568.1925690000062,568.1925690000062,568.1925690000062,568.1925690000062,568.1925690000062,568.1925690000062,j,0.27502320002531633,568.4961231000198,568.4961231000198,568.4961231000198,568.4961231000198,568.4961231000198,568.4961231000198,568.792943700013,570.242529900017,570.242529900017,570.242529900017,570.242529900017,570.242529900017,570.242529900017,570.242529900017,570.242529900017,570.242529900017,570.242529900017,570.242529900017,570.242529900017,570.242529900017,570.242529900017,571.9906692000222,571.9906692000222,571.9906692000222,571.9906692000222,571.9906692000222,571.9906692000222,571.9906692000222,52,49,42,62,62,70,571.9906692000222,573.6252111000067,,,,,,,,,,,,３４８,f,２７,2023-05-21_19h05.23.554,RL,2022.2.5,60.08741517268136,
63,45,50,54,0,86,86,86,,,,,,,,,,,None,573.6252111000067,573.6252111000067,573.6252111000067,573.6252111000067,573.6252111000067,573.6252111000067,j,0.2399198999919463,573.8919842000178,573.8919842000178,573.8919842000178,573.8919842000178,573.8919842000178,573.8919842000178,574.1750098000048,575.192058900022,575.2085416000045,575.2085416000045,575.2085416000045,575.2085416000045,575.2085416000045,575.2085416000045,575.2085416000045,575.2085416000045,575.2085416000045,575.2085416000045,575.2085416000045,575.2085416000045,575.2085416000045,576.5233292000194,576.5233292000194,576.5233292000194,576.5233292000194,576.5233292000194,576.5233292000194,576.5233292000194,50,54,45,63,63,70,576.5233292000194,578.1242972000036,,,,,,,,,,,,３４８,f,２７,2023-05-21_19h05.23.554,RL,2022.2.5,60.08741517268136,
56,33,53,50,0,87,87,87,,,,,,,,,,,None,578.1242972000036,578.1242972000036,578.1242972000036,578.1242972000036,578.1242972000036,578.1242972000036,j,0.32904339997912757,578.4775604000024,578.4775604000024,578.4775604000024,578.4775604000024,578.4775604000024,578.4775604000024,578.7575615000096,580.3911793000007,580.4076738000149,580.4076738000149,580.4076738000149,580.4076738000149,580.4076738000149,580.4076738000149,580.4076738000149,580.4076738000149,580.4076738000149,580.4076738000149,580.4076738000149,580.4076738000149,580.4076738000149,582.3386481000052,582.3386481000052,582.3386481000052,582.3386481000052,582.3386481000052,582.3386481000052,582.3386481000052,53,50,33,56,56,70,582.3386481000052,584.0563253000146,,,,,,,,,,,,３４８,f,２７,2023-05-21_19h05.23.554,RL,2022.2.5,60.08741517268136,
66,20,51,48,0,88,88,88,,,,,,,,,,,None,584.0563253000146,584.0563253000146,584.0563253000146,584.0563253000146,584.0563253000146,584.0563253000146,i,0.3519001000095159,584.4456227000046,584.4456227000046,584.4456227000046,584.4456227000046,584.4456227000046,584.4456227000046,584.7397800000035,585.6401645000151,585.6564111000043,585.6564111000043,585.6564111000043,585.6564111000043,585.6564111000043,585.6564111000043,585.6564111000043,585.6564111000043,585.6564111000043,585.6564111000043,585.6564111000043,585.6564111000043,585.6564111000043,586.8550236000156,586.8550236000156,586.8550236000156,586.8550236000156,586.8550236000156,586.8550236000156,586.8550236000156,51,48,20,66,20,70,586.8550236000156,588.3723246000009,,,,,,,,,,,,３４８,f,２７,2023-05-21_19h05.23.554,RL,2022.2.5,60.08741517268136,
67,29,53,53,0,89,89,89,,,,,,,,,,,None,588.3723246000009,588.3723246000009,588.3723246000009,588.3723246000009,588.3723246000009,588.3723246000009,j,0.3022765000059735,588.7110825999989,588.7110825999989,588.7110825999989,588.7110825999989,588.7110825999989,588.7110825999989,588.9892075000098,590.9222336000239,590.9387729000009,590.9387729000009,590.9387729000009,590.9387729000009,590.9387729000009,590.9387729000009,590.9387729000009,590.9387729000009,590.9387729000009,590.9387729000009,590.9387729000009,590.9387729000009,590.9387729000009,593.1700779000239,593.1700779000239,593.1700779000239,593.1700779000239,593.1700779000239,593.1700779000239,593.1700779000239,53,53,29,67,67,70,593.1700779000239,594.7545378000068,,,,,,,,,,,,３４８,f,２７,2023-05-21_19h05.23.554,RL,2022.2.5,60.08741517268136,
62,24,49,51,0,90,90,90,,,,,,,,,,,None,594.7545378000068,594.7545378000068,594.7545378000068,594.7545378000068,594.7545378000068,594.7545378000068,j,0.27485620000516064,595.0573628999991,595.0573628999991,595.0573628999991,595.0573628999991,595.0573628999991,595.0573628999991,595.3546560000104,596.5544335000159,596.5544335000159,596.5544335000159,596.5544335000159,596.5544335000159,596.5544335000159,596.5544335000159,596.5544335000159,596.5544335000159,596.5544335000159,596.5544335000159,596.5544335000159,596.5544335000159,596.5544335000159,598.0521913999983,598.0521913999983,598.0521913999983,598.0521913999983,598.0521913999983,598.0521913999983,598.0521913999983,49,51,24,62,62,70,598.0521913999983,600.0540001000045,,,,,,,,,,,,３４８,f,２７,2023-05-21_19h05.23.554,RL,2022.2.5,60.08741517268136,
61,26,46,55,0,91,91,91,,,,,,,,,,,None,600.0540001000045,600.0540001000045,600.0540001000045,600.0540001000045,600.0540001000045,600.0540001000045,r,0.3437440000125207,600.4215755000187,600.4215755000187,600.4215755000187,600.4215755000187,600.4215755000187,600.4215755000187,600.7040789000166,602.0206005000218,602.053555200022,602.053555200022,602.053555200022,602.053555200022,602.053555200022,602.053555200022,602.053555200022,602.053555200022,602.053555200022,602.053555200022,602.053555200022,602.053555200022,602.053555200022,603.6848924000224,603.6848924000224,603.6848924000224,603.6848924000224,603.6848924000224,603.6848924000224,603.6848924000224,46,55,26,61,55,70,603.6848924000224,605.4026232000033,,,,,,,,,,,,３４８,f,２７,2023-05-21_19h05.23.554,RL,2022.2.5,60.08741517268136,
68,26,46,43,0,92,92,92,,,,,,,,,,,None,605.4026232000033,605.4026232000033,605.4026232000033,605.4026232000033,605.4026232000033,605.4026232000033,j,0.2795343000034336,605.7061723000079,605.7061723000079,605.7061723000079,605.7061723000079,605.7061723000079,605.7061723000079,605.9865921000019,607.836188300018,607.852955600014,607.852955600014,607.852955600014,607.852955600014,607.852955600014,607.852955600014,607.852955600014,607.852955600014,607.852955600014,607.852955600014,607.852955600014,607.852955600014,607.852955600014,610.000279800006,610.000279800006,610.000279800006,610.000279800006,610.000279800006,610.000279800006,610.000279800006,46,43,26,68,68,70,610.000279800006,611.6018486000248,,,,,,,,,,,,３４８,f,２７,2023-05-21_19h05.23.554,RL,2022.2.5,60.08741517268136,
63,20,49,59,0,93,93,93,,,,,,,,,,,None,611.6018486000248,611.6018486000248,611.6018486000248,611.6018486000248,611.6018486000248,611.6018486000248,j,0.2624002000084147,611.8853800000215,611.8853800000215,611.8853800000215,611.8853800000215,611.8853800000215,611.8853800000215,612.1852020000224,613.884802000015,613.884802000015,613.884802000015,613.884802000015,613.884802000015,613.884802000015,613.884802000015,613.884802000015,613.884802000015,613.884802000015,613.884802000015,613.884802000015,613.884802000015,613.884802000015,615.8661735000205,615.8661735000205,615.8661735000205,615.8661735000205,615.8661735000205,615.8661735000205,615.8661735000205,49,59,20,63,63,70,615.8661735000205,617.834144500026,,,,,,,,,,,,３４８,f,２７,2023-05-21_19h05.23.554,RL,2022.2.5,60.08741517268136,
57,19,48,50,0,94,94,94,,,,,,,,,,,None,617.834144500026,617.834144500026,617.834144500026,617.834144500026,617.834144500026,617.834144500026,j,0.2805954999930691,618.1343130000168,618.1343130000168,618.1343130000168,618.1343130000168,618.1343130000168,618.1343130000168,618.4339698000113,619.5008904999995,619.5008904999995,619.5008904999995,619.5008904999995,619.5008904999995,619.5008904999995,619.5008904999995,619.5008904999995,619.5008904999995,619.5008904999995,619.5008904999995,619.5008904999995,619.5008904999995,619.5008904999995,620.8651764000242,620.8651764000242,620.8651764000242,620.8651764000242,620.8651764000242,620.8651764000242,620.8651764000242,48,50,19,57,57,70,620.8651764000242,622.4501695000217,,,,,,,,,,,,３４８,f,２７,2023-05-21_19h05.23.554,RL,2022.2.5,60.08741517268136,
57,26,41,53,0,95,95,95,,,,,,,,,,,None,622.4501695000217,622.4501695000217,622.4501695000217,622.4501695000217,622.4501695000217,622.4501695000217,j,0.2593934000178706,622.7335167000128,622.7335167000128,622.7335167000128,622.7335167000128,622.7335167000128,622.7335167000128,623.0333672999986,623.9835382000019,623.9835382000019,623.9835382000019,623.9835382000019,623.9835382000019,623.9835382000019,623.9835382000019,623.9835382000019,623.9835382000019,623.9835382000019,623.9835382000019,623.9835382000019,623.9835382000019,623.9835382000019,625.2315654000267,625.2315654000267,625.2315654000267,625.2315654000267,625.2315654000267,625.2315654000267,625.2315654000267,41,53,26,57,57,70,625.2315654000267,627.0159086000058,,,,,,,,,,,,３４８,f,２７,2023-05-21_19h05.23.554,RL,2022.2.5,60.08741517268136,
55,13,44,49,0,96,96,96,,,,,,,,,,,None,627.0159086000058,627.0159086000058,627.0159086000058,627.0159086000058,627.0159086000058,627.0159086000058,f,0.29486890000407584,627.3326210000087,627.3326210000087,627.3326210000087,627.3326210000087,627.3326210000087,627.3326210000087,627.6161095999996,628.9326665000117,628.9492092000146,628.9492092000146,628.9492092000146,628.9492092000146,628.9492092000146,628.9492092000146,628.9492092000146,628.9492092000146,628.9492092000146,628.9492092000146,628.9492092000146,628.9492092000146,628.9492092000146,630.5636640000157,630.5636640000157,630.5636640000157,630.5636640000157,630.5636640000157,630.5636640000157,630.5636640000157,44,49,13,55,44,70,630.5636640000157,632.4477388000232,,,,,,,,,,,,３４８,f,２７,2023-05-21_19h05.23.554,RL,2022.2.5,60.08741517268136,
50,20,43,56,0,97,97,97,,,,,,,,,,,None,632.4477388000232,632.4477388000232,632.4477388000232,632.4477388000232,632.4477388000232,632.4477388000232,j,0.31700650000129826,632.7817603000149,632.7817603000149,632.7817603000149,632.7817603000149,632.7817603000149,632.7817603000149,633.0645478000224,634.7811274999985,634.8149466000032,634.8149466000032,634.8149466000032,634.8149466000032,634.8149466000032,634.8149466000032,634.8149466000032,634.8149466000032,634.8149466000032,634.8149466000032,634.8149466000032,634.8149466000032,634.8149466000032,636.8456071000255,636.8456071000255,636.8456071000255,636.8456071000255,636.8456071000255,636.8456071000255,636.8456071000255,43,56,20,50,50,70,636.8456071000255,638.7136671000044,,,,,,,,,,,,３４８,f,２７,2023-05-21_19h05.23.554,RL,2022.2.5,60.08741517268136,
57,9,38,55,0,98,98,98,,,,,,,,,,,None,638.7136671000044,638.7136671000044,638.7136671000044,638.7136671000044,638.7136671000044,638.7136671000044,j,0.3351873000210617,639.085029000009,639.085029000009,639.085029000009,639.085029000009,639.085029000009,639.085029000009,639.3639638000168,640.6467890000204,640.6801914000243,640.6801914000243,640.6801914000243,640.6801914000243,640.6801914000243,640.6801914000243,640.6801914000243,640.6801914000243,640.6801914000243,640.6801914000243,640.6801914000243,640.6801914000243,640.6801914000243,642.2619998000155,642.2619998000155,642.2619998000155,642.2619998000155,642.2619998000155,642.2619998000155,642.2619998000155,38,55,9,57,57,70,642.2619998000155,644.1629165000049,,,,,,,,,,,,３４８,f,２７,2023-05-21_19h05.23.554,RL,2022.2.5,60.08741517268136,
63,10,32,51,0,99,99,99,,,,,,,,,,,None,644.1629165000049,644.1629165000049,644.1629165000049,644.1629165000049,644.1629165000049,644.1629165000049,j,0.3239590000011958,644.5158381000219,644.5158381000219,644.5158381000219,644.5158381000219,644.5158381000219,644.5158381000219,644.812788500014,645.979281900014,645.979281900014,645.979281900014,645.979281900014,645.979281900014,645.979281900014,645.979281900014,645.979281900014,645.979281900014,645.979281900014,645.979281900014,645.979281900014,645.979281900014,645.979281900014,647.4444771000126,647.4444771000126,647.4444771000126,647.4444771000126,647.4444771000126,647.4444771000126,647.4444771000126,32,51,10,63,63,70,647.4444771000126,649.0289377000008,,,,,,,,,,,,３４８,f,２７,2023-05-21_19h05.23.554,RL,2022.2.5,60.08741517268136,
62,13,39,53,0,100,100,100,,,,,,,,,,,None,649.0289377000008,649.0289377000008,649.0289377000008,649.0289377000008,649.0289377000008,649.0289377000008,j,0.2796249999955762,649.3297059000179,649.3297059000179,649.3297059000179,649.3297059000179,649.3297059000179,649.3297059000179,649.6290560000052,650.8287994000129,650.8287994000129,650.8287994000129,650.8287994000129,650.8287994000129,650.8287994000129,650.8287994000129,650.8287994000129,650.8287994000129,650.8287994000129,650.8287994000129,650.8287994000129,650.8287994000129,650.8287994000129,652.3268500000122,652.3268500000122,652.3268500000122,652.3268500000122,652.3268500000122,652.3268500000122,652.3268500000122,39,53,13,62,62,70,652.3268500000122,653.894429500011,,,,,,,,,,,,３４８,f,２７,2023-05-21_19h05.23.554,RL,2022.2.5,60.08741517268136,
53,10,38,54,0,101,101,101,,,,,,,,,,,None,653.894429500011,653.894429500011,653.894429500011,653.894429500011,653.894429500011,653.894429500011,j,0.252245599986054,654.1845030000259,654.1845030000259,654.1845030000259,654.1845030000259,654.1845030000259,654.1845030000259,654.4614024000184,656.3279822000186,656.3442719000159,656.3442719000159,656.3442719000159,656.3442719000159,656.3442719000159,656.3442719000159,656.3442719000159,656.3442719000159,656.3442719000159,656.3442719000159,656.3442719000159,656.3442719000159,656.3442719000159,658.5092584000085,658.5092584000085,658.5092584000085,658.5092584000085,658.5092584000085,658.5092584000085,658.5092584000085,38,54,10,53,53,70,658.5092584000085,660.2600864999986,,,,,,,,,,,,３４８,f,２７,2023-05-21_19h05.23.554,RL,2022.2.5,60.08741517268136,
51,12,41,55,0,102,102,102,,,,,,,,,,,None,660.2600864999986,660.2600864999986,660.2600864999986,660.2600864999986,660.2600864999986,660.2600864999986,r,0.26757729999371804,660.5683575000148,660.5683575000148,660.5683575000148,660.5683575000148,660.5683575000148,660.5683575000148,660.8435878000164,662.0765272999997,662.0929080000205,662.0929080000205,662.0929080000205,662.0929080000205,662.0929080000205,662.0929080000205,662.0929080000205,662.0929080000205,662.0929080000205,662.0929080000205,662.0929080000205,662.0929080000205,662.0929080000205,663.6247513999988,663.6247513999988,663.6247513999988,663.6247513999988,663.6247513999988,663.6247513999988,663.6247513999988,41,55,12,51,55,70,663.6247513999988,665.3754720000143,,,,,,,,,,,,３４８,f,２７,2023-05-21_19h05.23.554,RL,2022.2.5,60.08741517268136,
57,12,39,46,0,103,103,103,,,,,,,,,,,None,665.3754720000143,665.3754720000143,665.3754720000143,665.3754720000143,665.3754720000143,665.3754720000143,j,0.27297670001280494,665.6759372000233,665.6759372000233,665.6759372000233,665.6759372000233,665.6759372000233,665.6759372000233,665.9593128999986,666.9923821000266,667.0092000000004,667.0092000000004,667.0092000000004,667.0092000000004,667.0092000000004,667.0092000000004,667.0092000000004,667.0092000000004,667.0092000000004,667.0092000000004,667.0092000000004,667.0092000000004,667.0092000000004,668.3403578000143,668.3403578000143,668.3403578000143,668.3403578000143,668.3403578000143,668.3403578000143,668.3403578000143,39,46,12,57,57,70,668.3403578000143,669.9748527000193,,,,,,,,,,,,３４８,f,２７,2023-05-21_19h05.23.554,RL,2022.2.5,60.08741517268136,
52,29,47,53,0,104,104,104,,,,,,,,,,,None,669.9748527000193,669.9748527000193,669.9748527000193,669.9748527000193,669.9748527000193,669.9748527000193,j,0.023838499997509643,670.0271447999985,670.0271447999985,670.0271447999985,670.0271447999985,670.0271447999985,670.0271447999985,670.3256467000174,671.9749669000157,671.9749669000157,671.9749669000157,671.9749669000157,671.9749669000157,671.9749669000157,671.9749669000157,671.9749669000157,671.9749669000157,671.9749669000157,671.9749669000157,671.9749669000157,671.9749669000157,671.9749669000157,673.9229520000226,673.9229520000226,673.9229520000226,673.9229520000226,673.9229520000226,673.9229520000226,673.9229520000226,47,53,29,52,52,70,673.9229520000226,675.5075768000097,,,,,,,,,,,,３４８,f,２７,2023-05-21_19h05.23.554,RL,2022.2.5,60.08741517268136,
52,14,40,42,0,105,105,105,,,,,,,,,,,None,675.5075768000097,675.5075768000097,675.5075768000097,675.5075768000097,675.5075768000097,675.5075768000097,r,0.29404289997182786,675.8259533000237,675.8259533000237,675.8259533000237,675.8259533000237,675.8259533000237,675.8259533000237,676.1074406000262,677.5738810000184,677.6073828000226,677.6073828000226,677.6073828000226,677.6073828000226,677.6073828000226,677.6073828000226,677.6073828000226,677.6073828000226,677.6073828000226,677.6073828000226,677.6073828000226,677.6073828000226,677.6073828000226,679.3720972000156,679.3720972000156,679.3720972000156,679.3720972000156,679.3720972000156,679.3720972000156,679.3720972000156,40,42,14,52,42,70,679.3720972000156,681.22245630002,,,,,,,,,,,,３４８,f,２７,2023-05-21_19h05.23.554,RL,2022.2.5,60.08741517268136,
55,20,43,36,0,106,106,106,,,,,,,,,,,None,681.22245630002,681.22245630002,681.22245630002,681.22245630002,681.22245630002,681.22245630002,j,0.27995750002446584,681.5241427000146,681.5241427000146,681.5241427000146,681.5241427000146,681.5241427000146,681.5241427000146,681.8232973000268,682.6564262000029,682.6564262000029,682.6564262000029,682.6564262000029,682.6564262000029,682.6564262000029,682.6564262000029,682.6564262000029,682.6564262000029,682.6564262000029,682.6564262000029,682.6564262000029,682.6564262000029,682.6564262000029,683.7881180000259,683.7881180000259,683.7881180000259,683.7881180000259,683.7881180000259,683.7881180000259,683.7881180000259,43,36,20,55,55,70,683.7881180000259,685.3724954000209,,,,,,,,,,,,３４８,f,２７,2023-05-21_19h05.23.554,RL,2022.2.5,60.08741517268136,
52,31,45,43,0,107,107,107,,,,,,,,,,,None,685.3724954000209,685.3724954000209,685.3724954000209,685.3724954000209,685.3724954000209,685.3724954000209,j,0.4233084000006784,685.8226392000215,685.8226392000215,685.8226392000215,685.8226392000215,685.8226392000215,685.8226392000215,686.1224192000227,687.3221390000253,687.3221390000253,687.3221390000253,687.3221390000253,687.3221390000253,687.3221390000253,687.3221390000253,687.3221390000253,687.3221390000253,687.3221390000253,687.3221390000253,687.3221390000253,687.3221390000253,687.3221390000253,688.8203846000251,688.8203846000251,688.8203846000251,688.8203846000251,688.8203846000251,688.8203846000251,688.8203846000251,45,43,31,52,52,70,688.8203846000251,690.7548418000224,,,,,,,,,,,,３４８,f,２７,2023-05-21_19h05.23.554,RL,2022.2.5,60.08741517268136,
41,15,52,44,0,108,108,108,,,,,,,,,,,None,690.7548418000224,690.7548418000224,690.7548418000224,690.7548418000224,690.7548418000224,690.7548418000224,j,0.25197849998949096,691.0409761000192,691.0409761000192,691.0409761000192,691.0409761000192,691.0409761000192,691.0409761000192,691.3216295000166,692.4212427000166,692.4379276000254,692.4379276000254,692.4379276000254,692.4379276000254,692.4379276000254,692.4379276000254,692.4379276000254,692.4379276000254,692.4379276000254,692.4379276000254,692.4379276000254,692.4379276000254,692.4379276000254,693.8361639000068,693.8361639000068,693.8361639000068,693.8361639000068,693.8361639000068,693.8361639000068,693.8361639000068,52,44,15,41,41,70,693.8361639000068,695.5204277000157,,,,,,,,,,,,３４８,f,２７,2023-05-21_19h05.23.554,RL,2022.2.5,60.08741517268136,
46,16,44,32,0,109,109,109,,,,,,,,,,,None,695.5204277000157,695.5204277000157,695.5204277000157,695.5204277000157,695.5204277000157,695.5204277000157,i,0.8295439999783412,696.3712690000248,696.3712690000248,696.3712690000248,696.3712690000248,696.3712690000248,696.3712690000248,696.6544359000109,698.4539180000138,698.4703741999983,698.4703741999983,698.4703741999983,698.4703741999983,698.4703741999983,698.4703741999983,698.4703741999983,698.4703741999983,698.4703741999983,698.4703741999983,698.4703741999983,698.4703741999983,698.4703741999983,700.5684349000221,700.5684349000221,700.5684349000221,700.5684349000221,700.5684349000221,700.5684349000221,700.5684349000221,44,32,16,46,16,70,700.5684349000221,702.502513000014,,,,,,,,,,,,３４８,f,２７,2023-05-21_19h05.23.554,RL,2022.2.5,60.08741517268136,
50,8,49,38,0,110,110,110,,,,,,,,,,,None,702.502513000014,702.502513000014,702.502513000014,702.502513000014,702.502513000014,702.502513000014,j,0.282338900025934,702.8229227000265,702.8229227000265,702.8229227000265,702.8229227000265,702.8229227000265,702.8229227000265,703.1027478000033,704.7857631000225,704.8190645000141,704.8190645000141,704.8190645000141,704.8190645000141,704.8190645000141,704.8190645000141,704.8190645000141,704.8190645000141,704.8190645000141,704.8190645000141,704.8190645000141,704.8190645000141,704.8190645000141,706.8007210000069,706.8007210000069,706.8007210000069,706.8007210000069,706.8007210000069,706.8007210000069,706.8007210000069,49,38,8,50,50,70,706.8007210000069,708.4516560000193,,,,,,,,,,,,３４８,f,２７,2023-05-21_19h05.23.554,RL,2022.2.5,60.08741517268136,
36,23,47,47,0,111,111,111,,,,,,,,,,,None,708.4516560000193,708.4516560000193,708.4516560000193,708.4516560000193,708.4516560000193,708.4516560000193,r,0.2526425000105519,708.7350771000201,708.7350771000201,708.7350771000201,708.7350771000201,708.7350771000201,708.7350771000201,709.0183248000103,710.4684867000033,710.4849003000127,710.4849003000127,710.4849003000127,710.4849003000127,710.4849003000127,710.4849003000127,710.4849003000127,710.4849003000127,710.4849003000127,710.4849003000127,710.4849003000127,710.4849003000127,710.4849003000127,712.2327156000247,712.2327156000247,712.2327156000247,712.2327156000247,712.2327156000247,712.2327156000247,712.2327156000247,47,47,23,36,47,70,712.2327156000247,714.050876400026,,,,,,,,,,,,３４８,f,２７,2023-05-21_19h05.23.554,RL,2022.2.5,60.08741517268136,
42,11,54,34,0,112,112,112,,,,,,,,,,,None,714.050876400026,714.050876400026,714.050876400026,714.050876400026,714.050876400026,714.050876400026,j,0.2747402999957558,714.3516527000174,714.3516527000174,714.3516527000174,714.3516527000174,714.3516527000174,714.3516527000174,714.650738700002,715.8670602000202,715.8670602000202,715.8670602000202,715.8670602000202,715.8670602000202,715.8670602000202,715.8670602000202,715.8670602000202,715.8670602000202,715.8670602000202,715.8670602000202,715.8670602000202,715.8670602000202,715.8670602000202,717.381643700006,717.381643700006,717.381643700006,717.381643700006,717.381643700006,717.381643700006,717.381643700006,54,34,11,42,42,70,717.381643700006,719.3499121000059,,,,,,,,,,,,３４８,f,２７,2023-05-21_19h05.23.554,RL,2022.2.5,60.08741517268136,
35,11,47,45,0,113,113,113,,,,,,,,,,,None,719.3499121000059,719.3499121000059,719.3499121000059,719.3499121000059,719.3499121000059,719.3499121000059,r,0.28957500000251457,719.6699041000102,719.6699041000102,719.6699041000102,719.6699041000102,719.6699041000102,719.6699041000102,719.9499856000184,721.0163591000019,721.0494924000232,721.0494924000232,721.0494924000232,721.0494924000232,721.0494924000232,721.0494924000232,721.0494924000232,721.0494924000232,721.0494924000232,721.0494924000232,721.0494924000232,721.0494924000232,721.0494924000232,722.414431400015,722.414431400015,722.414431400015,722.414431400015,722.414431400015,722.414431400015,722.414431400015,47,45,11,35,45,70,722.414431400015,724.4157287999988,,,,,,,,,,,,３４８,f,２７,2023-05-21_19h05.23.554,RL,2022.2.5,60.08741517268136,
37,26,46,45,0,114,114,114,,,,,,,,,,,None,724.4157287999988,724.4157287999988,724.4157287999988,724.4157287999988,724.4157287999988,724.4157287999988,j,0.27387490001274273,724.715706100018,724.715706100018,724.715706100018,724.715706100018,724.715706100018,724.715706100018,725.0157011999981,726.6317142000189,726.6317142000189,726.6317142000189,726.6317142000189,726.6317142000189,726.6317142000189,726.6317142000189,726.6317142000189,726.6317142000189,726.6317142000189,726.6317142000189,726.6317142000189,726.6317142000189,726.6317142000189,728.5465721000219,728.5465721000219,728.5465721000219,728.5465721000219,728.5465721000219,728.5465721000219,728.5465721000219,46,45,26,37,37,70,728.5465721000219,730.5477261000196,,,,,,,,,,,,３４８,f,２７,2023-05-21_19h05.23.554,RL,2022.2.5,60.08741517268136,
33,15,49,45,0,115,115,115,,,,,,,,,,,None,730.5477261000196,730.5477261000196,730.5477261000196,730.5477261000196,730.5477261000196,730.5477261000196,j,0.31442529999185354,730.8813739000179,730.8813739000179,730.8813739000179,730.8813739000179,730.8813739000179,730.8813739000179,731.1644962000137,733.0143625000201,733.0307565000257,733.0307565000257,733.0307565000257,733.0307565000257,733.0307565000257,733.0307565000257,733.0307565000257,733.0307565000257,733.0307565000257,733.0307565000257,733.0307565000257,733.0307565000257,733.0307565000257,735.1792422000144,735.1792422000144,735.1792422000144,735.1792422000144,735.1792422000144,735.1792422000144,735.1792422000144,49,45,15,33,33,70,735.1792422000144,737.0962386000028,,,,,,,,,,,,３４８,f,２７,2023-05-21_19h05.23.554,RL,2022.2.5,60.08741517268136,
44,18,50,49,0,116,116,116,,,,,,,,,,,None,737.0962386000028,737.0962386000028,737.0962386000028,737.0962386000028,737.0962386000028,737.0962386000028,r,0.36311199999181554,737.4819682000089,737.4819682000089,737.4819682000089,737.4819682000089,737.4819682000089,737.4819682000089,737.7800475000113,739.3966392000148,739.4132172000245,739.4132172000245,739.4132172000245,739.4132172000245,739.4132172000245,739.4132172000245,739.4132172000245,739.4132172000245,739.4132172000245,739.4132172000245,739.4132172000245,739.4132172000245,739.4132172000245,741.3276026000094,741.3276026000094,741.3276026000094,741.3276026000094,741.3276026000094,741.3276026000094,741.3276026000094,50,49,18,44,49,70,741.3276026000094,743.2621223000169,,,,,,,,,,,,３４８,f,２７,2023-05-21_19h05.23.554,RL,2022.2.5,60.08741517268136,
45,18,49,47,0,117,117,117,,,,,,,,,,,None,743.2621223000169,743.2621223000169,743.2621223000169,743.2621223000169,743.2621223000169,743.2621223000169,r,1.1100246999994852,744.3957087000017,744.3957087000017,744.3957087000017,744.3957087000017,744.3957087000017,744.3957087000017,744.695486200013,746.4284779000154,746.4284779000154,746.4284779000154,746.4284779000154,746.4284779000154,746.4284779000154,746.4284779000154,746.4284779000154,746.4284779000154,746.4284779000154,746.4284779000154,746.4284779000154,746.4284779000154,746.4284779000154,748.4597199000127,748.4597199000127,748.4597199000127,748.4597199000127,748.4597199000127,748.4597199000127,748.4597199000127,49,47,18,45,47,70,748.4597199000127,750.2276495000115,,,,,,,,,,,,３４８,f,２７,2023-05-21_19h05.23.554,RL,2022.2.5,60.08741517268136,
52,23,61,49,0,118,118,118,,,,,,,,,,,None,750.2276495000115,750.2276495000115,750.2276495000115,750.2276495000115,750.2276495000115,750.2276495000115,f,0.3148417999909725,750.5617891000002,750.5617891000002,750.5617891000002,750.5617891000002,750.5617891000002,750.5617891000002,750.8614587000047,752.627231600025,752.627231600025,752.627231600025,752.627231600025,752.627231600025,752.627231600025,752.627231600025,752.627231600025,752.627231600025,752.627231600025,752.627231600025,752.627231600025,752.627231600025,752.627231600025,754.6921615000174,754.6921615000174,754.6921615000174,754.6921615000174,754.6921615000174,754.6921615000174,754.6921615000174,61,49,23,52,61,70,754.6921615000174,756.3602942000143,,,,,,,,,,,,３４８,f,２７,2023-05-21_19h05.23.554,RL,2022.2.5,60.08741517268136,
45,20,58,47,0,119,119,119,,,,,,,,,,,None,756.3602942000143,756.3602942000143,756.3602942000143,756.3602942000143,756.3602942000143,756.3602942000143,f,0.27166649998980574,756.6624973000144,756.6624973000144,756.6624973000144,756.6624973000144,756.6624973000144,756.6624973000144,756.9601965000038,758.5932259000256,758.5932259000256,758.5932259000256,758.5932259000256,758.5932259000256,758.5932259000256,758.5932259000256,758.5932259000256,758.5932259000256,758.5932259000256,758.5932259000256,758.5932259000256,758.5932259000256,758.5932259000256,760.5244295000157,760.5244295000157,760.5244295000157,760.5244295000157,760.5244295000157,760.5244295000157,760.5244295000157,58,47,20,45,58,70,760.5244295000157,762.5083684000128,,,,,,,,,,,,３４８,f,２７,2023-05-21_19h05.23.554,RL,2022.2.5,60.08741517268136,
39,14,61,42,0,120,120,120,,,,,,,,,,,None,762.5083684000128,762.5083684000128,762.5083684000128,762.5083684000128,762.5083684000128,762.5083684000128,f,0.27082800000789575,762.8101876000001,762.8101876000001,762.8101876000001,762.8101876000001,762.8101876000001,762.8101876000001,763.1089735999994,764.5585130000254,764.5585130000254,764.5585130000254,764.5585130000254,764.5585130000254,764.5585130000254,764.5585130000254,764.5585130000254,764.5585130000254,764.5585130000254,764.5585130000254,764.5585130000254,764.5585130000254,764.5585130000254,766.3064520000189,766.3064520000189,766.3064520000189,766.3064520000189,766.3064520000189,766.3064520000189,766.3064520000189,61,42,14,39,61,70,766.3064520000189,768.1746500000008,,,,,,,,,,,,３４８,f,２７,2023-05-21_19h05.23.554,RL,2022.2.5,60.08741517268136,
