arm1,arm2,arm3,arm4,trials.thisRepN,trials.thisTrialN,trials.thisN,trials.thisIndex,instru_img1.started,instru_resp.started,instru_resp.keys,instru_resp.rt,image_2.started,text_2.started,fixbefore_2.started,rest_response.keys,red.started,green.started,yellow.started,blue.started,choose_bandit.started,Fixation.started,choose_bandit.keys,choose_bandit.rt,black.started,red_2.started,green_2.started,yellow_2.started,blue_2.started,fixation_2.started,docs.started,docs.stopped,black.stopped,red_2.stopped,green_2.stopped,yellow_2.stopped,blue_2.stopped,fixation_2.stopped,black_com.started,reward_sub.started,reward__sub.started,red_compare.started,green_com.started,yellow_com.started,blue_com.started,black_com.stopped,reward_sub.stopped,reward__sub.stopped,red_compare.stopped,green_com.stopped,yellow_com.stopped,blue_com.stopped,rewardred,rewardyellow,rewardblue,rewardgreen,subchoose,expectation,intertrialfix.started,intertrialfix.stopped,rest_image.started,rest_response.started,rest_response.rt,image_expect_after.started,text_exp_after.started,image_expect_after.stopped,text_exp_after.stopped,image.started,key_resp.started,key_resp.keys,key_resp.rt,participant,Gender,Age,date,expName,psychopyVersion,frameRate,
,,,,,,,,13.178589800023474,13.178589800023474,space,24.49198369999067,,,,,,,,,,,,,,,,,,,,,,,,,,,,,,,,,,,,,,,,,,,,,,,,,,,,,,,,,,,,３４９,f,1９,2023-05-21_19h35.21.296,RL,2022.2.5,60.83687200602039,
38,42,70,60,0,0,0,0,,,,,37.69407310002134,37.69407310002134,42.694384700007504,None,43.7023064000241,43.7023064000241,43.7023064000241,43.7023064000241,43.7023064000241,43.7023064000241,f,0.2938014999963343,44.040477700007614,44.040477700007614,44.040477700007614,44.040477700007614,44.040477700007614,44.040477700007614,44.31132750000688,45.81122930001584,45.847978200006764,45.847978200006764,45.847978200006764,45.847978200006764,45.847978200006764,45.847978200006764,45.847978200006764,45.847978200006764,45.847978200006764,45.847978200006764,45.847978200006764,45.847978200006764,45.847978200006764,47.708023900020635,47.708023900020635,47.708023900020635,47.708023900020635,47.708023900020635,47.708023900020635,47.708023900020635,38,60,70,42,38,60,47.708023900020635,49.39323560000048,,,,,,,,,,,,３４９,f,1９,2023-05-21_19h35.21.296,RL,2022.2.5,60.83687200602039,
34,36,63,60,0,1,1,1,,,,,,,,None,49.39323560000048,49.39323560000048,49.39323560000048,49.39323560000048,49.39323560000048,49.39323560000048,i,0.3353214999951888,49.76826150002307,49.76826150002307,49.76826150002307,49.76826150002307,49.76826150002307,49.76826150002307,50.060115700005554,51.39265790002537,51.41390020001563,51.41390020001563,51.41390020001563,51.41390020001563,51.41390020001563,51.41390020001563,51.41390020001563,51.41390020001563,51.41390020001563,51.41390020001563,51.41390020001563,51.41390020001563,51.41390020001563,53.042812600004254,53.042812600004254,53.042812600004254,53.042812600004254,53.042812600004254,53.042812600004254,53.042812600004254,34,60,63,36,63,60,53.042812600004254,54.65956390000065,,,,,,,,,,,,３４９,f,1９,2023-05-21_19h35.21.296,RL,2022.2.5,60.83687200602039,
42,40,66,56,0,2,2,2,,,,,,,,None,54.65956390000065,54.65956390000065,54.65956390000065,54.65956390000065,54.65956390000065,54.65956390000065,i,0.3279735000105575,55.01458340001409,55.01458340001409,55.01458340001409,55.01458340001409,55.01458340001409,55.01458340001409,55.30952249999973,57.21217420001631,57.21217420001631,57.21217420001631,57.21217420001631,57.21217420001631,57.21217420001631,57.21217420001631,57.21217420001631,57.21217420001631,57.21217420001631,57.21217420001631,57.21217420001631,57.21217420001631,57.21217420001631,59.40785390001838,59.40785390001838,59.40785390001838,59.40785390001838,59.40785390001838,59.40785390001838,59.40785390001838,42,56,66,40,66,60,59.40785390001838,61.05749890001607,,,,,,,,,,,,３４９,f,1９,2023-05-21_19h35.21.296,RL,2022.2.5,60.83687200602039,
38,44,71,57,0,3,3,3,,,,,,,,None,61.05749890001607,61.05749890001607,61.05749890001607,61.05749890001607,61.05749890001607,61.05749890001607,i,0.35146909998729825,61.44158470002003,61.44158470002003,61.44158470002003,61.44158470002003,61.44158470002003,61.44158470002003,61.739234000007855,62.7228146000125,62.7228146000125,62.7228146000125,62.7228146000125,62.7228146000125,62.7228146000125,62.7228146000125,62.7228146000125,62.7228146000125,62.7228146000125,62.7228146000125,62.7228146000125,62.7228146000125,62.7228146000125,64.00777440000093,64.00777440000093,64.00777440000093,64.00777440000093,64.00777440000093,64.00777440000093,64.00777440000093,38,57,71,44,71,60,64.00777440000093,65.52283150001313,,,,,,,,,,,,３４９,f,1９,2023-05-21_19h35.21.296,RL,2022.2.5,60.83687200602039,
42,51,69,57,0,4,4,4,,,,,,,,None,65.52283150001313,65.52283150001313,65.52283150001313,65.52283150001313,65.52283150001313,65.52283150001313,i,0.3031247000035364,65.86511990000145,65.86511990000145,65.86511990000145,65.86511990000145,65.86511990000145,65.86511990000145,66.14060330000939,67.7897233000258,67.83692339999834,67.83692339999834,67.83692339999834,67.83692339999834,67.83692339999834,67.83692339999834,67.83692339999834,67.83692339999834,67.83692339999834,67.83692339999834,67.83692339999834,67.83692339999834,67.83692339999834,69.78999040002236,69.78999040002236,69.78999040002236,69.78999040002236,69.78999040002236,69.78999040002236,69.78999040002236,42,57,69,51,69,60,69.78999040002236,71.62250389999826,,,,,,,,,,,,３４９,f,1９,2023-05-21_19h35.21.296,RL,2022.2.5,60.83687200602039,
33,38,82,57,0,5,5,5,,,,,,,,None,71.62250389999826,71.62250389999826,71.62250389999826,71.62250389999826,71.62250389999826,71.62250389999826,f,0.4056126000068616,72.0603531000088,72.0603531000088,72.0603531000088,72.0603531000088,72.0603531000088,72.0603531000088,72.34005580001394,73.30624170001829,73.32460079999873,73.32460079999873,73.32460079999873,73.32460079999873,73.32460079999873,73.32460079999873,73.32460079999873,73.32460079999873,73.32460079999873,73.32460079999873,73.32460079999873,73.32460079999873,73.32460079999873,74.58850430001621,74.58850430001621,74.58850430001621,74.58850430001621,74.58850430001621,74.58850430001621,74.58850430001621,33,57,82,38,33,60,74.58850430001621,76.40504420001525,,,,,,,,,,,,３４９,f,1９,2023-05-21_19h35.21.296,RL,2022.2.5,60.83687200602039,
40,43,80,58,0,6,6,6,,,,,,,,None,76.40504420001525,76.40504420001525,76.40504420001525,76.40504420001525,76.40504420001525,76.40504420001525,i,0.6015322000021115,77.05442590001621,77.05442590001621,77.05442590001621,77.05442590001621,77.05442590001621,77.05442590001621,77.3380795000121,78.20527390000643,78.2360689000052,78.2360689000052,78.2360689000052,78.2360689000052,78.2360689000052,78.2360689000052,78.2360689000052,78.2360689000052,78.2360689000052,78.2360689000052,78.2360689000052,78.2360689000052,78.2360689000052,79.40483169999789,79.40483169999789,79.40483169999789,79.40483169999789,79.40483169999789,79.40483169999789,79.40483169999789,40,58,80,43,80,60,79.40483169999789,81.05389810001361,,,,,,,,,,,,３４９,f,1９,2023-05-21_19h35.21.296,RL,2022.2.5,60.83687200602039,
31,34,74,54,0,7,7,7,,,,,,,,None,81.05389810001361,81.05389810001361,81.05389810001361,81.05389810001361,81.05389810001361,81.05389810001361,i,0.38482820001081564,81.47613799999817,81.47613799999817,81.47613799999817,81.47613799999817,81.47613799999817,81.47613799999817,81.7540796000103,83.1542428000248,83.17526920000091,83.17526920000091,83.17526920000091,83.17526920000091,83.17526920000091,83.17526920000091,83.17526920000091,83.17526920000091,83.17526920000091,83.17526920000091,83.17526920000091,83.17526920000091,83.17526920000091,84.87038550002035,84.87038550002035,84.87038550002035,84.87038550002035,84.87038550002035,84.87038550002035,84.87038550002035,31,54,74,34,74,60,84.87038550002035,86.41983720002463,,,,,,,,,,,,３４９,f,1９,2023-05-21_19h35.21.296,RL,2022.2.5,60.83687200602039,
49,44,80,60,0,8,8,8,,,,,,,,None,86.41983720002463,86.41983720002463,86.41983720002463,86.41983720002463,86.41983720002463,86.41983720002463,j,0.40338629999314435,86.85922559999744,86.85922559999744,86.85922559999744,86.85922559999744,86.85922559999744,86.85922559999744,87.15226830000756,88.00585880002473,88.00585880002473,88.00585880002473,88.00585880002473,88.00585880002473,88.00585880002473,88.00585880002473,88.00585880002473,88.00585880002473,88.00585880002473,88.00585880002473,88.00585880002473,88.00585880002473,88.00585880002473,89.15349080000306,89.15349080000306,89.15349080000306,89.15349080000306,89.15349080000306,89.15349080000306,89.15349080000306,49,60,80,44,44,60,89.15349080000306,90.93616270000348,,,,,,,,,,,,３４９,f,1９,2023-05-21_19h35.21.296,RL,2022.2.5,60.83687200602039,
44,44,80,63,0,9,9,9,,,,,,,,None,90.93616270000348,90.93616270000348,90.93616270000348,90.93616270000348,90.93616270000348,90.93616270000348,i,0.30498400001670234,91.27154710001196,91.27154710001196,91.27154710001196,91.27154710001196,91.27154710001196,91.27154710001196,91.5692217000178,93.43668510002317,93.43668510002317,93.43668510002317,93.43668510002317,93.43668510002317,93.43668510002317,93.43668510002317,93.43668510002317,93.43668510002317,93.43668510002317,93.43668510002317,93.43668510002317,93.43668510002317,93.43668510002317,95.60169900002074,95.60169900002074,95.60169900002074,95.60169900002074,95.60169900002074,95.60169900002074,95.60169900002074,44,63,80,44,80,60,95.60169900002074,97.31803039999795,,,,,,,,,,,,３４９,f,1９,2023-05-21_19h35.21.296,RL,2022.2.5,60.83687200602039,
45,44,76,67,0,10,10,10,,,,,,,,None,97.31803039999795,97.31803039999795,97.31803039999795,97.31803039999795,97.31803039999795,97.31803039999795,i,0.24207559999194928,97.59816400002455,97.59816400002455,97.59816400002455,97.59816400002455,97.59816400002455,97.59816400002455,97.8845232000167,99.76773630001117,99.78499680000823,99.78499680000823,99.78499680000823,99.78499680000823,99.78499680000823,99.78499680000823,99.78499680000823,99.78499680000823,99.78499680000823,99.78499680000823,99.78499680000823,99.78499680000823,99.78499680000823,101.96745290001854,101.96745290001854,101.96745290001854,101.96745290001854,101.96745290001854,101.96745290001854,101.96745290001854,45,67,76,44,76,60,101.96745290001854,103.5342137000116,,,,,,,,,,,,３４９,f,1９,2023-05-21_19h35.21.296,RL,2022.2.5,60.83687200602039,
51,40,76,62,0,11,11,11,,,,,,,,None,103.5342137000116,103.5342137000116,103.5342137000116,103.5342137000116,103.5342137000116,103.5342137000116,i,0.3408527999999933,103.91404370000237,103.91404370000237,103.91404370000237,103.91404370000237,103.91404370000237,103.91404370000237,104.20049909999943,105.06658160002553,105.08399080001982,105.08399080001982,105.08399080001982,105.08399080001982,105.08399080001982,105.08399080001982,105.08399080001982,105.08399080001982,105.08399080001982,105.08399080001982,105.08399080001982,105.08399080001982,105.08399080001982,106.25001660000999,106.25001660000999,106.25001660000999,106.25001660000999,106.25001660000999,106.25001660000999,106.25001660000999,51,62,76,40,76,60,106.25001660000999,108.09964770000079,,,,,,,,,,,,３４９,f,1９,2023-05-21_19h35.21.296,RL,2022.2.5,60.83687200602039,
51,60,83,67,0,12,12,12,,,,,,,,None,108.09964770000079,108.09964770000079,108.09964770000079,108.09964770000079,108.09964770000079,108.09964770000079,r,0.22104519998538308,108.35346680000657,108.35346680000657,108.35346680000657,108.35346680000657,108.35346680000657,108.35346680000657,108.64892050001072,110.31489170002169,110.31489170002169,110.31489170002169,110.31489170002169,110.31489170002169,110.31489170002169,110.31489170002169,110.31489170002169,110.31489170002169,110.31489170002169,110.31489170002169,110.31489170002169,110.31489170002169,110.31489170002169,112.28296229999978,112.28296229999978,112.28296229999978,112.28296229999978,112.28296229999978,112.28296229999978,112.28296229999978,51,67,83,60,67,60,112.28296229999978,114.18166370000108,,,,,,,,,,,,３４９,f,1９,2023-05-21_19h35.21.296,RL,2022.2.5,60.83687200602039,
44,62,73,63,0,13,13,13,,,,,,,,None,114.18166370000108,114.18166370000108,114.18166370000108,114.18166370000108,114.18166370000108,114.18166370000108,i,0.27979870000854135,114.48672300000908,114.48672300000908,114.48672300000908,114.48672300000908,114.48672300000908,114.48672300000908,114.78135880001355,115.94903240000713,115.94903240000713,115.94903240000713,115.94903240000713,115.94903240000713,115.94903240000713,115.94903240000713,115.94903240000713,115.94903240000713,115.94903240000713,115.94903240000713,115.94903240000713,115.94903240000713,115.94903240000713,117.41547730000457,117.41547730000457,117.41547730000457,117.41547730000457,117.41547730000457,117.41547730000457,117.41547730000457,44,63,73,62,73,60,117.41547730000457,119.04642080000485,,,,,,,,,,,,３４９,f,1９,2023-05-21_19h35.21.296,RL,2022.2.5,60.83687200602039,
43,48,75,50,0,14,14,14,,,,,,,,None,119.04642080000485,119.04642080000485,119.04642080000485,119.04642080000485,119.04642080000485,119.04642080000485,i,0.290444899990689,119.3694961000001,119.3694961000001,119.3694961000001,119.3694961000001,119.3694961000001,119.3694961000001,119.66403980000177,120.84496350001427,120.84496350001427,120.84496350001427,120.84496350001427,120.84496350001427,120.84496350001427,120.84496350001427,120.84496350001427,120.84496350001427,120.84496350001427,120.84496350001427,120.84496350001427,120.84496350001427,120.84496350001427,122.31399419999798,122.31399419999798,122.31399419999798,122.31399419999798,122.31399419999798,122.31399419999798,122.31399419999798,43,50,75,48,75,60,122.31399419999798,123.94601710001007,,,,,,,,,,,,３４９,f,1９,2023-05-21_19h35.21.296,RL,2022.2.5,60.83687200602039,
59,66,69,61,0,15,15,15,,,,,,,,None,123.94601710001007,123.94601710001007,123.94601710001007,123.94601710001007,123.94601710001007,123.94601710001007,i,0.21968730000662617,124.20296260001487,124.20296260001487,124.20296260001487,124.20296260001487,124.20296260001487,124.20296260001487,124.49675200000638,126.3961193000141,126.3961193000141,126.3961193000141,126.3961193000141,126.3961193000141,126.3961193000141,126.3961193000141,126.3961193000141,126.3961193000141,126.3961193000141,126.3961193000141,126.3961193000141,126.3961193000141,126.3961193000141,128.57961780001642,128.57961780001642,128.57961780001642,128.57961780001642,128.57961780001642,128.57961780001642,128.57961780001642,59,61,69,66,69,60,128.57961780001642,130.1119237000239,,,,,,,,,,,,３４９,f,1９,2023-05-21_19h35.21.296,RL,2022.2.5,60.83687200602039,
52,63,54,54,0,16,16,16,,,,,,,,None,130.1119237000239,130.1119237000239,130.1119237000239,130.1119237000239,130.1119237000239,130.1119237000239,r,0.2476911999983713,130.39263600000413,130.39263600000413,130.39263600000413,130.39263600000413,130.39263600000413,130.39263600000413,130.66264920000685,132.51233360002516,132.54582700002356,132.54582700002356,132.54582700002356,132.54582700002356,132.54582700002356,132.54582700002356,132.54582700002356,132.54582700002356,132.54582700002356,132.54582700002356,132.54582700002356,132.54582700002356,132.54582700002356,134.69539850001456,134.69539850001456,134.69539850001456,134.69539850001456,134.69539850001456,134.69539850001456,134.69539850001456,52,54,54,63,54,60,134.69539850001456,136.477849900024,,,,,,,,,,,,３４９,f,1９,2023-05-21_19h35.21.296,RL,2022.2.5,60.83687200602039,
54,61,52,53,0,17,17,17,,,,,,,,None,136.477849900024,136.477849900024,136.477849900024,136.477849900024,136.477849900024,136.477849900024,i,0.2892250000149943,136.80012970001553,136.80012970001553,136.80012970001553,136.80012970001553,136.80012970001553,136.80012970001553,137.09490980001283,138.0440068000171,138.0440068000171,138.0440068000171,138.0440068000171,138.0440068000171,138.0440068000171,138.0440068000171,138.0440068000171,138.0440068000171,138.0440068000171,138.0440068000171,138.0440068000171,138.0440068000171,138.0440068000171,139.2941361000121,139.2941361000121,139.2941361000121,139.2941361000121,139.2941361000121,139.2941361000121,139.2941361000121,54,53,52,61,52,60,139.2941361000121,140.92629680002574,,,,,,,,,,,,３４９,f,1９,2023-05-21_19h35.21.296,RL,2022.2.5,60.83687200602039,
54,68,58,58,0,18,18,18,,,,,,,,None,140.92629680002574,140.92629680002574,140.92629680002574,140.92629680002574,140.92629680002574,140.92629680002574,f,0.3793344000005163,141.34023070000694,141.34023070000694,141.34023070000694,141.34023070000694,141.34023070000694,141.34023070000694,141.627799400012,143.0608700000157,143.0808750000142,143.0808750000142,143.0808750000142,143.0808750000142,143.0808750000142,143.0808750000142,143.0808750000142,143.0808750000142,143.0808750000142,143.0808750000142,143.0808750000142,143.0808750000142,143.0808750000142,144.81049350000103,144.81049350000103,144.81049350000103,144.81049350000103,144.81049350000103,144.81049350000103,144.81049350000103,54,58,58,68,54,60,144.81049350000103,146.5766500000027,,,,,,,,,,,,３４９,f,1９,2023-05-21_19h35.21.296,RL,2022.2.5,60.83687200602039,
57,63,62,55,0,19,19,19,,,,,,,,None,146.5766500000027,146.5766500000027,146.5766500000027,146.5766500000027,146.5766500000027,146.5766500000027,j,0.4244726999895647,147.02993010001956,147.02993010001956,147.02993010001956,147.02993010001956,147.02993010001956,147.02993010001956,147.30947360000573,149.1918166000105,149.22774010000285,149.22774010000285,149.22774010000285,149.22774010000285,149.22774010000285,149.22774010000285,149.22774010000285,149.22774010000285,149.22774010000285,149.22774010000285,149.22774010000285,149.22774010000285,149.22774010000285,151.40873400002602,151.40873400002602,151.40873400002602,151.40873400002602,151.40873400002602,151.40873400002602,151.40873400002602,57,55,62,63,63,60,151.40873400002602,153.2912852000154,,,,,,,,,,,,３４９,f,1９,2023-05-21_19h35.21.296,RL,2022.2.5,60.83687200602039,
66,64,67,52,0,20,20,20,,,,,,,,None,153.2912852000154,153.2912852000154,153.2912852000154,153.2912852000154,153.2912852000154,153.2912852000154,j,0.30403249998926185,153.63265500002308,153.63265500002308,153.63265500002308,153.63265500002308,153.63265500002308,153.63265500002308,153.92498040001374,155.12521050000214,155.14436370000476,155.14436370000476,155.14436370000476,155.14436370000476,155.14436370000476,155.14436370000476,155.14436370000476,155.14436370000476,155.14436370000476,155.14436370000476,155.14436370000476,155.14436370000476,155.14436370000476,156.65830100001767,156.65830100001767,156.65830100001767,156.65830100001767,156.65830100001767,156.65830100001767,156.65830100001767,66,52,67,64,64,60,156.65830100001767,158.54069010002422,,,,,,,,,,,,３４９,f,1９,2023-05-21_19h35.21.296,RL,2022.2.5,60.83687200602039,
60,59,61,48,0,21,21,21,,,,,,,,None,158.54069010002422,158.54069010002422,158.54069010002422,158.54069010002422,158.54069010002422,158.54069010002422,j,0.3516900000104215,158.937156400003,158.937156400003,158.937156400003,158.937156400003,158.937156400003,158.937156400003,159.2082359000051,161.1745665000053,161.21228040001006,161.21228040001006,161.21228040001006,161.21228040001006,161.21228040001006,161.21228040001006,161.21228040001006,161.21228040001006,161.21228040001006,161.21228040001006,161.21228040001006,161.21228040001006,161.21228040001006,163.48994320002384,163.48994320002384,163.48994320002384,163.48994320002384,163.48994320002384,163.48994320002384,163.48994320002384,60,48,61,59,59,60,163.48994320002384,165.18951890000608,,,,,,,,,,,,３４９,f,1９,2023-05-21_19h35.21.296,RL,2022.2.5,60.83687200602039,
61,51,67,49,0,22,22,22,,,,,,,,None,165.18951890000608,165.18951890000608,165.18951890000608,165.18951890000608,165.18951890000608,165.18951890000608,i,0.3604563999979291,165.58646849999786,165.58646849999786,165.58646849999786,165.58646849999786,165.58646849999786,165.58646849999786,165.87203690002207,167.47316839999985,167.49325030000182,167.49325030000182,167.49325030000182,167.49325030000182,167.49325030000182,167.49325030000182,167.49325030000182,167.49325030000182,167.49325030000182,167.49325030000182,167.49325030000182,167.49325030000182,167.49325030000182,169.4048821000033,169.4048821000033,169.4048821000033,169.4048821000033,169.4048821000033,169.4048821000033,169.4048821000033,61,49,67,51,67,60,169.4048821000033,170.97145750001073,,,,,,,,,,,,３４９,f,1９,2023-05-21_19h35.21.296,RL,2022.2.5,60.83687200602039,
67,46,67,51,0,23,23,23,,,,,,,,None,170.97145750001073,170.97145750001073,170.97145750001073,170.97145750001073,170.97145750001073,170.97145750001073,f,0.5930985000159126,171.6017472000094,171.6017472000094,171.6017472000094,171.6017472000094,171.6017472000094,171.6017472000094,171.88775510000414,172.92230600002222,172.941504300019,172.941504300019,172.941504300019,172.941504300019,172.941504300019,172.941504300019,172.941504300019,172.941504300019,172.941504300019,172.941504300019,172.941504300019,172.941504300019,172.941504300019,174.27035289999912,174.27035289999912,174.27035289999912,174.27035289999912,174.27035289999912,174.27035289999912,174.27035289999912,67,51,67,46,67,60,174.27035289999912,175.8210196,,,,,,,,,,,,３４９,f,1９,2023-05-21_19h35.21.296,RL,2022.2.5,60.83687200602039,
60,60,66,52,0,24,24,24,,,,,,,,None,175.8210196,175.8210196,175.8210196,175.8210196,175.8210196,175.8210196,i,0.33786669999244623,176.19249200000195,176.19249200000195,176.19249200000195,176.19249200000195,176.19249200000195,176.19249200000195,176.48818520002533,177.60688110001502,177.60688110001502,177.60688110001502,177.60688110001502,177.60688110001502,177.60688110001502,177.60688110001502,177.60688110001502,177.60688110001502,177.60688110001502,177.60688110001502,177.60688110001502,177.60688110001502,177.60688110001502,179.02188860002207,179.02188860002207,179.02188860002207,179.02188860002207,179.02188860002207,179.02188860002207,179.02188860002207,60,52,66,60,66,60,179.02188860002207,180.93710900002043,,,,,,,,,,,,３４９,f,1９,2023-05-21_19h35.21.296,RL,2022.2.5,60.83687200602039,
64,56,63,51,0,25,25,25,,,,,,,,None,180.93710900002043,180.93710900002043,180.93710900002043,180.93710900002043,180.93710900002043,180.93710900002043,f,0.43761009999434464,181.41658450002433,181.41658450002433,181.41658450002433,181.41658450002433,181.41658450002433,181.41658450002433,181.70336160002626,183.20404000001145,183.22268820001045,183.22268820001045,183.22268820001045,183.22268820001045,183.22268820001045,183.22268820001045,183.22268820001045,183.22268820001045,183.22268820001045,183.22268820001045,183.22268820001045,183.22268820001045,183.22268820001045,185.0196533999988,185.0196533999988,185.0196533999988,185.0196533999988,185.0196533999988,185.0196533999988,185.0196533999988,64,51,63,56,64,60,185.0196533999988,186.9865920000011,,,,,,,,,,,,３４９,f,1９,2023-05-21_19h35.21.296,RL,2022.2.5,60.83687200602039,
61,58,60,55,0,26,26,26,,,,,,,,None,186.9865920000011,186.9865920000011,186.9865920000011,186.9865920000011,186.9865920000011,186.9865920000011,i,0.38066779999644496,187.3900610000128,187.3900610000128,187.3900610000128,187.3900610000128,187.3900610000128,187.3900610000128,187.66949960001511,189.38612100001774,189.40463230002206,189.40463230002206,189.40463230002206,189.40463230002206,189.40463230002206,189.40463230002206,189.40463230002206,189.40463230002206,189.40463230002206,189.40463230002206,189.40463230002206,189.40463230002206,189.40463230002206,191.418247900001,191.418247900001,191.418247900001,191.418247900001,191.418247900001,191.418247900001,191.418247900001,61,55,60,58,60,60,191.418247900001,193.13447930000257,,,,,,,,,,,,３４９,f,1９,2023-05-21_19h35.21.296,RL,2022.2.5,60.83687200602039,
69,55,61,54,0,27,27,27,,,,,,,,None,193.13447930000257,193.13447930000257,193.13447930000257,193.13447930000257,193.13447930000257,193.13447930000257,f,0.4980552999768406,193.66452130000107,193.66452130000107,193.66452130000107,193.66452130000107,193.66452130000107,193.66452130000107,193.93400000000838,195.50179510001908,195.53439909999724,195.53439909999724,195.53439909999724,195.53439909999724,195.53439909999724,195.53439909999724,195.53439909999724,195.53439909999724,195.53439909999724,195.53439909999724,195.53439909999724,195.53439909999724,195.53439909999724,197.40097090002382,197.40097090002382,197.40097090002382,197.40097090002382,197.40097090002382,197.40097090002382,197.40097090002382,69,54,61,55,69,60,197.40097090002382,199.05080470000394,,,,,,,,,,,,３４９,f,1９,2023-05-21_19h35.21.296,RL,2022.2.5,60.83687200602039,
66,61,58,52,0,28,28,28,,,,,,,,None,199.05080470000394,199.05080470000394,199.05080470000394,199.05080470000394,199.05080470000394,199.05080470000394,f,0.3985761999792885,199.47142430001986,199.47142430001986,199.47142430001986,199.47142430001986,199.47142430001986,199.47142430001986,199.75077380001312,200.8340284000151,200.85335050002323,200.85335050002323,200.85335050002323,200.85335050002323,200.85335050002323,200.85335050002323,200.85335050002323,200.85335050002323,200.85335050002323,200.85335050002323,200.85335050002323,200.85335050002323,200.85335050002323,202.23374230001355,202.23374230001355,202.23374230001355,202.23374230001355,202.23374230001355,202.23374230001355,202.23374230001355,66,52,58,61,66,60,202.23374230001355,204.2161237000255,,,,,,,,,,,,３４９,f,1９,2023-05-21_19h35.21.296,RL,2022.2.5,60.83687200602039,
63,52,58,52,0,29,29,29,,,,,,,,None,204.2161237000255,204.2161237000255,204.2161237000255,204.2161237000255,204.2161237000255,204.2161237000255,f,0.43416249999427237,204.68917040000088,204.68917040000088,204.68917040000088,204.68917040000088,204.68917040000088,204.68917040000088,204.96649220000836,206.88095810002415,206.9165791000123,206.9165791000123,206.9165791000123,206.9165791000123,206.9165791000123,206.9165791000123,206.9165791000123,206.9165791000123,206.9165791000123,206.9165791000123,206.9165791000123,206.9165791000123,206.9165791000123,209.1316019000078,209.1316019000078,209.1316019000078,209.1316019000078,209.1316019000078,209.1316019000078,209.1316019000078,63,52,58,52,63,60,209.1316019000078,210.98168960001203,,,,,,,,,,,,３４９,f,1９,2023-05-21_19h35.21.296,RL,2022.2.5,60.83687200602039,
61,54,53,51,0,30,30,30,,,,,,,,None,210.98168960001203,210.98168960001203,210.98168960001203,210.98168960001203,210.98168960001203,210.98168960001203,f,0.37290620000567287,211.385443200008,211.385443200008,211.385443200008,211.385443200008,211.385443200008,211.385443200008,211.68060020002304,212.68454100002418,212.68454100002418,212.68454100002418,212.68454100002418,212.68454100002418,212.68454100002418,212.68454100002418,212.68454100002418,212.68454100002418,212.68454100002418,212.68454100002418,212.68454100002418,212.68454100002418,212.68454100002418,213.98048680002103,213.98048680002103,213.98048680002103,213.98048680002103,213.98048680002103,213.98048680002103,213.98048680002103,61,51,53,54,61,60,213.98048680002103,215.9808056000038,,,,,,,,,,,,３４９,f,1９,2023-05-21_19h35.21.296,RL,2022.2.5,60.83687200602039,
63,50,56,56,0,31,31,31,,,,,,,,None,215.9808056000038,215.9808056000038,215.9808056000038,215.9808056000038,215.9808056000038,215.9808056000038,i,0.2288752000022214,216.2450775000034,216.2450775000034,216.2450775000034,216.2450775000034,216.2450775000034,216.2450775000034,216.51467309999862,218.28016510000452,218.31696760002524,218.31696760002524,218.31696760002524,218.31696760002524,218.31696760002524,218.31696760002524,218.31696760002524,218.31696760002524,218.31696760002524,218.31696760002524,218.31696760002524,218.31696760002524,218.31696760002524,220.38101530002314,220.38101530002314,220.38101530002314,220.38101530002314,220.38101530002314,220.38101530002314,220.38101530002314,63,56,56,50,56,60,220.38101530002314,221.9134972000029,,,,,,,,,,,,３４９,f,1９,2023-05-21_19h35.21.296,RL,2022.2.5,60.83687200602039,
63,57,49,50,0,32,32,32,,,,,,,,None,221.9134972000029,221.9134972000029,221.9134972000029,221.9134972000029,221.9134972000029,221.9134972000029,r,0.29132690001279116,222.23391310000443,222.23391310000443,222.23391310000443,222.23391310000443,222.23391310000443,222.23391310000443,222.5131221000047,224.34693379999953,224.38303300002008,224.38303300002008,224.38303300002008,224.38303300002008,224.38303300002008,224.38303300002008,224.38303300002008,224.38303300002008,224.38303300002008,224.38303300002008,224.38303300002008,224.38303300002008,224.38303300002008,226.52922920000856,226.52922920000856,226.52922920000856,226.52922920000856,226.52922920000856,226.52922920000856,226.52922920000856,63,50,49,57,50,60,226.52922920000856,228.21241160001955,,,,,,,,,,,,３４９,f,1９,2023-05-21_19h35.21.296,RL,2022.2.5,60.83687200602039,
55,55,63,60,0,33,33,33,,,,,,,,None,228.21241160001955,228.21241160001955,228.21241160001955,228.21241160001955,228.21241160001955,228.21241160001955,f,0.09928840000065975,228.35642130000633,228.35642130000633,228.35642130000633,228.35642130000633,228.35642130000633,228.35642130000633,228.6456515000027,229.6271208000253,229.6442340000067,229.6442340000067,229.6442340000067,229.6442340000067,229.6442340000067,229.6442340000067,229.6442340000067,229.6442340000067,229.6442340000067,229.6442340000067,229.6442340000067,229.6442340000067,229.6442340000067,230.92870300001232,230.92870300001232,230.92870300001232,230.92870300001232,230.92870300001232,230.92870300001232,230.92870300001232,55,60,63,55,55,60,230.92870300001232,232.8773984000145,,,,,,,,,,,,３４９,f,1９,2023-05-21_19h35.21.296,RL,2022.2.5,60.83687200602039,
55,56,58,59,0,34,34,34,,,,,,,,None,232.8773984000145,232.8773984000145,232.8773984000145,232.8773984000145,232.8773984000145,232.8773984000145,i,0.4029158999910578,233.31477850000374,233.31477850000374,233.31477850000374,233.31477850000374,233.31477850000374,233.31477850000374,233.5941021000035,235.0438339000102,235.08105030001025,235.08105030001025,235.08105030001025,235.08105030001025,235.08105030001025,235.08105030001025,235.08105030001025,235.08105030001025,235.08105030001025,235.08105030001025,235.08105030001025,235.08105030001025,235.08105030001025,236.84436770001776,236.84436770001776,236.84436770001776,236.84436770001776,236.84436770001776,236.84436770001776,236.84436770001776,55,59,58,56,58,60,236.84436770001776,238.82647080000606,,,,,,,,,,,,３４９,f,1９,2023-05-21_19h35.21.296,RL,2022.2.5,60.83687200602039,
55,60,53,51,0,35,35,35,,,,,,,,None,238.82647080000606,238.82647080000606,238.82647080000606,238.82647080000606,238.82647080000606,238.82647080000606,i,0.5333987000049092,239.3819833000016,239.3819833000016,239.3819833000016,239.3819833000016,239.3819833000016,239.3819833000016,239.6769569000171,241.62835690000793,241.62835690000793,241.62835690000793,241.62835690000793,241.62835690000793,241.62835690000793,241.62835690000793,241.62835690000793,241.62835690000793,241.62835690000793,241.62835690000793,241.62835690000793,241.62835690000793,241.62835690000793,243.8759151000122,243.8759151000122,243.8759151000122,243.8759151000122,243.8759151000122,243.8759151000122,243.8759151000122,55,51,53,60,53,60,243.8759151000122,245.45929180001258,,,,,,,,,,,,３４９,f,1９,2023-05-21_19h35.21.296,RL,2022.2.5,60.83687200602039,
58,61,60,48,0,36,36,36,,,,,,,,None,245.45929180001258,245.45929180001258,245.45929180001258,245.45929180001258,245.45929180001258,245.45929180001258,f,0.2956766000133939,245.7797799000109,245.7797799000109,245.7797799000109,245.7797799000109,245.7797799000109,245.7797799000109,246.0760006000055,248.02714210000704,248.02714210000704,248.02714210000704,248.02714210000704,248.02714210000704,248.02714210000704,248.02714210000704,248.02714210000704,248.02714210000704,248.02714210000704,248.02714210000704,248.02714210000704,248.02714210000704,248.02714210000704,250.27542930000345,250.27542930000345,250.27542930000345,250.27542930000345,250.27542930000345,250.27542930000345,250.27542930000345,58,48,60,61,58,60,250.27542930000345,251.90772080002353,,,,,,,,,,,,３４９,f,1９,2023-05-21_19h35.21.296,RL,2022.2.5,60.83687200602039,
55,64,45,55,0,37,37,37,,,,,,,,None,251.90772080002353,251.90772080002353,251.90772080002353,251.90772080002353,251.90772080002353,251.90772080002353,r,0.22642339998856187,252.1622827000101,252.1622827000101,252.1622827000101,252.1622827000101,252.1622827000101,252.1622827000101,252.44215020001866,253.29120210002293,253.31076590000885,253.31076590000885,253.31076590000885,253.31076590000885,253.31076590000885,253.31076590000885,253.31076590000885,253.31076590000885,253.31076590000885,253.31076590000885,253.31076590000885,253.31076590000885,253.31076590000885,254.45791080000345,254.45791080000345,254.45791080000345,254.45791080000345,254.45791080000345,254.45791080000345,254.45791080000345,55,55,45,64,55,60,254.45791080000345,256.23978689999785,,,,,,,,,,,,３４９,f,1９,2023-05-21_19h35.21.296,RL,2022.2.5,60.83687200602039,
50,64,52,53,0,38,38,38,,,,,,,,None,256.23978689999785,256.23978689999785,256.23978689999785,256.23978689999785,256.23978689999785,256.23978689999785,f,0.38782080000964925,256.6707077000174,256.6707077000174,256.6707077000174,256.6707077000174,256.6707077000174,256.6707077000174,256.9568361999991,258.9558902000135,258.9727841000131,258.9727841000131,258.9727841000131,258.9727841000131,258.9727841000131,258.9727841000131,258.9727841000131,258.9727841000131,258.9727841000131,258.9727841000131,258.9727841000131,258.9727841000131,258.9727841000131,261.27416120001,261.27416120001,261.27416120001,261.27416120001,261.27416120001,261.27416120001,261.27416120001,50,53,52,64,50,60,261.27416120001,263.03918190000695,,,,,,,,,,,,３４９,f,1９,2023-05-21_19h35.21.296,RL,2022.2.5,60.83687200602039,
63,50,54,50,0,39,39,39,,,,,,,,None,263.03918190000695,263.03918190000695,263.03918190000695,263.03918190000695,263.03918190000695,263.03918190000695,j,0.2100549999740906,263.277585200005,263.277585200005,263.277585200005,263.277585200005,263.277585200005,263.277585200005,263.5727715000103,265.34134610000183,265.34134610000183,265.34134610000183,265.34134610000183,265.34134610000183,265.34134610000183,265.34134610000183,265.34134610000183,265.34134610000183,265.34134610000183,265.34134610000183,265.34134610000183,265.34134610000183,265.34134610000183,267.40583180001704,267.40583180001704,267.40583180001704,267.40583180001704,267.40583180001704,267.40583180001704,267.40583180001704,63,50,54,50,50,60,267.40583180001704,269.00508930001524,,,,,,,,,,,,３４９,f,1９,2023-05-21_19h35.21.296,RL,2022.2.5,60.83687200602039,
55,62,59,55,0,40,40,40,,,,,,,,None,269.00508930001524,269.00508930001524,269.00508930001524,269.00508930001524,269.00508930001524,269.00508930001524,i,0.2972662999818567,269.3354544000176,269.3354544000176,269.3354544000176,269.3354544000176,269.3354544000176,269.3354544000176,269.60579310002504,271.00336770000285,271.0395106000069,271.0395106000069,271.0395106000069,271.0395106000069,271.0395106000069,271.0395106000069,271.0395106000069,271.0395106000069,271.0395106000069,271.0395106000069,271.0395106000069,271.0395106000069,271.0395106000069,272.7378671000188,272.7378671000188,272.7378671000188,272.7378671000188,272.7378671000188,272.7378671000188,272.7378671000188,55,55,59,62,59,60,272.7378671000188,274.3542422000028,,,,,,,,,,,,３４９,f,1９,2023-05-21_19h35.21.296,RL,2022.2.5,60.83687200602039,
53,49,56,55,0,41,41,41,,,,,,,,None,274.3542422000028,274.3542422000028,274.3542422000028,274.3542422000028,274.3542422000028,274.3542422000028,i,0.2857503999839537,274.6844722000242,274.6844722000242,274.6844722000242,274.6844722000242,274.6844722000242,274.6844722000242,274.96933720001834,276.1205020000052,276.1386062000238,276.1386062000238,276.1386062000238,276.1386062000238,276.1386062000238,276.1386062000238,276.1386062000238,276.1386062000238,276.1386062000238,276.1386062000238,276.1386062000238,276.1386062000238,276.1386062000238,277.5860381000093,277.5860381000093,277.5860381000093,277.5860381000093,277.5860381000093,277.5860381000093,277.5860381000093,53,55,56,49,56,60,277.5860381000093,279.1865495000093,,,,,,,,,,,,３４９,f,1９,2023-05-21_19h35.21.296,RL,2022.2.5,60.83687200602039,
49,55,58,57,0,42,42,42,,,,,,,,None,279.1865495000093,279.1865495000093,279.1865495000093,279.1865495000093,279.1865495000093,279.1865495000093,r,0.5876772000046913,279.81088540001656,279.81088540001656,279.81088540001656,279.81088540001656,279.81088540001656,279.81088540001656,280.10288830002537,281.1019570000062,281.1019570000062,281.1019570000062,281.1019570000062,281.1019570000062,281.1019570000062,281.1019570000062,281.1019570000062,281.1019570000062,281.1019570000062,281.1019570000062,281.1019570000062,281.1019570000062,281.1019570000062,282.4028556999983,282.4028556999983,282.4028556999983,282.4028556999983,282.4028556999983,282.4028556999983,282.4028556999983,49,57,58,55,57,60,282.4028556999983,284.2520336000016,,,,,,,,,,,,３４９,f,1９,2023-05-21_19h35.21.296,RL,2022.2.5,60.83687200602039,
44,53,60,54,0,43,43,43,,,,,,,,None,284.2520336000016,284.2520336000016,284.2520336000016,284.2520336000016,284.2520336000016,284.2520336000016,i,0.2800924000039231,284.55831860000035,284.55831860000035,284.55831860000035,284.55831860000035,284.55831860000035,284.55831860000035,284.85286870002165,286.53457760001766,286.53457760001766,286.53457760001766,286.53457760001766,286.53457760001766,286.53457760001766,286.53457760001766,286.53457760001766,286.53457760001766,286.53457760001766,286.53457760001766,286.53457760001766,286.53457760001766,286.53457760001766,288.50196030002553,288.50196030002553,288.50196030002553,288.50196030002553,288.50196030002553,288.50196030002553,288.50196030002553,44,54,60,53,60,60,288.50196030002553,290.45152210001834,,,,,,,,,,,,３４９,f,1９,2023-05-21_19h35.21.296,RL,2022.2.5,60.83687200602039,
45,56,55,53,0,44,44,44,,,,,,,,None,290.45152210001834,290.45152210001834,290.45152210001834,290.45152210001834,290.45152210001834,290.45152210001834,i,0.2740533000032883,290.75780360001954,290.75780360001954,290.75780360001954,290.75780360001954,290.75780360001954,290.75780360001954,291.05122069999925,292.8859749000112,292.8859749000112,292.8859749000112,292.8859749000112,292.8859749000112,292.8859749000112,292.8859749000112,292.8859749000112,292.8859749000112,292.8859749000112,292.8859749000112,292.8859749000112,292.8859749000112,292.8859749000112,295.01746110001113,295.01746110001113,295.01746110001113,295.01746110001113,295.01746110001113,295.01746110001113,295.01746110001113,45,53,55,56,55,60,295.01746110001113,296.6333460000169,,,,,,,,,,,,３４９,f,1９,2023-05-21_19h35.21.296,RL,2022.2.5,60.83687200602039,
42,55,59,54,0,45,45,45,,,,,,,,None,296.6333460000169,296.6333460000169,296.6333460000169,296.6333460000169,296.6333460000169,296.6333460000169,r,0.3093164000019897,296.9728894,296.9728894,296.9728894,296.9728894,296.9728894,296.9728894,297.2670483000111,298.9835963000078,299.00208490001387,299.00208490001387,299.00208490001387,299.00208490001387,299.00208490001387,299.00208490001387,299.00208490001387,299.00208490001387,299.00208490001387,299.00208490001387,299.00208490001387,299.00208490001387,299.00208490001387,301.01639040000737,301.01639040000737,301.01639040000737,301.01639040000737,301.01639040000737,301.01639040000737,301.01639040000737,42,54,59,55,54,60,301.01639040000737,302.7986426000134,,,,,,,,,,,,３４９,f,1９,2023-05-21_19h35.21.296,RL,2022.2.5,60.83687200602039,
51,53,68,43,0,46,46,46,,,,,,,,None,302.7986426000134,302.7986426000134,302.7986426000134,302.7986426000134,302.7986426000134,302.7986426000134,i,0.27473710000049323,303.1121540000022,303.1121540000022,303.1121540000022,303.1121540000022,303.1121540000022,303.1121540000022,303.3832795000053,304.7826868999982,304.81681700001354,304.81681700001354,304.81681700001354,304.81681700001354,304.81681700001354,304.81681700001354,304.81681700001354,304.81681700001354,304.81681700001354,304.81681700001354,304.81681700001354,304.81681700001354,304.81681700001354,306.51590480000596,306.51590480000596,306.51590480000596,306.51590480000596,306.51590480000596,306.51590480000596,306.51590480000596,51,43,68,53,68,60,306.51590480000596,308.03151640002034,,,,,,,,,,,,３４９,f,1９,2023-05-21_19h35.21.296,RL,2022.2.5,60.83687200602039,
35,62,62,57,0,47,47,47,,,,,,,,None,308.03151640002034,308.03151640002034,308.03151640002034,308.03151640002034,308.03151640002034,308.03151640002034,i,0.3999069999845233,308.46245920000365,308.46245920000365,308.46245920000365,308.46245920000365,308.46245920000365,308.46245920000365,308.7318687000079,310.5151704000018,310.5345180000004,310.5345180000004,310.5345180000004,310.5345180000004,310.5345180000004,310.5345180000004,310.5345180000004,310.5345180000004,310.5345180000004,310.5345180000004,310.5345180000004,310.5345180000004,310.5345180000004,312.6142851000186,312.6142851000186,312.6142851000186,312.6142851000186,312.6142851000186,312.6142851000186,312.6142851000186,35,57,62,62,62,60,312.6142851000186,314.5636580999999,,,,,,,,,,,,３４９,f,1９,2023-05-21_19h35.21.296,RL,2022.2.5,60.83687200602039,
45,56,54,53,0,48,48,48,,,,,,,,None,314.5636580999999,314.5636580999999,314.5636580999999,314.5636580999999,314.5636580999999,314.5636580999999,r,0.32399410000653006,314.9266678999993,314.9266678999993,314.9266678999993,314.9266678999993,314.9266678999993,314.9266678999993,315.2134696000139,316.8953765000042,316.9121342000144,316.9121342000144,316.9121342000144,316.9121342000144,316.9121342000144,316.9121342000144,316.9121342000144,316.9121342000144,316.9121342000144,316.9121342000144,316.9121342000144,316.9121342000144,316.9121342000144,318.8962368000066,318.8962368000066,318.8962368000066,318.8962368000066,318.8962368000066,318.8962368000066,318.8962368000066,45,53,54,56,53,60,318.8962368000066,320.5465449000185,,,,,,,,,,,,３４９,f,1９,2023-05-21_19h35.21.296,RL,2022.2.5,60.83687200602039,
39,59,61,51,0,49,49,49,,,,,,,,None,320.5465449000185,320.5465449000185,320.5465449000185,320.5465449000185,320.5465449000185,320.5465449000185,j,0.40891639998881146,320.9836237000127,320.9836237000127,320.9836237000127,320.9836237000127,320.9836237000127,320.9836237000127,321.2626113000151,322.2626471000258,322.2808048000152,322.2808048000152,322.2808048000152,322.2808048000152,322.2808048000152,322.2808048000152,322.2808048000152,322.2808048000152,322.2808048000152,322.2808048000152,322.2808048000152,322.2808048000152,322.2808048000152,323.5777066000155,323.5777066000155,323.5777066000155,323.5777066000155,323.5777066000155,323.5777066000155,323.5777066000155,39,51,61,59,59,60,323.5777066000155,325.5451646000147,,,,,,,,,,,,３４９,f,1９,2023-05-21_19h35.21.296,RL,2022.2.5,60.83687200602039,
42,62,57,51,0,50,50,50,,,,,,,,None,325.5451646000147,325.5451646000147,325.5451646000147,325.5451646000147,325.5451646000147,325.5451646000147,i,0.2716108000022359,325.85835710001993,325.85835710001993,325.85835710001993,325.85835710001993,325.85835710001993,325.85835710001993,326.12888650002424,327.17888270001276,327.2132810000039,327.2132810000039,327.2132810000039,327.2132810000039,327.2132810000039,327.2132810000039,327.2132810000039,327.2132810000039,327.2132810000039,327.2132810000039,327.2132810000039,327.2132810000039,327.2132810000039,328.5606219000183,328.5606219000183,328.5606219000183,328.5606219000183,328.5606219000183,328.5606219000183,328.5606219000183,42,51,57,62,57,60,328.5606219000183,330.11116290002246,,,,,,,,,,,,３４９,f,1９,2023-05-21_19h35.21.296,RL,2022.2.5,60.83687200602039,
40,52,56,55,0,51,51,51,,,,,,,,None,330.11116290002246,330.11116290002246,330.11116290002246,330.11116290002246,330.11116290002246,330.11116290002246,i,0.21977560000959784,330.3739446000254,330.3739446000254,330.3739446000254,330.3739446000254,330.3739446000254,330.3739446000254,330.65951910000877,332.3272521000181,332.34589990001405,332.34589990001405,332.34589990001405,332.34589990001405,332.34589990001405,332.34589990001405,332.34589990001405,332.34589990001405,332.34589990001405,332.34589990001405,332.34589990001405,332.34589990001405,332.34589990001405,334.3108229000063,334.3108229000063,334.3108229000063,334.3108229000063,334.3108229000063,334.3108229000063,334.3108229000063,40,55,56,52,56,60,334.3108229000063,335.85947650001617,,,,,,,,,,,,３４９,f,1９,2023-05-21_19h35.21.296,RL,2022.2.5,60.83687200602039,
52,57,50,54,0,52,52,52,,,,,,,,None,335.85947650001617,335.85947650001617,335.85947650001617,335.85947650001617,335.85947650001617,335.85947650001617,i,0.30631099999300204,336.1976785000006,336.1976785000006,336.1976785000006,336.1976785000006,336.1976785000006,336.1976785000006,336.47646659999737,337.5249324000033,337.54127040001913,337.54127040001913,337.54127040001913,337.54127040001913,337.54127040001913,337.54127040001913,337.54127040001913,337.54127040001913,337.54127040001913,337.54127040001913,337.54127040001913,337.54127040001913,337.54127040001913,338.8744331000198,338.8744331000198,338.8744331000198,338.8744331000198,338.8744331000198,338.8744331000198,338.8744331000198,52,54,50,57,50,60,338.8744331000198,340.37608600000385,,,,,,,,,,,,３４９,f,1９,2023-05-21_19h35.21.296,RL,2022.2.5,60.83687200602039,
45,55,51,51,0,53,53,53,,,,,,,,None,340.37608600000385,340.37608600000385,340.37608600000385,340.37608600000385,340.37608600000385,340.37608600000385,i,0.49705760000506416,340.89610290000564,340.89610290000564,340.89610290000564,340.89610290000564,340.89610290000564,340.89610290000564,341.1924567000242,342.52650460001314,342.52650460001314,342.52650460001314,342.52650460001314,342.52650460001314,342.52650460001314,342.52650460001314,342.52650460001314,342.52650460001314,342.52650460001314,342.52650460001314,342.52650460001314,342.52650460001314,342.52650460001314,344.15899940000963,344.15899940000963,344.15899940000963,344.15899940000963,344.15899940000963,344.15899940000963,344.15899940000963,45,51,51,55,51,60,344.15899940000963,345.7745140000188,,,,,,,,,,,,３４９,f,1９,2023-05-21_19h35.21.296,RL,2022.2.5,60.83687200602039,
41,52,42,57,0,54,54,54,,,,,,,,None,345.7745140000188,345.7745140000188,345.7745140000188,345.7745140000188,345.7745140000188,345.7745140000188,f,0.26261810000869446,346.0717107000237,346.0717107000237,346.0717107000237,346.0717107000237,346.0717107000237,346.0717107000237,346.357525600004,347.62776950001717,347.62776950001717,347.62776950001717,347.62776950001717,347.62776950001717,347.62776950001717,347.62776950001717,347.62776950001717,347.62776950001717,347.62776950001717,347.62776950001717,347.62776950001717,347.62776950001717,347.62776950001717,349.1914367999998,349.1914367999998,349.1914367999998,349.1914367999998,349.1914367999998,349.1914367999998,349.1914367999998,41,57,42,52,41,60,349.1914367999998,350.7742923000187,,,,,,,,,,,,３４９,f,1９,2023-05-21_19h35.21.296,RL,2022.2.5,60.83687200602039,
43,52,43,55,0,55,55,55,,,,,,,,None,350.7742923000187,350.7742923000187,350.7742923000187,350.7742923000187,350.7742923000187,350.7742923000187,j,0.3651600999874063,351.1604807000258,351.1604807000258,351.1604807000258,351.1604807000258,351.1604807000258,351.1604807000258,351.44023000000743,352.8742616000236,352.8931848000211,352.8931848000211,352.8931848000211,352.8931848000211,352.8931848000211,352.8931848000211,352.8931848000211,352.8931848000211,352.8931848000211,352.8931848000211,352.8931848000211,352.8931848000211,352.8931848000211,354.62339660001453,354.62339660001453,354.62339660001453,354.62339660001453,354.62339660001453,354.62339660001453,354.62339660001453,43,55,43,52,52,60,354.62339660001453,356.4060865000065,,,,,,,,,,,,３４９,f,1９,2023-05-21_19h35.21.296,RL,2022.2.5,60.83687200602039,
37,51,47,54,0,56,56,56,,,,,,,,None,356.4060865000065,356.4060865000065,356.4060865000065,356.4060865000065,356.4060865000065,356.4060865000065,i,0.25407220001216047,356.6957379000087,356.6957379000087,356.6957379000087,356.6957379000087,356.6957379000087,356.6957379000087,356.9889997999999,357.9731657000084,357.99160940002184,357.99160940002184,357.99160940002184,357.99160940002184,357.99160940002184,357.99160940002184,357.99160940002184,357.99160940002184,357.99160940002184,357.99160940002184,357.99160940002184,357.99160940002184,357.99160940002184,359.28804460001993,359.28804460001993,359.28804460001993,359.28804460001993,359.28804460001993,359.28804460001993,359.28804460001993,37,54,47,51,47,60,359.28804460001993,361.17229170000064,,,,,,,,,,,,３４９,f,1９,2023-05-21_19h35.21.296,RL,2022.2.5,60.83687200602039,
40,49,36,54,0,57,57,57,,,,,,,,None,361.17229170000064,361.17229170000064,361.17229170000064,361.17229170000064,361.17229170000064,361.17229170000064,r,0.21856320000370033,361.4312706000055,361.4312706000055,361.4312706000055,361.4312706000055,361.4312706000055,361.4312706000055,361.7222951000149,363.12775840001996,363.12775840001996,363.12775840001996,363.12775840001996,363.12775840001996,363.12775840001996,363.12775840001996,363.12775840001996,363.12775840001996,363.12775840001996,363.12775840001996,363.12775840001996,363.12775840001996,363.12775840001996,364.78897439999855,364.78897439999855,364.78897439999855,364.78897439999855,364.78897439999855,364.78897439999855,364.78897439999855,40,54,36,49,54,60,364.78897439999855,366.45423090000986,,,,,,,,,,,,３４９,f,1９,2023-05-21_19h35.21.296,RL,2022.2.5,60.83687200602039,
37,49,46,58,0,58,58,58,,,,,,,,None,366.45423090000986,366.45423090000986,366.45423090000986,366.45423090000986,366.45423090000986,366.45423090000986,i,0.23783900000853464,366.7241043000249,366.7241043000249,366.7241043000249,366.7241043000249,366.7241043000249,366.7241043000249,367.00454650001484,368.0877191000036,368.1218231000239,368.1218231000239,368.1218231000239,368.1218231000239,368.1218231000239,368.1218231000239,368.1218231000239,368.1218231000239,368.1218231000239,368.1218231000239,368.1218231000239,368.1218231000239,368.1218231000239,369.52133010001853,369.52133010001853,369.52133010001853,369.52133010001853,369.52133010001853,369.52133010001853,369.52133010001853,37,58,46,49,46,60,369.52133010001853,371.3368459000194,,,,,,,,,,,,３４９,f,1９,2023-05-21_19h35.21.296,RL,2022.2.5,60.83687200602039,
29,45,49,62,0,59,59,59,,,,,,,,None,371.3368459000194,371.3368459000194,371.3368459000194,371.3368459000194,371.3368459000194,371.3368459000194,j,0.31499019998591393,371.67648560000816,371.67648560000816,371.67648560000816,371.67648560000816,371.67648560000816,371.67648560000816,371.9702972000232,373.7199725000246,373.7199725000246,373.7199725000246,373.7199725000246,373.7199725000246,373.7199725000246,373.7199725000246,373.7199725000246,373.7199725000246,373.7199725000246,373.7199725000246,373.7199725000246,373.7199725000246,373.7199725000246,375.77074740000535,375.77074740000535,375.77074740000535,375.77074740000535,375.77074740000535,375.77074740000535,375.77074740000535,29,62,49,45,45,60,375.77074740000535,377.502598400024,,,,,,,,,,,,３４９,f,1９,2023-05-21_19h35.21.296,RL,2022.2.5,60.83687200602039,
24,50,48,57,0,60,60,60,,,,,,,,None,377.502598400024,377.502598400024,377.502598400024,377.502598400024,377.502598400024,377.502598400024,r,0.19385730000794865,377.7252738000243,377.7252738000243,377.7252738000243,377.7252738000243,377.7252738000243,377.7252738000243,378.01971950000734,379.1886994000233,379.1886994000233,379.1886994000233,379.1886994000233,379.1886994000233,379.1886994000233,379.1886994000233,379.1886994000233,379.1886994000233,379.1886994000233,379.1886994000233,379.1886994000233,379.1886994000233,379.1886994000233,380.6518517000077,380.6518517000077,380.6518517000077,380.6518517000077,380.6518517000077,380.6518517000077,380.6518517000077,24,57,48,50,57,60,380.6518517000077,382.53476229999796,,,,,,,,,,,,３４９,f,1９,2023-05-21_19h35.21.296,RL,2022.2.5,60.83687200602039,
29,57,50,54,0,61,61,61,,,,,,,,None,382.53476229999796,382.53476229999796,382.53476229999796,382.53476229999796,382.53476229999796,382.53476229999796,r,0.399170899996534,382.96589740001946,382.96589740001946,382.96589740001946,382.96589740001946,382.96589740001946,382.96589740001946,383.2521686000109,385.2519316000107,385.27039499999955,385.27039499999955,385.27039499999955,385.27039499999955,385.27039499999955,385.27039499999955,385.27039499999955,385.27039499999955,385.27039499999955,385.27039499999955,385.27039499999955,385.27039499999955,385.27039499999955,387.5682875000057,387.5682875000057,387.5682875000057,387.5682875000057,387.5682875000057,387.5682875000057,387.5682875000057,29,54,50,57,54,60,387.5682875000057,389.31764210000983,,,,,,,,,,,,３４９,f,1９,2023-05-21_19h35.21.296,RL,2022.2.5,60.83687200602039,
35,49,48,46,0,62,62,62,,,,,,,,None,389.31764210000983,389.31764210000983,389.31764210000983,389.31764210000983,389.31764210000983,389.31764210000983,i,0.21780850001960061,389.576005800016,389.576005800016,389.576005800016,389.576005800016,389.576005800016,389.576005800016,389.85151090001455,391.7509283000254,391.7674500000139,391.7674500000139,391.7674500000139,391.7674500000139,391.7674500000139,391.7674500000139,391.7674500000139,391.7674500000139,391.7674500000139,391.7674500000139,391.7674500000139,391.7674500000139,391.7674500000139,393.9655086999992,393.9655086999992,393.9655086999992,393.9655086999992,393.9655086999992,393.9655086999992,393.9655086999992,35,46,48,49,48,60,393.9655086999992,395.7495193000068,,,,,,,,,,,,３４９,f,1９,2023-05-21_19h35.21.296,RL,2022.2.5,60.83687200602039,
36,41,54,45,0,63,63,63,,,,,,,,None,395.7495193000068,395.7495193000068,395.7495193000068,395.7495193000068,395.7495193000068,395.7495193000068,f,0.08729590001166798,395.87907450000057,395.87907450000057,395.87907450000057,395.87907450000057,395.87907450000057,395.87907450000057,396.16715290001594,397.1676052999974,397.1676052999974,397.1676052999974,397.1676052999974,397.1676052999974,397.1676052999974,397.1676052999974,397.1676052999974,397.1676052999974,397.1676052999974,397.1676052999974,397.1676052999974,397.1676052999974,397.1676052999974,398.4494268000126,398.4494268000126,398.4494268000126,398.4494268000126,398.4494268000126,398.4494268000126,398.4494268000126,36,45,54,41,36,60,398.4494268000126,400.33239820000017,,,,,,,,,,,,３４９,f,1９,2023-05-21_19h35.21.296,RL,2022.2.5,60.83687200602039,
37,46,50,55,0,64,64,64,,,,,,,,None,400.33239820000017,400.33239820000017,400.33239820000017,400.33239820000017,400.33239820000017,400.33239820000017,j,0.3203516000066884,400.68915420002304,400.68915420002304,400.68915420002304,400.68915420002304,400.68915420002304,400.68915420002304,400.96617690002313,402.33154140002443,402.3481419000018,402.3481419000018,402.3481419000018,402.3481419000018,402.3481419000018,402.3481419000018,402.3481419000018,402.3481419000018,402.3481419000018,402.3481419000018,402.3481419000018,402.3481419000018,402.3481419000018,404.0144861000008,404.0144861000008,404.0144861000008,404.0144861000008,404.0144861000008,404.0144861000008,404.0144861000008,37,55,50,46,46,60,404.0144861000008,405.83175690000644,,,,,,,,,,,,３４９,f,1９,2023-05-21_19h35.21.296,RL,2022.2.5,60.83687200602039,
36,48,49,46,0,65,65,65,,,,,,,,None,405.83175690000644,405.83175690000644,405.83175690000644,405.83175690000644,405.83175690000644,405.83175690000644,r,0.24192760000005364,406.10103300001356,406.10103300001356,406.10103300001356,406.10103300001356,406.10103300001356,406.10103300001356,406.3812863000203,407.69814050002606,407.7160194000171,407.7160194000171,407.7160194000171,407.7160194000171,407.7160194000171,407.7160194000171,407.7160194000171,407.7160194000171,407.7160194000171,407.7160194000171,407.7160194000171,407.7160194000171,407.7160194000171,409.33116800000425,409.33116800000425,409.33116800000425,409.33116800000425,409.33116800000425,409.33116800000425,409.33116800000425,36,46,49,48,46,60,409.33116800000425,411.24715210002614,,,,,,,,,,,,３４９,f,1９,2023-05-21_19h35.21.296,RL,2022.2.5,60.83687200602039,
28,47,54,54,0,66,66,66,,,,,,,,None,411.24715210002614,411.24715210002614,411.24715210002614,411.24715210002614,411.24715210002614,411.24715210002614,i,0.19969310000305995,411.46765730000334,411.46765730000334,411.46765730000334,411.46765730000334,411.46765730000334,411.46765730000334,411.7631296000036,413.68163920001825,413.68163920001825,413.68163920001825,413.68163920001825,413.68163920001825,413.68163920001825,413.68163920001825,413.68163920001825,413.68163920001825,413.68163920001825,413.68163920001825,413.68163920001825,413.68163920001825,413.68163920001825,415.8964948000212,415.8964948000212,415.8964948000212,415.8964948000212,415.8964948000212,415.8964948000212,415.8964948000212,28,54,54,47,54,60,415.8964948000212,417.612174400012,,,,,,,,,,,,３４９,f,1９,2023-05-21_19h35.21.296,RL,2022.2.5,60.83687200602039,
33,46,56,42,0,67,67,67,,,,,,,,None,417.612174400012,417.612174400012,417.612174400012,417.612174400012,417.612174400012,417.612174400012,i,0.23152450000634417,417.86962219999987,417.86962219999987,417.86962219999987,417.86962219999987,417.86962219999987,417.86962219999987,418.1631828000245,419.01284800001304,419.03175620001275,419.03175620001275,419.03175620001275,419.03175620001275,419.03175620001275,419.03175620001275,419.03175620001275,419.03175620001275,419.03175620001275,419.03175620001275,419.03175620001275,419.03175620001275,419.03175620001275,420.1775427000248,420.1775427000248,420.1775427000248,420.1775427000248,420.1775427000248,420.1775427000248,420.1775427000248,33,42,56,46,56,60,420.1775427000248,422.07834560002084,,,,,,,,,,,,３４９,f,1９,2023-05-21_19h35.21.296,RL,2022.2.5,60.83687200602039,
37,45,51,48,0,68,68,68,,,,,,,,None,422.07834560002084,422.07834560002084,422.07834560002084,422.07834560002084,422.07834560002084,422.07834560002084,i,0.29546409999602474,422.4006312999991,422.4006312999991,422.4006312999991,422.4006312999991,422.4006312999991,422.4006312999991,422.69424490001984,423.76182810001774,423.78031980001833,423.78031980001833,423.78031980001833,423.78031980001833,423.78031980001833,423.78031980001833,423.78031980001833,423.78031980001833,423.78031980001833,423.78031980001833,423.78031980001833,423.78031980001833,423.78031980001833,425.1447449000261,425.1447449000261,425.1447449000261,425.1447449000261,425.1447449000261,425.1447449000261,425.1447449000261,37,48,51,45,51,60,425.1447449000261,426.99442640002235,,,,,,,,,,,,３４９,f,1９,2023-05-21_19h35.21.296,RL,2022.2.5,60.83687200602039,
28,47,47,54,0,69,69,69,,,,,,,,None,426.99442640002235,426.99442640002235,426.99442640002235,426.99442640002235,426.99442640002235,426.99442640002235,r,0.39332579998881556,427.4170198000211,427.4170198000211,427.4170198000211,427.4170198000211,427.4170198000211,427.4170198000211,427.711278200004,428.6126551000052,428.6126551000052,428.6126551000052,428.6126551000052,428.6126551000052,428.6126551000052,428.6126551000052,428.6126551000052,428.6126551000052,428.6126551000052,428.6126551000052,428.6126551000052,428.6126551000052,428.6126551000052,429.8110586000257,429.8110586000257,429.8110586000257,429.8110586000257,429.8110586000257,429.8110586000257,429.8110586000257,28,54,47,47,54,60,429.8110586000257,431.3268696000159,,,,,,,,,,,,３４９,f,1９,2023-05-21_19h35.21.296,RL,2022.2.5,60.83687200602039,
31,48,55,50,0,70,70,70,,,,,,,,None,431.3268696000159,431.3268696000159,431.3268696000159,431.3268696000159,431.3268696000159,431.3268696000159,r,0.2677663999784272,431.63605220001773,431.63605220001773,431.63605220001773,431.63605220001773,431.63605220001773,431.63605220001773,431.9262821000011,433.6923879000242,433.6923879000242,433.6923879000242,433.6923879000242,433.6923879000242,433.6923879000242,433.6923879000242,433.6923879000242,433.6923879000242,433.6923879000242,433.6923879000242,433.6923879000242,433.6923879000242,433.6923879000242,435.74193200000445,435.74193200000445,435.74193200000445,435.74193200000445,435.74193200000445,435.74193200000445,435.74193200000445,31,50,55,48,50,60,435.74193200000445,437.60947990001296,,,,,,,,,,,,３４９,f,1９,2023-05-21_19h35.21.296,RL,2022.2.5,60.83687200602039,
35,47,56,38,0,71,71,71,,,,,,,,None,437.60947990001296,437.60947990001296,437.60947990001296,437.60947990001296,437.60947990001296,437.60947990001296,i,0.24406850000377744,437.8806234000076,437.8806234000076,437.8806234000076,437.8806234000076,437.8806234000076,437.8806234000076,438.17531849999796,440.0758265000186,440.0758265000186,440.0758265000186,440.0758265000186,440.0758265000186,440.0758265000186,440.0758265000186,440.0758265000186,440.0758265000186,440.0758265000186,440.0758265000186,440.0758265000186,440.0758265000186,440.0758265000186,442.275532700005,442.275532700005,442.275532700005,442.275532700005,442.275532700005,442.275532700005,442.275532700005,35,38,56,47,56,60,442.275532700005,444.17481680001947,,,,,,,,,,,,３４９,f,1９,2023-05-21_19h35.21.296,RL,2022.2.5,60.83687200602039,
33,52,59,39,0,72,72,72,,,,,,,,None,444.17481680001947,444.17481680001947,444.17481680001947,444.17481680001947,444.17481680001947,444.17481680001947,i,0.26139629998942837,444.4711875000212,444.4711875000212,444.4711875000212,444.4711875000212,444.4711875000212,444.4711875000212,444.7577840000158,446.34146320002037,446.3617467000149,446.3617467000149,446.3617467000149,446.3617467000149,446.3617467000149,446.3617467000149,446.3617467000149,446.3617467000149,446.3617467000149,446.3617467000149,446.3617467000149,446.3617467000149,446.3617467000149,448.2413493000204,448.2413493000204,448.2413493000204,448.2413493000204,448.2413493000204,448.2413493000204,448.2413493000204,33,39,59,52,59,60,448.2413493000204,449.7718469000247,,,,,,,,,,,,３４９,f,1９,2023-05-21_19h35.21.296,RL,2022.2.5,60.83687200602039,
23,50,67,42,0,73,73,73,,,,,,,,None,449.7718469000247,449.7718469000247,449.7718469000247,449.7718469000247,449.7718469000247,449.7718469000247,i,0.2825822999875527,450.07947360002436,450.07947360002436,450.07947360002436,450.07947360002436,450.07947360002436,450.07947360002436,450.3733579000109,451.5230186000117,451.54095000002417,451.54095000002417,451.54095000002417,451.54095000002417,451.54095000002417,451.54095000002417,451.54095000002417,451.54095000002417,451.54095000002417,451.54095000002417,451.54095000002417,451.54095000002417,451.54095000002417,452.9899353000219,452.9899353000219,452.9899353000219,452.9899353000219,452.9899353000219,452.9899353000219,452.9899353000219,23,42,67,50,67,60,452.9899353000219,454.88982950002537,,,,,,,,,,,,３４９,f,1９,2023-05-21_19h35.21.296,RL,2022.2.5,60.83687200602039,
19,49,56,40,0,74,74,74,,,,,,,,None,454.88982950002537,454.88982950002537,454.88982950002537,454.88982950002537,454.88982950002537,454.88982950002537,i,0.3195088000211399,455.25259390001884,455.25259390001884,455.25259390001884,455.25259390001884,455.25259390001884,455.25259390001884,455.52281930000754,456.6228115000122,456.65900350001175,456.65900350001175,456.65900350001175,456.65900350001175,456.65900350001175,456.65900350001175,456.65900350001175,456.65900350001175,456.65900350001175,456.65900350001175,456.65900350001175,456.65900350001175,456.65900350001175,458.0558377999987,458.0558377999987,458.0558377999987,458.0558377999987,458.0558377999987,458.0558377999987,458.0558377999987,19,40,56,49,56,60,458.0558377999987,459.84166400000686,,,,,,,,,,,,３４９,f,1９,2023-05-21_19h35.21.296,RL,2022.2.5,60.83687200602039,
31,50,54,38,0,75,75,75,,,,,,,,q,478.2179314000241,478.2179314000241,478.2179314000241,478.2179314000241,478.2179314000241,478.2179314000241,i,0.6554556000046432,478.9148816000088,478.9148816000088,478.9148816000088,478.9148816000088,478.9148816000088,478.9148816000088,479.20044390001567,481.0186415000062,481.03703370000585,481.03703370000585,481.03703370000585,481.03703370000585,481.03703370000585,481.03703370000585,481.03703370000585,481.03703370000585,481.03703370000585,481.03703370000585,481.03703370000585,481.03703370000585,481.03703370000585,483.1514066000236,483.1514066000236,483.1514066000236,483.1514066000236,483.1514066000236,483.1514066000236,483.1514066000236,31,38,54,50,54,60,483.1514066000236,484.86728800000856,459.84166400000686,459.84166400000686,13.343191499996465,473.20496030000504,473.20496030000504,478.2179314000241,478.2179314000241,,,,,３４９,f,1９,2023-05-21_19h35.21.296,RL,2022.2.5,60.83687200602039,
31,52,63,35,0,76,76,76,,,,,,,,None,484.86728800000856,484.86728800000856,484.86728800000856,484.86728800000856,484.86728800000856,484.86728800000856,r,0.22578579999390058,485.12137230002554,485.12137230002554,485.12137230002554,485.12137230002554,485.12137230002554,485.12137230002554,485.40081839999766,487.0172467000084,487.03570310000214,487.03570310000214,487.03570310000214,487.03570310000214,487.03570310000214,487.03570310000214,487.03570310000214,487.03570310000214,487.03570310000214,487.03570310000214,487.03570310000214,487.03570310000214,487.03570310000214,488.9502457000199,488.9502457000199,488.9502457000199,488.9502457000199,488.9502457000199,488.9502457000199,488.9502457000199,31,35,63,52,35,60,488.9502457000199,490.56642920000013,,,,,,,,,,,,３４９,f,1９,2023-05-21_19h35.21.296,RL,2022.2.5,60.83687200602039,
43,51,59,36,0,77,77,77,,,,,,,,None,490.56642920000013,490.56642920000013,490.56642920000013,490.56642920000013,490.56642920000013,490.56642920000013,i,0.2561193000001367,490.85604020001483,490.85604020001483,490.85604020001483,490.85604020001483,490.85604020001483,490.85604020001483,491.1497862000251,493.05102020001505,493.05102020001505,493.05102020001505,493.05102020001505,493.05102020001505,493.05102020001505,493.05102020001505,493.05102020001505,493.05102020001505,493.05102020001505,493.05102020001505,493.05102020001505,493.05102020001505,493.05102020001505,495.24940640002023,495.24940640002023,495.24940640002023,495.24940640002023,495.24940640002023,495.24940640002023,495.24940640002023,43,36,59,51,59,60,495.24940640002023,497.0151311000227,,,,,,,,,,,,３４９,f,1９,2023-05-21_19h35.21.296,RL,2022.2.5,60.83687200602039,
46,41,57,33,0,78,78,78,,,,,,,,None,497.0151311000227,497.0151311000227,497.0151311000227,497.0151311000227,497.0151311000227,497.0151311000227,j,0.28350370001862757,497.3482636999979,497.3482636999979,497.3482636999979,497.3482636999979,497.3482636999979,497.3482636999979,497.63151620002463,498.88205400001607,498.9018366000091,498.9018366000091,498.9018366000091,498.9018366000091,498.9018366000091,498.9018366000091,498.9018366000091,498.9018366000091,498.9018366000091,498.9018366000091,498.9018366000091,498.9018366000091,498.9018366000091,500.4645850000088,500.4645850000088,500.4645850000088,500.4645850000088,500.4645850000088,500.4645850000088,500.4645850000088,46,33,57,41,41,60,500.4645850000088,502.19663780002156,,,,,,,,,,,,３４９,f,1９,2023-05-21_19h35.21.296,RL,2022.2.5,60.83687200602039,
45,40,69,34,0,79,79,79,,,,,,,,None,502.19663780002156,502.19663780002156,502.19663780002156,502.19663780002156,502.19663780002156,502.19663780002156,i,0.21125570000731386,502.43748220001,502.43748220001,502.43748220001,502.43748220001,502.43748220001,502.43748220001,502.7305081000086,504.58114340002066,504.59979760000715,504.59979760000715,504.59979760000715,504.59979760000715,504.59979760000715,504.59979760000715,504.59979760000715,504.59979760000715,504.59979760000715,504.59979760000715,504.59979760000715,504.59979760000715,504.59979760000715,506.7462130000058,506.7462130000058,506.7462130000058,506.7462130000058,506.7462130000058,506.7462130000058,506.7462130000058,45,34,69,40,69,60,506.7462130000058,508.54632220001076,,,,,,,,,,,,３４９,f,1９,2023-05-21_19h35.21.296,RL,2022.2.5,60.83687200602039,
43,44,65,36,0,80,80,80,,,,,,,,None,508.54632220001076,508.54632220001076,508.54632220001076,508.54632220001076,508.54632220001076,508.54632220001076,i,0.2430109000124503,508.8179059000104,508.8179059000104,508.8179059000104,508.8179059000104,508.8179059000104,508.8179059000104,509.113024100021,510.39657530002296,510.39657530002296,510.39657530002296,510.39657530002296,510.39657530002296,510.39657530002296,510.39657530002296,510.39657530002296,510.39657530002296,510.39657530002296,510.39657530002296,510.39657530002296,510.39657530002296,510.39657530002296,511.97743510000873,511.97743510000873,511.97743510000873,511.97743510000873,511.97743510000873,511.97743510000873,511.97743510000873,43,36,65,44,65,60,511.97743510000873,513.6143280000251,,,,,,,,,,,,３４９,f,1９,2023-05-21_19h35.21.296,RL,2022.2.5,60.83687200602039,
47,47,69,43,0,81,81,81,,,,,,,,None,513.6143280000251,513.6143280000251,513.6143280000251,513.6143280000251,513.6143280000251,513.6143280000251,i,0.2732532999943942,513.9254432000162,513.9254432000162,513.9254432000162,513.9254432000162,513.9254432000162,513.9254432000162,514.2109584000136,515.4294756000163,515.4465900000068,515.4465900000068,515.4465900000068,515.4465900000068,515.4465900000068,515.4465900000068,515.4465900000068,515.4465900000068,515.4465900000068,515.4465900000068,515.4465900000068,515.4465900000068,515.4465900000068,516.9619127000042,516.9619127000042,516.9619127000042,516.9619127000042,516.9619127000042,516.9619127000042,516.9619127000042,47,43,69,47,69,60,516.9619127000042,518.5280743000039,,,,,,,,,,,,３４９,f,1９,2023-05-21_19h35.21.296,RL,2022.2.5,60.83687200602039,
43,44,62,34,0,82,82,82,,,,,,,,None,518.5280743000039,518.5280743000039,518.5280743000039,518.5280743000039,518.5280743000039,518.5280743000039,i,0.2605701999855228,518.8157026000263,518.8157026000263,518.8157026000263,518.8157026000263,518.8157026000263,518.8157026000263,519.1105873000051,520.6282436000183,520.6461602000054,520.6461602000054,520.6461602000054,520.6461602000054,520.6461602000054,520.6461602000054,520.6461602000054,520.6461602000054,520.6461602000054,520.6461602000054,520.6461602000054,520.6461602000054,520.6461602000054,522.4775196000119,522.4775196000119,522.4775196000119,522.4775196000119,522.4775196000119,522.4775196000119,522.4775196000119,43,34,62,44,62,60,522.4775196000119,524.0780129000195,,,,,,,,,,,,３４９,f,1９,2023-05-21_19h35.21.296,RL,2022.2.5,60.83687200602039,
47,43,68,23,0,83,83,83,,,,,,,,None,524.0780129000195,524.0780129000195,524.0780129000195,524.0780129000195,524.0780129000195,524.0780129000195,i,0.26989520000643097,524.3905953000067,524.3905953000067,524.3905953000067,524.3905953000067,524.3905953000067,524.3905953000067,524.6610417000193,525.6777450000227,525.69748480001,525.69748480001,525.69748480001,525.69748480001,525.69748480001,525.69748480001,525.69748480001,525.69748480001,525.69748480001,525.69748480001,525.69748480001,525.69748480001,525.69748480001,527.010342100024,527.010342100024,527.010342100024,527.010342100024,527.010342100024,527.010342100024,527.010342100024,47,23,68,43,68,60,527.010342100024,528.942979000014,,,,,,,,,,,,３４９,f,1９,2023-05-21_19h35.21.296,RL,2022.2.5,60.83687200602039,
46,41,69,17,0,84,84,84,,,,,,,,None,528.942979000014,528.942979000014,528.942979000014,528.942979000014,528.942979000014,528.942979000014,i,0.2851515000220388,529.2674783000257,529.2674783000257,529.2674783000257,529.2674783000257,529.2674783000257,529.2674783000257,529.5587889000017,531.5617220000131,531.5617220000131,531.5617220000131,531.5617220000131,531.5617220000131,531.5617220000131,531.5617220000131,531.5617220000131,531.5617220000131,531.5617220000131,531.5617220000131,531.5617220000131,531.5617220000131,531.5617220000131,533.8591459000017,533.8591459000017,533.8591459000017,533.8591459000017,533.8591459000017,533.8591459000017,533.8591459000017,46,17,69,41,69,60,533.8591459000017,535.4750242000155,,,,,,,,,,,,３４９,f,1９,2023-05-21_19h35.21.296,RL,2022.2.5,60.83687200602039,
45,42,63,20,0,85,85,85,,,,,,,,None,535.4750242000155,535.4750242000155,535.4750242000155,535.4750242000155,535.4750242000155,535.4750242000155,i,0.3010851999861188,535.814850499999,535.814850499999,535.814850499999,535.814850499999,535.814850499999,535.814850499999,536.0917534000182,538.0742155000044,538.1087632999988,538.1087632999988,538.1087632999988,538.1087632999988,538.1087632999988,538.1087632999988,538.1087632999988,538.1087632999988,538.1087632999988,538.1087632999988,538.1087632999988,538.1087632999988,538.1087632999988,540.3916834999982,540.3916834999982,540.3916834999982,540.3916834999982,540.3916834999982,540.3916834999982,540.3916834999982,45,20,63,42,63,60,540.3916834999982,542.1908696000173,,,,,,,,,,,,３４９,f,1９,2023-05-21_19h35.21.296,RL,2022.2.5,60.83687200602039,
43,33,71,19,0,86,86,86,,,,,,,,None,542.1908696000173,542.1908696000173,542.1908696000173,542.1908696000173,542.1908696000173,542.1908696000173,i,0.29651929999818094,542.5100826999987,542.5100826999987,542.5100826999987,542.5100826999987,542.5100826999987,542.5100826999987,542.7909245000046,543.7072673000221,543.7413031000178,543.7413031000178,543.7413031000178,543.7413031000178,543.7413031000178,543.7413031000178,543.7413031000178,543.7413031000178,543.7413031000178,543.7413031000178,543.7413031000178,543.7413031000178,543.7413031000178,544.9575767000206,544.9575767000206,544.9575767000206,544.9575767000206,544.9575767000206,544.9575767000206,544.9575767000206,43,19,71,33,71,60,544.9575767000206,546.5223717000044,,,,,,,,,,,,３４９,f,1９,2023-05-21_19h35.21.296,RL,2022.2.5,60.83687200602039,
49,30,67,26,0,87,87,87,,,,,,,,None,546.5223717000044,546.5223717000044,546.5223717000044,546.5223717000044,546.5223717000044,546.5223717000044,i,0.338270400010515,546.8913299000124,546.8913299000124,546.8913299000124,546.8913299000124,546.8913299000124,546.8913299000124,547.173266400001,548.3729433000262,548.3910781000159,548.3910781000159,548.3910781000159,548.3910781000159,548.3910781000159,548.3910781000159,548.3910781000159,548.3910781000159,548.3910781000159,548.3910781000159,548.3910781000159,548.3910781000159,548.3910781000159,549.8890415000205,549.8890415000205,549.8890415000205,549.8890415000205,549.8890415000205,549.8890415000205,549.8890415000205,49,26,67,30,67,60,549.8890415000205,551.6894729000051,,,,,,,,,,,,３４９,f,1９,2023-05-21_19h35.21.296,RL,2022.2.5,60.83687200602039,
51,39,69,26,0,88,88,88,,,,,,,,None,551.6894729000051,551.6894729000051,551.6894729000051,551.6894729000051,551.6894729000051,551.6894729000051,i,0.33465880001313053,552.062705600023,552.062705600023,552.062705600023,552.062705600023,552.062705600023,552.062705600023,552.3391622000199,553.7396261000249,553.7730386000185,553.7730386000185,553.7730386000185,553.7730386000185,553.7730386000185,553.7730386000185,553.7730386000185,553.7730386000185,553.7730386000185,553.7730386000185,553.7730386000185,553.7730386000185,553.7730386000185,555.4725259999977,555.4725259999977,555.4725259999977,555.4725259999977,555.4725259999977,555.4725259999977,555.4725259999977,51,26,69,39,69,60,555.4725259999977,557.3036981000041,,,,,,,,,,,,３４９,f,1９,2023-05-21_19h35.21.296,RL,2022.2.5,60.83687200602039,
47,44,70,34,0,89,89,89,,,,,,,,None,557.3036981000041,557.3036981000041,557.3036981000041,557.3036981000041,557.3036981000041,557.3036981000041,i,0.2957126000255812,557.6264520999976,557.6264520999976,557.6264520999976,557.6264520999976,557.6264520999976,557.6264520999976,557.9208933000045,558.8902370000142,558.8902370000142,558.8902370000142,558.8902370000142,558.8902370000142,558.8902370000142,558.8902370000142,558.8902370000142,558.8902370000142,558.8902370000142,558.8902370000142,558.8902370000142,558.8902370000142,558.8902370000142,560.1549521000125,560.1549521000125,560.1549521000125,560.1549521000125,560.1549521000125,560.1549521000125,560.1549521000125,47,34,70,44,70,60,560.1549521000125,561.7699296000064,,,,,,,,,,,,３４９,f,1９,2023-05-21_19h35.21.296,RL,2022.2.5,60.83687200602039,
50,43,61,23,0,90,90,90,,,,,,,,None,561.7699296000064,561.7699296000064,561.7699296000064,561.7699296000064,561.7699296000064,561.7699296000064,i,0.2796970999916084,562.0754174000176,562.0754174000176,562.0754174000176,562.0754174000176,562.0754174000176,562.0754174000176,562.3699133000046,564.0386825000169,564.0386825000169,564.0386825000169,564.0386825000169,564.0386825000169,564.0386825000169,564.0386825000169,564.0386825000169,564.0386825000169,564.0386825000169,564.0386825000169,564.0386825000169,564.0386825000169,564.0386825000169,566.0037944000214,566.0037944000214,566.0037944000214,566.0037944000214,566.0037944000214,566.0037944000214,566.0037944000214,50,23,61,43,61,60,566.0037944000214,567.6694637000037,,,,,,,,,,,,３４９,f,1９,2023-05-21_19h35.21.296,RL,2022.2.5,60.83687200602039,
51,42,70,37,0,91,91,91,,,,,,,,None,567.6694637000037,567.6694637000037,567.6694637000037,567.6694637000037,567.6694637000037,567.6694637000037,i,0.16165059999912046,567.8540932000033,567.8540932000033,567.8540932000033,567.8540932000033,567.8540932000033,567.8540932000033,568.1377197999973,569.2034062000166,569.22130070001,569.22130070001,569.22130070001,569.22130070001,569.22130070001,569.22130070001,569.22130070001,569.22130070001,569.22130070001,569.22130070001,569.22130070001,569.22130070001,569.22130070001,570.5843291000056,570.5843291000056,570.5843291000056,570.5843291000056,570.5843291000056,570.5843291000056,570.5843291000056,51,37,70,42,70,60,570.5843291000056,572.2848994000233,,,,,,,,,,,,３４９,f,1９,2023-05-21_19h35.21.296,RL,2022.2.5,60.83687200602039,
49,30,57,35,0,92,92,92,,,,,,,,None,572.2848994000233,572.2848994000233,572.2848994000233,572.2848994000233,572.2848994000233,572.2848994000233,i,0.24968199999420904,572.5564286000154,572.5564286000154,572.5564286000154,572.5564286000154,572.5564286000154,572.5564286000154,572.8355154000164,574.6842825000058,574.7007354000234,574.7007354000234,574.7007354000234,574.7007354000234,574.7007354000234,574.7007354000234,574.7007354000234,574.7007354000234,574.7007354000234,574.7007354000234,574.7007354000234,574.7007354000234,574.7007354000234,576.8517566000228,576.8517566000228,576.8517566000228,576.8517566000228,576.8517566000228,576.8517566000228,576.8517566000228,49,35,57,30,57,60,576.8517566000228,578.4181898000243,,,,,,,,,,,,３４９,f,1９,2023-05-21_19h35.21.296,RL,2022.2.5,60.83687200602039,
45,41,69,40,0,93,93,93,,,,,,,,None,578.4181898000243,578.4181898000243,578.4181898000243,578.4181898000243,578.4181898000243,578.4181898000243,i,0.17938290000893176,578.6220756000257,578.6220756000257,578.6220756000257,578.6220756000257,578.6220756000257,578.6220756000257,578.9165975000069,580.1341371000162,580.1539409000252,580.1539409000252,580.1539409000252,580.1539409000252,580.1539409000252,580.1539409000252,580.1539409000252,580.1539409000252,580.1539409000252,580.1539409000252,580.1539409000252,580.1539409000252,580.1539409000252,581.6842967999983,581.6842967999983,581.6842967999983,581.6842967999983,581.6842967999983,581.6842967999983,581.6842967999983,45,40,69,41,69,60,581.6842967999983,583.3168785000162,,,,,,,,,,,,３４９,f,1９,2023-05-21_19h35.21.296,RL,2022.2.5,60.83687200602039,
35,43,70,40,0,94,94,94,,,,,,,,None,583.3168785000162,583.3168785000162,583.3168785000162,583.3168785000162,583.3168785000162,583.3168785000162,i,0.2593001000059303,583.6056392000173,583.6056392000173,583.6056392000173,583.6056392000173,583.6056392000173,583.6056392000173,583.90040090002,584.7994942000078,584.8159600000072,584.8159600000072,584.8159600000072,584.8159600000072,584.8159600000072,584.8159600000072,584.8159600000072,584.8159600000072,584.8159600000072,584.8159600000072,584.8159600000072,584.8159600000072,584.8159600000072,586.015884100023,586.015884100023,586.015884100023,586.015884100023,586.015884100023,586.015884100023,586.015884100023,35,40,70,43,70,60,586.015884100023,587.699632200005,,,,,,,,,,,,３４９,f,1９,2023-05-21_19h35.21.296,RL,2022.2.5,60.83687200602039,
33,38,72,45,0,95,95,95,,,,,,,,None,587.699632200005,587.699632200005,587.699632200005,587.699632200005,587.699632200005,587.699632200005,i,0.240515499986941,587.9703490000102,587.9703490000102,587.9703490000102,587.9703490000102,587.9703490000102,587.9703490000102,588.2659288000141,590.1004275000014,590.1004275000014,590.1004275000014,590.1004275000014,590.1004275000014,590.1004275000014,590.1004275000014,590.1004275000014,590.1004275000014,590.1004275000014,590.1004275000014,590.1004275000014,590.1004275000014,590.1004275000014,592.2320997000206,592.2320997000206,592.2320997000206,592.2320997000206,592.2320997000206,592.2320997000206,592.2320997000206,33,45,72,38,72,60,592.2320997000206,593.8983211000159,,,,,,,,,,,,３４９,f,1９,2023-05-21_19h35.21.296,RL,2022.2.5,60.83687200602039,
35,42,77,53,0,96,96,96,,,,,,,,None,593.8983211000159,593.8983211000159,593.8983211000159,593.8983211000159,593.8983211000159,593.8983211000159,i,0.2462921000260394,594.1701775000256,594.1701775000256,594.1701775000256,594.1701775000256,594.1701775000256,594.1701775000256,594.4646643000015,595.8186634000158,595.8186634000158,595.8186634000158,595.8186634000158,595.8186634000158,595.8186634000158,595.8186634000158,595.8186634000158,595.8186634000158,595.8186634000158,595.8186634000158,595.8186634000158,595.8186634000158,595.8186634000158,597.464693100017,597.464693100017,597.464693100017,597.464693100017,597.464693100017,597.464693100017,597.464693100017,35,53,77,42,77,60,597.464693100017,599.1962012000149,,,,,,,,,,,,３４９,f,1９,2023-05-21_19h35.21.296,RL,2022.2.5,60.83687200602039,
31,42,75,46,0,97,97,97,,,,,,,,None,599.1962012000149,599.1962012000149,599.1962012000149,599.1962012000149,599.1962012000149,599.1962012000149,i,0.24516120000043884,599.4769137000258,599.4769137000258,599.4769137000258,599.4769137000258,599.4769137000258,599.4769137000258,599.7645034000161,601.064460900001,601.0813193000213,601.0813193000213,601.0813193000213,601.0813193000213,601.0813193000213,601.0813193000213,601.0813193000213,601.0813193000213,601.0813193000213,601.0813193000213,601.0813193000213,601.0813193000213,601.0813193000213,602.6802101000212,602.6802101000212,602.6802101000212,602.6802101000212,602.6802101000212,602.6802101000212,602.6802101000212,31,46,75,42,75,60,602.6802101000212,604.3303681000252,,,,,,,,,,,,３４９,f,1９,2023-05-21_19h35.21.296,RL,2022.2.5,60.83687200602039,
25,44,80,51,0,98,98,98,,,,,,,,None,604.3303681000252,604.3303681000252,604.3303681000252,604.3303681000252,604.3303681000252,604.3303681000252,i,0.5438643000088632,604.9095553000225,604.9095553000225,604.9095553000225,604.9095553000225,604.9095553000225,604.9095553000225,605.1800234999973,606.5295766000054,606.5646610000113,606.5646610000113,606.5646610000113,606.5646610000113,606.5646610000113,606.5646610000113,606.5646610000113,606.5646610000113,606.5646610000113,606.5646610000113,606.5646610000113,606.5646610000113,606.5646610000113,608.2134208000207,608.2134208000207,608.2134208000207,608.2134208000207,608.2134208000207,608.2134208000207,608.2134208000207,25,51,80,44,80,60,608.2134208000207,609.7791040000156,,,,,,,,,,,,３４９,f,1９,2023-05-21_19h35.21.296,RL,2022.2.5,60.83687200602039,
27,33,65,48,0,99,99,99,,,,,,,,None,609.7791040000156,609.7791040000156,609.7791040000156,609.7791040000156,609.7791040000156,609.7791040000156,i,0.3456130000122357,610.1587817000109,610.1587817000109,610.1587817000109,610.1587817000109,610.1587817000109,610.1587817000109,610.4448451000208,611.660804300016,611.6775851999992,611.6775851999992,611.6775851999992,611.6775851999992,611.6775851999992,611.6775851999992,611.6775851999992,611.6775851999992,611.6775851999992,611.6775851999992,611.6775851999992,611.6775851999992,611.6775851999992,613.1956790000258,613.1956790000258,613.1956790000258,613.1956790000258,613.1956790000258,613.1956790000258,613.1956790000258,27,48,65,33,65,60,613.1956790000258,615.1946613000182,,,,,,,,,,,,３４９,f,1９,2023-05-21_19h35.21.296,RL,2022.2.5,60.83687200602039,
29,38,65,43,0,100,100,100,,,,,,,,None,615.1946613000182,615.1946613000182,615.1946613000182,615.1946613000182,615.1946613000182,615.1946613000182,i,0.21190409999690019,615.4308660000097,615.4308660000097,615.4308660000097,615.4308660000097,615.4308660000097,615.4308660000097,615.7109960000089,616.8113123000076,616.829963199998,616.829963199998,616.829963199998,616.829963199998,616.829963199998,616.829963199998,616.829963199998,616.829963199998,616.829963199998,616.829963199998,616.829963199998,616.829963199998,616.829963199998,618.2282980000018,618.2282980000018,618.2282980000018,618.2282980000018,618.2282980000018,618.2282980000018,618.2282980000018,29,43,65,38,65,60,618.2282980000018,620.1272317000257,,,,,,,,,,,,３４９,f,1９,2023-05-21_19h35.21.296,RL,2022.2.5,60.83687200602039,
25,34,66,47,0,101,101,101,,,,,,,,None,620.1272317000257,620.1272317000257,620.1272317000257,620.1272317000257,620.1272317000257,620.1272317000257,i,0.3592145000002347,620.5248533000122,620.5248533000122,620.5248533000122,620.5248533000122,620.5248533000122,620.5248533000122,620.8106754000182,622.3624609000108,622.3624609000108,622.3624609000108,622.3624609000108,622.3624609000108,622.3624609000108,622.3624609000108,622.3624609000108,622.3624609000108,622.3624609000108,622.3624609000108,622.3624609000108,622.3624609000108,622.3624609000108,624.2104938999983,624.2104938999983,624.2104938999983,624.2104938999983,624.2104938999983,624.2104938999983,624.2104938999983,25,47,66,34,66,60,624.2104938999983,626.0250347999972,,,,,,,,,,,,３４９,f,1９,2023-05-21_19h35.21.296,RL,2022.2.5,60.83687200602039,
28,33,74,46,0,102,102,102,,,,,,,,None,626.0250347999972,626.0250347999972,626.0250347999972,626.0250347999972,626.0250347999972,626.0250347999972,i,0.21719429999939166,626.2725361000048,626.2725361000048,626.2725361000048,626.2725361000048,626.2725361000048,626.2725361000048,626.5594794000208,627.6426937000069,627.6609532000148,627.6609532000148,627.6609532000148,627.6609532000148,627.6609532000148,627.6609532000148,627.6609532000148,627.6609532000148,627.6609532000148,627.6609532000148,627.6609532000148,627.6609532000148,627.6609532000148,629.0427054000029,629.0427054000029,629.0427054000029,629.0427054000029,629.0427054000029,629.0427054000029,629.0427054000029,28,46,74,33,74,60,629.0427054000029,630.625148400024,,,,,,,,,,,,３４９,f,1９,2023-05-21_19h35.21.296,RL,2022.2.5,60.83687200602039,
25,41,71,56,0,103,103,103,,,,,,,,None,630.625148400024,630.625148400024,630.625148400024,630.625148400024,630.625148400024,630.625148400024,i,0.21984360000351444,630.881526800018,630.881526800018,630.881526800018,630.881526800018,630.881526800018,630.881526800018,631.174643300008,632.895540700003,632.895540700003,632.895540700003,632.895540700003,632.895540700003,632.895540700003,632.895540700003,632.895540700003,632.895540700003,632.895540700003,632.895540700003,632.895540700003,632.895540700003,632.895540700003,634.908620400005,634.908620400005,634.908620400005,634.908620400005,634.908620400005,634.908620400005,634.908620400005,25,56,71,41,71,60,634.908620400005,636.8243818000192,,,,,,,,,,,,３４９,f,1９,2023-05-21_19h35.21.296,RL,2022.2.5,60.83687200602039,
24,34,72,50,0,104,104,104,,,,,,,,None,636.8243818000192,636.8243818000192,636.8243818000192,636.8243818000192,636.8243818000192,636.8243818000192,i,0.2446537000068929,637.0965342000127,637.0965342000127,637.0965342000127,637.0965342000127,637.0965342000127,637.0965342000127,637.3915763999976,639.359577700001,639.359577700001,639.359577700001,639.359577700001,639.359577700001,639.359577700001,639.359577700001,639.359577700001,639.359577700001,639.359577700001,639.359577700001,639.359577700001,639.359577700001,639.359577700001,641.6236807000241,641.6236807000241,641.6236807000241,641.6236807000241,641.6236807000241,641.6236807000241,641.6236807000241,24,50,72,34,72,60,641.6236807000241,643.2561897000123,,,,,,,,,,,,３４９,f,1９,2023-05-21_19h35.21.296,RL,2022.2.5,60.83687200602039,
23,22,76,54,0,105,105,105,,,,,,,,None,643.2561897000123,643.2561897000123,643.2561897000123,643.2561897000123,643.2561897000123,643.2561897000123,i,0.3627240000059828,643.6530381000193,643.6530381000193,643.6530381000193,643.6530381000193,643.6530381000193,643.6530381000193,643.9230035000073,644.7558622000215,644.78935430001,644.78935430001,644.78935430001,644.78935430001,644.78935430001,644.78935430001,644.78935430001,644.78935430001,644.78935430001,644.78935430001,644.78935430001,644.78935430001,644.78935430001,645.9237888000207,645.9237888000207,645.9237888000207,645.9237888000207,645.9237888000207,645.9237888000207,645.9237888000207,23,54,76,22,76,60,645.9237888000207,647.8551878000144,,,,,,,,,,,,３４９,f,1９,2023-05-21_19h35.21.296,RL,2022.2.5,60.83687200602039,
25,23,78,45,0,106,106,106,,,,,,,,None,647.8551878000144,647.8551878000144,647.8551878000144,647.8551878000144,647.8551878000144,647.8551878000144,i,0.5106981999997515,648.397778500017,648.397778500017,648.397778500017,648.397778500017,648.397778500017,648.397778500017,648.688796500006,650.5581974000088,650.5581974000088,650.5581974000088,650.5581974000088,650.5581974000088,650.5581974000088,650.5581974000088,650.5581974000088,650.5581974000088,650.5581974000088,650.5581974000088,650.5581974000088,650.5581974000088,650.5581974000088,652.7213028999977,652.7213028999977,652.7213028999977,652.7213028999977,652.7213028999977,652.7213028999977,652.7213028999977,25,45,78,23,78,60,652.7213028999977,654.4377743000223,,,,,,,,,,,,３４９,f,1９,2023-05-21_19h35.21.296,RL,2022.2.5,60.83687200602039,
34,28,73,44,0,107,107,107,,,,,,,,None,654.4377743000223,654.4377743000223,654.4377743000223,654.4377743000223,654.4377743000223,654.4377743000223,i,0.42714089999208227,654.9009919000091,654.9009919000091,654.9009919000091,654.9009919000091,654.9009919000091,654.9009919000091,655.187786800001,656.5552316000103,656.5739394999982,656.5739394999982,656.5739394999982,656.5739394999982,656.5739394999982,656.5739394999982,656.5739394999982,656.5739394999982,656.5739394999982,656.5739394999982,656.5739394999982,656.5739394999982,656.5739394999982,658.2377490000217,658.2377490000217,658.2377490000217,658.2377490000217,658.2377490000217,658.2377490000217,658.2377490000217,34,44,73,28,73,60,658.2377490000217,659.8698346000165,,,,,,,,,,,,３４９,f,1９,2023-05-21_19h35.21.296,RL,2022.2.5,60.83687200602039,
15,24,76,56,0,108,108,108,,,,,,,,None,659.8698346000165,659.8698346000165,659.8698346000165,659.8698346000165,659.8698346000165,659.8698346000165,i,0.22111470001982525,660.1343641999993,660.1343641999993,660.1343641999993,660.1343641999993,660.1343641999993,660.1343641999993,660.419706500019,661.6690509000036,661.6860996000178,661.6860996000178,661.6860996000178,661.6860996000178,661.6860996000178,661.6860996000178,661.6860996000178,661.6860996000178,661.6860996000178,661.6860996000178,661.6860996000178,661.6860996000178,661.6860996000178,663.2367038000084,663.2367038000084,663.2367038000084,663.2367038000084,663.2367038000084,663.2367038000084,663.2367038000084,15,56,76,24,76,60,663.2367038000084,665.1526690000028,,,,,,,,,,,,３４９,f,1９,2023-05-21_19h35.21.296,RL,2022.2.5,60.83687200602039,
26,29,74,54,0,109,109,109,,,,,,,,None,665.1526690000028,665.1526690000028,665.1526690000028,665.1526690000028,665.1526690000028,665.1526690000028,f,0.23722590002580546,665.4251220000151,665.4251220000151,665.4251220000151,665.4251220000151,665.4251220000151,665.4251220000151,665.7192982000124,666.6184191000066,666.6184191000066,666.6184191000066,666.6184191000066,666.6184191000066,666.6184191000066,666.6184191000066,666.6184191000066,666.6184191000066,666.6184191000066,666.6184191000066,666.6184191000066,666.6184191000066,666.6184191000066,667.8187996000051,667.8187996000051,667.8187996000051,667.8187996000051,667.8187996000051,667.8187996000051,667.8187996000051,26,54,74,29,26,60,667.8187996000051,669.4353958000138,,,,,,,,,,,,３４９,f,1９,2023-05-21_19h35.21.296,RL,2022.2.5,60.83687200602039,
21,27,69,57,0,110,110,110,,,,,,,,None,669.4353958000138,669.4353958000138,669.4353958000138,669.4353958000138,669.4353958000138,669.4353958000138,i,0.2923599999921862,669.757207800023,669.757207800023,669.757207800023,669.757207800023,669.757207800023,669.757207800023,670.0508670000127,671.3850723000069,671.4037830000161,671.4037830000161,671.4037830000161,671.4037830000161,671.4037830000161,671.4037830000161,671.4037830000161,671.4037830000161,671.4037830000161,671.4037830000161,671.4037830000161,671.4037830000161,671.4037830000161,673.0345230000094,673.0345230000094,673.0345230000094,673.0345230000094,673.0345230000094,673.0345230000094,673.0345230000094,21,57,69,27,69,60,673.0345230000094,674.9676860000181,,,,,,,,,,,,３４９,f,1９,2023-05-21_19h35.21.296,RL,2022.2.5,60.83687200602039,
24,27,64,48,0,111,111,111,,,,,,,,None,674.9676860000181,674.9676860000181,674.9676860000181,674.9676860000181,674.9676860000181,674.9676860000181,i,0.2634709000121802,675.2547409000108,675.2547409000108,675.2547409000108,675.2547409000108,675.2547409000108,675.2547409000108,675.5345891000179,676.8507541000145,676.8699971000024,676.8699971000024,676.8699971000024,676.8699971000024,676.8699971000024,676.8699971000024,676.8699971000024,676.8699971000024,676.8699971000024,676.8699971000024,676.8699971000024,676.8699971000024,676.8699971000024,678.4838186000125,678.4838186000125,678.4838186000125,678.4838186000125,678.4838186000125,678.4838186000125,678.4838186000125,24,48,64,27,64,60,678.4838186000125,680.450009000022,,,,,,,,,,,,３４９,f,1９,2023-05-21_19h35.21.296,RL,2022.2.5,60.83687200602039,
30,21,68,44,0,112,112,112,,,,,,,,None,680.450009000022,680.450009000022,680.450009000022,680.450009000022,680.450009000022,680.450009000022,i,0.25119129999075085,680.7412098000059,680.7412098000059,680.7412098000059,680.7412098000059,680.7412098000059,680.7412098000059,681.0335116000206,682.9169388000155,682.9361836000171,682.9361836000171,682.9361836000171,682.9361836000171,682.9361836000171,682.9361836000171,682.9361836000171,682.9361836000171,682.9361836000171,682.9361836000171,682.9361836000171,682.9361836000171,682.9361836000171,685.1164456999977,685.1164456999977,685.1164456999977,685.1164456999977,685.1164456999977,685.1164456999977,685.1164456999977,30,44,68,21,68,60,685.1164456999977,686.8489968000213,,,,,,,,,,,,３４９,f,1９,2023-05-21_19h35.21.296,RL,2022.2.5,60.83687200602039,
32,21,61,50,0,113,113,113,,,,,,,,None,686.8489968000213,686.8489968000213,686.8489968000213,686.8489968000213,686.8489968000213,686.8489968000213,i,0.24045899999327958,687.1287643000251,687.1287643000251,687.1287643000251,687.1287643000251,687.1287643000251,687.1287643000251,687.3973269000126,689.3326692999981,689.3519490000035,689.3519490000035,689.3519490000035,689.3519490000035,689.3519490000035,689.3519490000035,689.3519490000035,689.3519490000035,689.3519490000035,689.3519490000035,689.3519490000035,689.3519490000035,689.3519490000035,691.5815209000139,691.5815209000139,691.5815209000139,691.5815209000139,691.5815209000139,691.5815209000139,691.5815209000139,32,50,61,21,61,60,691.5815209000139,693.1813390000025,,,,,,,,,,,,３４９,f,1９,2023-05-21_19h35.21.296,RL,2022.2.5,60.83687200602039,
27,21,67,51,0,114,114,114,,,,,,,,None,693.1813390000025,693.1813390000025,693.1813390000025,693.1813390000025,693.1813390000025,693.1813390000025,i,0.3402092999895103,693.5525231000211,693.5525231000211,693.5525231000211,693.5525231000211,693.5525231000211,693.5525231000211,693.8313676000107,695.5141896000132,695.5320416000031,695.5320416000031,695.5320416000031,695.5320416000031,695.5320416000031,695.5320416000031,695.5320416000031,695.5320416000031,695.5320416000031,695.5320416000031,695.5320416000031,695.5320416000031,695.5320416000031,697.5141844000027,697.5141844000027,697.5141844000027,697.5141844000027,697.5141844000027,697.5141844000027,697.5141844000027,27,51,67,21,67,60,697.5141844000027,699.1638592000236,,,,,,,,,,,,３４９,f,1９,2023-05-21_19h35.21.296,RL,2022.2.5,60.83687200602039,
19,30,67,43,0,115,115,115,,,,,,,,None,699.1638592000236,699.1638592000236,699.1638592000236,699.1638592000236,699.1638592000236,699.1638592000236,i,0.21522599997115321,699.4110797000176,699.4110797000176,699.4110797000176,699.4110797000176,699.4110797000176,699.4110797000176,699.680370600021,701.61297810002,701.6493438000034,701.6493438000034,701.6493438000034,701.6493438000034,701.6493438000034,701.6493438000034,701.6493438000034,701.6493438000034,701.6493438000034,701.6493438000034,701.6493438000034,701.6493438000034,701.6493438000034,703.878838500008,703.878838500008,703.878838500008,703.878838500008,703.878838500008,703.878838500008,703.878838500008,19,43,67,30,67,60,703.878838500008,705.4964092000155,,,,,,,,,,,,３４９,f,1９,2023-05-21_19h35.21.296,RL,2022.2.5,60.83687200602039,
21,35,69,40,0,116,116,116,,,,,,,,None,705.4964092000155,705.4964092000155,705.4964092000155,705.4964092000155,705.4964092000155,705.4964092000155,i,0.29766989999916404,705.8251598000061,705.8251598000061,705.8251598000061,705.8251598000061,705.8251598000061,705.8251598000061,706.1117233000114,708.0633697000158,708.0633697000158,708.0633697000158,708.0633697000158,708.0633697000158,708.0633697000158,708.0633697000158,708.0633697000158,708.0633697000158,708.0633697000158,708.0633697000158,708.0633697000158,708.0633697000158,708.0633697000158,710.3118805999984,710.3118805999984,710.3118805999984,710.3118805999984,710.3118805999984,710.3118805999984,710.3118805999984,21,40,69,35,69,60,710.3118805999984,711.9439234000165,,,,,,,,,,,,３４９,f,1９,2023-05-21_19h35.21.296,RL,2022.2.5,60.83687200602039,
23,28,63,40,0,117,117,117,,,,,,,,None,711.9439234000165,711.9439234000165,711.9439234000165,711.9439234000165,711.9439234000165,711.9439234000165,i,0.290060800005449,712.2655371000001,712.2655371000001,712.2655371000001,712.2655371000001,712.2655371000001,712.2655371000001,712.5449398000201,714.1779391000164,714.1969296000025,714.1969296000025,714.1969296000025,714.1969296000025,714.1969296000025,714.1969296000025,714.1969296000025,714.1969296000025,714.1969296000025,714.1969296000025,714.1969296000025,714.1969296000025,714.1969296000025,716.1273142000136,716.1273142000136,716.1273142000136,716.1273142000136,716.1273142000136,716.1273142000136,716.1273142000136,23,40,63,28,63,60,716.1273142000136,717.9600529000163,,,,,,,,,,,,３４９,f,1９,2023-05-21_19h35.21.296,RL,2022.2.5,60.83687200602039,
32,30,62,40,0,118,118,118,,,,,,,,None,717.9600529000163,717.9600529000163,717.9600529000163,717.9600529000163,717.9600529000163,717.9600529000163,i,0.2201026999973692,718.2104500000132,718.2104500000132,718.2104500000132,718.2104500000132,718.2104500000132,718.2104500000132,718.4940955000056,719.7935734000057,719.8130424999981,719.8130424999981,719.8130424999981,719.8130424999981,719.8130424999981,719.8130424999981,719.8130424999981,719.8130424999981,719.8130424999981,719.8130424999981,719.8130424999981,719.8130424999981,719.8130424999981,721.4081239000079,721.4081239000079,721.4081239000079,721.4081239000079,721.4081239000079,721.4081239000079,721.4081239000079,32,40,62,30,62,60,721.4081239000079,723.0923927000258,,,,,,,,,,,,３４９,f,1９,2023-05-21_19h35.21.296,RL,2022.2.5,60.83687200602039,
25,27,54,40,0,119,119,119,,,,,,,,None,723.0923927000258,723.0923927000258,723.0923927000258,723.0923927000258,723.0923927000258,723.0923927000258,i,0.23402150001493283,723.3477868000045,723.3477868000045,723.3477868000045,723.3477868000045,723.3477868000045,723.3477868000045,723.6421807000006,724.942140900006,724.9585167000187,724.9585167000187,724.9585167000187,724.9585167000187,724.9585167000187,724.9585167000187,724.9585167000187,724.9585167000187,724.9585167000187,724.9585167000187,724.9585167000187,724.9585167000187,724.9585167000187,726.5578327999974,726.5578327999974,726.5578327999974,726.5578327999974,726.5578327999974,726.5578327999974,726.5578327999974,25,40,54,27,54,60,726.5578327999974,728.2405117000162,,,,,,,,,,,,３４９,f,1９,2023-05-21_19h35.21.296,RL,2022.2.5,60.83687200602039,
19,34,62,44,0,120,120,120,,,,,,,,None,728.2405117000162,728.2405117000162,728.2405117000162,728.2405117000162,728.2405117000162,728.2405117000162,i,0.2359915999986697,728.5120291000057,728.5120291000057,728.5120291000057,728.5120291000057,728.5120291000057,728.5120291000057,728.79207950001,730.1083318000019,730.1258321000205,730.1258321000205,730.1258321000205,730.1258321000205,730.1258321000205,730.1258321000205,730.1258321000205,730.1258321000205,730.1258321000205,730.1258321000205,730.1258321000205,730.1258321000205,730.1258321000205,731.7414325000136,731.7414325000136,731.7414325000136,731.7414325000136,731.7414325000136,731.7414325000136,731.7414325000136,19,44,62,34,62,60,731.7414325000136,733.2744945000159,,,,,,,,,,,,３４９,f,1９,2023-05-21_19h35.21.296,RL,2022.2.5,60.83687200602039,
24,33,69,50,0,121,121,121,,,,,,,,None,733.2744945000159,733.2744945000159,733.2744945000159,733.2744945000159,733.2744945000159,733.2744945000159,i,0.23199149998254143,733.5372053000028,733.5372053000028,733.5372053000028,733.5372053000028,733.5372053000028,733.5372053000028,733.8239294000086,735.5243000000191,735.5446289000101,735.5446289000101,735.5446289000101,735.5446289000101,735.5446289000101,735.5446289000101,735.5446289000101,735.5446289000101,735.5446289000101,735.5446289000101,735.5446289000101,735.5446289000101,735.5446289000101,737.556631000014,737.556631000014,737.556631000014,737.556631000014,737.556631000014,737.556631000014,737.556631000014,24,50,69,33,69,60,737.556631000014,739.1232270000037,,,,,,,,,,,,３４９,f,1９,2023-05-21_19h35.21.296,RL,2022.2.5,60.83687200602039,
