arm1,arm2,arm3,arm4,trials.thisRepN,trials.thisTrialN,trials.thisN,trials.thisIndex,instru_img1.started,instru_resp.started,instru_resp.keys,instru_resp.rt,image_2.started,text_2.started,fixbefore_2.started,rest_response.keys,red.started,green.started,yellow.started,blue.started,choose_bandit.started,Fixation.started,choose_bandit.keys,choose_bandit.rt,black.started,red_2.started,green_2.started,yellow_2.started,blue_2.started,fixation_2.started,docs.started,docs.stopped,black.stopped,red_2.stopped,green_2.stopped,yellow_2.stopped,blue_2.stopped,fixation_2.stopped,black_com.started,reward_sub.started,reward__sub.started,red_compare.started,green_com.started,yellow_com.started,blue_com.started,black_com.stopped,reward_sub.stopped,reward__sub.stopped,red_compare.stopped,green_com.stopped,yellow_com.stopped,blue_com.stopped,rewardred,rewardyellow,rewardblue,rewardgreen,subchoose,expectation,intertrialfix.started,intertrialfix.stopped,red.stopped,green.stopped,yellow.stopped,blue.stopped,choose_bandit.stopped,Fixation.stopped,bigx.started,bigx.stopped,rest_image.started,rest_response.started,rest_response.rt,image_expect_after.started,text_exp_after.started,image_expect_after.stopped,text_exp_after.stopped,image.started,key_resp.started,key_resp.keys,key_resp.rt,participant,Gender,Age,date,expName,psychopyVersion,frameRate,
,,,,,,,,12.627138799987733,12.627138799987733,space,16.79295160001493,,,,,,,,,,,,,,,,,,,,,,,,,,,,,,,,,,,,,,,,,,,,,,,,,,,,,,,,,,,,,,,,,,,,３５０,f,1９,2023-05-21_20h08.22.610,RL,2022.2.5,60.17144046720178,
38,42,70,60,0,0,0,0,,,,,29.460114299989073,29.460114299989073,34.46967120000045,None,35.475138999987394,35.475138999987394,35.475138999987394,35.475138999987394,35.475138999987394,35.475138999987394,f,1.030697699985467,36.54607780001243,36.54607780001243,36.54607780001243,36.54607780001243,36.54607780001243,36.54607780001243,36.81830169999739,38.60222299999441,38.64033699998981,38.64033699998981,38.64033699998981,38.64033699998981,38.64033699998981,38.64033699998981,38.64033699998981,38.64033699998981,38.64033699998981,38.64033699998981,38.64033699998981,38.64033699998981,38.64033699998981,40.78568699999596,40.78568699999596,40.78568699999596,40.78568699999596,40.78568699999596,40.78568699999596,40.78568699999596,60,38,70,42,60,70,40.78568699999596,42.76768849999644,,,,,,,,,,,,,,,,,,,,３５０,f,1９,2023-05-21_20h08.22.610,RL,2022.2.5,60.17144046720178,
34,36,63,60,0,1,1,1,,,,,,,,None,42.76768849999644,42.76768849999644,42.76768849999644,42.76768849999644,42.76768849999644,42.76768849999644,f,0.27149679997819476,43.07165110000642,43.07165110000642,43.07165110000642,43.07165110000642,43.07165110000642,43.07165110000642,43.350983999989694,44.317922599992016,44.35561689999304,44.35561689999304,44.35561689999304,44.35561689999304,44.35561689999304,44.35561689999304,44.35561689999304,44.35561689999304,44.35561689999304,44.35561689999304,44.35561689999304,44.35561689999304,44.35561689999304,45.63395359998685,45.63395359998685,45.63395359998685,45.63395359998685,45.63395359998685,45.63395359998685,45.63395359998685,60,34,63,36,60,70,45.63395359998685,47.50045290001435,,,,,,,,,,,,,,,,,,,,３５０,f,1９,2023-05-21_20h08.22.610,RL,2022.2.5,60.17144046720178,
42,40,66,56,0,2,2,2,,,,,,,,None,47.50045290001435,47.50045290001435,47.50045290001435,47.50045290001435,47.50045290001435,47.50045290001435,r,0.3223091999825556,47.85678020000341,47.85678020000341,47.85678020000341,47.85678020000341,47.85678020000341,47.85678020000341,48.150024000002304,49.766209499997785,49.78639910000493,49.78639910000493,49.78639910000493,49.78639910000493,49.78639910000493,49.78639910000493,49.78639910000493,49.78639910000493,49.78639910000493,49.78639910000493,49.78639910000493,49.78639910000493,49.78639910000493,51.71592139999848,51.71592139999848,51.71592139999848,51.71592139999848,51.71592139999848,51.71592139999848,51.71592139999848,56,42,66,40,42,70,51.71592139999848,53.68259800001397,,,,,,,,,,,,,,,,,,,,３５０,f,1９,2023-05-21_20h08.22.610,RL,2022.2.5,60.17144046720178,
38,44,71,57,0,3,3,3,,,,,,,,None,53.68259800001397,53.68259800001397,53.68259800001397,53.68259800001397,53.68259800001397,53.68259800001397,j,0.30638120000367053,54.02309969998896,54.02309969998896,54.02309969998896,54.02309969998896,54.02309969998896,54.02309969998896,54.29890739999246,55.44791350001469,55.46418440001435,55.46418440001435,55.46418440001435,55.46418440001435,55.46418440001435,55.46418440001435,55.46418440001435,55.46418440001435,55.46418440001435,55.46418440001435,55.46418440001435,55.46418440001435,55.46418440001435,56.9156071000034,56.9156071000034,56.9156071000034,56.9156071000034,56.9156071000034,56.9156071000034,56.9156071000034,57,38,71,44,44,70,56.9156071000034,58.48207470000489,,,,,,,,,,,,,,,,,,,,３５０,f,1９,2023-05-21_20h08.22.610,RL,2022.2.5,60.17144046720178,
42,51,69,57,0,4,4,4,,,,,,,,None,58.48207470000489,58.48207470000489,58.48207470000489,58.48207470000489,58.48207470000489,58.48207470000489,i,0.42429600001196377,58.93627979999292,58.93627979999292,58.93627979999292,58.93627979999292,58.93627979999292,58.93627979999292,59.21554699999979,60.29645409999648,60.31364080001367,60.31364080001367,60.31364080001367,60.31364080001367,60.31364080001367,60.31364080001367,60.31364080001367,60.31364080001367,60.31364080001367,60.31364080001367,60.31364080001367,60.31364080001367,60.31364080001367,61.69746339999256,61.69746339999256,61.69746339999256,61.69746339999256,61.69746339999256,61.69746339999256,61.69746339999256,57,42,69,51,69,70,61.69746339999256,63.279881399997976,,,,,,,,,,,,,,,,,,,,３５０,f,1９,2023-05-21_20h08.22.610,RL,2022.2.5,60.17144046720178,
33,38,82,57,0,5,5,5,,,,,,,,None,63.279881399997976,63.279881399997976,63.279881399997976,63.279881399997976,63.279881399997976,63.279881399997976,j,0.3901954000175465,63.71065799999633,63.71065799999633,63.71065799999633,63.71065799999633,63.71065799999633,63.71065799999633,63.99802080000518,65.49727799999528,65.51762430000235,65.51762430000235,65.51762430000235,65.51762430000235,65.51762430000235,65.51762430000235,65.51762430000235,65.51762430000235,65.51762430000235,65.51762430000235,65.51762430000235,65.51762430000235,65.51762430000235,67.3305798000074,67.3305798000074,67.3305798000074,67.3305798000074,67.3305798000074,67.3305798000074,67.3305798000074,57,33,82,38,38,70,67.3305798000074,69.0802049000049,,,,,,,,,,,,,,,,,,,,３５０,f,1９,2023-05-21_20h08.22.610,RL,2022.2.5,60.17144046720178,
40,43,80,58,0,6,6,6,,,,,,,,None,69.0802049000049,69.0802049000049,69.0802049000049,69.0802049000049,69.0802049000049,69.0802049000049,r,0.36104509999859147,69.47723950000363,69.47723950000363,69.47723950000363,69.47723950000363,69.47723950000363,69.47723950000363,69.76316329999827,71.41342279998935,71.43194179999409,71.43194179999409,71.43194179999409,71.43194179999409,71.43194179999409,71.43194179999409,71.43194179999409,71.43194179999409,71.43194179999409,71.43194179999409,71.43194179999409,71.43194179999409,71.43194179999409,73.37947670000722,73.37947670000722,73.37947670000722,73.37947670000722,73.37947670000722,73.37947670000722,73.37947670000722,58,40,80,43,40,70,73.37947670000722,75.22835369998938,,,,,,,,,,,,,,,,,,,,３５０,f,1９,2023-05-21_20h08.22.610,RL,2022.2.5,60.17144046720178,
31,34,74,54,0,7,7,7,,,,,,,,None,75.22835369998938,75.22835369998938,75.22835369998938,75.22835369998938,75.22835369998938,75.22835369998938,f,0.30339440001989715,75.57069220000994,75.57069220000994,75.57069220000994,75.57069220000994,75.57069220000994,75.57069220000994,75.84572939999634,76.79577900000731,76.8323623999895,76.8323623999895,76.8323623999895,76.8323623999895,76.8323623999895,76.8323623999895,76.8323623999895,76.8323623999895,76.8323623999895,76.8323623999895,76.8323623999895,76.8323623999895,76.8323623999895,78.07755769998766,78.07755769998766,78.07755769998766,78.07755769998766,78.07755769998766,78.07755769998766,78.07755769998766,54,31,74,34,54,70,78.07755769998766,79.87773249999736,,,,,,,,,,,,,,,,,,,,３５０,f,1９,2023-05-21_20h08.22.610,RL,2022.2.5,60.17144046720178,
49,44,80,60,0,8,8,8,,,,,,,,None,79.87773249999736,79.87773249999736,79.87773249999736,79.87773249999736,79.87773249999736,79.87773249999736,i,0.39434100000653416,80.29697560000932,80.29697560000932,80.29697560000932,80.29697560000932,80.29697560000932,80.29697560000932,80.57745879999129,81.57740949999425,81.59585380001226,81.59585380001226,81.59585380001226,81.59585380001226,81.59585380001226,81.59585380001226,81.59585380001226,81.59585380001226,81.59585380001226,81.59585380001226,81.59585380001226,81.59585380001226,81.59585380001226,82.89449199999217,82.89449199999217,82.89449199999217,82.89449199999217,82.89449199999217,82.89449199999217,82.89449199999217,60,49,80,44,80,70,82.89449199999217,84.59373849999974,,,,,,,,,,,,,,,,,,,,３５０,f,1９,2023-05-21_20h08.22.610,RL,2022.2.5,60.17144046720178,
44,44,80,63,0,9,9,9,,,,,,,,None,84.59373849999974,84.59373849999974,84.59373849999974,84.59373849999974,84.59373849999974,84.59373849999974,i,0.4474892999860458,85.07348349998938,85.07348349998938,85.07348349998938,85.07348349998938,85.07348349998938,85.07348349998938,85.34309400001075,86.19320229999721,86.22902769999928,86.22902769999928,86.22902769999928,86.22902769999928,86.22902769999928,86.22902769999928,86.22902769999928,86.22902769999928,86.22902769999928,86.22902769999928,86.22902769999928,86.22902769999928,86.22902769999928,87.39296319999266,87.39296319999266,87.39296319999266,87.39296319999266,87.39296319999266,87.39296319999266,87.39296319999266,63,44,80,44,80,70,87.39296319999266,89.17627500000526,,,,,,,,,,,,,,,,,,,,３５０,f,1９,2023-05-21_20h08.22.610,RL,2022.2.5,60.17144046720178,
45,44,76,67,0,10,10,10,,,,,,,,None,89.17627500000526,89.17627500000526,89.17627500000526,89.17627500000526,89.17627500000526,89.17627500000526,i,0.40233559999614954,89.61775189999025,89.61775189999025,89.61775189999025,89.61775189999025,89.61775189999025,89.61775189999025,89.91006980001112,91.8096583999868,91.83004850000725,91.83004850000725,91.83004850000725,91.83004850000725,91.83004850000725,91.83004850000725,91.83004850000725,91.83004850000725,91.83004850000725,91.83004850000725,91.83004850000725,91.83004850000725,91.83004850000725,94.04214639999554,94.04214639999554,94.04214639999554,94.04214639999554,94.04214639999554,94.04214639999554,94.04214639999554,67,45,76,44,76,70,94.04214639999554,95.87519500000053,,,,,,,,,,,,,,,,,,,,３５０,f,1９,2023-05-21_20h08.22.610,RL,2022.2.5,60.17144046720178,
51,40,76,62,0,11,11,11,,,,,,,,None,95.87519500000053,95.87519500000053,95.87519500000053,95.87519500000053,95.87519500000053,95.87519500000053,f,0.5220860000117682,96.42818779998925,96.42818779998925,96.42818779998925,96.42818779998925,96.42818779998925,96.42818779998925,96.70873459998984,98.19246009999188,98.21226050000405,98.21226050000405,98.21226050000405,98.21226050000405,98.21226050000405,98.21226050000405,98.21226050000405,98.21226050000405,98.21226050000405,98.21226050000405,98.21226050000405,98.21226050000405,98.21226050000405,99.99079680000432,99.99079680000432,99.99079680000432,99.99079680000432,99.99079680000432,99.99079680000432,99.99079680000432,62,51,76,40,62,70,99.99079680000432,101.69108650000999,,,,,,,,,,,,,,,,,,,,３５０,f,1９,2023-05-21_20h08.22.610,RL,2022.2.5,60.17144046720178,
51,60,83,67,0,12,12,12,,,,,,,,None,101.69108650000999,101.69108650000999,101.69108650000999,101.69108650000999,101.69108650000999,101.69108650000999,i,0.2967845000093803,102.0121366000094,102.0121366000094,102.0121366000094,102.0121366000094,102.0121366000094,102.0121366000094,102.30767820001347,104.0757988000114,104.0757988000114,104.0757988000114,104.0757988000114,104.0757988000114,104.0757988000114,104.0757988000114,104.0757988000114,104.0757988000114,104.0757988000114,104.0757988000114,104.0757988000114,104.0757988000114,104.0757988000114,106.14004100000602,106.14004100000602,106.14004100000602,106.14004100000602,106.14004100000602,106.14004100000602,106.14004100000602,67,51,83,60,83,70,106.14004100000602,108.10658439999679,,,,,,,,,,,,,,,,,,,,３５０,f,1９,2023-05-21_20h08.22.610,RL,2022.2.5,60.17144046720178,
44,62,73,63,0,13,13,13,,,,,,,,None,108.10658439999679,108.10658439999679,108.10658439999679,108.10658439999679,108.10658439999679,108.10658439999679,i,0.31102299998747185,108.44315690000076,108.44315690000076,108.44315690000076,108.44315690000076,108.44315690000076,108.44315690000076,108.72315400000662,109.95512480000616,109.97165190000669,109.97165190000669,109.97165190000669,109.97165190000669,109.97165190000669,109.97165190000669,109.97165190000669,109.97165190000669,109.97165190000669,109.97165190000669,109.97165190000669,109.97165190000669,109.97165190000669,111.50537309999345,111.50537309999345,111.50537309999345,111.50537309999345,111.50537309999345,111.50537309999345,111.50537309999345,63,44,73,62,73,70,111.50537309999345,113.45521129999543,,,,,,,,,,,,,,,,,,,,３５０,f,1９,2023-05-21_20h08.22.610,RL,2022.2.5,60.17144046720178,
43,48,75,50,0,14,14,14,,,,,,,,None,113.45521129999543,113.45521129999543,113.45521129999543,113.45521129999543,113.45521129999543,113.45521129999543,f,0.5769565000082366,114.05951449999702,114.05951449999702,114.05951449999702,114.05951449999702,114.05951449999702,114.05951449999702,114.33878630000982,115.33924239999033,115.35887309999089,115.35887309999089,115.35887309999089,115.35887309999089,115.35887309999089,115.35887309999089,115.35887309999089,115.35887309999089,115.35887309999089,115.35887309999089,115.35887309999089,115.35887309999089,115.35887309999089,116.65508570001111,116.65508570001111,116.65508570001111,116.65508570001111,116.65508570001111,116.65508570001111,116.65508570001111,50,43,75,48,50,70,116.65508570001111,118.3561800000025,,,,,,,,,,,,,,,,,,,,３５０,f,1９,2023-05-21_20h08.22.610,RL,2022.2.5,60.17144046720178,
59,66,69,61,0,15,15,15,,,,,,,,None,118.3561800000025,118.3561800000025,118.3561800000025,118.3561800000025,118.3561800000025,118.3561800000025,i,0.3675420999934431,118.76245209999615,118.76245209999615,118.76245209999615,118.76245209999615,118.76245209999615,118.76245209999615,119.03809660000843,120.90387760000885,120.92118100001244,120.92118100001244,120.92118100001244,120.92118100001244,120.92118100001244,120.92118100001244,120.92118100001244,120.92118100001244,120.92118100001244,120.92118100001244,120.92118100001244,120.92118100001244,120.92118100001244,123.08746199999587,123.08746199999587,123.08746199999587,123.08746199999587,123.08746199999587,123.08746199999587,123.08746199999587,61,59,69,66,69,70,123.08746199999587,124.88675720000174,,,,,,,,,,,,,,,,,,,,３５０,f,1９,2023-05-21_20h08.22.610,RL,2022.2.5,60.17144046720178,
52,63,54,54,0,16,16,16,,,,,,,,None,124.88675720000174,124.88675720000174,124.88675720000174,124.88675720000174,124.88675720000174,124.88675720000174,i,0.2872434000018984,125.20751380000729,125.20751380000729,125.20751380000729,125.20751380000729,125.20751380000729,125.20751380000729,125.48769650000031,126.93629240000155,126.95364019999397,126.95364019999397,126.95364019999397,126.95364019999397,126.95364019999397,126.95364019999397,126.95364019999397,126.95364019999397,126.95364019999397,126.95364019999397,126.95364019999397,126.95364019999397,126.95364019999397,128.7022939999879,128.7022939999879,128.7022939999879,128.7022939999879,128.7022939999879,128.7022939999879,128.7022939999879,54,52,54,63,54,70,128.7022939999879,130.3364021999878,,,,,,,,,,,,,,,,,,,,３５０,f,1９,2023-05-21_20h08.22.610,RL,2022.2.5,60.17144046720178,
54,61,52,53,0,17,17,17,,,,,,,,None,130.3364021999878,130.3364021999878,130.3364021999878,130.3364021999878,130.3364021999878,130.3364021999878,i,0.3251956999883987,130.69948270000168,130.69948270000168,130.69948270000168,130.69948270000168,130.69948270000168,130.69948270000168,130.96936230000574,132.45150299998932,132.48549150000326,132.48549150000326,132.48549150000326,132.48549150000326,132.48549150000326,132.48549150000326,132.48549150000326,132.48549150000326,132.48549150000326,132.48549150000326,132.48549150000326,132.48549150000326,132.48549150000326,134.2691829999967,134.2691829999967,134.2691829999967,134.2691829999967,134.2691829999967,134.2691829999967,134.2691829999967,53,54,52,61,52,70,134.2691829999967,135.88434099999722,,,,,,,,,,,,,,,,,,,,３５０,f,1９,2023-05-21_20h08.22.610,RL,2022.2.5,60.17144046720178,
54,68,58,58,0,18,18,18,,,,,,,,None,135.88434099999722,135.88434099999722,135.88434099999722,135.88434099999722,135.88434099999722,135.88434099999722,f,0.9289157000021078,136.83874539998942,136.83874539998942,136.83874539998942,136.83874539998942,136.83874539998942,136.83874539998942,137.11762440000894,138.73522199998843,138.75466440001037,138.75466440001037,138.75466440001037,138.75466440001037,138.75466440001037,138.75466440001037,138.75466440001037,138.75466440001037,138.75466440001037,138.75466440001037,138.75466440001037,138.75466440001037,138.75466440001037,140.6675022999989,140.6675022999989,140.6675022999989,140.6675022999989,140.6675022999989,140.6675022999989,140.6675022999989,58,54,58,68,58,70,140.6675022999989,142.20000589999836,,,,,,,,,,,,,,,,,,,,３５０,f,1９,2023-05-21_20h08.22.610,RL,2022.2.5,60.17144046720178,
57,63,62,55,0,19,19,19,,,,,,,,None,142.20000589999836,142.20000589999836,142.20000589999836,142.20000589999836,142.20000589999836,142.20000589999836,f,0.4797398000082467,142.70403940000688,142.70403940000688,142.70403940000688,142.70403940000688,142.70403940000688,142.70403940000688,142.98359720001463,144.01713429999654,144.03452590000234,144.03452590000234,144.03452590000234,144.03452590000234,144.03452590000234,144.03452590000234,144.03452590000234,144.03452590000234,144.03452590000234,144.03452590000234,144.03452590000234,144.03452590000234,144.03452590000234,145.36692950001452,145.36692950001452,145.36692950001452,145.36692950001452,145.36692950001452,145.36692950001452,145.36692950001452,55,57,62,63,55,70,145.36692950001452,147.05005660001189,,,,,,,,,,,,,,,,,,,,３５０,f,1９,2023-05-21_20h08.22.610,RL,2022.2.5,60.17144046720178,
66,64,67,52,0,20,20,20,,,,,,,,None,147.05005660001189,147.05005660001189,147.05005660001189,147.05005660001189,147.05005660001189,147.05005660001189,r,0.3996681999997236,147.48653080000076,147.48653080000076,147.48653080000076,147.48653080000076,147.48653080000076,147.48653080000076,147.76604710001266,149.29928020000807,149.31545709999045,149.31545709999045,149.31545709999045,149.31545709999045,149.31545709999045,149.31545709999045,149.31545709999045,149.31545709999045,149.31545709999045,149.31545709999045,149.31545709999045,149.31545709999045,149.31545709999045,151.14948729999014,151.14948729999014,151.14948729999014,151.14948729999014,151.14948729999014,151.14948729999014,151.14948729999014,52,66,67,64,66,70,151.14948729999014,152.74851609999314,,,,,,,,,,,,,,,,,,,,３５０,f,1９,2023-05-21_20h08.22.610,RL,2022.2.5,60.17144046720178,
60,59,61,48,0,21,21,21,,,,,,,,None,152.74851609999314,152.74851609999314,152.74851609999314,152.74851609999314,152.74851609999314,152.74851609999314,j,0.26388469999074005,153.04620770001202,153.04620770001202,153.04620770001202,153.04620770001202,153.04620770001202,153.04620770001202,153.33117089999723,154.63124700001208,154.64888100000098,154.64888100000098,154.64888100000098,154.64888100000098,154.64888100000098,154.64888100000098,154.64888100000098,154.64888100000098,154.64888100000098,154.64888100000098,154.64888100000098,154.64888100000098,154.64888100000098,156.24778110001353,156.24778110001353,156.24778110001353,156.24778110001353,156.24778110001353,156.24778110001353,156.24778110001353,48,60,61,59,59,70,156.24778110001353,157.98102800000925,,,,,,,,,,,,,,,,,,,,３５０,f,1９,2023-05-21_20h08.22.610,RL,2022.2.5,60.17144046720178,
61,51,67,49,0,22,22,22,,,,,,,,None,157.98102800000925,157.98102800000925,157.98102800000925,157.98102800000925,157.98102800000925,157.98102800000925,r,0.557006499991985,158.57744850000017,158.57744850000017,158.57744850000017,158.57744850000017,158.57744850000017,158.57744850000017,158.86433310000575,159.81467709998833,159.84537130000535,159.84537130000535,159.84537130000535,159.84537130000535,159.84537130000535,159.84537130000535,159.84537130000535,159.84537130000535,159.84537130000535,159.84537130000535,159.84537130000535,159.84537130000535,159.84537130000535,161.09801419998985,161.09801419998985,161.09801419998985,161.09801419998985,161.09801419998985,161.09801419998985,161.09801419998985,49,61,67,51,61,70,161.09801419998985,163.03009960000054,,,,,,,,,,,,,,,,,,,,３５０,f,1９,2023-05-21_20h08.22.610,RL,2022.2.5,60.17144046720178,
67,46,67,51,0,23,23,23,,,,,,,,None,163.03009960000054,163.03009960000054,163.03009960000054,163.03009960000054,163.03009960000054,163.03009960000054,f,1.1298079999978654,164.1929216000135,164.1929216000135,164.1929216000135,164.1929216000135,164.1929216000135,164.1929216000135,164.46339240000816,165.897143899987,165.93337750001228,165.93337750001228,165.93337750001228,165.93337750001228,165.93337750001228,165.93337750001228,165.93337750001228,165.93337750001228,165.93337750001228,165.93337750001228,165.93337750001228,165.93337750001228,165.93337750001228,167.66311230001156,167.66311230001156,167.66311230001156,167.66311230001156,167.66311230001156,167.66311230001156,167.66311230001156,51,67,67,46,51,70,167.66311230001156,169.57768190000206,,,,,,,,,,,,,,,,,,,,３５０,f,1９,2023-05-21_20h08.22.610,RL,2022.2.5,60.17144046720178,
60,60,66,52,0,24,24,24,,,,,,,,None,169.57768190000206,169.57768190000206,169.57768190000206,169.57768190000206,169.57768190000206,169.57768190000206,r,0.38390489999437705,169.9835677999945,169.9835677999945,169.9835677999945,169.9835677999945,169.9835677999945,169.9835677999945,170.27847940000356,171.89580220001517,171.91109470001538,171.91109470001538,171.91109470001538,171.91109470001538,171.91109470001538,171.91109470001538,171.91109470001538,171.91109470001538,171.91109470001538,171.91109470001538,171.91109470001538,171.91109470001538,171.91109470001538,173.8287263000093,173.8287263000093,173.8287263000093,173.8287263000093,173.8287263000093,173.8287263000093,173.8287263000093,52,60,66,60,60,70,173.8287263000093,175.5607425000053,,,,,,,,,,,,,,,,,,,,３５０,f,1９,2023-05-21_20h08.22.610,RL,2022.2.5,60.17144046720178,
64,56,63,51,0,25,25,25,,,,,,,,None,175.5607425000053,175.5607425000053,175.5607425000053,175.5607425000053,175.5607425000053,175.5607425000053,j,0.3463005000085104,175.93264819998876,175.93264819998876,175.93264819998876,175.93264819998876,175.93264819998876,175.93264819998876,176.22771760000614,177.6271190000116,177.6271190000116,177.6271190000116,177.6271190000116,177.6271190000116,177.6271190000116,177.6271190000116,177.6271190000116,177.6271190000116,177.6271190000116,177.6271190000116,177.6271190000116,177.6271190000116,177.6271190000116,179.3273959000071,179.3273959000071,179.3273959000071,179.3273959000071,179.3273959000071,179.3273959000071,179.3273959000071,51,64,63,56,56,70,179.3273959000071,181.32621940001263,,,,,,,,,,,,,,,,,,,,３５０,f,1９,2023-05-21_20h08.22.610,RL,2022.2.5,60.17144046720178,
61,58,60,55,0,26,26,26,,,,,,,,None,181.32621940001263,181.32621940001263,181.32621940001263,181.32621940001263,181.32621940001263,181.32621940001263,r,0.3650465999962762,181.72337479999987,181.72337479999987,181.72337479999987,181.72337479999987,181.72337479999987,181.72337479999987,181.99320420000004,182.91001930000493,182.94437690000632,182.94437690000632,182.94437690000632,182.94437690000632,182.94437690000632,182.94437690000632,182.94437690000632,182.94437690000632,182.94437690000632,182.94437690000632,182.94437690000632,182.94437690000632,182.94437690000632,184.1763409000123,184.1763409000123,184.1763409000123,184.1763409000123,184.1763409000123,184.1763409000123,184.1763409000123,55,61,60,58,61,70,184.1763409000123,185.92573670001002,,,,,,,,,,,,,,,,,,,,３５０,f,1９,2023-05-21_20h08.22.610,RL,2022.2.5,60.17144046720178,
69,55,61,54,0,27,27,27,,,,,,,,None,185.92573670001002,185.92573670001002,185.92573670001002,185.92573670001002,185.92573670001002,185.92573670001002,r,0.3460054000024684,186.29609540000092,186.29609540000092,186.29609540000092,186.29609540000092,186.29609540000092,186.29609540000092,186.57511830001022,188.49124000000302,188.5081860999926,188.5081860999926,188.5081860999926,188.5081860999926,188.5081860999926,188.5081860999926,188.5081860999926,188.5081860999926,188.5081860999926,188.5081860999926,188.5081860999926,188.5081860999926,188.5081860999926,190.7245499000128,190.7245499000128,190.7245499000128,190.7245499000128,190.7245499000128,190.7245499000128,190.7245499000128,54,69,61,55,69,70,190.7245499000128,192.3575598000025,,,,,,,,,,,,,,,,,,,,３５０,f,1９,2023-05-21_20h08.22.610,RL,2022.2.5,60.17144046720178,
66,61,58,52,0,28,28,28,,,,,,,,None,192.3575598000025,192.3575598000025,192.3575598000025,192.3575598000025,192.3575598000025,192.3575598000025,r,0.39839350001420826,192.7795843000058,192.7795843000058,192.7795843000058,192.7795843000058,192.7795843000058,192.7795843000058,193.0747307999991,194.3579594999901,194.3579594999901,194.3579594999901,194.3579594999901,194.3579594999901,194.3579594999901,194.3579594999901,194.3579594999901,194.3579594999901,194.3579594999901,194.3579594999901,194.3579594999901,194.3579594999901,194.3579594999901,195.94114499998977,195.94114499998977,195.94114499998977,195.94114499998977,195.94114499998977,195.94114499998977,195.94114499998977,52,66,58,61,66,70,195.94114499998977,197.5735463000019,,,,,,,,,,,,,,,,,,,,３５０,f,1９,2023-05-21_20h08.22.610,RL,2022.2.5,60.17144046720178,
63,52,58,52,0,29,29,29,,,,,,,,None,197.5735463000019,197.5735463000019,197.5735463000019,197.5735463000019,197.5735463000019,197.5735463000019,r,0.4154292000166606,198.01090510000358,198.01090510000358,198.01090510000358,198.01090510000358,198.01090510000358,198.01090510000358,198.29040619998705,199.94070269999793,199.97281030000886,199.97281030000886,199.97281030000886,199.97281030000886,199.97281030000886,199.97281030000886,199.97281030000886,199.97281030000886,199.97281030000886,199.97281030000886,199.97281030000886,199.97281030000886,199.97281030000886,201.92405729999882,201.92405729999882,201.92405729999882,201.92405729999882,201.92405729999882,201.92405729999882,201.92405729999882,52,63,58,52,63,70,201.92405729999882,203.45599590000347,,,,,,,,,,,,,,,,,,,,３５０,f,1９,2023-05-21_20h08.22.610,RL,2022.2.5,60.17144046720178,
61,54,53,51,0,30,30,30,,,,,,,,None,203.45599590000347,203.45599590000347,203.45599590000347,203.45599590000347,203.45599590000347,203.45599590000347,r,0.3757671999919694,203.86168760000146,203.86168760000146,203.86168760000146,203.86168760000146,203.86168760000146,203.86168760000146,204.13976039999397,205.47327129999758,205.49194810001063,205.49194810001063,205.49194810001063,205.49194810001063,205.49194810001063,205.49194810001063,205.49194810001063,205.49194810001063,205.49194810001063,205.49194810001063,205.49194810001063,205.49194810001063,205.49194810001063,207.12151759999688,207.12151759999688,207.12151759999688,207.12151759999688,207.12151759999688,207.12151759999688,207.12151759999688,51,61,53,54,61,70,207.12151759999688,208.65473400001065,,,,,,,,,,,,,,,,,,,,３５０,f,1９,2023-05-21_20h08.22.610,RL,2022.2.5,60.17144046720178,
63,50,56,56,0,31,31,31,,,,,,,,None,208.65473400001065,208.65473400001065,208.65473400001065,208.65473400001065,208.65473400001065,208.65473400001065,r,0.4073350999969989,209.09166380000534,209.09166380000534,209.09166380000534,209.09166380000534,209.09166380000534,209.09166380000534,209.37143739999738,210.85506920001353,210.8708958000061,210.8708958000061,210.8708958000061,210.8708958000061,210.8708958000061,210.8708958000061,210.8708958000061,210.8708958000061,210.8708958000061,210.8708958000061,210.8708958000061,210.8708958000061,210.8708958000061,212.6546459000092,212.6546459000092,212.6546459000092,212.6546459000092,212.6546459000092,212.6546459000092,212.6546459000092,56,63,56,50,63,70,212.6546459000092,214.28736779998871,,,,,,,,,,,,,,,,,,,,３５０,f,1９,2023-05-21_20h08.22.610,RL,2022.2.5,60.17144046720178,
63,57,49,50,0,32,32,32,,,,,,,,None,214.28736779998871,214.28736779998871,214.28736779998871,214.28736779998871,214.28736779998871,214.28736779998871,r,0.41837260001921095,214.7460671000008,214.7460671000008,214.7460671000008,214.7460671000008,214.7460671000008,214.7460671000008,215.01982019998832,216.30371350000496,216.33679989998927,216.33679989998927,216.33679989998927,216.33679989998927,216.33679989998927,216.33679989998927,216.33679989998927,216.33679989998927,216.33679989998927,216.33679989998927,216.33679989998927,216.33679989998927,216.33679989998927,217.91929379999056,217.91929379999056,217.91929379999056,217.91929379999056,217.91929379999056,217.91929379999056,217.91929379999056,50,63,49,57,63,70,217.91929379999056,219.7198030000145,,,,,,,,,,,,,,,,,,,,３５０,f,1９,2023-05-21_20h08.22.610,RL,2022.2.5,60.17144046720178,
55,55,63,60,0,33,33,33,,,,,,,,None,219.7198030000145,219.7198030000145,219.7198030000145,219.7198030000145,219.7198030000145,219.7198030000145,r,0.351202399993781,220.10987869999371,220.10987869999371,220.10987869999371,220.10987869999371,220.10987869999371,220.10987869999371,220.38654060001136,221.65323759999592,221.67045609999332,221.67045609999332,221.67045609999332,221.67045609999332,221.67045609999332,221.67045609999332,221.67045609999332,221.67045609999332,221.67045609999332,221.67045609999332,221.67045609999332,221.67045609999332,221.67045609999332,223.23610139999073,223.23610139999073,223.23610139999073,223.23610139999073,223.23610139999073,223.23610139999073,223.23610139999073,60,55,63,55,55,70,223.23610139999073,225.1692619000096,,,,,,,,,,,,,,,,,,,,３５０,f,1９,2023-05-21_20h08.22.610,RL,2022.2.5,60.17144046720178,
55,56,58,59,0,34,34,34,,,,,,,,None,225.1692619000096,225.1692619000096,225.1692619000096,225.1692619000096,225.1692619000096,225.1692619000096,i,0.29691179998917505,225.49896629998693,225.49896629998693,225.49896629998693,225.49896629998693,225.49896629998693,225.49896629998693,225.7682621999993,227.06848159999936,227.10147309998865,227.10147309998865,227.10147309998865,227.10147309998865,227.10147309998865,227.10147309998865,227.10147309998865,227.10147309998865,227.10147309998865,227.10147309998865,227.10147309998865,227.10147309998865,227.10147309998865,228.70223920000717,228.70223920000717,228.70223920000717,228.70223920000717,228.70223920000717,228.70223920000717,228.70223920000717,59,55,58,56,58,70,228.70223920000717,230.25053950000438,,,,,,,,,,,,,,,,,,,,３５０,f,1９,2023-05-21_20h08.22.610,RL,2022.2.5,60.17144046720178,
55,60,53,51,0,35,35,35,,,,,,,,None,230.25053950000438,230.25053950000438,230.25053950000438,230.25053950000438,230.25053950000438,230.25053950000438,j,0.37740060000214726,230.65419279999333,230.65419279999333,230.65419279999333,230.65419279999333,230.65419279999333,230.65419279999333,230.9353065000032,232.86755480000284,232.90073829999892,232.90073829999892,232.90073829999892,232.90073829999892,232.90073829999892,232.90073829999892,232.90073829999892,232.90073829999892,232.90073829999892,232.90073829999892,232.90073829999892,232.90073829999892,232.90073829999892,235.13422629999695,235.13422629999695,235.13422629999695,235.13422629999695,235.13422629999695,235.13422629999695,235.13422629999695,51,55,53,60,60,70,235.13422629999695,237.11718410000321,,,,,,,,,,,,,,,,,,,,３５０,f,1９,2023-05-21_20h08.22.610,RL,2022.2.5,60.17144046720178,
58,61,60,48,0,36,36,36,,,,,,,,None,237.11718410000321,237.11718410000321,237.11718410000321,237.11718410000321,237.11718410000321,237.11718410000321,f,0.4730608999961987,237.63004270000965,237.63004270000965,237.63004270000965,237.63004270000965,237.63004270000965,237.63004270000965,237.90054279999458,238.7668501000153,238.7995929000026,238.7995929000026,238.7995929000026,238.7995929000026,238.7995929000026,238.7995929000026,238.7995929000026,238.7995929000026,238.7995929000026,238.7995929000026,238.7995929000026,238.7995929000026,238.7995929000026,239.96688620001078,239.96688620001078,239.96688620001078,239.96688620001078,239.96688620001078,239.96688620001078,239.96688620001078,48,58,60,61,48,70,239.96688620001078,241.7658756999881,,,,,,,,,,,,,,,,,,,,３５０,f,1９,2023-05-21_20h08.22.610,RL,2022.2.5,60.17144046720178,
55,64,45,55,0,37,37,37,,,,,,,,None,241.7658756999881,241.7658756999881,241.7658756999881,241.7658756999881,241.7658756999881,241.7658756999881,j,0.3030416000110563,242.10706519999076,242.10706519999076,242.10706519999076,242.10706519999076,242.10706519999076,242.10706519999076,242.39883029999328,244.06582330001402,244.08155150001403,244.08155150001403,244.08155150001403,244.08155150001403,244.08155150001403,244.08155150001403,244.08155150001403,244.08155150001403,244.08155150001403,244.08155150001403,244.08155150001403,244.08155150001403,244.08155150001403,246.0488760000153,246.0488760000153,246.0488760000153,246.0488760000153,246.0488760000153,246.0488760000153,246.0488760000153,55,55,45,64,64,70,246.0488760000153,247.8648191000102,,,,,,,,,,,,,,,,,,,,３５０,f,1９,2023-05-21_20h08.22.610,RL,2022.2.5,60.17144046720178,
50,64,52,53,0,38,38,38,,,,,,,,None,247.8648191000102,247.8648191000102,247.8648191000102,247.8648191000102,247.8648191000102,247.8648191000102,j,0.3081899000098929,248.21237650001422,248.21237650001422,248.21237650001422,248.21237650001422,248.21237650001422,248.21237650001422,248.49814849998802,249.89741520001553,249.9138299000042,249.9138299000042,249.9138299000042,249.9138299000042,249.9138299000042,249.9138299000042,249.9138299000042,249.9138299000042,249.9138299000042,249.9138299000042,249.9138299000042,249.9138299000042,249.9138299000042,251.61457480001263,251.61457480001263,251.61457480001263,251.61457480001263,251.61457480001263,251.61457480001263,251.61457480001263,53,50,52,64,64,70,251.61457480001263,253.4311425999913,,,,,,,,,,,,,,,,,,,,３５０,f,1９,2023-05-21_20h08.22.610,RL,2022.2.5,60.17144046720178,
63,50,54,50,0,39,39,39,,,,,,,,None,253.4311425999913,253.4311425999913,253.4311425999913,253.4311425999913,253.4311425999913,253.4311425999913,j,0.33338840000214987,253.78636080000433,253.78636080000433,253.78636080000433,253.78636080000433,253.78636080000433,253.78636080000433,254.08121040000697,255.82960460000322,255.84612480000942,255.84612480000942,255.84612480000942,255.84612480000942,255.84612480000942,255.84612480000942,255.84612480000942,255.84612480000942,255.84612480000942,255.84612480000942,255.84612480000942,255.84612480000942,255.84612480000942,257.89780040000915,257.89780040000915,257.89780040000915,257.89780040000915,257.89780040000915,257.89780040000915,257.89780040000915,50,63,54,50,50,70,257.89780040000915,259.6126193999953,,,,,,,,,,,,,,,,,,,,３５０,f,1９,2023-05-21_20h08.22.610,RL,2022.2.5,60.17144046720178,
55,62,59,55,0,40,40,40,,,,,,,,None,259.6126193999953,259.6126193999953,259.6126193999953,259.6126193999953,259.6126193999953,259.6126193999953,i,0.3287807000160683,259.9763336000033,259.9763336000033,259.9763336000033,259.9763336000033,259.9763336000033,259.9763336000033,260.2456772000005,261.2463206000102,261.2793391000014,261.2793391000014,261.2793391000014,261.2793391000014,261.2793391000014,261.2793391000014,261.2793391000014,261.2793391000014,261.2793391000014,261.2793391000014,261.2793391000014,261.2793391000014,261.2793391000014,262.5788945000095,262.5788945000095,262.5788945000095,262.5788945000095,262.5788945000095,262.5788945000095,262.5788945000095,55,55,59,62,59,70,262.5788945000095,264.3282831000106,,,,,,,,,,,,,,,,,,,,３５０,f,1９,2023-05-21_20h08.22.610,RL,2022.2.5,60.17144046720178,
53,49,56,55,0,41,41,41,,,,,,,,None,264.3282831000106,264.3282831000106,264.3282831000106,264.3282831000106,264.3282831000106,264.3282831000106,r,0.3841035999939777,264.75097270001424,264.75097270001424,264.75097270001424,264.75097270001424,264.75097270001424,264.75097270001424,265.0288059999875,265.94654229999287,265.96487699999125,265.96487699999125,265.96487699999125,265.96487699999125,265.96487699999125,265.96487699999125,265.96487699999125,265.96487699999125,265.96487699999125,265.96487699999125,265.96487699999125,265.96487699999125,265.96487699999125,267.1786277999927,267.1786277999927,267.1786277999927,267.1786277999927,267.1786277999927,267.1786277999927,267.1786277999927,55,53,56,49,53,70,267.1786277999927,268.86179840000113,,,,,,,,,,,,,,,,,,,,３５０,f,1９,2023-05-21_20h08.22.610,RL,2022.2.5,60.17144046720178,
49,55,58,57,0,42,42,42,,,,,,,,None,268.86179840000113,268.86179840000113,268.86179840000113,268.86179840000113,268.86179840000113,268.86179840000113,i,0.3177301000105217,269.21849940001266,269.21849940001266,269.21849940001266,269.21849940001266,269.21849940001266,269.21849940001266,269.4952531000017,271.31049599999096,271.3444154000026,271.3444154000026,271.3444154000026,271.3444154000026,271.3444154000026,271.3444154000026,271.3444154000026,271.3444154000026,271.3444154000026,271.3444154000026,271.3444154000026,271.3444154000026,271.3444154000026,273.4601885000011,273.4601885000011,273.4601885000011,273.4601885000011,273.4601885000011,273.4601885000011,273.4601885000011,57,49,58,55,58,70,273.4601885000011,275.1767051999923,,,,,,,,,,,,,,,,,,,,３５０,f,1９,2023-05-21_20h08.22.610,RL,2022.2.5,60.17144046720178,
44,53,60,54,0,43,43,43,,,,,,,,None,275.1767051999923,275.1767051999923,275.1767051999923,275.1767051999923,275.1767051999923,275.1767051999923,f,0.3058807000052184,275.51464139999007,275.51464139999007,275.51464139999007,275.51464139999007,275.51464139999007,275.51464139999007,275.79439369999454,277.26093240000773,277.2787778000056,277.2787778000056,277.2787778000056,277.2787778000056,277.2787778000056,277.2787778000056,277.2787778000056,277.2787778000056,277.2787778000056,277.2787778000056,277.2787778000056,277.2787778000056,277.2787778000056,279.04289539999445,279.04289539999445,279.04289539999445,279.04289539999445,279.04289539999445,279.04289539999445,279.04289539999445,54,44,60,53,54,70,279.04289539999445,281.043013699993,,,,,,,,,,,,,,,,,,,,３５０,f,1９,2023-05-21_20h08.22.610,RL,2022.2.5,60.17144046720178,
45,56,55,53,0,44,44,44,,,,,,,,None,281.043013699993,281.043013699993,281.043013699993,281.043013699993,281.043013699993,281.043013699993,f,0.3206369999970775,281.3976900000125,281.3976900000125,281.3976900000125,281.3976900000125,281.3976900000125,281.3976900000125,281.6923814000038,282.7588254000002,282.7754419000121,282.7754419000121,282.7754419000121,282.7754419000121,282.7754419000121,282.7754419000121,282.7754419000121,282.7754419000121,282.7754419000121,282.7754419000121,282.7754419000121,282.7754419000121,282.7754419000121,284.1431157999905,284.1431157999905,284.1431157999905,284.1431157999905,284.1431157999905,284.1431157999905,284.1431157999905,53,45,55,56,53,70,284.1431157999905,286.075311099994,,,,,,,,,,,,,,,,,,,,３５０,f,1９,2023-05-21_20h08.22.610,RL,2022.2.5,60.17144046720178,
42,55,59,54,0,45,45,45,,,,,,,,None,286.075311099994,286.075311099994,286.075311099994,286.075311099994,286.075311099994,286.075311099994,i,0.37002809997648,286.48053020000225,286.48053020000225,286.48053020000225,286.48053020000225,286.48053020000225,286.48053020000225,286.77539900000556,287.6083542999986,287.6276414000022,287.6276414000022,287.6276414000022,287.6276414000022,287.6276414000022,287.6276414000022,287.6276414000022,287.6276414000022,287.6276414000022,287.6276414000022,287.6276414000022,287.6276414000022,287.6276414000022,288.75862119998783,288.75862119998783,288.75862119998783,288.75862119998783,288.75862119998783,288.75862119998783,288.75862119998783,54,42,59,55,59,70,288.75862119998783,290.6745564999874,,,,,,,,,,,,,,,,,,,,３５０,f,1９,2023-05-21_20h08.22.610,RL,2022.2.5,60.17144046720178,
51,53,68,43,0,46,46,46,,,,,,,,None,290.6745564999874,290.6745564999874,290.6745564999874,290.6745564999874,290.6745564999874,290.6745564999874,r,0.42838270001811907,291.12976589999744,291.12976589999744,291.12976589999744,291.12976589999744,291.12976589999744,291.12976589999744,291.40807420000783,292.29188720000093,292.31066759998794,292.31066759998794,292.31066759998794,292.31066759998794,292.31066759998794,292.31066759998794,292.31066759998794,292.31066759998794,292.31066759998794,292.31066759998794,292.31066759998794,292.31066759998794,292.31066759998794,293.4903042000078,293.4903042000078,293.4903042000078,293.4903042000078,293.4903042000078,293.4903042000078,293.4903042000078,43,51,68,53,51,70,293.4903042000078,295.3395736000093,,,,,,,,,,,,,,,,,,,,３５０,f,1９,2023-05-21_20h08.22.610,RL,2022.2.5,60.17144046720178,
35,62,62,57,0,47,47,47,,,,,,,,None,295.3395736000093,295.3395736000093,295.3395736000093,295.3395736000093,295.3395736000093,295.3395736000093,i,0.2936265000025742,295.67029149999144,295.67029149999144,295.67029149999144,295.67029149999144,295.67029149999144,295.67029149999144,295.95581770001445,297.74066139999195,297.75801180000417,297.75801180000417,297.75801180000417,297.75801180000417,297.75801180000417,297.75801180000417,297.75801180000417,297.75801180000417,297.75801180000417,297.75801180000417,297.75801180000417,297.75801180000417,297.75801180000417,299.8402483999962,299.8402483999962,299.8402483999962,299.8402483999962,299.8402483999962,299.8402483999962,299.8402483999962,57,35,62,62,62,70,299.8402483999962,301.5730201000115,,,,,,,,,,,,,,,,,,,,３５０,f,1９,2023-05-21_20h08.22.610,RL,2022.2.5,60.17144046720178,
45,56,54,53,0,48,48,48,,,,,,,,None,301.5730201000115,301.5730201000115,301.5730201000115,301.5730201000115,301.5730201000115,301.5730201000115,i,0.370540699979756,301.98592539998936,301.98592539998936,301.98592539998936,301.98592539998936,301.98592539998936,301.98592539998936,302.2723108000064,303.78921170000103,303.80680950000533,303.80680950000533,303.80680950000533,303.80680950000533,303.80680950000533,303.80680950000533,303.80680950000533,303.80680950000533,303.80680950000533,303.80680950000533,303.80680950000533,303.80680950000533,303.80680950000533,305.6228851999913,305.6228851999913,305.6228851999913,305.6228851999913,305.6228851999913,305.6228851999913,305.6228851999913,53,45,54,56,54,70,305.6228851999913,307.53815760000725,,,,,,,,,,,,,,,,,,,,３５０,f,1９,2023-05-21_20h08.22.610,RL,2022.2.5,60.17144046720178,
39,59,61,51,0,49,49,49,,,,,,,,None,307.53815760000725,307.53815760000725,307.53815760000725,307.53815760000725,307.53815760000725,307.53815760000725,j,0.42032919998746365,307.9954668999999,307.9954668999999,307.9954668999999,307.9954668999999,307.9954668999999,307.9954668999999,308.2711655999883,309.454636999988,309.48866709999857,309.48866709999857,309.48866709999857,309.48866709999857,309.48866709999857,309.48866709999857,309.48866709999857,309.48866709999857,309.48866709999857,309.48866709999857,309.48866709999857,309.48866709999857,309.48866709999857,310.98738080001203,310.98738080001203,310.98738080001203,310.98738080001203,310.98738080001203,310.98738080001203,310.98738080001203,51,39,61,59,59,70,310.98738080001203,312.55385970001225,,,,,,,,,,,,,,,,,,,,３５０,f,1９,2023-05-21_20h08.22.610,RL,2022.2.5,60.17144046720178,
42,62,57,51,0,50,50,50,,,,,,,,None,312.55385970001225,312.55385970001225,312.55385970001225,312.55385970001225,312.55385970001225,312.55385970001225,j,0.4423895000072662,313.0341657999961,313.0341657999961,313.0341657999961,313.0341657999961,313.0341657999961,313.0341657999961,313.32036179999704,314.6368993000069,314.6550292999891,314.6550292999891,314.6550292999891,314.6550292999891,314.6550292999891,314.6550292999891,314.6550292999891,314.6550292999891,314.6550292999891,314.6550292999891,314.6550292999891,314.6550292999891,314.6550292999891,316.26910370000405,316.26910370000405,316.26910370000405,316.26910370000405,316.26910370000405,316.26910370000405,316.26910370000405,51,42,57,62,62,70,316.26910370000405,318.053004699992,,,,,,,,,,,,,,,,,,,,３５０,f,1９,2023-05-21_20h08.22.610,RL,2022.2.5,60.17144046720178,
40,52,56,55,0,51,51,51,,,,,,,,None,318.053004699992,318.053004699992,318.053004699992,318.053004699992,318.053004699992,318.053004699992,j,0.3864199999952689,318.47401110001374,318.47401110001374,318.47401110001374,318.47401110001374,318.47401110001374,318.47401110001374,318.7533802000107,319.63545959998737,319.6531474000076,319.6531474000076,319.6531474000076,319.6531474000076,319.6531474000076,319.6531474000076,319.6531474000076,319.6531474000076,319.6531474000076,319.6531474000076,319.6531474000076,319.6531474000076,319.6531474000076,320.8366462000122,320.8366462000122,320.8366462000122,320.8366462000122,320.8366462000122,320.8366462000122,320.8366462000122,55,40,56,52,52,70,320.8366462000122,322.38537380000344,,,,,,,,,,,,,,,,,,,,３５０,f,1９,2023-05-21_20h08.22.610,RL,2022.2.5,60.17144046720178,
52,57,50,54,0,52,52,52,,,,,,,,None,322.38537380000344,322.38537380000344,322.38537380000344,322.38537380000344,322.38537380000344,322.38537380000344,i,0.48836359998676926,322.91549859999213,322.91549859999213,322.91549859999213,322.91549859999213,322.91549859999213,322.91549859999213,323.202162600006,324.50262750001275,324.52242809999734,324.52242809999734,324.52242809999734,324.52242809999734,324.52242809999734,324.52242809999734,324.52242809999734,324.52242809999734,324.52242809999734,324.52242809999734,324.52242809999734,324.52242809999734,324.52242809999734,326.1348958000017,326.1348958000017,326.1348958000017,326.1348958000017,326.1348958000017,326.1348958000017,326.1348958000017,54,52,50,57,50,70,326.1348958000017,327.9680219000147,,,,,,,,,,,,,,,,,,,,３５０,f,1９,2023-05-21_20h08.22.610,RL,2022.2.5,60.17144046720178,
45,55,51,51,0,53,53,53,,,,,,,,None,327.9680219000147,327.9680219000147,327.9680219000147,327.9680219000147,327.9680219000147,327.9680219000147,f,0.265867200010689,328.25553610001225,328.25553610001225,328.25553610001225,328.25553610001225,328.25553610001225,328.25553610001225,328.5347990000155,330.2184768000152,330.23426460000337,330.23426460000337,330.23426460000337,330.23426460000337,330.23426460000337,330.23426460000337,330.23426460000337,330.23426460000337,330.23426460000337,330.23426460000337,330.23426460000337,330.23426460000337,330.23426460000337,332.21792299998924,332.21792299998924,332.21792299998924,332.21792299998924,332.21792299998924,332.21792299998924,332.21792299998924,51,45,51,55,51,70,332.21792299998924,334.2163048000075,,,,,,,,,,,,,,,,,,,,３５０,f,1９,2023-05-21_20h08.22.610,RL,2022.2.5,60.17144046720178,
41,52,42,57,0,54,54,54,,,,,,,,None,334.2163048000075,334.2163048000075,334.2163048000075,334.2163048000075,334.2163048000075,334.2163048000075,j,0.6893605999939609,334.93555759999435,334.93555759999435,334.93555759999435,334.93555759999435,334.93555759999435,334.93555759999435,335.2169828999904,336.76768409999204,336.7876239999896,336.7876239999896,336.7876239999896,336.7876239999896,336.7876239999896,336.7876239999896,336.7876239999896,336.7876239999896,336.7876239999896,336.7876239999896,336.7876239999896,336.7876239999896,336.7876239999896,338.6501195000019,338.6501195000019,338.6501195000019,338.6501195000019,338.6501195000019,338.6501195000019,338.6501195000019,57,41,42,52,52,70,338.6501195000019,340.4332876999979,,,,,,,,,,,,,,,,,,,,３５０,f,1９,2023-05-21_20h08.22.610,RL,2022.2.5,60.17144046720178,
43,52,43,55,0,55,55,55,,,,,,,,None,340.4332876999979,340.4332876999979,340.4332876999979,340.4332876999979,340.4332876999979,340.4332876999979,f,0.36777680000523105,340.8374959999928,340.8374959999928,340.8374959999928,340.8374959999928,340.8374959999928,340.8374959999928,341.13195000000997,342.3348149000085,342.3348149000085,342.3348149000085,342.3348149000085,342.3348149000085,342.3348149000085,342.3348149000085,342.3348149000085,342.3348149000085,342.3348149000085,342.3348149000085,342.3348149000085,342.3348149000085,342.3348149000085,343.8323529000045,343.8323529000045,343.8323529000045,343.8323529000045,343.8323529000045,343.8323529000045,343.8323529000045,55,43,43,52,55,70,343.8323529000045,345.79801530000987,,,,,,,,,,,,,,,,,,,,３５０,f,1９,2023-05-21_20h08.22.610,RL,2022.2.5,60.17144046720178,
37,51,47,54,0,56,56,56,,,,,,,,None,345.79801530000987,345.79801530000987,345.79801530000987,345.79801530000987,345.79801530000987,345.79801530000987,f,0.4867392999876756,346.3228798999917,346.3228798999917,346.3228798999917,346.3228798999917,346.3228798999917,346.3228798999917,346.5986094000109,348.181872199988,348.2174815000035,348.2174815000035,348.2174815000035,348.2174815000035,348.2174815000035,348.2174815000035,348.2174815000035,348.2174815000035,348.2174815000035,348.2174815000035,348.2174815000035,348.2174815000035,348.2174815000035,350.0983234999876,350.0983234999876,350.0983234999876,350.0983234999876,350.0983234999876,350.0983234999876,350.0983234999876,54,37,47,51,54,70,350.0983234999876,352.0809598999913,,,,,,,,,,,,,,,,,,,,３５０,f,1９,2023-05-21_20h08.22.610,RL,2022.2.5,60.17144046720178,
40,49,36,54,0,57,57,57,,,,,,,,None,352.0809598999913,352.0809598999913,352.0809598999913,352.0809598999913,352.0809598999913,352.0809598999913,r,0.3138078000047244,352.41969460001565,352.41969460001565,352.41969460001565,352.41969460001565,352.41969460001565,352.41969460001565,352.7132727999997,354.0305946000153,354.08883429999696,354.08883429999696,354.08883429999696,354.08883429999696,354.08883429999696,354.08883429999696,354.08883429999696,354.08883429999696,354.08883429999696,354.08883429999696,354.08883429999696,354.08883429999696,354.08883429999696,355.7137008999998,355.7137008999998,355.7137008999998,355.7137008999998,355.7137008999998,355.7137008999998,355.7137008999998,54,40,36,49,40,70,355.7137008999998,357.4620712999895,,,,,,,,,,,,,,,,,,,,３５０,f,1９,2023-05-21_20h08.22.610,RL,2022.2.5,60.17144046720178,
37,49,46,58,0,58,58,58,,,,,,,,None,357.4620712999895,357.4620712999895,357.4620712999895,357.4620712999895,357.4620712999895,357.4620712999895,i,0.31084910000208765,357.80458520000684,357.80458520000684,357.80458520000684,357.80458520000684,357.80458520000684,357.80458520000684,358.0965597000031,359.01614019999397,359.01614019999397,359.01614019999397,359.01614019999397,359.01614019999397,359.01614019999397,359.01614019999397,359.01614019999397,359.01614019999397,359.01614019999397,359.01614019999397,359.01614019999397,359.01614019999397,359.01614019999397,360.2302912999876,360.2302912999876,360.2302912999876,360.2302912999876,360.2302912999876,360.2302912999876,360.2302912999876,58,37,46,49,46,70,360.2302912999876,361.84456950001186,,,,,,,,,,,,,,,,,,,,３５０,f,1９,2023-05-21_20h08.22.610,RL,2022.2.5,60.17144046720178,
29,45,49,62,0,59,59,59,,,,,,,,None,361.84456950001186,361.84456950001186,361.84456950001186,361.84456950001186,361.84456950001186,361.84456950001186,f,0.3381795000168495,362.22565189999295,362.22565189999295,362.22565189999295,362.22565189999295,362.22565189999295,362.22565189999295,362.4960029000067,364.29553160001524,364.3324106000073,364.3324106000073,364.3324106000073,364.3324106000073,364.3324106000073,364.3324106000073,364.3324106000073,364.3324106000073,364.3324106000073,364.3324106000073,364.3324106000073,364.3324106000073,364.3324106000073,366.4283581000054,366.4283581000054,366.4283581000054,366.4283581000054,366.4283581000054,366.4283581000054,366.4283581000054,62,29,49,45,62,70,366.4283581000054,368.3943942000042,,,,,,,,,,,,,,,,,,,,３５０,f,1９,2023-05-21_20h08.22.610,RL,2022.2.5,60.17144046720178,
24,50,48,57,0,60,60,60,,,,,,,,None,368.3943942000042,368.3943942000042,368.3943942000042,368.3943942000042,368.3943942000042,368.3943942000042,f,0.27938179997727275,368.6983554000035,368.6983554000035,368.6983554000035,368.6983554000035,368.6983554000035,368.6983554000035,368.9776861999999,369.89403900000616,369.9124526999949,369.9124526999949,369.9124526999949,369.9124526999949,369.9124526999949,369.9124526999949,369.9124526999949,369.9124526999949,369.9124526999949,369.9124526999949,369.9124526999949,369.9124526999949,369.9124526999949,371.12673620000714,371.12673620000714,371.12673620000714,371.12673620000714,371.12673620000714,371.12673620000714,371.12673620000714,57,24,48,50,57,70,371.12673620000714,372.67680489999475,,,,,,,,,,,,,,,,,,,,３５０,f,1９,2023-05-21_20h08.22.610,RL,2022.2.5,60.17144046720178,
29,57,50,54,0,61,61,61,,,,,,,,None,372.67680489999475,372.67680489999475,372.67680489999475,372.67680489999475,372.67680489999475,372.67680489999475,f,0.44225229998119175,373.15739629999734,373.15739629999734,373.15739629999734,373.15739629999734,373.15739629999734,373.15739629999734,373.4422973000037,374.32628770000883,374.3424110999913,374.3424110999913,374.3424110999913,374.3424110999913,374.3424110999913,374.3424110999913,374.3424110999913,374.3424110999913,374.3424110999913,374.3424110999913,374.3424110999913,374.3424110999913,374.3424110999913,375.52620500000194,375.52620500000194,375.52620500000194,375.52620500000194,375.52620500000194,375.52620500000194,375.52620500000194,54,29,50,57,54,70,375.52620500000194,377.04335280001396,,,,,,,,,,,,,,,,,,,,３５０,f,1９,2023-05-21_20h08.22.610,RL,2022.2.5,60.17144046720178,
35,49,48,46,0,62,62,62,,,,,,,,None,377.04335280001396,377.04335280001396,377.04335280001396,377.04335280001396,377.04335280001396,377.04335280001396,j,0.43838310000137426,377.52268990001176,377.52268990001176,377.52268990001176,377.52268990001176,377.52268990001176,377.52268990001176,377.7923388000054,379.3917429000139,379.42514589999337,379.42514589999337,379.42514589999337,379.42514589999337,379.42514589999337,379.42514589999337,379.42514589999337,379.42514589999337,379.42514589999337,379.42514589999337,379.42514589999337,379.42514589999337,379.42514589999337,381.32590450000134,381.32590450000134,381.32590450000134,381.32590450000134,381.32590450000134,381.32590450000134,381.32590450000134,46,35,48,49,49,70,381.32590450000134,382.940975000005,,,,,,,,,,,,,,,,,,,,３５０,f,1９,2023-05-21_20h08.22.610,RL,2022.2.5,60.17144046720178,
36,41,54,45,0,63,63,63,,,,,,,,None,382.940975000005,382.940975000005,382.940975000005,382.940975000005,382.940975000005,382.940975000005,None,,,,,,,,,,,,,,,,,,,,,,,,,,,,,,45,36,54,41,0,70,390.4570013000048,392.0904661999957,384.44177460001083,384.44177460001083,384.44177460001083,384.44177460001083,384.44177460001083,384.44177460001083,384.44177460001083,390.4570013000048,,,,,,,,,,,,３５０,f,1９,2023-05-21_20h08.22.610,RL,2022.2.5,60.17144046720178,
37,46,50,55,0,64,64,64,,,,,,,,None,392.0904661999957,392.0904661999957,392.0904661999957,392.0904661999957,392.0904661999957,392.0904661999957,i,0.2398997000127565,392.3575456000108,392.3575456000108,392.3575456000108,392.3575456000108,392.3575456000108,392.3575456000108,392.63998919998994,393.5562942000106,393.5736495000019,393.5736495000019,393.5736495000019,393.5736495000019,393.5736495000019,393.5736495000019,393.5736495000019,393.5736495000019,393.5736495000019,393.5736495000019,393.5736495000019,393.5736495000019,393.5736495000019,394.7901203999936,394.7901203999936,394.7901203999936,394.7901203999936,394.7901203999936,394.7901203999936,394.7901203999936,55,37,50,46,50,70,394.7901203999936,396.6227807000105,,,,,,,,,,,,,,,,,,,,３５０,f,1９,2023-05-21_20h08.22.610,RL,2022.2.5,60.17144046720178,
36,48,49,46,0,65,65,65,,,,,,,,None,396.6227807000105,396.6227807000105,396.6227807000105,396.6227807000105,396.6227807000105,396.6227807000105,f,0.43974540001363494,397.0941974000016,397.0941974000016,397.0941974000016,397.0941974000016,397.0941974000016,397.0941974000016,397.373155600013,398.9726373000012,399.0077152000158,399.0077152000158,399.0077152000158,399.0077152000158,399.0077152000158,399.0077152000158,399.0077152000158,399.0077152000158,399.0077152000158,399.0077152000158,399.0077152000158,399.0077152000158,399.0077152000158,400.9060329000058,400.9060329000058,400.9060329000058,400.9060329000058,400.9060329000058,400.9060329000058,400.9060329000058,46,36,49,48,46,70,400.9060329000058,402.8884021000122,,,,,,,,,,,,,,,,,,,,３５０,f,1９,2023-05-21_20h08.22.610,RL,2022.2.5,60.17144046720178,
28,47,54,54,0,66,66,66,,,,,,,,None,402.8884021000122,402.8884021000122,402.8884021000122,402.8884021000122,402.8884021000122,402.8884021000122,r,0.26902990002417937,403.19590620000963,403.19590620000963,403.19590620000963,403.19590620000963,403.19590620000963,403.19590620000963,403.4715082999901,404.3724282000039,404.3897866999905,404.3897866999905,404.3897866999905,404.3897866999905,404.3897866999905,404.3897866999905,404.3897866999905,404.3897866999905,404.3897866999905,404.3897866999905,404.3897866999905,404.3897866999905,404.3897866999905,405.5882902999874,405.5882902999874,405.5882902999874,405.5882902999874,405.5882902999874,405.5882902999874,405.5882902999874,54,28,54,47,28,70,405.5882902999874,407.5042422999977,,,,,,,,,,,,,,,,,,,,３５０,f,1９,2023-05-21_20h08.22.610,RL,2022.2.5,60.17144046720178,
33,46,56,42,0,67,67,67,,,,,,,,None,407.5042422999977,407.5042422999977,407.5042422999977,407.5042422999977,407.5042422999977,407.5042422999977,f,0.5182777000009082,408.04469820001395,408.04469820001395,408.04469820001395,408.04469820001395,408.04469820001395,408.04469820001395,408.33851269999286,410.2860673000105,410.2860673000105,410.2860673000105,410.2860673000105,410.2860673000105,410.2860673000105,410.2860673000105,410.2860673000105,410.2860673000105,410.2860673000105,410.2860673000105,410.2860673000105,410.2860673000105,410.2860673000105,412.53739849998965,412.53739849998965,412.53739849998965,412.53739849998965,412.53739849998965,412.53739849998965,412.53739849998965,42,33,56,46,42,70,412.53739849998965,414.1698662000126,,,,,,,,,,,,,,,,,,,,３５０,f,1９,2023-05-21_20h08.22.610,RL,2022.2.5,60.17144046720178,
37,45,51,48,0,68,68,68,,,,,,,,None,414.1698662000126,414.1698662000126,414.1698662000126,414.1698662000126,414.1698662000126,414.1698662000126,i,0.38611580000724643,414.5906066999887,414.5906066999887,414.5906066999887,414.5906066999887,414.5906066999887,414.5906066999887,414.86958220001543,416.78596899998956,416.8030102000048,416.8030102000048,416.8030102000048,416.8030102000048,416.8030102000048,416.8030102000048,416.8030102000048,416.8030102000048,416.8030102000048,416.8030102000048,416.8030102000048,416.8030102000048,416.8030102000048,419.0178703000129,419.0178703000129,419.0178703000129,419.0178703000129,419.0178703000129,419.0178703000129,419.0178703000129,48,37,51,45,51,70,419.0178703000129,420.57030690001557,,,,,,,,,,,,,,,,,,,,３５０,f,1９,2023-05-21_20h08.22.610,RL,2022.2.5,60.17144046720178,
28,47,47,54,0,69,69,69,,,,,,,,None,420.57030690001557,420.57030690001557,420.57030690001557,420.57030690001557,420.57030690001557,420.57030690001557,j,0.49644690001150593,421.0844769999967,421.0844769999967,421.0844769999967,421.0844769999967,421.0844769999967,421.0844769999967,421.3689694000059,422.96908260000055,422.9884667999868,422.9884667999868,422.9884667999868,422.9884667999868,422.9884667999868,422.9884667999868,422.9884667999868,422.9884667999868,422.9884667999868,422.9884667999868,422.9884667999868,422.9884667999868,422.9884667999868,424.884616299998,424.884616299998,424.884616299998,424.884616299998,424.884616299998,424.884616299998,424.884616299998,54,28,47,47,47,70,424.884616299998,426.60103970000637,,,,,,,,,,,,,,,,,,,,３５０,f,1９,2023-05-21_20h08.22.610,RL,2022.2.5,60.17144046720178,
31,48,55,50,0,70,70,70,,,,,,,,None,426.60103970000637,426.60103970000637,426.60103970000637,426.60103970000637,426.60103970000637,426.60103970000637,i,0.2677280000061728,426.8898573000042,426.8898573000042,426.8898573000042,426.8898573000042,426.8898573000042,426.8898573000042,427.1847665999958,428.71725929999957,428.71725929999957,428.71725929999957,428.71725929999957,428.71725929999957,428.71725929999957,428.71725929999957,428.71725929999957,428.71725929999957,428.71725929999957,428.71725929999957,428.71725929999957,428.71725929999957,428.71725929999957,430.53388659999473,430.53388659999473,430.53388659999473,430.53388659999473,430.53388659999473,430.53388659999473,430.53388659999473,50,31,55,48,55,70,430.53388659999473,432.36640289999195,,,,,,,,,,,,,,,,,,,,３５０,f,1９,2023-05-21_20h08.22.610,RL,2022.2.5,60.17144046720178,
35,47,56,38,0,71,71,71,,,,,,,,None,432.36640289999195,432.36640289999195,432.36640289999195,432.36640289999195,432.36640289999195,432.36640289999195,i,0.37146739999298006,432.77953810000326,432.77953810000326,432.77953810000326,432.77953810000326,432.77953810000326,432.77953810000326,433.0664403999981,435.03224390000105,435.0485965000116,435.0485965000116,435.0485965000116,435.0485965000116,435.0485965000116,435.0485965000116,435.0485965000116,435.0485965000116,435.0485965000116,435.0485965000116,435.0485965000116,435.0485965000116,435.0485965000116,437.3148792000138,437.3148792000138,437.3148792000138,437.3148792000138,437.3148792000138,437.3148792000138,437.3148792000138,38,35,56,47,56,70,437.3148792000138,439.2652490999899,,,,,,,,,,,,,,,,,,,,３５０,f,1９,2023-05-21_20h08.22.610,RL,2022.2.5,60.17144046720178,
33,52,59,39,0,72,72,72,,,,,,,,None,439.2652490999899,439.2652490999899,439.2652490999899,439.2652490999899,439.2652490999899,439.2652490999899,i,0.2907194999861531,439.58822629999486,439.58822629999486,439.58822629999486,439.58822629999486,439.58822629999486,439.58822629999486,439.8655303000123,441.6656406999973,441.6839069999987,441.6839069999987,441.6839069999987,441.6839069999987,441.6839069999987,441.6839069999987,441.6839069999987,441.6839069999987,441.6839069999987,441.6839069999987,441.6839069999987,441.6839069999987,441.6839069999987,443.7816867000074,443.7816867000074,443.7816867000074,443.7816867000074,443.7816867000074,443.7816867000074,443.7816867000074,39,33,59,52,59,70,443.7816867000074,445.49826200000825,,,,,,,,,,,,,,,,,,,,３５０,f,1９,2023-05-21_20h08.22.610,RL,2022.2.5,60.17144046720178,
23,50,67,42,0,73,73,73,,,,,,,,None,445.49826200000825,445.49826200000825,445.49826200000825,445.49826200000825,445.49826200000825,445.49826200000825,i,0.2424468999961391,445.76862819999224,445.76862819999224,445.76862819999224,445.76862819999224,445.76862819999224,445.76862819999224,446.0481471999956,447.61488810001174,447.6324583000096,447.6324583000096,447.6324583000096,447.6324583000096,447.6324583000096,447.6324583000096,447.6324583000096,447.6324583000096,447.6324583000096,447.6324583000096,447.6324583000096,447.6324583000096,447.6324583000096,449.49728169999435,449.49728169999435,449.49728169999435,449.49728169999435,449.49728169999435,449.49728169999435,449.49728169999435,42,23,67,50,67,70,449.49728169999435,451.17997580001247,,,,,,,,,,,,,,,,,,,,３５０,f,1９,2023-05-21_20h08.22.610,RL,2022.2.5,60.17144046720178,
19,49,56,40,0,74,74,74,,,,,,,,None,451.17997580001247,451.17997580001247,451.17997580001247,451.17997580001247,451.17997580001247,451.17997580001247,i,0.47041079998598434,451.6933721000096,451.6933721000096,451.6933721000096,451.6933721000096,451.6933721000096,451.6933721000096,451.98071750000236,453.7300763000094,453.7486608999898,453.7486608999898,453.7486608999898,453.7486608999898,453.7486608999898,453.7486608999898,453.7486608999898,453.7486608999898,453.7486608999898,453.7486608999898,453.7486608999898,453.7486608999898,453.7486608999898,455.7965218999889,455.7965218999889,455.7965218999889,455.7965218999889,455.7965218999889,455.7965218999889,455.7965218999889,40,19,56,49,56,70,455.7965218999889,457.4449326999893,,,,,,,,,,,,,,,,,,,,３５０,f,1９,2023-05-21_20h08.22.610,RL,2022.2.5,60.17144046720178,
31,50,54,38,0,75,75,75,,,,,,,,q,510.3856117000105,510.3856117000105,510.3856117000105,510.3856117000105,510.3856117000105,510.3856117000105,i,0.47720740002114326,510.89238400000613,510.89238400000613,510.89238400000613,510.89238400000613,510.89238400000613,510.89238400000613,511.1698994000035,512.4700659000082,512.4874099000008,512.4874099000008,512.4874099000008,512.4874099000008,512.4874099000008,512.4874099000008,512.4874099000008,512.4874099000008,512.4874099000008,512.4874099000008,512.4874099000008,512.4874099000008,512.4874099000008,514.0854483000003,514.0854483000003,514.0854483000003,514.0854483000003,514.0854483000003,514.0854483000003,514.0854483000003,38,31,54,50,54,70,514.0854483000003,515.8684850000136,,,,,,,,,457.4449326999893,457.4449326999893,47.91014130000258,505.3738650000014,505.3738650000014,510.3856117000105,510.3856117000105,,,,,３５０,f,1９,2023-05-21_20h08.22.610,RL,2022.2.5,60.17144046720178,
31,52,63,35,0,76,76,76,,,,,,,,None,515.8684850000136,515.8684850000136,515.8684850000136,515.8684850000136,515.8684850000136,515.8684850000136,i,0.27069579999078996,516.1759822999884,516.1759822999884,516.1759822999884,516.1759822999884,516.1759822999884,516.1759822999884,516.4696712000004,517.952727099997,517.9705495999951,517.9705495999951,517.9705495999951,517.9705495999951,517.9705495999951,517.9705495999951,517.9705495999951,517.9705495999951,517.9705495999951,517.9705495999951,517.9705495999951,517.9705495999951,517.9705495999951,519.7511868000147,519.7511868000147,519.7511868000147,519.7511868000147,519.7511868000147,519.7511868000147,519.7511868000147,35,31,63,52,63,70,519.7511868000147,521.5839561999892,,,,,,,,,,,,,,,,,,,,３５０,f,1９,2023-05-21_20h08.22.610,RL,2022.2.5,60.17144046720178,
43,51,59,36,0,77,77,77,,,,,,,,None,521.5839561999892,521.5839561999892,521.5839561999892,521.5839561999892,521.5839561999892,521.5839561999892,i,0.27872639999259263,521.8975285000051,521.8975285000051,521.8975285000051,521.8975285000051,521.8975285000051,521.8975285000051,522.1676329000038,523.4009096999944,523.4372938000015,523.4372938000015,523.4372938000015,523.4372938000015,523.4372938000015,523.4372938000015,523.4372938000015,523.4372938000015,523.4372938000015,523.4372938000015,523.4372938000015,523.4372938000015,523.4372938000015,524.967545499996,524.967545499996,524.967545499996,524.967545499996,524.967545499996,524.967545499996,524.967545499996,36,43,59,51,59,70,524.967545499996,526.5001910999999,,,,,,,,,,,,,,,,,,,,３５０,f,1９,2023-05-21_20h08.22.610,RL,2022.2.5,60.17144046720178,
46,41,57,33,0,78,78,78,,,,,,,,None,526.5001910999999,526.5001910999999,526.5001910999999,526.5001910999999,526.5001910999999,526.5001910999999,f,0.2699739999952726,526.8068382999918,526.8068382999918,526.8068382999918,526.8068382999918,526.8068382999918,526.8068382999918,527.0835748999962,527.9674710000108,528.0013014000142,528.0013014000142,528.0013014000142,528.0013014000142,528.0013014000142,528.0013014000142,528.0013014000142,528.0013014000142,528.0013014000142,528.0013014000142,528.0013014000142,528.0013014000142,528.0013014000142,529.1839870999975,529.1839870999975,529.1839870999975,529.1839870999975,529.1839870999975,529.1839870999975,529.1839870999975,33,46,57,41,33,70,529.1839870999975,531.0829680000024,,,,,,,,,,,,,,,,,,,,３５０,f,1９,2023-05-21_20h08.22.610,RL,2022.2.5,60.17144046720178,
45,40,69,34,0,79,79,79,,,,,,,,None,531.0829680000024,531.0829680000024,531.0829680000024,531.0829680000024,531.0829680000024,531.0829680000024,r,0.30250879999948665,531.4241818999872,531.4241818999872,531.4241818999872,531.4241818999872,531.4241818999872,531.4241818999872,531.6995660999964,532.7328685999964,532.7509488000069,532.7509488000069,532.7509488000069,532.7509488000069,532.7509488000069,532.7509488000069,532.7509488000069,532.7509488000069,532.7509488000069,532.7509488000069,532.7509488000069,532.7509488000069,532.7509488000069,534.0826493999921,534.0826493999921,534.0826493999921,534.0826493999921,534.0826493999921,534.0826493999921,534.0826493999921,34,45,69,40,45,70,534.0826493999921,535.6488497999962,,,,,,,,,,,,,,,,,,,,３５０,f,1９,2023-05-21_20h08.22.610,RL,2022.2.5,60.17144046720178,
43,44,65,36,0,80,80,80,,,,,,,,None,535.6488497999962,535.6488497999962,535.6488497999962,535.6488497999962,535.6488497999962,535.6488497999962,j,0.5739990000147372,536.2522843999905,536.2522843999905,536.2522843999905,536.2522843999905,536.2522843999905,536.2522843999905,536.5313399000152,537.9321567000006,537.9519947000081,537.9519947000081,537.9519947000081,537.9519947000081,537.9519947000081,537.9519947000081,537.9519947000081,537.9519947000081,537.9519947000081,537.9519947000081,537.9519947000081,537.9519947000081,537.9519947000081,539.6485271000129,539.6485271000129,539.6485271000129,539.6485271000129,539.6485271000129,539.6485271000129,539.6485271000129,36,43,65,44,44,70,539.6485271000129,541.5977531000099,,,,,,,,,,,,,,,,,,,,３５０,f,1９,2023-05-21_20h08.22.610,RL,2022.2.5,60.17144046720178,
47,47,69,43,0,81,81,81,,,,,,,,None,541.5977531000099,541.5977531000099,541.5977531000099,541.5977531000099,541.5977531000099,541.5977531000099,i,0.23946919999434613,541.8667489000072,541.8667489000072,541.8667489000072,541.8667489000072,541.8667489000072,541.8667489000072,542.1477212999889,543.8477713000029,543.8659544000111,543.8659544000111,543.8659544000111,543.8659544000111,543.8659544000111,543.8659544000111,543.8659544000111,543.8659544000111,543.8659544000111,543.8659544000111,543.8659544000111,543.8659544000111,543.8659544000111,545.8641546000144,545.8641546000144,545.8641546000144,545.8641546000144,545.8641546000144,545.8641546000144,545.8641546000144,43,47,69,47,69,70,545.8641546000144,547.8630919000134,,,,,,,,,,,,,,,,,,,,３５０,f,1９,2023-05-21_20h08.22.610,RL,2022.2.5,60.17144046720178,
43,44,62,34,0,82,82,82,,,,,,,,None,547.8630919000134,547.8630919000134,547.8630919000134,547.8630919000134,547.8630919000134,547.8630919000134,i,0.2614375000121072,548.152708700014,548.152708700014,548.152708700014,548.152708700014,548.152708700014,548.152708700014,548.4466818000074,549.8452125999902,549.8452125999902,549.8452125999902,549.8452125999902,549.8452125999902,549.8452125999902,549.8452125999902,549.8452125999902,549.8452125999902,549.8452125999902,549.8452125999902,549.8452125999902,549.8452125999902,549.8452125999902,551.5451750000066,551.5451750000066,551.5451750000066,551.5451750000066,551.5451750000066,551.5451750000066,551.5451750000066,34,43,62,44,62,70,551.5451750000066,553.2451309000026,,,,,,,,,,,,,,,,,,,,３５０,f,1９,2023-05-21_20h08.22.610,RL,2022.2.5,60.17144046720178,
47,43,68,23,0,83,83,83,,,,,,,,None,553.2451309000026,553.2451309000026,553.2451309000026,553.2451309000026,553.2451309000026,553.2451309000026,i,0.4393192999996245,553.7158287999919,553.7158287999919,553.7158287999919,553.7158287999919,553.7158287999919,553.7158287999919,553.9956167000055,555.0106038000085,555.0278327999986,555.0278327999986,555.0278327999986,555.0278327999986,555.0278327999986,555.0278327999986,555.0278327999986,555.0278327999986,555.0278327999986,555.0278327999986,555.0278327999986,555.0278327999986,555.0278327999986,556.3455876999942,556.3455876999942,556.3455876999942,556.3455876999942,556.3455876999942,556.3455876999942,556.3455876999942,23,47,68,43,68,70,556.3455876999942,558.2780877999903,,,,,,,,,,,,,,,,,,,,３５０,f,1９,2023-05-21_20h08.22.610,RL,2022.2.5,60.17144046720178,
46,41,69,17,0,84,84,84,,,,,,,,None,558.2780877999903,558.2780877999903,558.2780877999903,558.2780877999903,558.2780877999903,558.2780877999903,i,0.2455875999876298,558.5580409000104,558.5580409000104,558.5580409000104,558.5580409000104,558.5580409000104,558.5580409000104,558.8443751999876,560.3945589000068,560.4136893000104,560.4136893000104,560.4136893000104,560.4136893000104,560.4136893000104,560.4136893000104,560.4136893000104,560.4136893000104,560.4136893000104,560.4136893000104,560.4136893000104,560.4136893000104,560.4136893000104,562.2763742000097,562.2763742000097,562.2763742000097,562.2763742000097,562.2763742000097,562.2763742000097,562.2763742000097,17,46,69,41,69,70,562.2763742000097,564.0269856000086,,,,,,,,,,,,,,,,,,,,３５０,f,1９,2023-05-21_20h08.22.610,RL,2022.2.5,60.17144046720178,
45,42,63,20,0,85,85,85,,,,,,,,None,564.0269856000086,564.0269856000086,564.0269856000086,564.0269856000086,564.0269856000086,564.0269856000086,i,0.50969669999904,564.5650461000041,564.5650461000041,564.5650461000041,564.5650461000041,564.5650461000041,564.5650461000041,564.8609767000016,565.793594399991,565.8112552000093,565.8112552000093,565.8112552000093,565.8112552000093,565.8112552000093,565.8112552000093,565.8112552000093,565.8112552000093,565.8112552000093,565.8112552000093,565.8112552000093,565.8112552000093,565.8112552000093,567.0439779000008,567.0439779000008,567.0439779000008,567.0439779000008,567.0439779000008,567.0439779000008,567.0439779000008,20,45,63,42,63,70,567.0439779000008,568.8431476000114,,,,,,,,,,,,,,,,,,,,３５０,f,1９,2023-05-21_20h08.22.610,RL,2022.2.5,60.17144046720178,
43,33,71,19,0,86,86,86,,,,,,,,None,568.8431476000114,568.8431476000114,568.8431476000114,568.8431476000114,568.8431476000114,568.8431476000114,f,0.3387488000153098,569.2138939000142,569.2138939000142,569.2138939000142,569.2138939000142,569.2138939000142,569.2138939000142,569.4927441999898,571.0427554000053,571.0605760999897,571.0605760999897,571.0605760999897,571.0605760999897,571.0605760999897,571.0605760999897,571.0605760999897,571.0605760999897,571.0605760999897,571.0605760999897,571.0605760999897,571.0605760999897,571.0605760999897,572.9089449000021,572.9089449000021,572.9089449000021,572.9089449000021,572.9089449000021,572.9089449000021,572.9089449000021,19,43,71,33,19,70,572.9089449000021,574.5587374999886,,,,,,,,,,,,,,,,,,,,３５０,f,1９,2023-05-21_20h08.22.610,RL,2022.2.5,60.17144046720178,
49,30,67,26,0,87,87,87,,,,,,,,None,574.5587374999886,574.5587374999886,574.5587374999886,574.5587374999886,574.5587374999886,574.5587374999886,i,0.31034269998781383,574.8966031000018,574.8966031000018,574.8966031000018,574.8966031000018,574.8966031000018,574.8966031000018,575.1925887000107,576.0421528999868,576.061586900003,576.061586900003,576.061586900003,576.061586900003,576.061586900003,576.061586900003,576.061586900003,576.061586900003,576.061586900003,576.061586900003,576.061586900003,576.061586900003,576.061586900003,577.2244134999928,577.2244134999928,577.2244134999928,577.2244134999928,577.2244134999928,577.2244134999928,577.2244134999928,26,49,67,30,67,70,577.2244134999928,579.1234852999914,,,,,,,,,,,,,,,,,,,,３５０,f,1９,2023-05-21_20h08.22.610,RL,2022.2.5,60.17144046720178,
51,39,69,26,0,88,88,88,,,,,,,,None,579.1234852999914,579.1234852999914,579.1234852999914,579.1234852999914,579.1234852999914,579.1234852999914,i,0.37257780000800267,579.5287773000018,579.5287773000018,579.5287773000018,579.5287773000018,579.5287773000018,579.5287773000018,579.82488130001,580.9084532000124,580.9084532000124,580.9084532000124,580.9084532000124,580.9084532000124,580.9084532000124,580.9084532000124,580.9084532000124,580.9084532000124,580.9084532000124,580.9084532000124,580.9084532000124,580.9084532000124,580.9084532000124,582.2900326999952,582.2900326999952,582.2900326999952,582.2900326999952,582.2900326999952,582.2900326999952,582.2900326999952,26,51,69,39,69,70,582.2900326999952,583.9569837999879,,,,,,,,,,,,,,,,,,,,３５０,f,1９,2023-05-21_20h08.22.610,RL,2022.2.5,60.17144046720178,
47,44,70,34,0,89,89,89,,,,,,,,None,583.9569837999879,583.9569837999879,583.9569837999879,583.9569837999879,583.9569837999879,583.9569837999879,j,0.6803281000175048,584.6701164999977,584.6701164999977,584.6701164999977,584.6701164999977,584.6701164999977,584.6701164999977,584.9406234000053,586.0727820000029,586.1071601000149,586.1071601000149,586.1071601000149,586.1071601000149,586.1071601000149,586.1071601000149,586.1071601000149,586.1071601000149,586.1071601000149,586.1071601000149,586.1071601000149,586.1071601000149,586.1071601000149,587.5393015999871,587.5393015999871,587.5393015999871,587.5393015999871,587.5393015999871,587.5393015999871,587.5393015999871,34,47,70,44,44,70,587.5393015999871,589.1062156000116,,,,,,,,,,,,,,,,,,,,３５０,f,1９,2023-05-21_20h08.22.610,RL,2022.2.5,60.17144046720178,
50,43,61,23,0,90,90,90,,,,,,,,None,589.1062156000116,589.1062156000116,589.1062156000116,589.1062156000116,589.1062156000116,589.1062156000116,i,0.34448659999179654,589.4763890999893,589.4763890999893,589.4763890999893,589.4763890999893,589.4763890999893,589.4763890999893,589.7558230000141,591.1225299999933,591.1577489000047,591.1577489000047,591.1577489000047,591.1577489000047,591.1577489000047,591.1577489000047,591.1577489000047,591.1577489000047,591.1577489000047,591.1577489000047,591.1577489000047,591.1577489000047,591.1577489000047,592.822464900004,592.822464900004,592.822464900004,592.822464900004,592.822464900004,592.822464900004,592.822464900004,23,50,61,43,61,70,592.822464900004,594.5888129000086,,,,,,,,,,,,,,,,,,,,３５０,f,1９,2023-05-21_20h08.22.610,RL,2022.2.5,60.17144046720178,
51,42,70,37,0,91,91,91,,,,,,,,None,594.5888129000086,594.5888129000086,594.5888129000086,594.5888129000086,594.5888129000086,594.5888129000086,i,0.33261949999723583,594.9433782999986,594.9433782999986,594.9433782999986,594.9433782999986,594.9433782999986,594.9433782999986,595.2379474999907,596.6214053000149,596.6214053000149,596.6214053000149,596.6214053000149,596.6214053000149,596.6214053000149,596.6214053000149,596.6214053000149,596.6214053000149,596.6214053000149,596.6214053000149,596.6214053000149,596.6214053000149,596.6214053000149,598.305045999994,598.305045999994,598.305045999994,598.305045999994,598.305045999994,598.305045999994,598.305045999994,37,51,70,42,70,70,598.305045999994,600.0878237000143,,,,,,,,,,,,,,,,,,,,３５０,f,1９,2023-05-21_20h08.22.610,RL,2022.2.5,60.17144046720178,
49,30,57,35,0,92,92,92,,,,,,,,None,600.0878237000143,600.0878237000143,600.0878237000143,600.0878237000143,600.0878237000143,600.0878237000143,i,0.3082365000154823,600.4223263000022,600.4223263000022,600.4223263000022,600.4223263000022,600.4223263000022,600.4223263000022,600.7044237999944,601.9875287000032,602.0041717000131,602.0041717000131,602.0041717000131,602.0041717000131,602.0041717000131,602.0041717000131,602.0041717000131,602.0041717000131,602.0041717000131,602.0041717000131,602.0041717000131,602.0041717000131,602.0041717000131,603.5870106999937,603.5870106999937,603.5870106999937,603.5870106999937,603.5870106999937,603.5870106999937,603.5870106999937,35,49,57,30,57,70,603.5870106999937,605.1697233000014,,,,,,,,,,,,,,,,,,,,３５０,f,1９,2023-05-21_20h08.22.610,RL,2022.2.5,60.17144046720178,
45,41,69,40,0,93,93,93,,,,,,,,None,605.1697233000014,605.1697233000014,605.1697233000014,605.1697233000014,605.1697233000014,605.1697233000014,i,0.3664447999908589,605.5585340000107,605.5585340000107,605.5585340000107,605.5585340000107,605.5585340000107,605.5585340000107,605.8522596000112,607.6223546999972,607.6223546999972,607.6223546999972,607.6223546999972,607.6223546999972,607.6223546999972,607.6223546999972,607.6223546999972,607.6223546999972,607.6223546999972,607.6223546999972,607.6223546999972,607.6223546999972,607.6223546999972,609.6863675999921,609.6863675999921,609.6863675999921,609.6863675999921,609.6863675999921,609.6863675999921,609.6863675999921,40,45,69,41,69,70,609.6863675999921,611.4189064000093,,,,,,,,,,,,,,,,,,,,３５０,f,1９,2023-05-21_20h08.22.610,RL,2022.2.5,60.17144046720178,
35,43,70,40,0,94,94,94,,,,,,,,None,611.4189064000093,611.4189064000093,611.4189064000093,611.4189064000093,611.4189064000093,611.4189064000093,i,0.2668749000004027,611.7243415999983,611.7243415999983,611.7243415999983,611.7243415999983,611.7243415999983,611.7243415999983,612.0011558000115,613.1523979000049,613.1709050000063,613.1709050000063,613.1709050000063,613.1709050000063,613.1709050000063,613.1709050000063,613.1709050000063,613.1709050000063,613.1709050000063,613.1709050000063,613.1709050000063,613.1709050000063,613.1709050000063,614.6180353999953,614.6180353999953,614.6180353999953,614.6180353999953,614.6180353999953,614.6180353999953,614.6180353999953,40,35,70,43,70,70,614.6180353999953,616.5170093000052,,,,,,,,,,,,,,,,,,,,３５０,f,1９,2023-05-21_20h08.22.610,RL,2022.2.5,60.17144046720178,
33,38,72,45,0,95,95,95,,,,,,,,None,616.5170093000052,616.5170093000052,616.5170093000052,616.5170093000052,616.5170093000052,616.5170093000052,i,0.26809420000063255,616.82740010001,616.82740010001,616.82740010001,616.82740010001,616.82740010001,616.82740010001,617.1167167999956,618.7181633000146,618.7181633000146,618.7181633000146,618.7181633000146,618.7181633000146,618.7181633000146,618.7181633000146,618.7181633000146,618.7181633000146,618.7181633000146,618.7181633000146,618.7181633000146,618.7181633000146,618.7181633000146,620.6168532000156,620.6168532000156,620.6168532000156,620.6168532000156,620.6168532000156,620.6168532000156,620.6168532000156,45,33,72,38,72,70,620.6168532000156,622.3831555999932,,,,,,,,,,,,,,,,,,,,３５０,f,1９,2023-05-21_20h08.22.610,RL,2022.2.5,60.17144046720178,
35,42,77,53,0,96,96,96,,,,,,,,None,622.3831555999932,622.3831555999932,622.3831555999932,622.3831555999932,622.3831555999932,622.3831555999932,j,0.6686559999943711,623.0876563999918,623.0876563999918,623.0876563999918,623.0876563999918,623.0876563999918,623.0876563999918,623.3832293000014,624.3498536999978,624.3498536999978,624.3498536999978,624.3498536999978,624.3498536999978,624.3498536999978,624.3498536999978,624.3498536999978,624.3498536999978,624.3498536999978,624.3498536999978,624.3498536999978,624.3498536999978,624.3498536999978,625.6160532000067,625.6160532000067,625.6160532000067,625.6160532000067,625.6160532000067,625.6160532000067,625.6160532000067,53,35,77,42,42,70,625.6160532000067,627.5831338000135,,,,,,,,,,,,,,,,,,,,３５０,f,1９,2023-05-21_20h08.22.610,RL,2022.2.5,60.17144046720178,
31,42,75,46,0,97,97,97,,,,,,,,None,627.5831338000135,627.5831338000135,627.5831338000135,627.5831338000135,627.5831338000135,627.5831338000135,i,0.22854940002434887,627.8462868999923,627.8462868999923,627.8462868999923,627.8462868999923,627.8462868999923,627.8462868999923,628.1308890999935,629.2486176000093,629.2645434000005,629.2645434000005,629.2645434000005,629.2645434000005,629.2645434000005,629.2645434000005,629.2645434000005,629.2645434000005,629.2645434000005,629.2645434000005,629.2645434000005,629.2645434000005,629.2645434000005,630.6817857999995,630.6817857999995,630.6817857999995,630.6817857999995,630.6817857999995,630.6817857999995,630.6817857999995,46,31,75,42,75,70,630.6817857999995,632.4809075999947,,,,,,,,,,,,,,,,,,,,３５０,f,1９,2023-05-21_20h08.22.610,RL,2022.2.5,60.17144046720178,
25,44,80,51,0,98,98,98,,,,,,,,None,632.4809075999947,632.4809075999947,632.4809075999947,632.4809075999947,632.4809075999947,632.4809075999947,i,0.23373700000229292,632.7524372999906,632.7524372999906,632.7524372999906,632.7524372999906,632.7524372999906,632.7524372999906,633.0316783000017,634.3650584999996,634.397527299996,634.397527299996,634.397527299996,634.397527299996,634.397527299996,634.397527299996,634.397527299996,634.397527299996,634.397527299996,634.397527299996,634.397527299996,634.397527299996,634.397527299996,636.0308584000159,636.0308584000159,636.0308584000159,636.0308584000159,636.0308584000159,636.0308584000159,636.0308584000159,51,25,80,44,80,70,636.0308584000159,638.0143879000098,,,,,,,,,,,,,,,,,,,,３５０,f,1９,2023-05-21_20h08.22.610,RL,2022.2.5,60.17144046720178,
27,33,65,48,0,99,99,99,,,,,,,,None,638.0143879000098,638.0143879000098,638.0143879000098,638.0143879000098,638.0143879000098,638.0143879000098,i,0.24947740000789054,638.3031747000059,638.3031747000059,638.3031747000059,638.3031747000059,638.3031747000059,638.3031747000059,638.580567500001,639.5806860000012,639.5970940999978,639.5970940999978,639.5970940999978,639.5970940999978,639.5970940999978,639.5970940999978,639.5970940999978,639.5970940999978,639.5970940999978,639.5970940999978,639.5970940999978,639.5970940999978,639.5970940999978,640.8971200000087,640.8971200000087,640.8971200000087,640.8971200000087,640.8971200000087,640.8971200000087,640.8971200000087,48,27,65,33,65,70,640.8971200000087,642.6464428000036,,,,,,,,,,,,,,,,,,,,３５０,f,1９,2023-05-21_20h08.22.610,RL,2022.2.5,60.17144046720178,
29,38,65,43,0,100,100,100,,,,,,,,None,642.6464428000036,642.6464428000036,642.6464428000036,642.6464428000036,642.6464428000036,642.6464428000036,i,0.5293957999965642,643.2016729000024,643.2016729000024,643.2016729000024,643.2016729000024,643.2016729000024,643.2016729000024,643.4801255000057,644.2961217999982,644.3128876000119,644.3128876000119,644.3128876000119,644.3128876000119,644.3128876000119,644.3128876000119,644.3128876000119,644.3128876000119,644.3128876000119,644.3128876000119,644.3128876000119,644.3128876000119,644.3128876000119,645.428931900009,645.428931900009,645.428931900009,645.428931900009,645.428931900009,645.428931900009,645.428931900009,43,29,65,38,65,70,645.428931900009,647.1287188999995,,,,,,,,,,,,,,,,,,,,３５０,f,1９,2023-05-21_20h08.22.610,RL,2022.2.5,60.17144046720178,
25,34,66,47,0,101,101,101,,,,,,,,None,647.1287188999995,647.1287188999995,647.1287188999995,647.1287188999995,647.1287188999995,647.1287188999995,i,0.23022510000737384,647.3847025000141,647.3847025000141,647.3847025000141,647.3847025000141,647.3847025000141,647.3847025000141,647.6793336000119,649.6813253000146,649.6813253000146,649.6813253000146,649.6813253000146,649.6813253000146,649.6813253000146,649.6813253000146,649.6813253000146,649.6813253000146,649.6813253000146,649.6813253000146,649.6813253000146,649.6813253000146,649.6813253000146,651.978434699995,651.978434699995,651.978434699995,651.978434699995,651.978434699995,651.978434699995,651.978434699995,47,25,66,34,66,70,651.978434699995,653.7768492999894,,,,,,,,,,,,,,,,,,,,３５０,f,1９,2023-05-21_20h08.22.610,RL,2022.2.5,60.17144046720178,
28,33,74,46,0,102,102,102,,,,,,,,None,653.7768492999894,653.7768492999894,653.7768492999894,653.7768492999894,653.7768492999894,653.7768492999894,i,0.17432239998015575,653.9921322999871,653.9921322999871,653.9921322999871,653.9921322999871,653.9921322999871,653.9921322999871,654.2786456999893,655.2941138999886,655.3124270999979,655.3124270999979,655.3124270999979,655.3124270999979,655.3124270999979,655.3124270999979,655.3124270999979,655.3124270999979,655.3124270999979,655.3124270999979,655.3124270999979,655.3124270999979,655.3124270999979,656.628277300013,656.628277300013,656.628277300013,656.628277300013,656.628277300013,656.628277300013,656.628277300013,46,28,74,33,74,70,656.628277300013,658.5779202000122,,,,,,,,,,,,,,,,,,,,３５０,f,1９,2023-05-21_20h08.22.610,RL,2022.2.5,60.17144046720178,
25,41,71,56,0,103,103,103,,,,,,,,None,658.5779202000122,658.5779202000122,658.5779202000122,658.5779202000122,658.5779202000122,658.5779202000122,i,0.25913789999322034,658.8659845000075,658.8659845000075,658.8659845000075,658.8659845000075,658.8659845000075,658.8659845000075,659.1594435000152,660.364044899994,660.364044899994,660.364044899994,660.364044899994,660.364044899994,660.364044899994,660.364044899994,660.364044899994,660.364044899994,660.364044899994,660.364044899994,660.364044899994,660.364044899994,660.364044899994,661.8598424000083,661.8598424000083,661.8598424000083,661.8598424000083,661.8598424000083,661.8598424000083,661.8598424000083,56,25,71,41,71,70,661.8598424000083,663.6770682999922,,,,,,,,,,,,,,,,,,,,３５０,f,1９,2023-05-21_20h08.22.610,RL,2022.2.5,60.17144046720178,
24,34,72,50,0,104,104,104,,,,,,,,None,663.6770682999922,663.6770682999922,663.6770682999922,663.6770682999922,663.6770682999922,663.6770682999922,i,0.28715639997972175,663.9979817999993,663.9979817999993,663.9979817999993,663.9979817999993,663.9979817999993,663.9979817999993,664.2940289000107,665.2750711000117,665.2750711000117,665.2750711000117,665.2750711000117,665.2750711000117,665.2750711000117,665.2750711000117,665.2750711000117,665.2750711000117,665.2750711000117,665.2750711000117,665.2750711000117,665.2750711000117,665.2750711000117,666.5600563999906,666.5600563999906,666.5600563999906,666.5600563999906,666.5600563999906,666.5600563999906,666.5600563999906,50,24,72,34,72,70,666.5600563999906,668.4923705999972,,,,,,,,,,,,,,,,,,,,３５０,f,1９,2023-05-21_20h08.22.610,RL,2022.2.5,60.17144046720178,
23,22,76,54,0,105,105,105,,,,,,,,None,668.4923705999972,668.4923705999972,668.4923705999972,668.4923705999972,668.4923705999972,668.4923705999972,i,0.39505940000526607,668.9221629000094,668.9221629000094,668.9221629000094,668.9221629000094,668.9221629000094,668.9221629000094,669.2088884999976,671.1573529999878,671.1573529999878,671.1573529999878,671.1573529999878,671.1573529999878,671.1573529999878,671.1573529999878,671.1573529999878,671.1573529999878,671.1573529999878,671.1573529999878,671.1573529999878,671.1573529999878,671.1573529999878,673.4083911000052,673.4083911000052,673.4083911000052,673.4083911000052,673.4083911000052,673.4083911000052,673.4083911000052,54,23,76,22,76,70,673.4083911000052,675.307718600001,,,,,,,,,,,,,,,,,,,,３５０,f,1９,2023-05-21_20h08.22.610,RL,2022.2.5,60.17144046720178,
25,23,78,45,0,106,106,106,,,,,,,,None,675.307718600001,675.307718600001,675.307718600001,675.307718600001,675.307718600001,675.307718600001,i,0.25283610000042245,675.5943222999922,675.5943222999922,675.5943222999922,675.5943222999922,675.5943222999922,675.5943222999922,675.8915709000139,677.4408544999897,677.4589775000059,677.4589775000059,677.4589775000059,677.4589775000059,677.4589775000059,677.4589775000059,677.4589775000059,677.4589775000059,677.4589775000059,677.4589775000059,677.4589775000059,677.4589775000059,677.4589775000059,679.3071559999953,679.3071559999953,679.3071559999953,679.3071559999953,679.3071559999953,679.3071559999953,679.3071559999953,45,25,78,23,78,70,679.3071559999953,681.2396525999939,,,,,,,,,,,,,,,,,,,,３５０,f,1９,2023-05-21_20h08.22.610,RL,2022.2.5,60.17144046720178,
34,28,73,44,0,107,107,107,,,,,,,,None,681.2396525999939,681.2396525999939,681.2396525999939,681.2396525999939,681.2396525999939,681.2396525999939,i,0.319733999989694,681.596950600011,681.596950600011,681.596950600011,681.596950600011,681.596950600011,681.596950600011,681.8734538000135,683.1890707999992,683.2233813999919,683.2233813999919,683.2233813999919,683.2233813999919,683.2233813999919,683.2233813999919,683.2233813999919,683.2233813999919,683.2233813999919,683.2233813999919,683.2233813999919,683.2233813999919,683.2233813999919,684.8388377999945,684.8388377999945,684.8388377999945,684.8388377999945,684.8388377999945,684.8388377999945,684.8388377999945,44,34,73,28,73,70,684.8388377999945,686.4892820999958,,,,,,,,,,,,,,,,,,,,３５０,f,1９,2023-05-21_20h08.22.610,RL,2022.2.5,60.17144046720178,
15,24,76,56,0,108,108,108,,,,,,,,None,686.4892820999958,686.4892820999958,686.4892820999958,686.4892820999958,686.4892820999958,686.4892820999958,None,,,,,,,,,,,,,,,,,,,,,,,,,,,,,,56,15,76,24,0,70,694.0040249000012,695.9209023000149,687.9916459000087,687.9916459000087,687.9916459000087,687.9916459000087,687.9916459000087,687.9916459000087,687.9916459000087,694.0040249000012,,,,,,,,,,,,３５０,f,1９,2023-05-21_20h08.22.610,RL,2022.2.5,60.17144046720178,
26,29,74,54,0,109,109,109,,,,,,,,None,695.9209023000149,695.9209023000149,695.9209023000149,695.9209023000149,695.9209023000149,695.9209023000149,i,0.3112276000028942,696.258716500015,696.258716500015,696.258716500015,696.258716500015,696.258716500015,696.258716500015,696.5537608999875,697.9392353000003,697.9392353000003,697.9392353000003,697.9392353000003,697.9392353000003,697.9392353000003,697.9392353000003,697.9392353000003,697.9392353000003,697.9392353000003,697.9392353000003,697.9392353000003,697.9392353000003,697.9392353000003,699.6205097000056,699.6205097000056,699.6205097000056,699.6205097000056,699.6205097000056,699.6205097000056,699.6205097000056,54,26,74,29,74,70,699.6205097000056,701.3029080000124,,,,,,,,,,,,,,,,,,,,３５０,f,1９,2023-05-21_20h08.22.610,RL,2022.2.5,60.17144046720178,
21,27,69,57,0,110,110,110,,,,,,,,None,701.3029080000124,701.3029080000124,701.3029080000124,701.3029080000124,701.3029080000124,701.3029080000124,i,0.2853127999987919,701.6255464999995,701.6255464999995,701.6255464999995,701.6255464999995,701.6255464999995,701.6255464999995,701.9026172999875,703.8021799999988,703.8189974999987,703.8189974999987,703.8189974999987,703.8189974999987,703.8189974999987,703.8189974999987,703.8189974999987,703.8189974999987,703.8189974999987,703.8189974999987,703.8189974999987,703.8189974999987,703.8189974999987,706.0198425000126,706.0198425000126,706.0198425000126,706.0198425000126,706.0198425000126,706.0198425000126,706.0198425000126,57,21,69,27,69,70,706.0198425000126,707.66899559999,,,,,,,,,,,,,,,,,,,,３５０,f,1９,2023-05-21_20h08.22.610,RL,2022.2.5,60.17144046720178,
24,27,64,48,0,111,111,111,,,,,,,,None,707.66899559999,707.66899559999,707.66899559999,707.66899559999,707.66899559999,707.66899559999,i,0.27404080002452247,707.9704147000157,707.9704147000157,707.9704147000157,707.9704147000157,707.9704147000157,707.9704147000157,708.2517585000023,709.485817400011,709.5046332000056,709.5046332000056,709.5046332000056,709.5046332000056,709.5046332000056,709.5046332000056,709.5046332000056,709.5046332000056,709.5046332000056,709.5046332000056,709.5046332000056,709.5046332000056,709.5046332000056,711.0341896000027,711.0341896000027,711.0341896000027,711.0341896000027,711.0341896000027,711.0341896000027,711.0341896000027,48,24,64,27,64,70,711.0341896000027,713.0012081000023,,,,,,,,,,,,,,,,,,,,３５０,f,1９,2023-05-21_20h08.22.610,RL,2022.2.5,60.17144046720178,
30,21,68,44,0,112,112,112,,,,,,,,None,713.0012081000023,713.0012081000023,713.0012081000023,713.0012081000023,713.0012081000023,713.0012081000023,i,0.3458861999970395,713.3810048000014,713.3810048000014,713.3810048000014,713.3810048000014,713.3810048000014,713.3810048000014,713.651465700008,715.3178303999885,715.3543368999963,715.3543368999963,715.3543368999963,715.3543368999963,715.3543368999963,715.3543368999963,715.3543368999963,715.3543368999963,715.3543368999963,715.3543368999963,715.3543368999963,715.3543368999963,715.3543368999963,717.3176493000065,717.3176493000065,717.3176493000065,717.3176493000065,717.3176493000065,717.3176493000065,717.3176493000065,44,30,68,21,68,70,717.3176493000065,719.1992425000062,,,,,,,,,,,,,,,,,,,,３５０,f,1９,2023-05-21_20h08.22.610,RL,2022.2.5,60.17144046720178,
32,21,61,50,0,113,113,113,,,,,,,,None,719.1992425000062,719.1992425000062,719.1992425000062,719.1992425000062,719.1992425000062,719.1992425000062,i,0.23091240000212565,719.4527985999885,719.4527985999885,719.4527985999885,719.4527985999885,719.4527985999885,719.4527985999885,719.7336714999983,721.5163475000008,721.5375787999947,721.5375787999947,721.5375787999947,721.5375787999947,721.5375787999947,721.5375787999947,721.5375787999947,721.5375787999947,721.5375787999947,721.5375787999947,721.5375787999947,721.5375787999947,721.5375787999947,723.6164657000045,723.6164657000045,723.6164657000045,723.6164657000045,723.6164657000045,723.6164657000045,723.6164657000045,50,32,61,21,61,70,723.6164657000045,725.3824874999991,,,,,,,,,,,,,,,,,,,,３５０,f,1９,2023-05-21_20h08.22.610,RL,2022.2.5,60.17144046720178,
27,21,67,51,0,114,114,114,,,,,,,,None,725.3824874999991,725.3824874999991,725.3824874999991,725.3824874999991,725.3824874999991,725.3824874999991,i,0.2780872999865096,725.6897470999975,725.6897470999975,725.6897470999975,725.6897470999975,725.6897470999975,725.6897470999975,725.9822094000119,727.516338299989,727.5353561000084,727.5353561000084,727.5353561000084,727.5353561000084,727.5353561000084,727.5353561000084,727.5353561000084,727.5353561000084,727.5353561000084,727.5353561000084,727.5353561000084,727.5353561000084,727.5353561000084,729.3652858000132,729.3652858000132,729.3652858000132,729.3652858000132,729.3652858000132,729.3652858000132,729.3652858000132,51,27,67,21,67,70,729.3652858000132,731.0316636000061,,,,,,,,,,,,,,,,,,,,３５０,f,1９,2023-05-21_20h08.22.610,RL,2022.2.5,60.17144046720178,
19,30,67,43,0,115,115,115,,,,,,,,None,731.0316636000061,731.0316636000061,731.0316636000061,731.0316636000061,731.0316636000061,731.0316636000061,i,0.33009839997976087,731.3944460999919,731.3944460999919,731.3944460999919,731.3944460999919,731.3944460999919,731.3944460999919,731.681355400011,733.1807822000119,733.1972170000081,733.1972170000081,733.1972170000081,733.1972170000081,733.1972170000081,733.1972170000081,733.1972170000081,733.1972170000081,733.1972170000081,733.1972170000081,733.1972170000081,733.1972170000081,733.1972170000081,734.9962943000137,734.9962943000137,734.9962943000137,734.9962943000137,734.9962943000137,734.9962943000137,734.9962943000137,43,19,67,30,67,70,734.9962943000137,736.6975126999896,,,,,,,,,,,,,,,,,,,,３５０,f,1９,2023-05-21_20h08.22.610,RL,2022.2.5,60.17144046720178,
21,35,69,40,0,116,116,116,,,,,,,,None,736.6975126999896,736.6975126999896,736.6975126999896,736.6975126999896,736.6975126999896,736.6975126999896,r,0.33836570000858046,737.0680895000114,737.0680895000114,737.0680895000114,737.0680895000114,737.0680895000114,737.0680895000114,737.3635377000028,738.6622994999925,738.6794194999966,738.6794194999966,738.6794194999966,738.6794194999966,738.6794194999966,738.6794194999966,738.6794194999966,738.6794194999966,738.6794194999966,738.6794194999966,738.6794194999966,738.6794194999966,738.6794194999966,740.2785161999927,740.2785161999927,740.2785161999927,740.2785161999927,740.2785161999927,740.2785161999927,740.2785161999927,40,21,69,35,21,70,740.2785161999927,741.8794509000145,,,,,,,,,,,,,,,,,,,,３５０,f,1９,2023-05-21_20h08.22.610,RL,2022.2.5,60.17144046720178,
23,28,63,40,0,117,117,117,,,,,,,,None,741.8794509000145,741.8794509000145,741.8794509000145,741.8794509000145,741.8794509000145,741.8794509000145,i,0.3053724999772385,742.2132920000004,742.2132920000004,742.2132920000004,742.2132920000004,742.2132920000004,742.2132920000004,742.4963449999923,744.2462575999962,744.2661885000125,744.2661885000125,744.2661885000125,744.2661885000125,744.2661885000125,744.2661885000125,744.2661885000125,744.2661885000125,744.2661885000125,744.2661885000125,744.2661885000125,744.2661885000125,744.2661885000125,746.3126296999981,746.3126296999981,746.3126296999981,746.3126296999981,746.3126296999981,746.3126296999981,746.3126296999981,40,23,63,28,63,70,746.3126296999981,748.0451102000079,,,,,,,,,,,,,,,,,,,,３５０,f,1９,2023-05-21_20h08.22.610,RL,2022.2.5,60.17144046720178,
32,30,62,40,0,118,118,118,,,,,,,,None,748.0451102000079,748.0451102000079,748.0451102000079,748.0451102000079,748.0451102000079,748.0451102000079,i,0.2693779999972321,748.3514190000133,748.3514190000133,748.3514190000133,748.3514190000133,748.3514190000133,748.3514190000133,748.6281214999908,749.645183399989,749.680923900014,749.680923900014,749.680923900014,749.680923900014,749.680923900014,749.680923900014,749.680923900014,749.680923900014,749.680923900014,749.680923900014,749.680923900014,749.680923900014,749.680923900014,750.9944485999877,750.9944485999877,750.9944485999877,750.9944485999877,750.9944485999877,750.9944485999877,750.9944485999877,40,32,62,30,62,70,750.9944485999877,752.7438929000054,,,,,,,,,,,,,,,,,,,,３５０,f,1９,2023-05-21_20h08.22.610,RL,2022.2.5,60.17144046720178,
25,27,54,40,0,119,119,119,,,,,,,,None,752.7438929000054,752.7438929000054,752.7438929000054,752.7438929000054,752.7438929000054,752.7438929000054,i,0.36349729998619296,753.1406709000003,753.1406709000003,753.1406709000003,753.1406709000003,753.1406709000003,753.1406709000003,753.4273916000093,754.3776277000143,754.3965670999896,754.3965670999896,754.3965670999896,754.3965670999896,754.3965670999896,754.3965670999896,754.3965670999896,754.3965670999896,754.3965670999896,754.3965670999896,754.3965670999896,754.3965670999896,754.3965670999896,755.6438360000029,755.6438360000029,755.6438360000029,755.6438360000029,755.6438360000029,755.6438360000029,755.6438360000029,40,25,54,27,54,70,755.6438360000029,757.476610999991,,,,,,,,,,,,,,,,,,,,３５０,f,1９,2023-05-21_20h08.22.610,RL,2022.2.5,60.17144046720178,
19,34,62,44,0,120,120,120,,,,,,,,None,757.476610999991,757.476610999991,757.476610999991,757.476610999991,757.476610999991,757.476610999991,i,0.340402300003916,757.8473188999924,757.8473188999924,757.8473188999924,757.8473188999924,757.8473188999924,757.8473188999924,758.1265966999927,759.9936321999994,760.0249198999954,760.0249198999954,760.0249198999954,760.0249198999954,760.0249198999954,760.0249198999954,760.0249198999954,760.0249198999954,760.0249198999954,760.0249198999954,760.0249198999954,760.0249198999954,760.0249198999954,762.1931620000105,762.1931620000105,762.1931620000105,762.1931620000105,762.1931620000105,762.1931620000105,762.1931620000105,44,19,62,34,62,70,762.1931620000105,763.7761855999997,,,,,,,,,,,,,,,,,,,,３５０,f,1９,2023-05-21_20h08.22.610,RL,2022.2.5,60.17144046720178,
