bandit0,black_x_pos_random,black_y_pos_random,trials.thisRepN,trials.thisTrialN,trials.thisN,trials.thisIndex,instru_img1.started,instru_img1.stopped,instru_resp.keys,instru_resp.rt,instru_resp.started,instru_resp.stopped,instru_img2.started,instru_img2.stopped,instru_resp2.keys,instru_resp2.rt,instru_resp2.started,instru_resp2.stopped,fixbefore_2.started,fixbefore_2.stopped,rest_image.started,rest_image.stopped,rest_response.keys,rest_response.started,rest_response.stopped,red.started,red.stopped,green.started,green.stopped,yellow.started,yellow.stopped,blue.started,blue.stopped,choose_bandit.keys,choose_bandit.rt,choose_bandit.started,choose_bandit.stopped,Fixation.started,Fixation.stopped,black.started,black.stopped,red_2.started,red_2.stopped,green_2.started,green_2.stopped,yellow_2.started,yellow_2.stopped,blue_2.started,blue_2.stopped,fixation_2.started,fixation_2.stopped,docs.started,docs.stopped,wait_playerB.started,wait_playerB.stopped,black_com.started,black_com.stopped,reward_sub.started,reward_sub.stopped,palyerb.started,palyerb.stopped,reward__sub.started,reward__sub.stopped,compare.started,compare.stopped,red_compare.started,red_compare.stopped,green_com.started,green_com.stopped,yellow_com.started,yellow_com.stopped,blue_com.started,blue_com.stopped,rewardyellow,rewardred,rewardblue,rewardgreen,subchoose,playerb,image_3.started,image_3.stopped,slider.response,slider.rt,slider.started,slider.stopped,text.started,text.stopped,image_4.started,image_4.stopped,image_5.started,image_5.stopped,value_expect_self,expect_self_black.started,expect_self_black.stopped,expect_self.started,expect_self.stopped,expect_self_red.started,expect_self_red.stopped,expect_self_green.started,expect_self_green.stopped,expect_self_yellow.started,expect_self_yellow.stopped,expect_self_blue.started,expect_self_blue.stopped,tijiao.started,tijiao.stopped,expectself.text,expectself.started,expectself.stopped,tijiao_click.started,tijiao_click.stopped,random_whicharm,whether_ask,jiantou_random.started,jiantou_random.stopped,expect_red.started,expect_red.stopped,expect_green.started,expect_green.stopped,expect_yellow.started,expect_yellow.stopped,expect_blue.started,expect_blue.stopped,expect_random_2.started,expect_random_2.stopped,expect_random_3.text,expect_random_3.started,expect_random_3.stopped,tijiao_random_2.started,tijiao_random_2.stopped,tijiao_random.started,tijiao_random.stopped,slider_2.response,slider_2.rt,slider_2.started,slider_2.stopped,image_7.started,image_7.stopped,confi.started,confi.stopped,notconfi.started,notconfi.stopped,bigx.started,bigx.stopped,intertrialfix.started,intertrialfix.stopped,tijiao_random.x,tijiao_random.y,tijiao_random.leftButton,tijiao_random.midButton,tijiao_random.rightButton,tijiao_random.time,tijiao_random.clicked_name,tijiao_click.x,tijiao_click.y,tijiao_click.leftButton,tijiao_click.midButton,tijiao_click.rightButton,tijiao_click.time,tijiao_click.clicked_name,rest_response.rt,participant,Gender,Age,date,expName,psychopyVersion,frameRate,
,,,,,,,20.56834130000061,None,space,11.190632600002573,20.56834130000061,None,,,,,,,,,,,,,,,,,,,,,,,,,,,,,,,,,,,,,,,,,,,,,,,,,,,,,,,,,,,,,,,,,,,,,,,,,,,,,,,,,,,,,,,,,,,,,,,,,,,,,,,,,,,,,,,,,,,,,,,,,,,,,,,,,,,,,,,,,,,,,,,,,,,,,,221,f,23,2023_Mar_19_1405,RL,2021.2.3,60.17451813624678,
,,,,,,,,,,,,,31.798467500004335,None,s,28.334559800001443,31.798467500004335,None,,,,,,,,,,,,,,,,,,,,,,,,,,,,,,,,,,,,,,,,,,,,,,,,,,,,,,,,,,,,,,,,,,,,,,,,,,,,,,,,,,,,,,,,,,,,,,,,,,,,,,,,,,,,,,,,,,,,,,,,,,,,,,,,,,,,,,,,,,,,,,,,221,f,23,2023_Mar_19_1405,RL,2021.2.3,60.17451813624678,
1,-0.3,-0.225,0,0,0,0,,,,,,,,,,,,,60.16376070000115,None,None,None,None,None,None,61.23635060000379,None,61.23635060000379,None,61.23635060000379,None,61.23635060000379,None,r,0.2861397000015131,61.23635060000379,None,61.23635060000379,None,61.65813400000479,None,61.65813400000479,None,61.65813400000479,None,61.65813400000479,None,61.65813400000479,None,61.65813400000479,None,61.93789040000411,63.36752130000241,61.93789040000411,63.36752130000241,63.45652230000269,None,63.45652230000269,None,63.45652230000269,None,63.45652230000269,None,63.45652230000269,None,63.45652230000269,None,63.45652230000269,None,63.45652230000269,None,63.45652230000269,None,45,68,60,43,45,34,66.03740000000107,None,2.0,3.1642503999973997,66.03740000000107,None,66.03740000000107,None,66.03740000000107,None,66.03740000000107,None,,None,None,None,None,None,None,None,None,None,None,None,None,None,None,,None,None,None,None,-0.2,3,None,None,None,None,None,None,None,None,None,None,None,None,,None,None,None,None,None,None,None,None,None,None,None,None,None,None,None,None,None,None,69.8384784000009,None,,,,,,,,,,,,,,,,221,f,23,2023_Mar_19_1405,RL,2021.2.3,60.17451813624678,
0,0.3,0.225,0,1,1,1,,,,,,,,,,,,,,,None,None,None,None,None,71.46874030000617,None,71.46874030000617,None,71.46874030000617,None,71.46874030000617,None,f,0.3173255000001518,71.46874030000617,None,71.46874030000617,None,71.82657480000489,None,71.82657480000489,None,71.82657480000489,None,71.82657480000489,None,71.82657480000489,None,71.82657480000489,None,72.0936881000016,73.606514900006,72.0936881000016,73.606514900006,73.64822300000378,None,73.64822300000378,None,73.64822300000378,None,73.64822300000378,None,73.64822300000378,None,73.64822300000378,None,73.64822300000378,None,73.64822300000378,None,73.64822300000378,None,47,62,60,40,62,31,None,None,None,None,None,None,None,None,None,None,None,None,,None,None,None,None,None,None,None,None,None,None,None,None,None,None,,None,None,None,None,0.6,1,76.22710310000548,None,76.22710310000548,None,76.22710310000548,None,76.22710310000548,None,76.22710310000548,None,76.22710310000548,None,56,76.22710310000548,None,76.22710310000548,None,0.0008903499983716756,None,1.0462962962962965,2.448946899996372,83.10020020000229,None,83.10020020000229,None,83.10020020000229,None,83.10020020000229,None,None,None,85.55716420000681,None,0.025,-0.2962962962962963,1,0,0,6.815429300004325,tijiao,,,,,,,,,221,f,23,2023_Mar_19_1405,RL,2021.2.3,60.17451813624678,
1,-0.3,-0.225,0,2,2,2,,,,,,,,,,,,,,,None,None,None,None,None,87.08814240000356,None,87.08814240000356,None,87.08814240000356,None,87.08814240000356,None,r,0.23691649999818765,87.08814240000356,None,87.08814240000356,None,87.36185560000013,None,87.36185560000013,None,87.36185560000013,None,87.36185560000013,None,87.36185560000013,None,87.36185560000013,None,87.65080730000045,88.963903200005,87.65080730000045,88.963903200005,88.98727600000711,None,88.98727600000711,None,88.98727600000711,None,88.98727600000711,None,88.98727600000711,None,88.98727600000711,None,88.98727600000711,None,88.98727600000711,None,88.98727600000711,None,49,67,53,35,49,34,None,None,None,None,None,None,None,None,None,None,None,None,,None,None,None,None,None,None,None,None,None,None,None,None,None,None,,None,None,None,None,0.2,1,91.51672830000462,None,91.51672830000462,None,91.51672830000462,None,91.51672830000462,None,91.51672830000462,None,91.51672830000462,None,23,91.51672830000462,None,91.51672830000462,None,0.01642039000580553,None,1.351851851851852,2.201884100002644,96.48994060000405,None,96.48994060000405,None,96.48994060000405,None,96.48994060000405,None,None,None,98.70510820000345,None,-0.09074074074074075,-0.29444444444444445,1,0,0,4.953257499997562,tijiao,,,,,,,,,221,f,23,2023_Mar_19_1405,RL,2021.2.3,60.17451813624678,
0,0.3,0.225,0,3,3,3,,,,,,,,,,,,,,,None,None,None,None,None,100.33347910000157,None,100.33347910000157,None,100.33347910000157,None,100.33347910000157,None,f,0.25804539999808185,100.33347910000157,None,100.33347910000157,None,100.62716360000195,None,100.62716360000195,None,100.62716360000195,None,100.62716360000195,None,100.62716360000195,None,100.62716360000195,None,100.9154567000005,102.41073380000307,100.9154567000005,102.41073380000307,102.4321590000036,None,102.4321590000036,None,102.4321590000036,None,102.4321590000036,None,102.4321590000036,None,102.4321590000036,None,102.4321590000036,None,102.4321590000036,None,102.4321590000036,None,33,57,52,47,57,36,104.94198300000426,None,3.0,2.637688700000581,104.94198300000426,None,104.94198300000426,None,104.94198300000426,None,104.94198300000426,None,,None,None,None,None,None,None,None,None,None,None,None,None,None,None,,None,None,None,None,-0.2,3,None,None,None,None,None,None,None,None,None,None,None,None,,None,None,None,None,None,None,None,None,None,None,None,None,None,None,None,None,None,None,107.62630130000616,None,,,,,,,,,,,,,,,,221,f,23,2023_Mar_19_1405,RL,2021.2.3,60.17451813624678,
1,-0.3,-0.225,0,4,4,4,,,,,,,,,,,,,,,None,None,None,None,None,109.54283150000265,None,109.54283150000265,None,109.54283150000265,None,109.54283150000265,None,r,0.2797374999936437,109.54283150000265,None,109.54283150000265,None,109.85303470000508,None,109.85303470000508,None,109.85303470000508,None,109.85303470000508,None,109.85303470000508,None,109.85303470000508,None,110.13938360000611,None,110.13938360000611,None,111.50594630000705,None,111.50594630000705,None,111.50594630000705,None,111.50594630000705,None,111.50594630000705,None,111.50594630000705,None,111.50594630000705,None,111.50594630000705,None,111.50594630000705,None,28,55,50,43,28,57,None,None,None,None,None,None,None,None,None,None,None,None,67,114.03108990000328,None,114.03108990000328,None,114.03108990000328,None,114.03108990000328,None,114.03108990000328,None,114.03108990000328,None,114.03108990000328,None,67,114.03108990000328,None,0.01095906000409741,None,-0.2,0,None,None,None,None,None,None,None,None,None,None,None,None,,None,None,None,None,None,None,1.0925925925925926,3.561100399994757,119.1647449000011,None,119.1647449000011,None,119.1647449000011,None,119.1647449000011,None,None,None,122.7383872000064,None,,,,,,,,-0.007407407407407408,-0.2777777777777778,1,0,0,5.0816986999998335,tijiao,,221,f,23,2023_Mar_19_1405,RL,2021.2.3,60.17451813624678,
0,0.3,0.225,0,5,5,5,,,,,,,,,,,,,,,None,None,None,None,None,124.5508903000009,None,124.5508903000009,None,124.5508903000009,None,124.5508903000009,None,r,0.2598452999955043,124.5508903000009,None,124.5508903000009,None,124.84483690000343,None,124.84483690000343,None,124.84483690000343,None,124.84483690000343,None,124.84483690000343,None,124.84483690000343,None,125.13198860000557,126.79473290000169,125.13198860000557,126.79473290000169,126.81795580000471,None,126.81795580000471,None,126.81795580000471,None,126.81795580000471,None,126.81795580000471,None,126.81795580000471,None,126.81795580000471,None,126.81795580000471,None,126.81795580000471,None,40,61,48,45,40,35,129.32475400000112,None,2.0,2.586259199997585,129.32475400000112,None,129.32475400000112,None,129.32475400000112,None,129.32475400000112,None,,None,None,None,None,None,None,None,None,None,None,None,None,None,None,,None,None,None,None,0.2,2,None,None,None,None,None,None,None,None,None,None,None,None,,None,None,None,None,None,None,None,None,None,None,None,None,None,None,None,None,None,None,131.95961410000018,None,,,,,,,,,,,,,,,,221,f,23,2023_Mar_19_1405,RL,2021.2.3,60.17451813624678,
1,-0.3,-0.225,0,6,6,6,,,,,,,,,,,,,,,None,None,None,None,None,133.59233030000178,None,133.59233030000178,None,133.59233030000178,None,133.59233030000178,None,f,0.2291871000052197,133.59233030000178,None,133.59233030000178,None,133.8549534000049,None,133.8549534000049,None,133.8549534000049,None,133.8549534000049,None,133.8549534000049,None,133.8549534000049,None,134.14072660000238,None,134.14072660000238,None,135.72394980000536,None,135.72394980000536,None,135.72394980000536,None,135.72394980000536,None,135.72394980000536,None,135.72394980000536,None,135.72394980000536,None,135.72394980000536,None,135.72394980000536,None,40,58,53,46,58,59,138.23378620000585,None,2.0,1.9059691000002204,138.23378620000585,None,138.23378620000585,None,138.23378620000585,None,138.23378620000585,None,,None,None,None,None,None,None,None,None,None,None,None,None,None,None,,None,None,None,None,-0.6,3,None,None,None,None,None,None,None,None,None,None,None,None,,None,None,None,None,None,None,None,None,None,None,None,None,None,None,None,None,None,None,140.18851380000706,None,,,,,,,,,,,,,,,,221,f,23,2023_Mar_19_1405,RL,2021.2.3,60.17451813624678,
0,0.3,0.225,0,7,7,7,,,,,,,,,,,,,,,None,None,None,None,None,141.86945910000213,None,141.86945910000213,None,141.86945910000213,None,141.86945910000213,None,r,0.8019709000000148,141.86945910000213,None,141.86945910000213,None,142.70907330000045,None,142.70907330000045,None,142.70907330000045,None,142.70907330000045,None,142.70907330000045,None,142.70907330000045,None,142.999822400001,None,142.999822400001,None,143.96781770000234,None,143.96781770000234,None,143.96781770000234,None,143.96781770000234,None,143.96781770000234,None,143.96781770000234,None,143.96781770000234,None,143.96781770000234,None,143.96781770000234,None,39,67,53,60,39,30,146.47668730000441,None,4.0,3.552396499995666,146.47668730000441,None,146.47668730000441,None,146.47668730000441,None,146.47668730000441,None,,None,None,None,None,None,None,None,None,None,None,None,None,None,None,,None,None,None,None,0.2,2,None,None,None,None,None,None,None,None,None,None,None,None,,None,None,None,None,None,None,None,None,None,None,None,None,None,None,None,None,None,None,150.07866240000294,None,,,,,,,,,,,,,,,,221,f,23,2023_Mar_19_1405,RL,2021.2.3,60.17451813624678,
1,-0.3,-0.225,0,8,8,8,,,,,,,,,,,,,,,None,None,None,None,None,152.0590255000061,None,152.0590255000061,None,152.0590255000061,None,152.0590255000061,None,f,0.2277061999993748,152.0590255000061,None,152.0590255000061,None,152.31869200000074,None,152.31869200000074,None,152.31869200000074,None,152.31869200000074,None,152.31869200000074,None,152.31869200000074,None,152.60693300000275,None,152.60693300000275,None,154.5220344000045,None,154.5220344000045,None,154.5220344000045,None,154.5220344000045,None,154.5220344000045,None,154.5220344000045,None,154.5220344000045,None,154.5220344000045,None,154.5220344000045,None,44,69,54,51,69,61,None,None,None,None,None,None,None,None,None,None,None,None,56,157.043047500003,None,157.043047500003,None,157.043047500003,None,157.043047500003,None,157.043047500003,None,157.043047500003,None,157.043047500003,None,56,157.043047500003,None,0.010912160003499594,None,0.2,0,None,None,None,None,None,None,None,None,None,None,None,None,,None,None,None,None,None,None,1,2.31815369999822,162.74044290000165,None,162.74044290000165,None,162.74044290000165,None,162.74044290000165,None,None,None,165.07273669999995,None,,,,,,,,0.03888888888888889,-0.287962962962963,1,0,0,5.664737099999911,tijiao,,221,f,23,2023_Mar_19_1405,RL,2021.2.3,60.17451813624678,
0,0.3,0.225,0,9,9,9,,,,,,,,,,,,,,,None,None,None,None,None,166.6187723000039,None,166.6187723000039,None,166.6187723000039,None,166.6187723000039,None,j,0.22236919999704696,166.6187723000039,None,166.6187723000039,None,166.89605250000022,None,166.89605250000022,None,166.89605250000022,None,166.89605250000022,None,166.89605250000022,None,166.89605250000022,None,167.18414100000518,168.28150740000274,167.18414100000518,168.28150740000274,168.30180480000126,None,168.30180480000126,None,168.30180480000126,None,168.30180480000126,None,168.30180480000126,None,168.30180480000126,None,168.30180480000126,None,168.30180480000126,None,168.30180480000126,None,41,62,61,61,61,36,170.81059420000383,None,4.0,2.9372244000041974,170.81059420000383,None,170.81059420000383,None,170.81059420000383,None,170.81059420000383,None,,None,None,None,None,None,None,None,None,None,None,None,None,None,None,,None,None,None,None,-0.6,2,None,None,None,None,None,None,None,None,None,None,None,None,,None,None,None,None,None,None,None,None,None,None,None,None,None,None,None,None,None,None,173.79624810000678,None,,,,,,,,,,,,,,,,221,f,23,2023_Mar_19_1405,RL,2021.2.3,60.17451813624678,
1,-0.3,-0.225,0,10,10,10,,,,,,,,,,,,,,,None,None,None,None,None,175.4117949000065,None,175.4117949000065,None,175.4117949000065,None,175.4117949000065,None,i,0.2850198000014643,175.4117949000065,None,175.4117949000065,None,175.7376574000009,None,175.7376574000009,None,175.7376574000009,None,175.7376574000009,None,175.7376574000009,None,175.7376574000009,None,176.02627790000406,177.5722337000043,176.02627790000406,177.5722337000043,177.59338160000334,None,177.59338160000334,None,177.59338160000334,None,177.59338160000334,None,177.59338160000334,None,177.59338160000334,None,177.59338160000334,None,177.59338160000334,None,177.59338160000334,None,49,64,58,55,58,58,None,None,None,None,None,None,None,None,None,None,None,None,,None,None,None,None,None,None,None,None,None,None,None,None,None,None,,None,None,None,None,0.6,1,180.12475650000124,None,180.12475650000124,None,180.12475650000124,None,180.12475650000124,None,180.12475650000124,None,180.12475650000124,None,56,180.12475650000124,None,180.12475650000124,None,9.16600038181059e-05,None,1.0185185185185182,1.7675515999944764,184.1352121000018,None,184.1352121000018,None,184.1352121000018,None,184.1352121000018,None,None,None,185.915820000002,None,-0.000925925925925926,-0.2898148148148148,1,0,0,3.9898575999977766,tijiao,,,,,,,,,221,f,23,2023_Mar_19_1405,RL,2021.2.3,60.17451813624678,
0,0.3,0.225,0,11,11,11,,,,,,,,,,,,,,,None,None,None,None,None,187.8783154000048,None,187.8783154000048,None,187.8783154000048,None,187.8783154000048,None,j,0.26055859999905806,187.8783154000048,None,187.8783154000048,None,188.1720673000018,None,188.1720673000018,None,188.1720673000018,None,188.1720673000018,None,188.1720673000018,None,188.1720673000018,None,188.45897010000044,190.08820550000382,188.45897010000044,190.08820550000382,190.1096378000002,None,190.1096378000002,None,190.1096378000002,None,190.1096378000002,None,190.1096378000002,None,190.1096378000002,None,190.1096378000002,None,190.1096378000002,None,190.1096378000002,None,42,74,52,56,56,56,None,None,None,None,None,None,None,None,None,None,None,None,,None,None,None,None,None,None,None,None,None,None,None,None,None,None,,None,None,None,None,-0.2,1,192.6428103000071,None,192.6428103000071,None,192.6428103000071,None,192.6428103000071,None,192.6428103000071,None,192.6428103000071,None,78,192.6428103000071,None,192.6428103000071,None,0.01619019000645494,None,1.0,2.8995121999978437,199.06120490000467,None,199.06120490000467,None,199.06120490000467,None,199.06120490000467,None,None,None,201.97331350000604,None,-0.046296296296296294,-0.26666666666666666,1,0,0,6.398762999997416,tijiao,,,,,,,,,221,f,23,2023_Mar_19_1405,RL,2021.2.3,60.17451813624678,
1,-0.3,-0.225,0,12,12,12,,,,,,,,,,,,,,,None,None,None,None,None,203.8692319000038,None,203.8692319000038,None,203.8692319000038,None,203.8692319000038,None,r,0.3382571999973152,203.8692319000038,None,203.8692319000038,None,204.24464240000088,None,204.24464240000088,None,204.24464240000088,None,204.24464240000088,None,204.24464240000088,None,204.24464240000088,None,204.53171050000674,206.19393160000618,204.53171050000674,206.19393160000618,206.21474260000105,None,206.21474260000105,None,206.21474260000105,None,206.21474260000105,None,206.21474260000105,None,206.21474260000105,None,206.21474260000105,None,206.21474260000105,None,206.21474260000105,None,39,66,48,50,39,51,None,None,None,None,None,None,None,None,None,None,None,None,45,208.7388901000013,None,208.7388901000013,None,208.7388901000013,None,208.7388901000013,None,208.7388901000013,None,208.7388901000013,None,208.7388901000013,None,45,208.7388901000013,None,0.009745359995577019,None,0.6,0,None,None,None,None,None,None,None,None,None,None,None,None,,None,None,None,None,None,None,1.0277777777777777,2.9365083999946364,215.6791721000045,None,215.6791721000045,None,215.6791721000045,None,215.6791721000045,None,None,None,218.6419193000038,None,,,,,,,,-0.044444444444444446,-0.2796296296296296,1,0,0,6.907767899996543,tijiao,,221,f,23,2023_Mar_19_1405,RL,2021.2.3,60.17451813624678,
0,0.3,0.225,0,13,13,13,,,,,,,,,,,,,,,None,None,None,None,None,220.5380276000069,None,220.5380276000069,None,220.5380276000069,None,220.5380276000069,None,j,0.3370918000000529,220.5380276000069,None,220.5380276000069,None,220.91294340000604,None,220.91294340000604,None,220.91294340000604,None,220.91294340000604,None,220.91294340000604,None,220.91294340000604,None,221.20346900000004,222.7819834000038,221.20346900000004,222.7819834000038,222.80330730000424,None,222.80330730000424,None,222.80330730000424,None,222.80330730000424,None,222.80330730000424,None,222.80330730000424,None,222.80330730000424,None,222.80330730000424,None,222.80330730000424,None,38,62,44,52,52,60,None,None,None,None,None,None,None,None,None,None,None,None,56,225.32259940000222,None,225.32259940000222,None,225.32259940000222,None,225.32259940000222,None,225.32259940000222,None,225.32259940000222,None,225.32259940000222,None,56,225.32259940000222,None,0.012100159998226445,None,0.6,0,None,None,None,None,None,None,None,None,None,None,None,None,,None,None,None,None,None,None,1,2.820311600000423,232.5142008000039,None,232.5142008000039,None,232.5142008000039,None,232.5142008000039,None,None,None,235.3477514000042,None,,,,,,,,-0.05185185185185185,-0.27870370370370373,1,0,0,7.159618300000147,tijiao,,221,f,23,2023_Mar_19_1405,RL,2021.2.3,60.17451813624678,
1,-0.3,-0.225,0,14,14,14,,,,,,,,,,,,,,,None,None,None,None,None,237.02697090000584,None,237.02697090000584,None,237.02697090000584,None,237.02697090000584,None,r,0.3212290999945253,237.02697090000584,None,237.02697090000584,None,237.3851860000068,None,237.3851860000068,None,237.3851860000068,None,237.3851860000068,None,237.3851860000068,None,237.3851860000068,None,237.67476070000703,238.73838510000496,237.67476070000703,238.73838510000496,238.76073200000246,None,238.76073200000246,None,238.76073200000246,None,238.76073200000246,None,238.76073200000246,None,238.76073200000246,None,238.76073200000246,None,238.76073200000246,None,238.76073200000246,None,33,67,40,48,33,46,241.27106500000082,None,3.0,3.3842023000033805,241.27106500000082,None,241.27106500000082,None,241.27106500000082,None,241.27106500000082,None,,None,None,None,None,None,None,None,None,None,None,None,None,None,None,,None,None,None,None,-0.6,3,None,None,None,None,None,None,None,None,None,None,None,None,,None,None,None,None,None,None,None,None,None,None,None,None,None,None,None,None,None,None,244.7013694000052,None,,,,,,,,,,,,,,,,221,f,23,2023_Mar_19_1405,RL,2021.2.3,60.17451813624678,
0,0.3,0.225,0,15,15,15,,,,,,,,,,,,,,,None,None,None,None,None,246.41819580000447,None,246.41819580000447,None,246.41819580000447,None,246.41819580000447,None,f,0.3840779999954975,246.41819580000447,None,246.41819580000447,None,246.84337970000342,None,246.84337970000342,None,246.84337970000342,None,246.84337970000342,None,246.84337970000342,None,246.84337970000342,None,247.13241810000181,248.44526050000422,247.13241810000181,248.44526050000422,248.46622160000697,None,248.46622160000697,None,248.46622160000697,None,248.46622160000697,None,248.46622160000697,None,248.46622160000697,None,248.46622160000697,None,248.46622160000697,None,248.46622160000697,None,40,68,50,52,68,66,250.97616820000258,None,4.0,3.251822899997933,250.97616820000258,None,250.97616820000258,None,250.97616820000258,None,250.97616820000258,None,,None,None,None,None,None,None,None,None,None,None,None,None,None,None,,None,None,None,None,-0.6,2,None,None,None,None,None,None,None,None,None,None,None,None,,None,None,None,None,None,None,None,None,None,None,None,None,None,None,None,None,None,None,254.27584650000063,None,,,,,,,,,,,,,,,,221,f,23,2023_Mar_19_1405,RL,2021.2.3,60.17451813624678,
1,-0.3,-0.225,0,16,16,16,,,,,,,,,,,,,,,None,None,None,None,None,255.8939659000025,None,255.8939659000025,None,255.8939659000025,None,255.8939659000025,None,f,0.24352060000092024,255.8939659000025,None,255.8939659000025,None,256.16885720000573,None,256.16885720000573,None,256.16885720000573,None,256.16885720000573,None,256.16885720000573,None,256.16885720000573,None,256.4570060000042,None,256.4570060000042,None,258.1722110000046,None,258.1722110000046,None,258.1722110000046,None,258.1722110000046,None,258.1722110000046,None,258.1722110000046,None,258.1722110000046,None,258.1722110000046,None,258.1722110000046,None,32,60,45,47,60,56,None,None,None,None,None,None,None,None,None,None,None,None,56,260.69306860000506,None,260.69306860000506,None,260.69306860000506,None,260.69306860000506,None,260.69306860000506,None,260.69306860000506,None,260.69306860000506,None,56,260.69306860000506,None,0.011969359999056906,None,-0.2,0,None,None,None,None,None,None,None,None,None,None,None,None,,None,None,None,None,None,None,4.972222222222222,0.7592274999988149,267.9177156000005,None,267.9177156000005,None,267.9177156000005,None,267.9177156000005,None,None,None,268.69151180000335,None,,,,,,,,-0.02962962962962963,-0.32037037037037036,1,0,0,7.192616400003317,tijiao,,221,f,23,2023_Mar_19_1405,RL,2021.2.3,60.17451813624678,
0,0.3,0.225,0,17,17,17,,,,,,,,,,,,,,,None,None,None,None,None,270.2863595000017,None,270.2863595000017,None,270.2863595000017,None,270.2863595000017,None,f,0.2707163999948534,270.2863595000017,None,270.2863595000017,None,270.59459290000086,None,270.59459290000086,None,270.59459290000086,None,270.59459290000086,None,270.59459290000086,None,270.59459290000086,None,270.88424350000423,271.7317921000067,270.88424350000423,271.7317921000067,271.75227540000196,None,271.75227540000196,None,271.75227540000196,None,271.75227540000196,None,271.75227540000196,None,271.75227540000196,None,271.75227540000196,None,271.75227540000196,None,271.75227540000196,None,43,66,37,52,66,23,None,None,None,None,None,None,None,None,None,None,None,None,89,274.2738335000031,None,274.2738335000031,None,274.2738335000031,None,274.2738335000031,None,274.2738335000031,None,274.2738335000031,None,274.2738335000031,None,89,274.2738335000031,None,0.011543060012627393,None,-0.6,0,None,None,None,None,None,None,None,None,None,None,None,None,,None,None,None,None,None,None,1.9444444444444444,2.4193601999941166,278.44162060000235,None,278.44162060000235,None,278.44162060000235,None,278.44162060000235,None,None,None,280.87336750000395,None,,,,,,,,-0.05555555555555555,-0.26944444444444443,1,0,0,4.133746600004088,tijiao,,221,f,23,2023_Mar_19_1405,RL,2021.2.3,60.17451813624678,
1,-0.3,-0.225,0,18,18,18,,,,,,,,,,,,,,,None,None,None,None,None,282.4527118000042,None,282.4527118000042,None,282.4527118000042,None,282.4527118000042,None,f,0.2909689000007347,282.4527118000042,None,282.4527118000042,None,282.78038070000184,None,282.78038070000184,None,282.78038070000184,None,282.78038070000184,None,282.78038070000184,None,282.78038070000184,None,283.0674603000007,283.98209700000007,283.0674603000007,283.98209700000007,284.0032621000064,None,284.0032621000064,None,284.0032621000064,None,284.0032621000064,None,284.0032621000064,None,284.0032621000064,None,284.0032621000064,None,284.0032621000064,None,284.0032621000064,None,48,60,46,41,60,63,286.511625500003,None,4.0,2.986763000000792,286.511625500003,None,286.511625500003,None,286.511625500003,None,286.511625500003,None,,None,None,None,None,None,None,None,None,None,None,None,None,None,None,,None,None,None,None,0.2,2,None,None,None,None,None,None,None,None,None,None,None,None,,None,None,None,None,None,None,None,None,None,None,None,None,None,None,None,None,None,None,289.546631600002,None,,,,,,,,,,,,,,,,221,f,23,2023_Mar_19_1405,RL,2021.2.3,60.17451813624678,
0,0.3,0.225,0,19,19,19,,,,,,,,,,,,,,,None,None,None,None,None,291.14667570000165,None,291.14667570000165,None,291.14667570000165,None,291.14667570000165,None,f,0.34319430000323337,291.14667570000165,None,291.14667570000165,None,291.52195380000194,None,291.52195380000194,None,291.52195380000194,None,291.52195380000194,None,291.52195380000194,None,291.52195380000194,None,291.8104824000038,293.2231346000044,291.8104824000038,293.2231346000044,293.2449315000049,None,293.2449315000049,None,293.2449315000049,None,293.2449315000049,None,293.2449315000049,None,293.2449315000049,None,293.2449315000049,None,293.2449315000049,None,293.2449315000049,None,42,59,51,49,59,68,None,None,None,None,None,None,None,None,None,None,None,None,,None,None,None,None,None,None,None,None,None,None,None,None,None,None,,None,None,None,None,-0.2,1,295.7766313000029,None,295.7766313000029,None,295.7766313000029,None,295.7766313000029,None,295.7766313000029,None,295.7766313000029,None,56,295.7766313000029,None,295.7766313000029,None,0.01627808999910485,None,2.0648148148148144,4.495389299998351,304.32275200000004,None,304.32275200000004,None,304.32275200000004,None,304.32275200000004,None,None,None,308.8346515000012,None,0.023148148148148147,-0.32222222222222224,1,0,0,8.52610299999651,tijiao,,,,,,,,,221,f,23,2023_Mar_19_1405,RL,2021.2.3,60.17451813624678,
1,-0.3,-0.225,0,20,20,20,,,,,,,,,,,,,,,None,None,None,None,None,310.6094255000062,None,310.6094255000062,None,310.6094255000062,None,310.6094255000062,None,f,0.7458669999978156,310.6094255000062,None,310.6094255000062,None,311.3866405000008,None,311.3866405000008,None,311.3866405000008,None,311.3866405000008,None,311.3866405000008,None,311.3866405000008,None,311.673337500004,312.6870834000001,311.673337500004,312.6870834000001,312.7086011000065,None,312.7086011000065,None,312.7086011000065,None,312.7086011000065,None,312.7086011000065,None,312.7086011000065,None,312.7086011000065,None,312.7086011000065,None,312.7086011000065,None,35,54,45,42,54,52,315.21891520000645,None,4.0,3.2829486999980872,315.21891520000645,None,315.21891520000645,None,315.21891520000645,None,315.21891520000645,None,,None,None,None,None,None,None,None,None,None,None,None,None,None,None,,None,None,None,None,-0.6,3,None,None,None,None,None,None,None,None,None,None,None,None,,None,None,None,None,None,None,None,None,None,None,None,None,None,None,None,None,None,None,318.553218800007,None,,,,,,,,,,,,,,,,221,f,23,2023_Mar_19_1405,RL,2021.2.3,60.17451813624678,
0,0.3,0.225,0,21,21,21,,,,,,,,,,,,,,,None,None,None,None,None,320.25147400000424,None,320.25147400000424,None,320.25147400000424,None,320.25147400000424,None,r,0.2635921999972197,320.25147400000424,None,320.25147400000424,None,320.54653800000233,None,320.54653800000233,None,320.54653800000233,None,320.54653800000233,None,320.54653800000233,None,320.54653800000233,None,320.83120860000054,322.5263227000032,320.83120860000054,322.5263227000032,322.546748700006,None,322.546748700006,None,322.546748700006,None,322.546748700006,None,322.546748700006,None,322.546748700006,None,322.546748700006,None,322.546748700006,None,322.546748700006,None,37,48,44,41,37,65,325.056116000007,None,3.0,2.6874278000032064,325.056116000007,None,325.056116000007,None,325.056116000007,None,325.056116000007,None,,None,None,None,None,None,None,None,None,None,None,None,None,None,None,,None,None,None,None,0.2,2,None,None,None,None,None,None,None,None,None,None,None,None,,None,None,None,None,None,None,None,None,None,None,None,None,None,None,None,None,None,None,327.79205420000653,None,,,,,,,,,,,,,,,,221,f,23,2023_Mar_19_1405,RL,2021.2.3,60.17451813624678,
1,-0.3,-0.225,0,22,22,22,,,,,,,,,,,,,,,None,None,None,None,None,329.69200390000333,None,329.69200390000333,None,329.69200390000333,None,329.69200390000333,None,j,0.20369850000133738,329.69200390000333,None,329.69200390000333,None,329.93464920000406,None,329.93464920000406,None,329.93464920000406,None,329.93464920000406,None,329.93464920000406,None,329.93464920000406,None,330.2222750000001,331.4853273000044,330.2222750000001,331.4853273000044,331.50610670000606,None,331.50610670000606,None,331.50610670000606,None,331.50610670000606,None,331.50610670000606,None,331.50610670000606,None,331.50610670000606,None,331.50610670000606,None,331.50610670000606,None,42,57,44,43,43,64,334.0149720000045,None,3.0,2.371808100004273,334.0149720000045,None,334.0149720000045,None,334.0149720000045,None,334.0149720000045,None,,None,None,None,None,None,None,None,None,None,None,None,None,None,None,,None,None,None,None,-0.6,3,None,None,None,None,None,None,None,None,None,None,None,None,,None,None,None,None,None,None,None,None,None,None,None,None,None,None,None,None,None,None,336.43486400000256,None,,,,,,,,,,,,,,,,221,f,23,2023_Mar_19_1405,RL,2021.2.3,60.17451813624678,
0,0.3,0.225,0,23,23,23,,,,,,,,,,,,,,,None,None,None,None,None,337.96863380000286,None,337.96863380000286,None,337.96863380000286,None,337.96863380000286,None,f,0.17873710000276333,337.96863380000286,None,337.96863380000286,None,338.1780523000052,None,338.1780523000052,None,338.1780523000052,None,338.1780523000052,None,338.1780523000052,None,338.1780523000052,None,338.46624610000435,339.51372050000646,338.46624610000435,339.51372050000646,339.53462240000226,None,339.53462240000226,None,339.53462240000226,None,339.53462240000226,None,339.53462240000226,None,339.53462240000226,None,339.53462240000226,None,339.53462240000226,None,339.53462240000226,None,41,60,45,47,60,41,342.0430880000058,None,4.0,2.6374737000005553,342.0430880000058,None,342.0430880000058,None,342.0430880000058,None,342.0430880000058,None,,None,None,None,None,None,None,None,None,None,None,None,None,None,None,,None,None,None,None,0.6,3,None,None,None,None,None,None,None,None,None,None,None,None,,None,None,None,None,None,None,None,None,None,None,None,None,None,None,None,None,None,None,344.72912790000555,None,,,,,,,,,,,,,,,,221,f,23,2023_Mar_19_1405,RL,2021.2.3,60.17451813624678,
1,-0.3,-0.225,0,24,24,24,,,,,,,,,,,,,,,None,None,None,None,None,346.49432920000254,None,346.49432920000254,None,346.49432920000254,None,346.49432920000254,None,f,0.2846637999973609,346.49432920000254,None,346.49432920000254,None,346.82054820000485,None,346.82054820000485,None,346.82054820000485,None,346.82054820000485,None,346.82054820000485,None,346.82054820000485,None,347.10961900000257,None,347.10961900000257,None,348.5242520000029,None,348.5242520000029,None,348.5242520000029,None,348.5242520000029,None,348.5242520000029,None,348.5242520000029,None,348.5242520000029,None,348.5242520000029,None,348.5242520000029,None,46,58,50,39,58,62,None,None,None,None,None,None,None,None,None,None,None,None,34,351.04712160000054,None,351.04712160000054,None,351.04712160000054,None,351.04712160000054,None,351.04712160000054,None,351.04712160000054,None,351.04712160000054,None,34,351.04712160000054,None,0.011374959998647682,None,0.2,0,None,None,None,None,None,None,None,None,None,None,None,None,,None,None,None,None,None,None,1.0833333333333335,4.182841699999699,358.6028820000065,None,358.6028820000065,None,358.6028820000065,None,358.6028820000065,None,None,None,362.7994899000041,None,,,,,,,,0.004629629629629629,-0.2898148148148148,1,0,0,7.524233299998741,tijiao,,221,f,23,2023_Mar_19_1405,RL,2021.2.3,60.17451813624678,
0,0.3,0.225,0,25,25,25,,,,,,,,,,,,,,,None,None,None,None,None,364.7771758000017,None,364.7771758000017,None,364.7771758000017,None,364.7771758000017,None,f,0.45407390000036685,364.7771758000017,None,364.7771758000017,None,365.2728550000029,None,365.2728550000029,None,365.2728550000029,None,365.2728550000029,None,365.2728550000029,None,365.2728550000029,None,365.55929480000486,None,365.55929480000486,None,367.5080064000067,None,367.5080064000067,None,367.5080064000067,None,367.5080064000067,None,367.5080064000067,None,367.5080064000067,None,367.5080064000067,None,367.5080064000067,None,367.5080064000067,None,54,63,44,45,63,40,None,None,None,None,None,None,None,None,None,None,None,None,10,370.0278005,None,370.0278005,None,370.0278005,None,370.0278005,None,370.0278005,None,370.0278005,None,370.0278005,None,10,370.0278005,None,0.012467060005292296,None,-0.2,0,None,None,None,None,None,None,None,None,None,None,None,None,,None,None,None,None,None,None,1.1574074074074072,3.8008728999993764,380.6761178000015,None,380.6761178000015,None,380.6761178000015,None,380.6761178000015,None,None,None,384.4905421000003,None,,,,,,,,-0.06111111111111111,-0.2851851851851852,1,0,0,10.617322699996294,tijiao,,221,f,23,2023_Mar_19_1405,RL,2021.2.3,60.17451813624678,
1,-0.3,-0.225,0,26,26,26,,,,,,,,,,,,,,,None,None,None,None,None,386.4695434000023,None,386.4695434000023,None,386.4695434000023,None,386.4695434000023,None,i,0.2890631000045687,386.4695434000023,None,386.4695434000023,None,386.7967750000025,None,386.7967750000025,None,386.7967750000025,None,386.7967750000025,None,386.7967750000025,None,386.7967750000025,None,387.08369610000227,388.579584900006,387.08369610000227,388.579584900006,388.60006100000464,None,388.60006100000464,None,388.60006100000464,None,388.60006100000464,None,388.60006100000464,None,388.60006100000464,None,388.60006100000464,None,388.60006100000464,None,388.60006100000464,None,50,54,39,45,39,77,391.1087378000011,None,2.0,3.3536714000001666,391.1087378000011,None,391.1087378000011,None,391.1087378000011,None,391.1087378000011,None,,None,None,None,None,None,None,None,None,None,None,None,None,None,None,,None,None,None,None,-0.2,2,None,None,None,None,None,None,None,None,None,None,None,None,,None,None,None,None,None,None,None,None,None,None,None,None,None,None,None,None,None,None,394.51023720000376,None,,,,,,,,,,,,,,,,221,f,23,2023_Mar_19_1405,RL,2021.2.3,60.17451813624678,
0,0.3,0.225,0,27,27,27,,,,,,,,,,,,,,,None,None,None,None,None,396.26053800000227,None,396.26053800000227,None,396.26053800000227,None,396.26053800000227,None,f,0.472447000000102,396.26053800000227,None,396.26053800000227,None,396.7674443000069,None,396.7674443000069,None,396.7674443000069,None,396.7674443000069,None,396.7674443000069,None,396.7674443000069,None,397.05630270000256,398.8018243000042,397.05630270000256,398.8018243000042,398.82197160000214,None,398.82197160000214,None,398.82197160000214,None,398.82197160000214,None,398.82197160000214,None,398.82197160000214,None,398.82197160000214,None,398.82197160000214,None,398.82197160000214,None,43,56,38,40,56,43,401.33168470000237,None,4.0,4.897663900002954,401.33168470000237,None,401.33168470000237,None,401.33168470000237,None,401.33168470000237,None,,None,None,None,None,None,None,None,None,None,None,None,None,None,None,,None,None,None,None,0.6,2,None,None,None,None,None,None,None,None,None,None,None,None,,None,None,None,None,None,None,None,None,None,None,None,None,None,None,None,None,None,None,406.27776540000195,None,,,,,,,,,,,,,,,,221,f,23,2023_Mar_19_1405,RL,2021.2.3,60.17451813624678,
1,-0.3,-0.225,0,28,28,28,,,,,,,,,,,,,,,None,None,None,None,None,408.0289137,None,408.0289137,None,408.0289137,None,408.0289137,None,f,0.3867993999956525,408.0289137,None,408.0289137,None,408.4506620000029,None,408.4506620000029,None,408.4506620000029,None,408.4506620000029,None,408.4506620000029,None,408.4506620000029,None,408.7410463000051,None,408.7410463000051,None,409.7067266000013,None,409.7067266000013,None,409.7067266000013,None,409.7067266000013,None,409.7067266000013,None,409.7067266000013,None,409.7067266000013,None,409.7067266000013,None,409.7067266000013,None,47,62,39,37,62,74,412.2184466000035,None,3.0,3.0205090000017663,412.2184466000035,None,412.2184466000035,None,412.2184466000035,None,412.2184466000035,None,,None,None,None,None,None,None,None,None,None,None,None,None,None,None,,None,None,None,None,0.6,2,None,None,None,None,None,None,None,None,None,None,None,None,,None,None,None,None,None,None,None,None,None,None,None,None,None,None,None,None,None,None,415.28665490000276,None,,,,,,,,,,,,,,,,221,f,23,2023_Mar_19_1405,RL,2021.2.3,60.17451813624678,
0,0.3,0.225,0,29,29,29,,,,,,,,,,,,,,,None,None,None,None,None,417.21867350000684,None,417.21867350000684,None,417.21867350000684,None,417.21867350000684,None,f,0.6275058999963221,417.21867350000684,None,417.21867350000684,None,417.8772711000056,None,417.8772711000056,None,417.8772711000056,None,417.8772711000056,None,417.8772711000056,None,417.8772711000056,None,418.1651978000009,None,418.1651978000009,None,419.31643740000436,None,419.31643740000436,None,419.31643740000436,None,419.31643740000436,None,419.31643740000436,None,419.31643740000436,None,419.31643740000436,None,419.31643740000436,None,419.31643740000436,None,55,54,36,41,54,73,None,None,None,None,None,None,None,None,None,None,None,None,,None,None,None,None,None,None,None,None,None,None,None,None,None,None,,None,None,None,None,-0.6,1,421.84736250000424,None,421.84736250000424,None,421.84736250000424,None,421.84736250000424,None,421.84736250000424,None,421.84736250000424,None,70,421.84736250000424,None,421.84736250000424,None,0.01658778999990318,None,1.888888888888889,2.5315916999970796,429.730784600004,None,429.730784600004,None,429.730784600004,None,429.730784600004,None,None,None,432.27650270000595,None,-0.03518518518518519,-0.29074074074074074,1,0,0,7.862370599999849,tijiao,,,,,,,,,221,f,23,2023_Mar_19_1405,RL,2021.2.3,60.17451813624678,
1,-0.3,-0.225,0,30,30,30,,,,,,,,,,,,,,,None,None,None,None,None,434.25470690000657,None,434.25470690000657,None,434.25470690000657,None,434.25470690000657,None,r,0.2695910000038566,434.25470690000657,None,434.25470690000657,None,434.5639788000044,None,434.5639788000044,None,434.5639788000044,None,434.5639788000044,None,434.5639788000044,None,434.5639788000044,None,434.85315240000637,436.6654548000006,434.85315240000637,436.6654548000006,436.6887177000026,None,436.6887177000026,None,436.6887177000026,None,436.6887177000026,None,436.6887177000026,None,436.6887177000026,None,436.6887177000026,None,436.6887177000026,None,436.6887177000026,None,48,60,38,39,48,75,439.1966167000064,None,3.0,3.316374800000631,439.1966167000064,None,439.1966167000064,None,439.1966167000064,None,439.1966167000064,None,,None,None,None,None,None,None,None,None,None,None,None,None,None,None,,None,None,None,None,0.6,3,None,None,None,None,None,None,None,None,None,None,None,None,,None,None,None,None,None,None,None,None,None,None,None,None,None,None,None,None,None,None,442.56471240000246,None,,,,,,,,,,,,,,,,221,f,23,2023_Mar_19_1405,RL,2021.2.3,60.17451813624678,
0,0.3,0.225,0,31,31,31,,,,,,,,,,,,,,,None,None,None,None,None,444.09454440000263,None,444.09454440000263,None,444.09454440000263,None,444.09454440000263,None,f,0.3251340999995591,444.09454440000263,None,444.09454440000263,None,444.4541448000018,None,444.4541448000018,None,444.4541448000018,None,444.4541448000018,None,444.4541448000018,None,444.4541448000018,None,444.7429132000034,None,444.7429132000034,None,445.87712730000203,None,445.87712730000203,None,445.87712730000203,None,445.87712730000203,None,445.87712730000203,None,445.87712730000203,None,445.87712730000203,None,445.87712730000203,None,445.87712730000203,None,47,67,44,39,67,74,None,None,None,None,None,None,None,None,None,None,None,None,,None,None,None,None,None,None,None,None,None,None,None,None,None,None,,None,None,None,None,0.6,1,448.40916370000195,None,448.40916370000195,None,448.40916370000195,None,448.40916370000195,None,448.40916370000195,None,448.40916370000195,None,20,448.40916370000195,None,448.40916370000195,None,0.0006958600060897879,None,1.0,2.7151159000059124,455.4931984000068,None,455.4931984000068,None,455.4931984000068,None,455.4931984000068,None,None,None,458.22270300000673,None,-0.03796296296296296,-0.2953703703703704,1,0,0,7.064543000000413,tijiao,,,,,,,,,221,f,23,2023_Mar_19_1405,RL,2021.2.3,60.17451813624678,
1,-0.3,-0.225,0,32,32,32,,,,,,,,,,,,,,,None,None,None,None,None,459.8183833000003,None,459.8183833000003,None,459.8183833000003,None,459.8183833000003,None,j,0.34532710000348743,459.8183833000003,None,459.8183833000003,None,460.1952570000067,None,460.1952570000067,None,460.1952570000067,None,460.1952570000067,None,460.1952570000067,None,460.1952570000067,None,460.4829080000054,None,460.4829080000054,None,462.06537980000576,None,462.06537980000576,None,462.06537980000576,None,462.06537980000576,None,462.06537980000576,None,462.06537980000576,None,462.06537980000576,None,462.06537980000576,None,462.06537980000576,None,47,57,37,45,45,67,464.5750384000057,None,3.0,3.3203355000005104,464.5750384000057,None,464.5750384000057,None,464.5750384000057,None,464.5750384000057,None,,None,None,None,None,None,None,None,None,None,None,None,None,None,None,,None,None,None,None,0.6,2,None,None,None,None,None,None,None,None,None,None,None,None,,None,None,None,None,None,None,None,None,None,None,None,None,None,None,None,None,None,None,467.9430508000005,None,,,,,,,,,,,,,,,,221,f,23,2023_Mar_19_1405,RL,2021.2.3,60.17451813624678,
0,0.3,0.225,0,33,33,33,,,,,,,,,,,,,,,None,None,None,None,None,469.8752353000018,None,469.8752353000018,None,469.8752353000018,None,469.8752353000018,None,r,0.2542759999996633,469.8752353000018,None,469.8752353000018,None,470.16717180000705,None,470.16717180000705,None,470.16717180000705,None,470.16717180000705,None,470.16717180000705,None,470.16717180000705,None,470.4556559000048,471.58631890000106,470.4556559000048,471.58631890000106,471.6069409000047,None,471.6069409000047,None,471.6069409000047,None,471.6069409000047,None,471.6069409000047,None,471.6069409000047,None,471.6069409000047,None,471.6069409000047,None,471.6069409000047,None,41,57,42,41,41,67,None,None,None,None,None,None,None,None,None,None,None,None,,None,None,None,None,None,None,None,None,None,None,None,None,None,None,,None,None,None,None,-0.6,1,474.1395476000034,None,474.1395476000034,None,474.1395476000034,None,474.1395476000034,None,474.1395476000034,None,474.1395476000034,None,50,474.1395476000034,None,474.1395476000034,None,0.016292589993099682,None,1,2.584375899998122,481.43950370000675,None,481.43950370000675,None,481.43950370000675,None,481.43950370000675,None,None,None,484.03721540000697,None,-0.08888888888888889,-0.27870370370370373,1,0,0,7.279858299996704,tijiao,,,,,,,,,221,f,23,2023_Mar_19_1405,RL,2021.2.3,60.17451813624678,
1,-0.3,-0.225,0,34,34,34,,,,,,,,,,,,,,,None,None,None,None,None,485.7165071000054,None,485.7165071000054,None,485.7165071000054,None,485.7165071000054,None,r,0.2758879999964847,485.7165071000054,None,485.7165071000054,None,486.02561250000144,None,486.02561250000144,None,486.02561250000144,None,486.02561250000144,None,486.02561250000144,None,486.02561250000144,None,486.3129205000005,None,486.3129205000005,None,487.7624932000035,None,487.7624932000035,None,487.7624932000035,None,487.7624932000035,None,487.7624932000035,None,487.7624932000035,None,487.7624932000035,None,487.7624932000035,None,487.7624932000035,None,47,62,27,39,47,44,490.2714657000033,None,3.0,3.8678842000008444,490.2714657000033,None,490.2714657000033,None,490.2714657000033,None,490.2714657000033,None,,None,None,None,None,None,None,None,None,None,None,None,None,None,None,,None,None,None,None,0.6,3,None,None,None,None,None,None,None,None,None,None,None,None,,None,None,None,None,None,None,None,None,None,None,None,None,None,None,None,None,None,None,494.1884066000057,None,,,,,,,,,,,,,,,,221,f,23,2023_Mar_19_1405,RL,2021.2.3,60.17451813624678,
0,0.3,0.225,0,35,35,35,,,,,,,,,,,,,,,None,None,None,None,None,496.1881110000031,None,496.1881110000031,None,496.1881110000031,None,496.1881110000031,None,r,0.24333019999903627,496.1881110000031,None,496.1881110000031,None,496.46496960000513,None,496.46496960000513,None,496.46496960000513,None,496.46496960000513,None,496.46496960000513,None,496.46496960000513,None,496.7508295000007,498.2464722000004,496.7508295000007,498.2464722000004,498.267642800005,None,498.267642800005,None,498.267642800005,None,498.267642800005,None,498.267642800005,None,498.267642800005,None,498.267642800005,None,498.267642800005,None,498.267642800005,None,43,60,44,27,43,62,500.77652850000595,None,4.0,3.485083499996108,500.77652850000595,None,500.77652850000595,None,500.77652850000595,None,500.77652850000595,None,,None,None,None,None,None,None,None,None,None,None,None,None,None,None,,None,None,None,None,0.2,2,None,None,None,None,None,None,None,None,None,None,None,None,,None,None,None,None,None,None,None,None,None,None,None,None,None,None,None,None,None,None,504.3100304000036,None,,,,,,,,,,,,,,,,221,f,23,2023_Mar_19_1405,RL,2021.2.3,60.17451813624678,
1,-0.3,-0.225,0,36,36,36,,,,,,,,,,,,,,,None,None,None,None,None,506.27780820000044,None,506.27780820000044,None,506.27780820000044,None,506.27780820000044,None,r,0.3425100000022212,506.27780820000044,None,506.27780820000044,None,506.65227030000096,None,506.65227030000096,None,506.65227030000096,None,506.65227030000096,None,506.65227030000096,None,506.65227030000096,None,506.93961560000025,508.28586350000114,506.93961560000025,508.28586350000114,508.30680980000034,None,508.30680980000034,None,508.30680980000034,None,508.30680980000034,None,508.30680980000034,None,508.30680980000034,None,508.30680980000034,None,508.30680980000034,None,508.30680980000034,None,54,61,39,39,54,30,510.8165136000025,None,5.0,2.8521932999938144,510.8165136000025,None,510.8165136000025,None,510.8165136000025,None,510.8165136000025,None,,None,None,None,None,None,None,None,None,None,None,None,None,None,None,,None,None,None,None,-0.2,2,None,None,None,None,None,None,None,None,None,None,None,None,,None,None,None,None,None,None,None,None,None,None,None,None,None,None,None,None,None,None,513.7182331000004,None,,,,,,,,,,,,,,,,221,f,23,2023_Mar_19_1405,RL,2021.2.3,60.17451813624678,
0,0.3,0.225,0,37,37,37,,,,,,,,,,,,,,,None,None,None,None,None,515.2348969000013,None,515.2348969000013,None,515.2348969000013,None,515.2348969000013,None,r,0.6805079000041587,515.2348969000013,None,515.2348969000013,None,515.9429871000029,None,515.9429871000029,None,515.9429871000029,None,515.9429871000029,None,515.9429871000029,None,515.9429871000029,None,516.2310335000002,None,516.2310335000002,None,517.5485195000001,None,517.5485195000001,None,517.5485195000001,None,517.5485195000001,None,517.5485195000001,None,517.5485195000001,None,517.5485195000001,None,517.5485195000001,None,517.5485195000001,None,50,69,20,40,50,63,520.0580682,None,3.0,4.282031300004746,520.0580682,None,520.0580682,None,520.0580682,None,520.0580682,None,,None,None,None,None,None,None,None,None,None,None,None,None,None,None,,None,None,None,None,0.6,2,None,None,None,None,None,None,None,None,None,None,None,None,,None,None,None,None,None,None,None,None,None,None,None,None,None,None,None,None,None,None,524.389456900004,None,,,,,,,,,,,,,,,,221,f,23,2023_Mar_19_1405,RL,2021.2.3,60.17451813624678,
1,-0.3,-0.225,0,38,38,38,,,,,,,,,,,,,,,None,None,None,None,None,525.922433000007,None,525.922433000007,None,525.922433000007,None,525.922433000007,None,f,0.217616400004772,525.922433000007,None,525.922433000007,None,526.180027500006,None,526.180027500006,None,526.180027500006,None,526.180027500006,None,526.180027500006,None,526.180027500006,None,526.4694851000022,None,526.4694851000022,None,527.9692053000035,None,527.9692053000035,None,527.9692053000035,None,527.9692053000035,None,527.9692053000035,None,527.9692053000035,None,527.9692053000035,None,527.9692053000035,None,527.9692053000035,None,52,65,27,47,65,20,None,None,None,None,None,None,None,None,None,None,None,None,,None,None,None,None,None,None,None,None,None,None,None,None,None,None,,None,None,None,None,-0.6,1,530.504234400003,None,530.504234400003,None,530.504234400003,None,530.504234400003,None,530.504234400003,None,530.504234400003,None,50,530.504234400003,None,530.504234400003,None,0.015076990006491542,None,1.1203703703703702,2.6413071999995736,540.547613200004,None,540.547613200004,None,540.547613200004,None,540.547613200004,None,None,None,543.2054424000016,None,-0.1037037037037037,-0.262037037037037,1,0,0,10.020624000004318,tijiao,,,,,,,,,221,f,23,2023_Mar_19_1405,RL,2021.2.3,60.17451813624678,
0,0.3,0.225,0,39,39,39,,,,,,,,,,,,,,,None,None,None,None,None,545.0021020000058,None,545.0021020000058,None,545.0021020000058,None,545.0021020000058,None,r,0.2079809999995632,545.0021020000058,None,545.0021020000058,None,545.2468769000043,None,545.2468769000043,None,545.2468769000043,None,545.2468769000043,None,545.2468769000043,None,545.2468769000043,None,545.5335626000015,546.8300483000057,545.5335626000015,546.8300483000057,546.8517807000026,None,546.8517807000026,None,546.8517807000026,None,546.8517807000026,None,546.8517807000026,None,546.8517807000026,None,546.8517807000026,None,546.8517807000026,None,546.8517807000026,None,57,59,35,45,57,57,549.3610647000023,None,4.0,3.4677828999992926,549.3610647000023,None,549.3610647000023,None,549.3610647000023,None,549.3610647000023,None,,None,None,None,None,None,None,None,None,None,None,None,None,None,None,,None,None,None,None,0.2,2,None,None,None,None,None,None,None,None,None,None,None,None,,None,None,None,None,None,None,None,None,None,None,None,None,None,None,None,None,None,None,552.8782241000008,None,,,,,,,,,,,,,,,,221,f,23,2023_Mar_19_1405,RL,2021.2.3,60.17451813624678,
1,-0.3,-0.225,0,40,40,40,,,,,,,,,,,,,,,None,None,None,None,None,554.5603203999999,None,554.5603203999999,None,554.5603203999999,None,554.5603203999999,None,r,0.5193115000001853,554.5603203999999,None,554.5603203999999,None,555.119588600006,None,555.119588600006,None,555.119588600006,None,555.119588600006,None,555.119588600006,None,555.119588600006,None,555.4073903000026,None,555.4073903000026,None,556.724547400001,None,556.724547400001,None,556.724547400001,None,556.724547400001,None,556.724547400001,None,556.724547400001,None,556.724547400001,None,556.724547400001,None,556.724547400001,None,58,61,33,34,58,58,None,None,None,None,None,None,None,None,None,None,None,None,,None,None,None,None,None,None,None,None,None,None,None,None,None,None,,None,None,None,None,0.6,1,559.2613494000034,None,559.2613494000034,None,559.2613494000034,None,559.2613494000034,None,559.2613494000034,None,559.2613494000034,None,50,559.2613494000034,None,559.2613494000034,None,0.0158669899974484,None,1.990740740740741,3.197702500001469,565.6587773000065,None,565.6587773000065,None,565.6587773000065,None,565.6587773000065,None,None,None,568.8702951000014,None,-0.017592592592592594,-0.2675925925925926,1,0,0,6.3814482999951,tijiao,,,,,,,,,221,f,23,2023_Mar_19_1405,RL,2021.2.3,60.17451813624678,
0,0.3,0.225,0,41,41,41,,,,,,,,,,,,,,,None,None,None,None,None,570.7988532000018,None,570.7988532000018,None,570.7988532000018,None,570.7988532000018,None,j,0.22504370000388008,570.7988532000018,None,570.7988532000018,None,571.0618262000062,None,571.0618262000062,None,571.0618262000062,None,571.0618262000062,None,571.0618262000062,None,571.0618262000062,None,571.3472132000024,573.2753672000035,571.3472132000024,573.2753672000035,573.2955157000033,None,573.2955157000033,None,573.2955157000033,None,573.2955157000033,None,573.2955157000033,None,573.2955157000033,None,573.2955157000033,None,573.2955157000033,None,573.2955157000033,None,46,56,28,41,41,37,575.8058256000004,None,3.0,2.6022070000035455,575.8058256000004,None,575.8058256000004,None,575.8058256000004,None,575.8058256000004,None,,None,None,None,None,None,None,None,None,None,None,None,None,None,None,,None,None,None,None,0.6,3,None,None,None,None,None,None,None,None,None,None,None,None,,None,None,None,None,None,None,None,None,None,None,None,None,None,None,None,None,None,None,578.4581622000042,None,,,,,,,,,,,,,,,,221,f,23,2023_Mar_19_1405,RL,2021.2.3,60.17451813624678,
1,-0.3,-0.225,0,42,42,42,,,,,,,,,,,,,,,None,None,None,None,None,580.1906178000063,None,580.1906178000063,None,580.1906178000063,None,580.1906178000063,None,f,0.4015508000011323,580.1906178000063,None,580.1906178000063,None,580.6334947000068,None,580.6334947000068,None,580.6334947000068,None,580.6334947000068,None,580.6334947000068,None,580.6334947000068,None,580.921130200004,582.034902600004,580.921130200004,582.034902600004,582.0548535000053,None,582.0548535000053,None,582.0548535000053,None,582.0548535000053,None,582.0548535000053,None,582.0548535000053,None,582.0548535000053,None,582.0548535000053,None,582.0548535000053,None,54,52,35,45,52,14,584.5646861000059,None,5.0,2.421895699997549,584.5646861000059,None,584.5646861000059,None,584.5646861000059,None,584.5646861000059,None,,None,None,None,None,None,None,None,None,None,None,None,None,None,None,,None,None,None,None,0.6,2,None,None,None,None,None,None,None,None,None,None,None,None,,None,None,None,None,None,None,None,None,None,None,None,None,None,None,None,None,None,None,587.0354092000052,None,,,,,,,,,,,,,,,,221,f,23,2023_Mar_19_1405,RL,2021.2.3,60.17451813624678,
0,0.3,0.225,0,43,43,43,,,,,,,,,,,,,,,None,None,None,None,None,588.6337789000027,None,588.6337789000027,None,588.6337789000027,None,588.6337789000027,None,f,0.3202123999944888,588.6337789000027,None,588.6337789000027,None,588.9910607000056,None,588.9910607000056,None,588.9910607000056,None,588.9910607000056,None,588.9910607000056,None,588.9910607000056,None,589.2812985000055,591.1935534000004,589.2812985000055,591.1935534000004,591.215752600001,None,591.215752600001,None,591.215752600001,None,591.215752600001,None,591.215752600001,None,591.215752600001,None,591.215752600001,None,591.215752600001,None,591.215752600001,None,40,54,33,39,54,45,593.7252185000034,None,5.0,2.7513427999947453,593.7252185000034,None,593.7252185000034,None,593.7252185000034,None,593.7252185000034,None,,None,None,None,None,None,None,None,None,None,None,None,None,None,None,,None,None,None,None,0.2,2,None,None,None,None,None,None,None,None,None,None,None,None,,None,None,None,None,None,None,None,None,None,None,None,None,None,None,None,None,None,None,596.5254203000004,None,,,,,,,,,,,,,,,,221,f,23,2023_Mar_19_1405,RL,2021.2.3,60.17451813624678,
1,-0.3,-0.225,0,44,44,44,,,,,,,,,,,,,,,None,None,None,None,None,598.1075920000003,None,598.1075920000003,None,598.1075920000003,None,598.1075920000003,None,i,0.3200252999959048,598.1075920000003,None,598.1075920000003,None,598.4651681000032,None,598.4651681000032,None,598.4651681000032,None,598.4651681000032,None,598.4651681000032,None,598.4651681000032,None,598.7554289000036,600.1014250000007,598.7554289000036,600.1014250000007,600.1215280000033,None,600.1215280000033,None,600.1215280000033,None,600.1215280000033,None,600.1215280000033,None,600.1215280000033,None,600.1215280000033,None,600.1215280000033,None,600.1215280000033,None,47,58,19,49,19,34,None,None,None,None,None,None,None,None,None,None,None,None,50,602.6429052000021,None,602.6429052000021,None,602.6429052000021,None,602.6429052000021,None,602.6429052000021,None,602.6429052000021,None,602.6429052000021,None,50,602.6429052000021,None,0.011776059996918775,None,0.2,0,None,None,None,None,None,None,None,None,None,None,None,None,,None,None,None,None,None,None,1.1296296296296295,3.9651477000006707,608.5060687000005,None,608.5060687000005,None,608.5060687000005,None,608.5060687000005,None,None,None,612.4845883000016,None,,,,,,,,0.05648148148148148,-0.28055555555555556,1,0,0,5.830616100000043,tijiao,,221,f,23,2023_Mar_19_1405,RL,2021.2.3,60.17451813624678,
0,0.3,0.225,0,45,45,45,,,,,,,,,,,,,,,None,None,None,None,None,614.2306528000045,None,614.2306528000045,None,614.2306528000045,None,614.2306528000045,None,i,0.2199585999987903,614.2306528000045,None,614.2306528000045,None,614.4889517000047,None,614.4889517000047,None,614.4889517000047,None,614.4889517000047,None,614.4889517000047,None,614.4889517000047,None,614.778358500007,615.9422919000062,614.778358500007,615.9422919000062,615.9629925000045,None,615.9629925000045,None,615.9629925000045,None,615.9629925000045,None,615.9629925000045,None,615.9629925000045,None,615.9629925000045,None,615.9629925000045,None,615.9629925000045,None,43,63,30,41,30,56,None,None,None,None,None,None,None,None,None,None,None,None,,None,None,None,None,None,None,None,None,None,None,None,None,None,None,,None,None,None,None,0.2,1,618.4963285000049,None,618.4963285000049,None,618.4963285000049,None,618.4963285000049,None,618.4963285000049,None,618.4963285000049,None,50,618.4963285000049,None,618.4963285000049,None,0.016104690002975985,None,1.0648148148148149,6.2896518999987165,629.3838951000071,None,629.3838951000071,None,629.3838951000071,None,629.3838951000071,None,None,None,635.6879781000025,None,-0.04537037037037037,-0.31203703703703706,1,0,0,10.869485500006704,tijiao,,,,,,,,,221,f,23,2023_Mar_19_1405,RL,2021.2.3,60.17451813624678,
1,-0.3,-0.225,0,46,46,46,,,,,,,,,,,,,,,None,None,None,None,None,637.3503479000065,None,637.3503479000065,None,637.3503479000065,None,637.3503479000065,None,i,0.2460879999998724,637.3503479000065,None,637.3503479000065,None,637.6279246000049,None,637.6279246000049,None,637.6279246000049,None,637.6279246000049,None,637.6279246000049,None,637.6279246000049,None,637.9151945000049,639.4782058000055,637.9151945000049,639.4782058000055,639.499149000003,None,639.499149000003,None,639.499149000003,None,639.499149000003,None,639.499149000003,None,639.499149000003,None,639.499149000003,None,639.499149000003,None,639.499149000003,None,42,61,31,41,31,40,642.0083679000018,None,3.0,3.865686699995422,642.0083679000018,None,642.0083679000018,None,642.0083679000018,None,642.0083679000018,None,,None,None,None,None,None,None,None,None,None,None,None,None,None,None,,None,None,None,None,-0.6,2,None,None,None,None,None,None,None,None,None,None,None,None,,None,None,None,None,None,None,None,None,None,None,None,None,None,None,None,None,None,None,645.9234057000067,None,,,,,,,,,,,,,,,,221,f,23,2023_Mar_19_1405,RL,2021.2.3,60.17451813624678,
0,0.3,0.225,0,47,47,47,,,,,,,,,,,,,,,None,None,None,None,None,647.5227891000031,None,647.5227891000031,None,647.5227891000031,None,647.5227891000031,None,r,0.2629769999985001,647.5227891000031,None,647.5227891000031,None,647.8148443000027,None,647.8148443000027,None,647.8148443000027,None,647.8148443000027,None,647.8148443000027,None,647.8148443000027,None,648.1040123000057,649.234784100001,648.1040123000057,649.234784100001,649.255925700003,None,649.255925700003,None,649.255925700003,None,649.255925700003,None,649.255925700003,None,649.255925700003,None,649.255925700003,None,649.255925700003,None,649.255925700003,None,52,60,35,37,52,38,None,None,None,None,None,None,None,None,None,None,None,None,,None,None,None,None,None,None,None,None,None,None,None,None,None,None,,None,None,None,None,-0.2,1,651.7870395000064,None,651.7870395000064,None,651.7870395000064,None,651.7870395000064,None,651.7870395000064,None,651.7870395000064,None,50,651.7870395000064,None,651.7870395000064,None,0.016244390011706855,None,1.9999999999999998,3.347644900000887,658.5390972000023,None,658.5390972000023,None,658.5390972000023,None,658.5390972000023,None,None,None,661.9002686000022,None,-0.11851851851851852,-0.2861111111111111,1,0,0,6.731408399995416,tijiao,,,,,,,,,221,f,23,2023_Mar_19_1405,RL,2021.2.3,60.17451813624678,
1,-0.3,-0.225,0,48,48,48,,,,,,,,,,,,,,,None,None,None,None,None,663.7626843000035,None,663.7626843000035,None,663.7626843000035,None,663.7626843000035,None,r,0.24575780000304803,663.7626843000035,None,663.7626843000035,None,664.039257400007,None,664.039257400007,None,664.039257400007,None,664.039257400007,None,664.039257400007,None,664.039257400007,None,664.3265622000035,665.1743255000038,664.3265622000035,665.1743255000038,665.195183200005,None,665.195183200005,None,665.195183200005,None,665.195183200005,None,665.195183200005,None,665.195183200005,None,665.195183200005,None,665.195183200005,None,665.195183200005,None,47,55,38,33,47,31,667.7036974000002,None,5.0,3.0869163000024855,667.7036974000002,None,667.7036974000002,None,667.7036974000002,None,667.7036974000002,None,,None,None,None,None,None,None,None,None,None,None,None,None,None,None,,None,None,None,None,-0.2,2,None,None,None,None,None,None,None,None,None,None,None,None,,None,None,None,None,None,None,None,None,None,None,None,None,None,None,None,None,None,None,670.8387451000017,None,,,,,,,,,,,,,,,,221,f,23,2023_Mar_19_1405,RL,2021.2.3,60.17451813624678,
0,0.3,0.225,0,49,49,49,,,,,,,,,,,,,,,None,None,None,None,None,672.4896037000071,None,672.4896037000071,None,672.4896037000071,None,672.4896037000071,None,r,0.3046771000008448,672.4896037000071,None,672.4896037000071,None,672.8315810000058,None,672.8315810000058,None,672.8315810000058,None,672.8315810000058,None,672.8315810000058,None,672.8315810000058,None,673.119220200002,674.3491628000047,673.119220200002,674.3491628000047,674.3700468000025,None,674.3700468000025,None,674.3700468000025,None,674.3700468000025,None,674.3700468000025,None,674.3700468000025,None,674.3700468000025,None,674.3700468000025,None,674.3700468000025,None,47,55,39,33,47,47,676.879577700005,None,4.0,2.671301799993671,676.879577700005,None,676.879577700005,None,676.879577700005,None,676.879577700005,None,,None,None,None,None,None,None,None,None,None,None,None,None,None,None,,None,None,None,None,-0.6,2,None,None,None,None,None,None,None,None,None,None,None,None,,None,None,None,None,None,None,None,None,None,None,None,None,None,None,None,None,None,None,679.5993883000046,None,,,,,,,,,,,,,,,,221,f,23,2023_Mar_19_1405,RL,2021.2.3,60.17451813624678,
1,-0.3,-0.225,0,50,50,50,,,,,,,,,,,,,,,None,None,None,None,None,681.5801277000064,None,681.5801277000064,None,681.5801277000064,None,681.5801277000064,None,f,0.27112820000184,681.5801277000064,None,681.5801277000064,None,681.8878203000058,None,681.8878203000058,None,681.8878203000058,None,681.8878203000058,None,681.8878203000058,None,681.8878203000058,None,682.177760000006,None,682.177760000006,None,683.5774275000003,None,683.5774275000003,None,683.5774275000003,None,683.5774275000003,None,683.5774275000003,None,683.5774275000003,None,683.5774275000003,None,683.5774275000003,None,683.5774275000003,None,40,55,41,43,55,48,None,None,None,None,None,None,None,None,None,None,None,None,,None,None,None,None,None,None,None,None,None,None,None,None,None,None,,None,None,None,None,-0.2,1,686.1099858000016,None,686.1099858000016,None,686.1099858000016,None,686.1099858000016,None,686.1099858000016,None,686.1099858000016,None,50,686.1099858000016,None,686.1099858000016,None,0.016465090011479333,None,1.0185185185185182,5.539362199997413,696.8690671000004,None,696.8690671000004,None,696.8690671000004,None,696.8690671000004,None,None,None,702.4389289000028,None,0.032407407407407406,-0.2212962962962963,1,0,0,8.942521600001783,tijiao,,,,,,,,,221,f,23,2023_Mar_19_1405,RL,2021.2.3,60.17451813624678,
0,0.3,0.225,0,51,51,51,,,,,,,,,,,,,,,None,None,None,None,None,704.1684617000064,None,704.1684617000064,None,704.1684617000064,None,704.1684617000064,None,f,0.2753450000018347,704.1684617000064,None,704.1684617000064,None,704.4803226000004,None,704.4803226000004,None,704.4803226000004,None,704.4803226000004,None,704.4803226000004,None,704.4803226000004,None,704.7664035000053,705.9132180000015,704.7664035000053,705.9132180000015,705.9339108000058,None,705.9339108000058,None,705.9339108000058,None,705.9339108000058,None,705.9339108000058,None,705.9339108000058,None,705.9339108000058,None,705.9339108000058,None,705.9339108000058,None,45,49,44,33,49,24,708.4424056000062,None,5.0,2.8700530999994953,708.4424056000062,None,708.4424056000062,None,708.4424056000062,None,708.4424056000062,None,,None,None,None,None,None,None,None,None,None,None,None,None,None,None,,None,None,None,None,-0.2,2,None,None,None,None,None,None,None,None,None,None,None,None,,None,None,None,None,None,None,None,None,None,None,None,None,None,None,None,None,None,None,711.362558700006,None,,,,,,,,,,,,,,,,221,f,23,2023_Mar_19_1405,RL,2021.2.3,60.17451813624678,
1,-0.3,-0.225,0,52,52,52,,,,,,,,,,,,,,,None,None,None,None,None,713.3098722000068,None,713.3098722000068,None,713.3098722000068,None,713.3098722000068,None,f,0.2198844000013196,713.3098722000068,None,713.3098722000068,None,713.5694029000006,None,713.5694029000006,None,713.5694029000006,None,713.5694029000006,None,713.5694029000006,None,713.5694029000006,None,713.8578162000049,715.7858869000047,713.8578162000049,715.7858869000047,715.8067073000057,None,715.8067073000057,None,715.8067073000057,None,715.8067073000057,None,715.8067073000057,None,715.8067073000057,None,715.8067073000057,None,715.8067073000057,None,715.8067073000057,None,46,64,43,41,64,53,None,None,None,None,None,None,None,None,None,None,None,None,50,718.3269382000071,None,718.3269382000071,None,718.3269382000071,None,718.3269382000071,None,718.3269382000071,None,718.3269382000071,None,718.3269382000071,None,50,718.3269382000071,None,0.011778460000641644,None,0.2,0,None,None,None,None,None,None,None,None,None,None,None,None,,None,None,None,None,None,None,1.9166666666666667,2.73750149999978,725.1532696000068,None,725.1532696000068,None,725.1532696000068,None,725.1532696000068,None,None,None,727.9039552000031,None,,,,,,,,0.07314814814814814,-0.2796296296296296,1,0,0,6.7948393000042415,tijiao,,221,f,23,2023_Mar_19_1405,RL,2021.2.3,60.17451813624678,
0,0.3,0.225,0,53,53,53,,,,,,,,,,,,,,,None,None,None,None,None,729.4323527000015,None,729.4323527000015,None,729.4323527000015,None,729.4323527000015,None,f,0.2855178000027081,729.4323527000015,None,729.4323527000015,None,729.7576942000014,None,729.7576942000014,None,729.7576942000014,None,729.7576942000014,None,729.7576942000014,None,729.7576942000014,None,730.0472419000071,None,730.0472419000071,None,731.1972122000006,None,731.1972122000006,None,731.1972122000006,None,731.1972122000006,None,731.1972122000006,None,731.1972122000006,None,731.1972122000006,None,731.1972122000006,None,731.1972122000006,None,53,55,44,45,55,49,733.7072728000057,None,4.0,2.604041300000972,733.7072728000057,None,733.7072728000057,None,733.7072728000057,None,733.7072728000057,None,,None,None,None,None,None,None,None,None,None,None,None,None,None,None,,None,None,None,None,0.6,2,None,None,None,None,None,None,None,None,None,None,None,None,,None,None,None,None,None,None,None,None,None,None,None,None,None,None,None,None,None,None,736.3626072000043,None,,,,,,,,,,,,,,,,221,f,23,2023_Mar_19_1405,RL,2021.2.3,60.17451813624678,
1,-0.3,-0.225,0,54,54,54,,,,,,,,,,,,,,,None,None,None,None,None,738.2250812000057,None,738.2250812000057,None,738.2250812000057,None,738.2250812000057,None,f,0.3087950000044657,738.2250812000057,None,738.2250812000057,None,738.5673111000069,None,738.5673111000069,None,738.5673111000069,None,738.5673111000069,None,738.5673111000069,None,738.5673111000069,None,738.8566078000003,None,738.8566078000003,None,740.505367100006,None,740.505367100006,None,740.505367100006,None,740.505367100006,None,740.505367100006,None,740.505367100006,None,740.505367100006,None,740.505367100006,None,740.505367100006,None,52,53,43,40,53,60,None,None,None,None,None,None,None,None,None,None,None,None,,None,None,None,None,None,None,None,None,None,None,None,None,None,None,,None,None,None,None,-0.2,1,743.0375257000051,None,743.0375257000051,None,743.0375257000051,None,743.0375257000051,None,743.0375257000051,None,743.0375257000051,None,50,743.0375257000051,None,743.0375257000051,None,0.01637998999649426,None,1.888888888888889,2.498043700004928,750.3734804000051,None,750.3734804000051,None,750.3734804000051,None,750.3734804000051,None,None,None,752.8846430000049,None,-0.020370370370370372,-0.3435185185185185,1,0,0,7.313495400005195,tijiao,,,,,,,,,221,f,23,2023_Mar_19_1405,RL,2021.2.3,60.17451813624678,
0,0.3,0.225,0,55,55,55,,,,,,,,,,,,,,,None,None,None,None,None,754.5657378000033,None,754.5657378000033,None,754.5657378000033,None,754.5657378000033,None,f,0.450163599998632,754.5657378000033,None,754.5657378000033,None,755.0571079000001,None,755.0571079000001,None,755.0571079000001,None,755.0571079000001,None,755.0571079000001,None,755.0571079000001,None,755.3448441,None,755.3448441,None,756.6453084000022,None,756.6453084000022,None,756.6453084000022,None,756.6453084000022,None,756.6453084000022,None,756.6453084000022,None,756.6453084000022,None,756.6453084000022,None,756.6453084000022,None,55,54,47,48,54,56,759.1552318000031,None,4.0,3.75009449999925,759.1552318000031,None,759.1552318000031,None,759.1552318000031,None,759.1552318000031,None,,None,None,None,None,None,None,None,None,None,None,None,None,None,None,,None,None,None,None,-0.2,3,None,None,None,None,None,None,None,None,None,None,None,None,,None,None,None,None,None,None,None,None,None,None,None,None,None,None,None,None,None,None,762.9554943000039,None,,,,,,,,,,,,,,,,221,f,23,2023_Mar_19_1405,RL,2021.2.3,60.17451813624678,
1,-0.3,-0.225,0,56,56,56,,,,,,,,,,,,,,,None,None,None,None,None,764.821273600006,None,764.821273600006,None,764.821273600006,None,764.821273600006,None,r,0.23912270000437275,764.821273600006,None,764.821273600006,None,765.0957828000028,None,765.0957828000028,None,765.0957828000028,None,765.0957828000028,None,765.0957828000028,None,765.0957828000028,None,765.3839220000009,766.3312677000067,765.3839220000009,766.3312677000067,766.3516924000069,None,766.3516924000069,None,766.3516924000069,None,766.3516924000069,None,766.3516924000069,None,766.3516924000069,None,766.3516924000069,None,766.3516924000069,None,766.3516924000069,None,53,63,42,46,53,51,768.8607834000068,None,4.0,1.8563967000009143,768.8607834000068,None,768.8607834000068,None,768.8607834000068,None,768.8607834000068,None,,None,None,None,None,None,None,None,None,None,None,None,None,None,None,,None,None,None,None,0.6,2,None,None,None,None,None,None,None,None,None,None,None,None,,None,None,None,None,None,None,None,None,None,None,None,None,None,None,None,None,None,None,770.7664964000069,None,,,,,,,,,,,,,,,,221,f,23,2023_Mar_19_1405,RL,2021.2.3,60.17451813624678,
0,0.3,0.225,0,57,57,57,,,,,,,,,,,,,,,None,None,None,None,None,772.5815149000045,None,772.5815149000045,None,772.5815149000045,None,772.5815149000045,None,j,0.3256720999997924,772.5815149000045,None,772.5815149000045,None,772.9395009,None,772.9395009,None,772.9395009,None,772.9395009,None,772.9395009,None,772.9395009,None,773.2296530000021,None,773.2296530000021,None,774.7288805000062,None,774.7288805000062,None,774.7288805000062,None,774.7288805000062,None,774.7288805000062,None,774.7288805000062,None,774.7288805000062,None,774.7288805000062,None,774.7288805000062,None,59,65,31,50,50,22,777.2391276000053,None,5.0,2.9703389999995125,777.2391276000053,None,777.2391276000053,None,777.2391276000053,None,777.2391276000053,None,,None,None,None,None,None,None,None,None,None,None,None,None,None,None,,None,None,None,None,0.2,3,None,None,None,None,None,None,None,None,None,None,None,None,,None,None,None,None,None,None,None,None,None,None,None,None,None,None,None,None,None,None,780.2567431000061,None,,,,,,,,,,,,,,,,221,f,23,2023_Mar_19_1405,RL,2021.2.3,60.17451813624678,
1,-0.3,-0.225,0,58,58,58,,,,,,,,,,,,,,,None,None,None,None,None,782.0709635000021,None,782.0709635000021,None,782.0709635000021,None,782.0709635000021,None,j,0.3761341999997967,782.0709635000021,None,782.0709635000021,None,782.4826257000022,None,782.4826257000022,None,782.4826257000022,None,782.4826257000022,None,782.4826257000022,None,782.4826257000022,None,782.7700914000015,783.7174729000035,782.7700914000015,783.7174729000035,783.7387254000059,None,783.7387254000059,None,783.7387254000059,None,783.7387254000059,None,783.7387254000059,None,783.7387254000059,None,783.7387254000059,None,783.7387254000059,None,783.7387254000059,None,58,63,31,45,45,34,None,None,None,None,None,None,None,None,None,None,None,None,50,786.2585576000056,None,786.2585576000056,None,786.2585576000056,None,786.2585576000056,None,786.2585576000056,None,786.2585576000056,None,786.2585576000056,None,50,786.2585576000056,None,0.011213760000828188,None,-0.6,0,None,None,None,None,None,None,None,None,None,None,None,None,,None,None,None,None,None,None,2.055555555555556,3.63031459999911,800.3513894000062,None,800.3513894000062,None,800.3513894000062,None,800.3513894000062,None,None,None,803.9948588000043,None,,,,,,,,0.10555555555555556,-0.2740740740740741,1,0,0,14.058465399997658,tijiao,,221,f,23,2023_Mar_19_1405,RL,2021.2.3,60.17451813624678,
0,0.3,0.225,0,59,59,59,,,,,,,,,,,,,,,None,None,None,None,None,805.8927233000068,None,805.8927233000068,None,805.8927233000068,None,805.8927233000068,None,j,0.38417499999923166,805.8927233000068,None,805.8927233000068,None,806.3183469000069,None,806.3183469000069,None,806.3183469000069,None,806.3183469000069,None,806.3183469000069,None,806.3183469000069,None,806.6047657000017,808.4665451000037,806.6047657000017,808.4665451000037,808.4882623000012,None,808.4882623000012,None,808.4882623000012,None,808.4882623000012,None,808.4882623000012,None,808.4882623000012,None,808.4882623000012,None,808.4882623000012,None,808.4882623000012,None,56,64,49,50,50,46,810.9984493000011,None,4.0,5.228280600000289,810.9984493000011,None,810.9984493000011,None,810.9984493000011,None,810.9984493000011,None,,None,None,None,None,None,None,None,None,None,None,None,None,None,None,,None,None,None,None,-0.2,2,None,None,None,None,None,None,None,None,None,None,None,None,,None,None,None,None,None,None,None,None,None,None,None,None,None,None,None,None,None,None,816.2760612000056,None,,,,,,,,,,,,,,,,221,f,23,2023_Mar_19_1405,RL,2021.2.3,60.17451813624678,
1,-0.3,-0.225,0,60,60,60,,,,,,,,,,,,,,,None,None,None,None,None,818.1587038000071,None,818.1587038000071,None,818.1587038000071,None,818.1587038000071,None,j,0.5562467999989167,818.1587038000071,None,818.1587038000071,None,818.7484794000047,None,818.7484794000047,None,818.7484794000047,None,818.7484794000047,None,818.7484794000047,None,818.7484794000047,None,819.0376705000017,820.0519593000063,819.0376705000017,820.0519593000063,820.0751719000036,None,820.0751719000036,None,820.0751719000036,None,820.0751719000036,None,820.0751719000036,None,820.0751719000036,None,820.0751719000036,None,820.0751719000036,None,820.0751719000036,None,50,62,37,52,52,17,None,None,None,None,None,None,None,None,None,None,None,None,,None,None,None,None,None,None,None,None,None,None,None,None,None,None,,None,None,None,None,-0.6,1,822.6063710000017,None,822.6063710000017,None,822.6063710000017,None,822.6063710000017,None,822.6063710000017,None,822.6063710000017,None,60,822.6063710000017,None,822.6063710000017,None,0.014287890000559855,None,1.175925925925926,3.7623796999978367,829.8218387000015,None,829.8218387000015,None,829.8218387000015,None,829.8218387000015,None,None,None,833.5975821000029,None,-0.003703703703703704,-0.26851851851851855,1,0,0,7.19483400000172,tijiao,,,,,,,,,221,f,23,2023_Mar_19_1405,RL,2021.2.3,60.17451813624678,
0,0.3,0.225,0,61,61,61,,,,,,,,,,,,,,,None,None,None,None,None,835.1954163000046,None,835.1954163000046,None,835.1954163000046,None,835.1954163000046,None,r,0.30088489999616286,835.1954163000046,None,835.1954163000046,None,835.5366778000025,None,835.5366778000025,None,835.5366778000025,None,835.5366778000025,None,835.5366778000025,None,835.5366778000025,None,835.8247560000018,837.5706467000055,835.8247560000018,837.5706467000055,837.5915685,None,837.5915685,None,837.5915685,None,837.5915685,None,837.5915685,None,837.5915685,None,837.5915685,None,837.5915685,None,837.5915685,None,56,68,44,56,56,56,840.1005774000005,None,4.0,2.6700372000050265,840.1005774000005,None,840.1005774000005,None,840.1005774000005,None,840.1005774000005,None,,None,None,None,None,None,None,None,None,None,None,None,None,None,None,,None,None,None,None,-0.2,3,None,None,None,None,None,None,None,None,None,None,None,None,,None,None,None,None,None,None,None,None,None,None,None,None,None,None,None,None,None,None,842.8206292000032,None,,,,,,,,,,,,,,,,221,f,23,2023_Mar_19_1405,RL,2021.2.3,60.17451813624678,
1,-0.3,-0.225,0,62,62,62,,,,,,,,,,,,,,,None,None,None,None,None,844.5534120000011,None,844.5534120000011,None,844.5534120000011,None,844.5534120000011,None,j,0.36339980000047944,844.5534120000011,None,844.5534120000011,None,844.9434789000006,None,844.9434789000006,None,844.9434789000006,None,844.9434789000006,None,844.9434789000006,None,844.9434789000006,None,845.2326396000062,846.6951447000029,845.2326396000062,846.6951447000029,846.7148954000004,None,846.7148954000004,None,846.7148954000004,None,846.7148954000004,None,846.7148954000004,None,846.7148954000004,None,846.7148954000004,None,846.7148954000004,None,846.7148954000004,None,58,57,48,49,49,50,849.2260464000065,None,4.0,5.296089800001937,849.2260464000065,None,849.2260464000065,None,849.2260464000065,None,849.2260464000065,None,,None,None,None,None,None,None,None,None,None,None,None,None,None,None,,None,None,None,None,-0.2,3,None,None,None,None,None,None,None,None,None,None,None,None,,None,None,None,None,None,None,None,None,None,None,None,None,None,None,None,None,None,None,854.571701300003,None,,,,,,,,,,,,,,,,221,f,23,2023_Mar_19_1405,RL,2021.2.3,60.17451813624678,
0,0.3,0.225,0,63,63,63,,,,,,,,,,,,,,,None,None,None,None,None,856.3523241000003,None,856.3523241000003,None,856.3523241000003,None,856.3523241000003,None,j,0.23310939999646507,856.3523241000003,None,856.3523241000003,None,856.6134861000028,None,856.6134861000028,None,856.6134861000028,None,856.6134861000028,None,856.6134861000028,None,856.6134861000028,None,856.9008758000055,858.2803421000062,856.9008758000055,858.2803421000062,858.301561500004,None,858.301561500004,None,858.301561500004,None,858.301561500004,None,858.301561500004,None,858.301561500004,None,858.301561500004,None,858.301561500004,None,858.301561500004,None,49,59,51,53,53,48,860.8126819000026,None,4.0,4.380507099995157,860.8126819000026,None,860.8126819000026,None,860.8126819000026,None,860.8126819000026,None,,None,None,None,None,None,None,None,None,None,None,None,None,None,None,,None,None,None,None,0.2,2,None,None,None,None,None,None,None,None,None,None,None,None,,None,None,None,None,None,None,None,None,None,None,None,None,None,None,None,None,None,None,865.241354100006,None,,,,,,,,,,,,,,,,221,f,23,2023_Mar_19_1405,RL,2021.2.3,60.17451813624678,
1,-0.3,-0.225,0,64,64,64,,,,,,,,,,,,,,,None,None,None,None,None,866.973430200007,None,866.973430200007,None,866.973430200007,None,866.973430200007,None,j,0.34655059999931837,866.973430200007,None,866.973430200007,None,867.3520317000002,None,867.3520317000002,None,867.3520317000002,None,867.3520317000002,None,867.3520317000002,None,867.3520317000002,None,867.6381195000067,868.6856631000046,867.6381195000067,868.6856631000046,868.7069143000044,None,868.7069143000044,None,868.7069143000044,None,868.7069143000044,None,868.7069143000044,None,868.7069143000044,None,868.7069143000044,None,868.7069143000044,None,868.7069143000044,None,51,52,54,49,49,51,871.215763500004,None,4.0,2.1881475999980466,871.215763500004,None,871.215763500004,None,871.215763500004,None,871.215763500004,None,,None,None,None,None,None,None,None,None,None,None,None,None,None,None,,None,None,None,None,-0.6,3,None,None,None,None,None,None,None,None,None,None,None,None,,None,None,None,None,None,None,None,None,None,None,None,None,None,None,None,None,None,None,873.4521257000015,None,,,,,,,,,,,,,,,,221,f,23,2023_Mar_19_1405,RL,2021.2.3,60.17451813624678,
0,0.3,0.225,0,65,65,65,,,,,,,,,,,,,,,None,None,None,None,None,875.2845401000013,None,875.2845401000013,None,875.2845401000013,None,875.2845401000013,None,j,0.811646699999983,875.2845401000013,None,875.2845401000013,None,876.124836300005,None,876.124836300005,None,876.124836300005,None,876.124836300005,None,876.124836300005,None,876.124836300005,None,876.4143564000042,None,876.4143564000042,None,878.2455112000025,None,878.2455112000025,None,878.2455112000025,None,878.2455112000025,None,878.2455112000025,None,878.2455112000025,None,878.2455112000025,None,878.2455112000025,None,878.2455112000025,None,54,60,50,40,40,57,None,None,None,None,None,None,None,None,None,None,None,None,,None,None,None,None,None,None,None,None,None,None,None,None,None,None,,None,None,None,None,0.6,1,880.7805484000055,None,880.7805484000055,None,880.7805484000055,None,880.7805484000055,None,880.7805484000055,None,880.7805484000055,None,90,880.7805484000055,None,880.7805484000055,None,0.014473890005319845,None,1,4.676260699998238,888.1618401000014,None,888.1618401000014,None,888.1618401000014,None,888.1618401000014,None,None,None,892.852550100004,None,-0.019444444444444445,-0.2953703703703704,1,0,0,7.361534700001357,tijiao,,,,,,,,,221,f,23,2023_Mar_19_1405,RL,2021.2.3,60.17451813624678,
1,-0.3,-0.225,0,66,66,66,,,,,,,,,,,,,,,None,None,None,None,None,894.6974848000027,None,894.6974848000027,None,894.6974848000027,None,894.6974848000027,None,j,0.284110900000087,894.6974848000027,None,894.6974848000027,None,895.0088185000059,None,895.0088185000059,None,895.0088185000059,None,895.0088185000059,None,895.0088185000059,None,895.0088185000059,None,895.2958823000008,896.5093005000017,895.2958823000008,896.5093005000017,896.5304648000019,None,896.5304648000019,None,896.5304648000019,None,896.5304648000019,None,896.5304648000019,None,896.5304648000019,None,896.5304648000019,None,896.5304648000019,None,896.5304648000019,None,50,61,47,45,45,50,None,None,None,None,None,None,None,None,None,None,None,None,,None,None,None,None,None,None,None,None,None,None,None,None,None,None,,None,None,None,None,0.2,1,899.0613913000052,None,899.0613913000052,None,899.0613913000052,None,899.0613913000052,None,899.0613913000052,None,899.0613913000052,None,50,899.0613913000052,None,899.0613913000052,None,0.0005650599996442907,None,1.0370370370370372,2.2169013999955496,904.3515104000035,None,904.3515104000035,None,904.3515104000035,None,904.3515104000035,None,None,None,906.5818245000046,None,-0.06018518518518518,-0.28425925925925927,1,0,0,5.269720800002688,tijiao,,,,,,,,,221,f,23,2023_Mar_19_1405,RL,2021.2.3,60.17451813624678,
0,0.3,0.225,0,67,67,67,,,,,,,,,,,,,,,None,None,None,None,None,908.1794226000056,None,908.1794226000056,None,908.1794226000056,None,908.1794226000056,None,j,0.33824259999528294,908.1794226000056,None,908.1794226000056,None,908.5533195000025,None,908.5533195000025,None,908.5533195000025,None,908.5533195000025,None,908.5533195000025,None,908.5533195000025,None,908.8425473000025,909.7233974000046,908.8425473000025,909.7233974000046,909.7446599000032,None,909.7446599000032,None,909.7446599000032,None,909.7446599000032,None,909.7446599000032,None,909.7446599000032,None,909.7446599000032,None,909.7446599000032,None,909.7446599000032,None,52,53,43,41,41,52,912.2531619000001,None,4.0,2.637433800002327,912.2531619000001,None,912.2531619000001,None,912.2531619000001,None,912.2531619000001,None,,None,None,None,None,None,None,None,None,None,None,None,None,None,None,,None,None,None,None,-0.2,2,None,None,None,None,None,None,None,None,None,None,None,None,,None,None,None,None,None,None,None,None,None,None,None,None,None,None,None,None,None,None,914.9401946000071,None,,,,,,,,,,,,,,,,221,f,23,2023_Mar_19_1405,RL,2021.2.3,60.17451813624678,
1,-0.3,-0.225,0,68,68,68,,,,,,,,,,,,,,,None,None,None,None,None,916.588857600007,None,916.588857600007,None,916.588857600007,None,916.588857600007,None,j,0.45499829999607755,916.588857600007,None,916.588857600007,None,917.0815439000071,None,917.0815439000071,None,917.0815439000071,None,917.0815439000071,None,917.0815439000071,None,917.0815439000071,None,917.3690902000017,919.0147473000034,917.3690902000017,919.0147473000034,919.0361024000013,None,919.0361024000013,None,919.0361024000013,None,919.0361024000013,None,919.0361024000013,None,919.0361024000013,None,919.0361024000013,None,919.0361024000013,None,919.0361024000013,None,49,61,52,41,41,48,921.5463481000043,None,4.0,1.8886463999951957,921.5463481000043,None,921.5463481000043,None,921.5463481000043,None,921.5463481000043,None,,None,None,None,None,None,None,None,None,None,None,None,None,None,None,,None,None,None,None,0.2,3,None,None,None,None,None,None,None,None,None,None,None,None,,None,None,None,None,None,None,None,None,None,None,None,None,None,None,None,None,None,None,923.481555600003,None,,,,,,,,,,,,,,,,221,f,23,2023_Mar_19_1405,RL,2021.2.3,60.17451813624678,
0,0.3,0.225,0,69,69,69,,,,,,,,,,,,,,,None,None,None,None,None,925.299895600001,None,925.299895600001,None,925.299895600001,None,925.299895600001,None,j,0.2864192000051844,925.299895600001,None,925.299895600001,None,925.6222723000028,None,925.6222723000028,None,925.6222723000028,None,925.6222723000028,None,925.6222723000028,None,925.6222723000028,None,925.9123588000002,927.5581731000057,925.9123588000002,927.5581731000057,927.5790073000026,None,927.5790073000026,None,927.5790073000026,None,927.5790073000026,None,927.5790073000026,None,927.5790073000026,None,927.5790073000026,None,927.5790073000026,None,927.5790073000026,None,54,60,46,45,45,75,930.0880147000062,None,3.0,3.3521068999980344,930.0880147000062,None,930.0880147000062,None,930.0880147000062,None,930.0880147000062,None,,None,None,None,None,None,None,None,None,None,None,None,None,None,None,,None,None,None,None,-0.6,3,None,None,None,None,None,None,None,None,None,None,None,None,,None,None,None,None,None,None,None,None,None,None,None,None,None,None,None,None,None,None,933.4888298000005,None,,,,,,,,,,,,,,,,221,f,23,2023_Mar_19_1405,RL,2021.2.3,60.17451813624678,
1,-0.3,-0.225,0,70,70,70,,,,,,,,,,,,,,,None,None,None,None,None,935.0877943000014,None,935.0877943000014,None,935.0877943000014,None,935.0877943000014,None,j,0.29783450000104494,935.0877943000014,None,935.0877943000014,None,935.4122741000028,None,935.4122741000028,None,935.4122741000028,None,935.4122741000028,None,935.4122741000028,None,935.4122741000028,None,935.7025009000063,937.0158955000006,935.7025009000063,937.0158955000006,937.0374006000056,None,937.0374006000056,None,937.0374006000056,None,937.0374006000056,None,937.0374006000056,None,937.0374006000056,None,937.0374006000056,None,937.0374006000056,None,937.0374006000056,None,56,63,49,36,36,74,939.5499937000059,None,2.0,2.95121079999808,939.5499937000059,None,939.5499937000059,None,939.5499937000059,None,939.5499937000059,None,,None,None,None,None,None,None,None,None,None,None,None,None,None,None,,None,None,None,None,0.2,2,None,None,None,None,None,None,None,None,None,None,None,None,,None,None,None,None,None,None,None,None,None,None,None,None,None,None,None,None,None,None,942.5522528000001,None,,,,,,,,,,,,,,,,221,f,23,2023_Mar_19_1405,RL,2021.2.3,60.17451813624678,
0,0.3,0.225,0,71,71,71,,,,,,,,,,,,,,,None,None,None,None,None,944.1959481000013,None,944.1959481000013,None,944.1959481000013,None,944.1959481000013,None,j,0.9346685999989859,944.1959481000013,None,944.1959481000013,None,945.1696597000046,None,945.1696597000046,None,945.1696597000046,None,945.1696597000046,None,945.1696597000046,None,945.1696597000046,None,945.4594633000015,946.556153700003,945.4594633000015,946.556153700003,946.5764415000012,None,946.5764415000012,None,946.5764415000012,None,946.5764415000012,None,946.5764415000012,None,946.5764415000012,None,946.5764415000012,None,946.5764415000012,None,946.5764415000012,None,60,65,47,39,39,11,None,None,None,None,None,None,None,None,None,None,None,None,,None,None,None,None,None,None,None,None,None,None,None,None,None,None,,None,None,None,None,0.2,1,949.1091693000053,None,949.1091693000053,None,949.1091693000053,None,949.1091693000053,None,949.1091693000053,None,949.1091693000053,None,50,949.1091693000053,None,949.1091693000053,None,0.016349689998605754,None,1,3.844930999999633,957.6886688000013,None,957.6886688000013,None,957.6886688000013,None,957.6886688000013,None,None,None,961.5483548000047,None,-0.09166666666666666,-0.2814814814814815,1,0,0,8.560026999999536,tijiao,,,,,,,,,221,f,23,2023_Mar_19_1405,RL,2021.2.3,60.17451813624678,
1,-0.3,-0.225,0,72,72,72,,,,,,,,,,,,,,,None,None,None,None,None,963.0948500000013,None,963.0948500000013,None,963.0948500000013,None,963.0948500000013,None,j,0.39741219999996247,963.0948500000013,None,963.0948500000013,None,963.5208951000022,None,963.5208951000022,None,963.5208951000022,None,963.5208951000022,None,963.5208951000022,None,963.5208951000022,None,963.8088198000041,None,963.8088198000041,None,965.7741449000023,None,965.7741449000023,None,965.7741449000023,None,965.7741449000023,None,965.7741449000023,None,965.7741449000023,None,965.7741449000023,None,965.7741449000023,None,965.7741449000023,None,58,62,60,32,32,35,968.2829816000012,None,4.0,4.332795800000895,968.2829816000012,None,968.2829816000012,None,968.2829816000012,None,968.2829816000012,None,,None,None,None,None,None,None,None,None,None,None,None,None,None,None,,None,None,None,None,-0.6,2,None,None,None,None,None,None,None,None,None,None,None,None,,None,None,None,None,None,None,None,None,None,None,None,None,None,None,None,None,None,None,972.6650628000061,None,,,,,,,,,,,,,,,,221,f,23,2023_Mar_19_1405,RL,2021.2.3,60.17451813624678,
0,0.3,0.225,0,73,73,73,,,,,,,,,,,,,,,None,None,None,None,None,974.5128792000032,None,974.5128792000032,None,974.5128792000032,None,974.5128792000032,None,i,0.24828610000258777,974.5128792000032,None,974.5128792000032,None,974.7879085000022,None,974.7879085000022,None,974.7879085000022,None,974.7879085000022,None,974.7879085000022,None,974.7879085000022,None,975.061618700005,976.7072792000035,975.061618700005,976.7072792000035,976.7284259000007,None,976.7284259000007,None,976.7284259000007,None,976.7284259000007,None,976.7284259000007,None,976.7284259000007,None,976.7284259000007,None,976.7284259000007,None,976.7284259000007,None,56,65,41,36,41,80,979.2395441000044,None,2.0,2.3859465999994427,979.2395441000044,None,979.2395441000044,None,979.2395441000044,None,979.2395441000044,None,,None,None,None,None,None,None,None,None,None,None,None,None,None,None,,None,None,None,None,0.6,3,None,None,None,None,None,None,None,None,None,None,None,None,,None,None,None,None,None,None,None,None,None,None,None,None,None,None,None,None,None,None,981.6722740000041,None,,,,,,,,,,,,,,,,221,f,23,2023_Mar_19_1405,RL,2021.2.3,60.17451813624678,
1,-0.3,-0.225,0,74,74,74,,,,,,,,,,,,,,,None,None,None,None,None,983.456571600007,None,983.456571600007,None,983.456571600007,None,983.456571600007,None,r,0.3152897000036319,983.456571600007,None,983.456571600007,None,983.801414900001,None,983.801414900001,None,983.801414900001,None,983.801414900001,None,983.801414900001,None,983.801414900001,None,984.0870760000034,985.2835720000003,984.0870760000034,985.2835720000003,985.3113457,None,985.3113457,None,985.3113457,None,985.3113457,None,985.3113457,None,985.3113457,None,985.3113457,None,985.3113457,None,985.3113457,None,47,59,43,44,47,80,987.8300134000019,None,2.0,4.150771100001293,987.8300134000019,None,987.8300134000019,None,987.8300134000019,None,987.8300134000019,None,,None,None,None,None,None,None,None,None,None,None,None,None,None,None,,None,None,None,None,-0.6,2,None,None,None,None,None,None,None,None,None,None,None,None,,None,None,None,None,None,None,None,None,None,None,None,None,None,None,None,None,None,None,992.0290483000063,None,,,,,,,,,,,,,,,,221,f,23,2023_Mar_19_1405,RL,2021.2.3,60.17451813624678,
0,0.3,0.225,0,75,75,75,,,,,,,,,,,,,,,993.9931247000059,None,q,993.9931247000059,None,1034.3427198000063,None,1034.3427198000063,None,1034.3427198000063,None,1034.3427198000063,None,f,1.138705099998333,1034.3427198000063,None,1034.3427198000063,None,1035.508481500001,None,1035.508481500001,None,1035.508481500001,None,1035.508481500001,None,1035.508481500001,None,1035.508481500001,None,1035.7960107000035,1036.9596461000037,1035.7960107000035,1036.9596461000037,1036.9804805000022,None,1036.9804805000022,None,1036.9804805000022,None,1036.9804805000022,None,1036.9804805000022,None,1036.9804805000022,None,1036.9804805000022,None,1036.9804805000022,None,1036.9804805000022,None,45,61,50,45,61,78,1039.4893986000025,None,3.0,2.238738400003058,1039.4893986000025,None,1039.4893986000025,None,1039.4893986000025,None,1039.4893986000025,None,,None,None,None,None,None,None,None,None,None,None,None,None,None,None,,None,None,None,None,0.6,3,None,None,None,None,None,None,None,None,None,None,None,None,,None,None,None,None,None,None,None,None,None,None,None,None,None,None,None,None,None,None,1041.775987000001,None,,,,,,,,,,,,,,,40.31352809999953,221,f,23,2023_Mar_19_1405,RL,2021.2.3,60.17451813624678,
1,-0.3,-0.225,0,76,76,76,,,,,,,,,,,,,,,None,None,None,None,None,1043.6266569,None,1043.6266569,None,1043.6266569,None,1043.6266569,None,f,0.28052200000092853,1043.6266569,None,1043.6266569,None,1043.9336921000067,None,1043.9336921000067,None,1043.9336921000067,None,1043.9336921000067,None,1043.9336921000067,None,1043.9336921000067,None,1044.2225800000015,1045.7853569,1044.2225800000015,1045.7853569,1045.8063244000004,None,1045.8063244000004,None,1045.8063244000004,None,1045.8063244000004,None,1045.8063244000004,None,1045.8063244000004,None,1045.8063244000004,None,1045.8063244000004,None,1045.8063244000004,None,42,66,57,41,66,83,None,None,None,None,None,None,None,None,None,None,None,None,80,1048.3257814000026,None,1048.3257814000026,None,1048.3257814000026,None,1048.3257814000026,None,1048.3257814000026,None,1048.3257814000026,None,1048.3257814000026,None,80,1048.3257814000026,None,0.012007359997369349,None,0.6,0,None,None,None,None,None,None,None,None,None,None,None,None,,None,None,None,None,None,None,1.972222222222222,4.399386199998844,1053.8056134000071,None,1053.8056134000071,None,1053.8056134000071,None,1053.8056134000071,None,None,None,1058.2177263000049,None,,,,,,,,-0.06388888888888888,-0.28425925925925927,1,0,0,5.447445099998731,tijiao,,221,f,23,2023_Mar_19_1405,RL,2021.2.3,60.17451813624678,
0,0.3,0.225,0,77,77,77,,,,,,,,,,,,,,,None,None,None,None,None,1059.9476671000011,None,1059.9476671000011,None,1059.9476671000011,None,1059.9476671000011,None,i,0.3583712999970885,1059.9476671000011,None,1059.9476671000011,None,1060.3392101000063,None,1060.3392101000063,None,1060.3392101000063,None,1060.3392101000063,None,1060.3392101000063,None,1060.3392101000063,None,1060.6279561000047,1061.7913744000034,1060.6279561000047,1061.7913744000034,1061.8149069000065,None,1061.8149069000065,None,1061.8149069000065,None,1061.8149069000065,None,1061.8149069000065,None,1061.8149069000065,None,1061.8149069000065,None,1061.8149069000065,None,1061.8149069000065,None,45,65,53,45,53,38,1064.3287542000035,None,4.0,3.09539290000248,1064.3287542000035,None,1064.3287542000035,None,1064.3287542000035,None,1064.3287542000035,None,,None,None,None,None,None,None,None,None,None,None,None,None,None,None,,None,None,None,None,-0.2,2,None,None,None,None,None,None,None,None,None,None,None,None,,None,None,None,None,None,None,None,None,None,None,None,None,None,None,None,None,None,None,1067.4725418000016,None,,,,,,,,,,,,,,,,221,f,23,2023_Mar_19_1405,RL,2021.2.3,60.17451813624678,
1,-0.3,-0.225,0,78,78,78,,,,,,,,,,,,,,,None,None,None,None,None,1069.1053651000038,None,1069.1053651000038,None,1069.1053651000038,None,1069.1053651000038,None,i,0.2164824999999837,1069.1053651000038,None,1069.1053651000038,None,1069.3489573000043,None,1069.3489573000043,None,1069.3489573000043,None,1069.3489573000043,None,1069.3489573000043,None,1069.3489573000043,None,1069.6364626000068,1071.3652221000011,1069.6364626000068,1071.3652221000011,1071.3858308000054,None,1071.3858308000054,None,1071.3858308000054,None,1071.3858308000054,None,1071.3858308000054,None,1071.3858308000054,None,1071.3858308000054,None,1071.3858308000054,None,1071.3858308000054,None,43,65,40,36,40,71,1073.8954962000062,None,3.0,2.5035329000020283,1073.8954962000062,None,1073.8954962000062,None,1073.8954962000062,None,1073.8954962000062,None,,None,None,None,None,None,None,None,None,None,None,None,None,None,None,,None,None,None,None,-0.2,2,None,None,None,None,None,None,None,None,None,None,None,None,,None,None,None,None,None,None,None,None,None,None,None,None,None,None,None,None,None,None,1076.4479591000054,None,,,,,,,,,,,,,,,,221,f,23,2023_Mar_19_1405,RL,2021.2.3,60.17451813624678,
0,0.3,0.225,0,79,79,79,,,,,,,,,,,,,,,None,None,None,None,None,1078.0304234000068,None,1078.0304234000068,None,1078.0304234000068,None,1078.0304234000068,None,j,0.29800589999649674,1078.0304234000068,None,1078.0304234000068,None,1078.3585242000045,None,1078.3585242000045,None,1078.3585242000045,None,1078.3585242000045,None,1078.3585242000045,None,1078.3585242000045,None,1078.6455529000013,1080.5732020000069,1078.6455529000013,1080.5732020000069,1080.5936242000025,None,1080.5936242000025,None,1080.5936242000025,None,1080.5936242000025,None,1080.5936242000025,None,1080.5936242000025,None,1080.5936242000025,None,1080.5936242000025,None,1080.5936242000025,None,46,56,48,32,32,66,1083.1037002000012,None,3.0,1.6231208000026527,1083.1037002000012,None,1083.1037002000012,None,1083.1037002000012,None,1083.1037002000012,None,,None,None,None,None,None,None,None,None,None,None,None,None,None,None,,None,None,None,None,-0.2,2,None,None,None,None,None,None,None,None,None,None,None,None,,None,None,None,None,None,None,None,None,None,None,None,None,None,None,None,None,None,None,1084.7755411000035,None,,,,,,,,,,,,,,,,221,f,23,2023_Mar_19_1405,RL,2021.2.3,60.17451813624678,
