bandit0,black_x_pos_random,black_y_pos_random,trials.thisRepN,trials.thisTrialN,trials.thisN,trials.thisIndex,instru_img1.started,instru_img1.stopped,instru_resp.keys,instru_resp.rt,instru_resp.started,instru_resp.stopped,instru_img2.started,instru_img2.stopped,instru_resp2.keys,instru_resp2.rt,instru_resp2.started,instru_resp2.stopped,fixbefore_2.started,fixbefore_2.stopped,rest_image.started,rest_image.stopped,rest_response.keys,rest_response.started,rest_response.stopped,red.started,red.stopped,green.started,green.stopped,yellow.started,yellow.stopped,blue.started,blue.stopped,choose_bandit.keys,choose_bandit.rt,choose_bandit.started,choose_bandit.stopped,Fixation.started,Fixation.stopped,black.started,black.stopped,red_2.started,red_2.stopped,green_2.started,green_2.stopped,yellow_2.started,yellow_2.stopped,blue_2.started,blue_2.stopped,fixation_2.started,fixation_2.stopped,docs.started,docs.stopped,wait_playerB.started,wait_playerB.stopped,black_com.started,black_com.stopped,reward_sub.started,reward_sub.stopped,palyerb.started,palyerb.stopped,reward__sub.started,reward__sub.stopped,compare.started,compare.stopped,red_compare.started,red_compare.stopped,green_com.started,green_com.stopped,yellow_com.started,yellow_com.stopped,blue_com.started,blue_com.stopped,rewardyellow,rewardred,rewardblue,rewardgreen,subchoose,playerb,image_3.started,image_3.stopped,slider.response,slider.rt,slider.started,slider.stopped,text.started,text.stopped,image_4.started,image_4.stopped,image_5.started,image_5.stopped,value_expect_self,expect_self_black.started,expect_self_black.stopped,expect_self.started,expect_self.stopped,expect_self_red.started,expect_self_red.stopped,expect_self_green.started,expect_self_green.stopped,expect_self_yellow.started,expect_self_yellow.stopped,expect_self_blue.started,expect_self_blue.stopped,tijiao.started,tijiao.stopped,expectself.text,expectself.started,expectself.stopped,tijiao_click.started,tijiao_click.stopped,random_whicharm,whether_ask,jiantou_random.started,jiantou_random.stopped,expect_red.started,expect_red.stopped,expect_green.started,expect_green.stopped,expect_yellow.started,expect_yellow.stopped,expect_blue.started,expect_blue.stopped,expect_random_2.started,expect_random_2.stopped,expect_random_3.text,expect_random_3.started,expect_random_3.stopped,tijiao_random_2.started,tijiao_random_2.stopped,tijiao_random.started,tijiao_random.stopped,slider_2.response,slider_2.rt,slider_2.started,slider_2.stopped,image_7.started,image_7.stopped,confi.started,confi.stopped,notconfi.started,notconfi.stopped,bigx.started,bigx.stopped,intertrialfix.started,intertrialfix.stopped,tijiao_random.x,tijiao_random.y,tijiao_random.leftButton,tijiao_random.midButton,tijiao_random.rightButton,tijiao_random.time,tijiao_random.clicked_name,tijiao_click.x,tijiao_click.y,tijiao_click.leftButton,tijiao_click.midButton,tijiao_click.rightButton,tijiao_click.time,tijiao_click.clicked_name,rest_response.rt,participant,Gender,Age,date,expName,psychopyVersion,frameRate,
,,,,,,,43.98064229998272,None,space,5.787446099973749,43.98064229998272,None,,,,,,,,,,,,,,,,,,,,,,,,,,,,,,,,,,,,,,,,,,,,,,,,,,,,,,,,,,,,,,,,,,,,,,,,,,,,,,,,,,,,,,,,,,,,,,,,,,,,,,,,,,,,,,,,,,,,,,,,,,,,,,,,,,,,,,,,,,,,,,,,,,,,,,222,f,25,2023_Mar_19_1405,RL,2021.2.3,59.98692286297436,
,,,,,,,,,,,,,49.80360699997982,None,s,35.99566279997816,49.80360699997982,None,,,,,,,,,,,,,,,,,,,,,,,,,,,,,,,,,,,,,,,,,,,,,,,,,,,,,,,,,,,,,,,,,,,,,,,,,,,,,,,,,,,,,,,,,,,,,,,,,,,,,,,,,,,,,,,,,,,,,,,,,,,,,,,,,,,,,,,,,,,,,,,,222,f,25,2023_Mar_19_1405,RL,2021.2.3,59.98692286297436,
1,-0.3,-0.225,0,0,0,0,,,,,,,,,,,,,85.82557919999817,None,None,None,None,None,None,86.93668829998933,None,86.93668829998933,None,86.93668829998933,None,86.93668829998933,None,f,0.6116003999486566,86.93668829998933,None,86.93668829998933,None,87.66455210000277,None,87.66455210000277,None,87.66455210000277,None,87.66455210000277,None,87.66455210000277,None,87.66455210000277,None,87.95111919997726,88.90180280001368,87.95111919997726,88.90180280001368,88.99412869999651,None,88.99412869999651,None,88.99412869999651,None,88.99412869999651,None,88.99412869999651,None,88.99412869999651,None,88.99412869999651,None,88.99412869999651,None,88.99412869999651,None,23,55,47,67,55,31,91.6185722000082,None,4.0,2.2445657000062056,91.6185722000082,None,91.6185722000082,None,91.6185722000082,None,91.6185722000082,None,,None,None,None,None,None,None,None,None,None,None,None,None,None,None,,None,None,None,None,-0.2,3,None,None,None,None,None,None,None,None,None,None,None,None,,None,None,None,None,None,None,None,None,None,None,None,None,None,None,None,None,None,None,94.42090999998618,None,,,,,,,,,,,,,,,,222,f,25,2023_Mar_19_1405,RL,2021.2.3,59.98692286297436,
0,0.3,0.225,0,1,1,1,,,,,,,,,,,,,,,None,None,None,None,None,96.01177109999117,None,96.01177109999117,None,96.01177109999117,None,96.01177109999117,None,f,0.46662230003857985,96.01177109999117,None,96.01177109999117,None,96.53793569997652,None,96.53793569997652,None,96.53793569997652,None,96.53793569997652,None,96.53793569997652,None,96.53793569997652,None,96.82418250001501,97.80800660001114,96.82418250001501,97.80800660001114,97.8437042000005,None,97.8437042000005,None,97.8437042000005,None,97.8437042000005,None,97.8437042000005,None,97.8437042000005,None,97.8437042000005,None,97.8437042000005,None,97.8437042000005,None,19,44,45,50,44,62,None,None,None,None,None,None,None,None,None,None,None,None,,None,None,None,None,None,None,None,None,None,None,None,None,None,None,,None,None,None,None,-0.6,1,100.43923369998811,None,100.43923369998811,None,100.43923369998811,None,100.43923369998811,None,100.43923369998811,None,100.43923369998811,None,33,100.43923369998811,None,100.43923369998811,None,0.01299998996546492,None,4.9453125,1.3846179000101984,104.05338180001127,None,104.05338180001127,None,104.05338180001127,None,104.05338180001127,None,None,None,105.44626220001373,None,0.0078125,-0.33984375,1,0,0,3.5500656999647617,tijiao,,,,,,,,,222,f,25,2023_Mar_19_1405,RL,2021.2.3,59.98692286297436,
1,-0.3,-0.225,0,2,2,2,,,,,,,,,,,,,,,None,None,None,None,None,107.33579350000946,None,107.33579350000946,None,107.33579350000946,None,107.33579350000946,None,j,0.44273220002651215,107.33579350000946,None,107.33579350000946,None,107.82572359999176,None,107.82572359999176,None,107.82572359999176,None,107.82572359999176,None,107.82572359999176,None,107.82572359999176,None,108.11501760000829,None,108.11501760000829,None,109.6985902999877,None,109.6985902999877,None,109.6985902999877,None,109.6985902999877,None,109.6985902999877,None,109.6985902999877,None,109.6985902999877,None,109.6985902999877,None,109.6985902999877,None,26,48,40,60,60,33,None,None,None,None,None,None,None,None,None,None,None,None,,None,None,None,None,None,None,None,None,None,None,None,None,None,None,,None,None,None,None,-0.6,1,112.2454269999871,None,112.2454269999871,None,112.2454269999871,None,112.2454269999871,None,112.2454269999871,None,112.2454269999871,None,33,112.2454269999871,None,112.2454269999871,None,0.01410127995768562,None,4.046875,1.5144890999654308,114.34304269996937,None,114.34304269996937,None,114.34304269996937,None,114.34304269996937,None,None,None,115.86974970001029,None,-0.015625,-0.3372395833333333,1,0,0,2.0662033000262454,tijiao,,,,,,,,,222,f,25,2023_Mar_19_1405,RL,2021.2.3,59.98692286297436,
0,0.3,0.225,0,3,3,3,,,,,,,,,,,,,,,None,None,None,None,None,117.84267639997415,None,117.84267639997415,None,117.84267639997415,None,117.84267639997415,None,i,0.5559034000034444,117.84267639997415,None,117.84267639997415,None,118.44886449998012,None,118.44886449998012,None,118.44886449998012,None,118.44886449998012,None,118.44886449998012,None,118.44886449998012,None,118.73940129997209,119.55652949999785,118.73940129997209,119.55652949999785,119.59686669998337,None,119.59686669998337,None,119.59686669998337,None,119.59686669998337,None,119.59686669998337,None,119.59686669998337,None,119.59686669998337,None,119.59686669998337,None,119.59686669998337,None,28,49,38,67,38,75,122.10712659999263,None,4.0,1.7549769000033848,122.10712659999263,None,122.10712659999263,None,122.10712659999263,None,122.10712659999263,None,,None,None,None,None,None,None,None,None,None,None,None,None,None,None,,None,None,None,None,0.2,3,None,None,None,None,None,None,None,None,None,None,None,None,,None,None,None,None,None,None,None,None,None,None,None,None,None,None,None,None,None,None,123.92571370000951,None,,,,,,,,,,,,,,,,222,f,25,2023_Mar_19_1405,RL,2021.2.3,59.98692286297436,
1,-0.3,-0.225,0,4,4,4,,,,,,,,,,,,,,,None,None,None,None,None,125.76443290000316,None,125.76443290000316,None,125.76443290000316,None,125.76443290000316,None,f,0.7043166999937966,125.76443290000316,None,125.76443290000316,None,126.51504420000128,None,126.51504420000128,None,126.51504420000128,None,126.51504420000128,None,126.51504420000128,None,126.51504420000128,None,126.81156170001486,128.69599909998942,126.81156170001486,128.69599909998942,128.73369309998816,None,128.73369309998816,None,128.73369309998816,None,128.73369309998816,None,128.73369309998816,None,128.73369309998816,None,128.73369309998816,None,128.73369309998816,None,128.73369309998816,None,35,41,41,56,41,73,None,None,None,None,None,None,None,None,None,None,None,None,33,131.26562959997682,None,131.26562959997682,None,131.26562959997682,None,131.26562959997682,None,131.26562959997682,None,131.26562959997682,None,131.26562959997682,None,33,131.26562959997682,None,0.009280909958761185,None,-0.2,0,None,None,None,None,None,None,None,None,None,None,None,None,,None,None,None,None,None,None,5.010416666666667,2.4801177000044845,134.85700489999726,None,134.85700489999726,None,134.85700489999726,None,134.85700489999726,None,None,None,137.35171660000924,None,,,,,,,,-0.07421875,-0.2669270833333333,1,0,0,3.511976800044067,tijiao,,222,f,25,2023_Mar_19_1405,RL,2021.2.3,59.98692286297436,
0,0.3,0.225,0,5,5,5,,,,,,,,,,,,,,,None,None,None,None,None,139.22365549998358,None,139.22365549998358,None,139.22365549998358,None,139.22365549998358,None,i,0.45518549997359514,139.22365549998358,None,139.22365549998358,None,139.72529430000577,None,139.72529430000577,None,139.72529430000577,None,139.72529430000577,None,139.72529430000577,None,139.72529430000577,None,140.02094809996197,None,140.02094809996197,None,141.0695908999769,None,141.0695908999769,None,141.0695908999769,None,141.0695908999769,None,141.0695908999769,None,141.0695908999769,None,141.0695908999769,None,141.0695908999769,None,141.0695908999769,None,37,44,36,59,36,53,None,None,None,None,None,None,None,None,None,None,None,None,55,143.59671020001406,None,143.59671020001406,None,143.59671020001406,None,143.59671020001406,None,143.59671020001406,None,143.59671020001406,None,143.59671020001406,None,55,143.59671020001406,None,0.000791539961937815,None,-0.6,0,None,None,None,None,None,None,None,None,None,None,None,None,,None,None,None,None,None,None,2.9140625,0.991822800016962,146.67724079999607,None,146.67724079999607,None,146.67724079999607,None,146.67724079999607,None,None,None,147.691163600015,None,,,,,,,,0.049479166666666664,-0.3046875,1,0,0,3.0372858000337146,tijiao,,222,f,25,2023_Mar_19_1405,RL,2021.2.3,59.98692286297436,
1,-0.3,-0.225,0,6,6,6,,,,,,,,,,,,,,,None,None,None,None,None,149.6820124000078,None,149.6820124000078,None,149.6820124000078,None,149.6820124000078,None,j,0.3667192999855615,149.6820124000078,None,149.6820124000078,None,150.10553020000225,None,150.10553020000225,None,150.10553020000225,None,150.10553020000225,None,150.10553020000225,None,150.10553020000225,None,150.39435849996516,152.21266419999301,150.39435849996516,152.21266419999301,152.24441390001448,None,152.24441390001448,None,152.24441390001448,None,152.24441390001448,None,152.24441390001448,None,152.24441390001448,None,152.24441390001448,None,152.24441390001448,None,152.24441390001448,None,33,50,40,57,57,70,None,None,None,None,None,None,None,None,None,None,None,None,55,154.77948999998625,None,154.77948999998625,None,154.77948999998625,None,154.77948999998625,None,154.77948999998625,None,154.77948999998625,None,154.77948999998625,None,55,154.77948999998625,None,0.00887011003214866,None,0.2,0,None,None,None,None,None,None,None,None,None,None,None,None,,None,None,None,None,None,None,5.010416666666667,1.9610418999800459,158.09181790001458,None,158.09181790001458,None,158.09181790001458,None,158.09181790001458,None,None,None,160.0751137000043,None,,,,,,,,-0.109375,-0.2578125,1,0,0,3.2620634000049904,tijiao,,222,f,25,2023_Mar_19_1405,RL,2021.2.3,59.98692286297436,
0,0.3,0.225,0,7,7,7,,,,,,,,,,,,,,,None,None,None,None,None,161.6230002999655,None,161.6230002999655,None,161.6230002999655,None,161.6230002999655,None,f,0.3960269999806769,161.6230002999655,None,161.6230002999655,None,162.06053839996457,None,162.06053839996457,None,162.06053839996457,None,162.06053839996457,None,162.06053839996457,None,162.06053839996457,None,162.3525396999903,163.30272809998132,162.3525396999903,163.30272809998132,163.32163849996869,None,163.32163849996869,None,163.32163849996869,None,163.32163849996869,None,163.32163849996869,None,163.32163849996869,None,163.32163849996869,None,163.32163849996869,None,163.32163849996869,None,36,58,57,55,58,45,165.8365995999775,None,4.0,1.535509400011506,165.8365995999775,None,165.8365995999775,None,165.8365995999775,None,165.8365995999775,None,,None,None,None,None,None,None,None,None,None,None,None,None,None,None,,None,None,None,None,-0.2,2,None,None,None,None,None,None,None,None,None,None,None,None,,None,None,None,None,None,None,None,None,None,None,None,None,None,None,None,None,None,None,167.42536950000795,None,,,,,,,,,,,,,,,,222,f,25,2023_Mar_19_1405,RL,2021.2.3,59.98692286297436,
1,-0.3,-0.225,0,8,8,8,,,,,,,,,,,,,,,None,None,None,None,None,169.27812729997095,None,169.27812729997095,None,169.27812729997095,None,169.27812729997095,None,f,0.5308241000166163,169.27812729997095,None,169.27812729997095,None,169.84651299996767,None,169.84651299996767,None,169.84651299996767,None,169.84651299996767,None,169.84651299996767,None,169.84651299996767,None,170.14172979997238,None,170.14172979997238,None,171.3058422000031,None,171.3058422000031,None,171.3058422000031,None,171.3058422000031,None,171.3058422000031,None,171.3058422000031,None,171.3058422000031,None,171.3058422000031,None,171.3058422000031,None,44,45,48,57,45,79,173.83303189999424,None,4.0,2.3833689999883063,173.83303189999424,None,173.83303189999424,None,173.83303189999424,None,173.83303189999424,None,,None,None,None,None,None,None,None,None,None,None,None,None,None,None,,None,None,None,None,0.2,3,None,None,None,None,None,None,None,None,None,None,None,None,,None,None,None,None,None,None,None,None,None,None,None,None,None,None,None,None,None,None,176.2628970000078,None,,,,,,,,,,,,,,,,222,f,25,2023_Mar_19_1405,RL,2021.2.3,59.98692286297436,
0,0.3,0.225,0,9,9,9,,,,,,,,,,,,,,,None,None,None,None,None,177.86703829996986,None,177.86703829996986,None,177.86703829996986,None,177.86703829996986,None,r,0.6418075000401586,177.86703829996986,None,177.86703829996986,None,178.55830420000711,None,178.55830420000711,None,178.55830420000711,None,178.55830420000711,None,178.55830420000711,None,178.55830420000711,None,178.84755090001272,179.6650195000111,178.84755090001272,179.6650195000111,179.6971077999915,None,179.6971077999915,None,179.6971077999915,None,179.6971077999915,None,179.6971077999915,None,179.6971077999915,None,179.6971077999915,None,179.6971077999915,None,179.6971077999915,None,34,59,47,50,34,77,182.2138157999725,None,4.0,0.9230934999650344,182.2138157999725,None,182.2138157999725,None,182.2138157999725,None,182.2138157999725,None,,None,None,None,None,None,None,None,None,None,None,None,None,None,None,,None,None,None,None,0.2,2,None,None,None,None,None,None,None,None,None,None,None,None,,None,None,None,None,None,None,None,None,None,None,None,None,None,None,None,None,None,None,183.18645979999565,None,,,,,,,,,,,,,,,,222,f,25,2023_Mar_19_1405,RL,2021.2.3,59.98692286297436,
1,-0.3,-0.225,0,10,10,10,,,,,,,,,,,,,,,None,None,None,None,None,185.08919289999176,None,185.08919289999176,None,185.08919289999176,None,185.08919289999176,None,f,0.3698475999990478,185.08919289999176,None,185.08919289999176,None,185.5065739999991,None,185.5065739999991,None,185.5065739999991,None,185.5065739999991,None,185.5065739999991,None,185.5065739999991,None,185.80255399999442,None,185.80255399999442,None,187.73423619999085,None,187.73423619999085,None,187.73423619999085,None,187.73423619999085,None,187.73423619999085,None,187.73423619999085,None,187.73423619999085,None,187.73423619999085,None,187.73423619999085,None,28,53,44,49,53,68,190.2508630999946,None,4.0,1.0386107999947853,190.2508630999946,None,190.2508630999946,None,190.2508630999946,None,190.2508630999946,None,,None,None,None,None,None,None,None,None,None,None,None,None,None,None,,None,None,None,None,-0.6,3,None,None,None,None,None,None,None,None,None,None,None,None,,None,None,None,None,None,None,None,None,None,None,None,None,None,None,None,None,None,None,191.3534485999844,None,,,,,,,,,,,,,,,,222,f,25,2023_Mar_19_1405,RL,2021.2.3,59.98692286297436,
0,0.3,0.225,0,11,11,11,,,,,,,,,,,,,,,None,None,None,None,None,193.3289492999902,None,193.3289492999902,None,193.3289492999902,None,193.3289492999902,None,j,0.4701216000248678,193.3289492999902,None,193.3289492999902,None,193.8452180000022,None,193.8452180000022,None,193.8452180000022,None,193.8452180000022,None,193.8452180000022,None,193.8452180000022,None,194.14173109998228,195.82587220001733,194.14173109998228,195.82587220001733,195.85784840001725,None,195.85784840001725,None,195.85784840001725,None,195.85784840001725,None,195.85784840001725,None,195.85784840001725,None,195.85784840001725,None,195.85784840001725,None,195.85784840001725,None,41,52,45,51,51,78,None,None,None,None,None,None,None,None,None,None,None,None,66,198.38588919996982,None,198.38588919996982,None,198.38588919996982,None,198.38588919996982,None,198.38588919996982,None,198.38588919996982,None,198.38588919996982,None,66,198.38588919996982,None,0.0006015400285832584,None,0.2,0,None,None,None,None,None,None,None,None,None,None,None,None,,None,None,None,None,None,None,4.997395833333333,1.0689988000085577,201.19761659996584,None,201.19761659996584,None,201.19761659996584,None,201.19761659996584,None,None,None,202.2799662000034,None,,,,,,,,-0.006510416666666667,-0.2799479166666667,1,0,0,2.7697167999576777,tijiao,,222,f,25,2023_Mar_19_1405,RL,2021.2.3,59.98692286297436,
1,-0.3,-0.225,0,12,12,12,,,,,,,,,,,,,,,None,None,None,None,None,204.05251790001057,None,204.05251790001057,None,204.05251790001057,None,204.05251790001057,None,j,0.43657579994760454,204.05251790001057,None,204.05251790001057,None,204.53755609999644,None,204.53755609999644,None,204.53755609999644,None,204.53755609999644,None,204.53755609999644,None,204.53755609999644,None,204.83251440001186,None,204.83251440001186,None,206.21782760001952,None,206.21782760001952,None,206.21782760001952,None,206.21782760001952,None,206.21782760001952,None,206.21782760001952,None,206.21782760001952,None,206.21782760001952,None,206.21782760001952,None,33,54,53,45,45,77,208.74324709997745,None,4.0,1.232776599994395,208.74324709997745,None,208.74324709997745,None,208.74324709997745,None,208.74324709997745,None,,None,None,None,None,None,None,None,None,None,None,None,None,None,None,,None,None,None,None,-0.6,2,None,None,None,None,None,None,None,None,None,None,None,None,,None,None,None,None,None,None,None,None,None,None,None,None,None,None,None,None,None,None,210.05235780001385,None,,,,,,,,,,,,,,,,222,f,25,2023_Mar_19_1405,RL,2021.2.3,59.98692286297436,
0,0.3,0.225,0,13,13,13,,,,,,,,,,,,,,,None,None,None,None,None,211.72477380000055,None,211.72477380000055,None,211.72477380000055,None,211.72477380000055,None,i,0.7445848999777809,211.72477380000055,None,211.72477380000055,None,212.5113537000143,None,212.5113537000143,None,212.5113537000143,None,212.5113537000143,None,212.5113537000143,None,212.5113537000143,None,212.8046963000088,None,212.8046963000088,None,214.47253460000502,None,214.47253460000502,None,214.47253460000502,None,214.47253460000502,None,214.47253460000502,None,214.47253460000502,None,214.47253460000502,None,214.47253460000502,None,214.47253460000502,None,33,52,60,46,60,47,216.98698929999955,None,4.0,1.1400542000192218,216.98698929999955,None,216.98698929999955,None,216.98698929999955,None,216.98698929999955,None,,None,None,None,None,None,None,None,None,None,None,None,None,None,None,,None,None,None,None,-0.2,3,None,None,None,None,None,None,None,None,None,None,None,None,,None,None,None,None,None,None,None,None,None,None,None,None,None,None,None,None,None,None,218.17469939996954,None,,,,,,,,,,,,,,,,222,f,25,2023_Mar_19_1405,RL,2021.2.3,59.98692286297436,
1,-0.3,-0.225,0,14,14,14,,,,,,,,,,,,,,,None,None,None,None,None,219.89713210001355,None,219.89713210001355,None,219.89713210001355,None,219.89713210001355,None,i,0.8821685999864712,219.89713210001355,None,219.89713210001355,None,220.8314822000102,None,220.8314822000102,None,220.8314822000102,None,220.8314822000102,None,220.8314822000102,None,220.8314822000102,None,221.12695710000116,None,221.12695710000116,None,222.14277689997107,None,222.14277689997107,None,222.14277689997107,None,222.14277689997107,None,222.14277689997107,None,222.14277689997107,None,222.14277689997107,None,222.14277689997107,None,222.14277689997107,None,32,43,50,47,50,81,224.6605225999956,None,4.0,0.8531265999772586,224.6605225999956,None,224.6605225999956,None,224.6605225999956,None,224.6605225999956,None,,None,None,None,None,None,None,None,None,None,None,None,None,None,None,,None,None,None,None,-0.6,3,None,None,None,None,None,None,None,None,None,None,None,None,,None,None,None,None,None,None,None,None,None,None,None,None,None,None,None,None,None,None,225.5636274999706,None,,,,,,,,,,,,,,,,222,f,25,2023_Mar_19_1405,RL,2021.2.3,59.98692286297436,
0,0.3,0.225,0,15,15,15,,,,,,,,,,,,,,,None,None,None,None,None,227.23541289998684,None,227.23541289998684,None,227.23541289998684,None,227.23541289998684,None,f,0.8748312999960035,227.23541289998684,None,227.23541289998684,None,228.15584959997796,None,228.15584959997796,None,228.15584959997796,None,228.15584959997796,None,228.15584959997796,None,228.15584959997796,None,228.4489472999703,None,228.4489472999703,None,229.72899129998405,None,229.72899129998405,None,229.72899129998405,None,229.72899129998405,None,229.72899129998405,None,229.72899129998405,None,229.72899129998405,None,229.72899129998405,None,229.72899129998405,None,32,48,46,45,48,78,232.25441599998157,None,4.0,1.0682879000087269,232.25441599998157,None,232.25441599998157,None,232.25441599998157,None,232.25441599998157,None,,None,None,None,None,None,None,None,None,None,None,None,None,None,None,,None,None,None,None,0.6,3,None,None,None,None,None,None,None,None,None,None,None,None,,None,None,None,None,None,None,None,None,None,None,None,None,None,None,None,None,None,None,233.37053449999075,None,,,,,,,,,,,,,,,,222,f,25,2023_Mar_19_1405,RL,2021.2.3,59.98692286297436,
1,-0.3,-0.225,0,16,16,16,,,,,,,,,,,,,,,None,None,None,None,None,235.17396169999847,None,235.17396169999847,None,235.17396169999847,None,235.17396169999847,None,r,0.5564002000028268,235.17396169999847,None,235.17396169999847,None,235.77774099999806,None,235.77774099999806,None,235.77774099999806,None,235.77774099999806,None,235.77774099999806,None,235.77774099999806,None,236.07068890001392,None,236.07068890001392,None,236.93404169997666,None,236.93404169997666,None,236.93404169997666,None,236.93404169997666,None,236.93404169997666,None,236.93404169997666,None,236.93404169997666,None,236.93404169997666,None,236.93404169997666,None,38,52,47,41,38,74,239.46117969998159,None,4.0,0.8478700000559911,239.46117969998159,None,239.46117969998159,None,239.46117969998159,None,239.46117969998159,None,,None,None,None,None,None,None,None,None,None,None,None,None,None,None,,None,None,None,None,0.6,2,None,None,None,None,None,None,None,None,None,None,None,None,,None,None,None,None,None,None,None,None,None,None,None,None,None,None,None,None,None,None,240.35762439999962,None,,,,,,,,,,,,,,,,222,f,25,2023_Mar_19_1405,RL,2021.2.3,59.98692286297436,
0,0.3,0.225,0,17,17,17,,,,,,,,,,,,,,,None,None,None,None,None,241.91174800001318,None,241.91174800001318,None,241.91174800001318,None,241.91174800001318,None,f,0.6685150000266731,241.91174800001318,None,241.91174800001318,None,242.63282399997115,None,242.63282399997115,None,242.63282399997115,None,242.63282399997115,None,242.63282399997115,None,242.63282399997115,None,242.90857269999105,244.0595671000192,242.90857269999105,244.0595671000192,244.10843249998288,None,244.10843249998288,None,244.10843249998288,None,244.10843249998288,None,244.10843249998288,None,244.10843249998288,None,244.10843249998288,None,244.10843249998288,None,244.10843249998288,None,35,50,48,47,50,76,None,None,None,None,None,None,None,None,None,None,None,None,56,246.64437270001508,None,246.64437270001508,None,246.64437270001508,None,246.64437270001508,None,246.64437270001508,None,246.64437270001508,None,246.64437270001508,None,56,246.64437270001508,None,0.008482609991915524,None,0.2,0,None,None,None,None,None,None,None,None,None,None,None,None,,None,None,None,None,None,None,4.958333333333333,1.8113635000190698,250.75679429998854,None,250.75679429998854,None,250.75679429998854,None,250.75679429998854,None,None,None,252.58233050000854,None,,,,,,,,-0.032552083333333336,-0.2734375,1,0,0,4.062533399963286,tijiao,,222,f,25,2023_Mar_19_1405,RL,2021.2.3,59.98692286297436,
1,-0.3,-0.225,0,18,18,18,,,,,,,,,,,,,,,None,None,None,None,None,254.23721489997115,None,254.23721489997115,None,254.23721489997115,None,254.23721489997115,None,f,0.49330890004057437,254.23721489997115,None,254.23721489997115,None,254.77314319997095,None,254.77314319997095,None,254.77314319997095,None,254.77314319997095,None,254.77314319997095,None,254.77314319997095,None,255.06715660000918,None,255.06715660000918,None,256.2481772999745,None,256.2481772999745,None,256.2481772999745,None,256.2481772999745,None,256.2481772999745,None,256.2481772999745,None,256.2481772999745,None,256.2481772999745,None,256.2481772999745,None,34,41,58,48,41,48,258.77391940000234,None,4.0,0.8150989999994636,258.77391940000234,None,258.77391940000234,None,258.77391940000234,None,258.77391940000234,None,,None,None,None,None,None,None,None,None,None,None,None,None,None,None,,None,None,None,None,0.2,2,None,None,None,None,None,None,None,None,None,None,None,None,,None,None,None,None,None,None,None,None,None,None,None,None,None,None,None,None,None,None,259.63702490000287,None,,,,,,,,,,,,,,,,222,f,25,2023_Mar_19_1405,RL,2021.2.3,59.98692286297436,
0,0.3,0.225,0,19,19,19,,,,,,,,,,,,,,,None,None,None,None,None,261.60891690000426,None,261.60891690000426,None,261.60891690000426,None,261.60891690000426,None,j,0.6218890000018291,261.60891690000426,None,261.60891690000426,None,262.27645279996796,None,262.27645279996796,None,262.27645279996796,None,262.27645279996796,None,262.27645279996796,None,262.27645279996796,None,262.5723236000049,264.0399359000148,262.5723236000049,264.0399359000148,264.070041399973,None,264.070041399973,None,264.070041399973,None,264.070041399973,None,264.070041399973,None,264.070041399973,None,264.070041399973,None,264.070041399973,None,264.070041399973,None,35,55,53,55,55,72,266.5906324000098,None,4.0,1.0714668999426067,266.5906324000098,None,266.5906324000098,None,266.5906324000098,None,266.5906324000098,None,,None,None,None,None,None,None,None,None,None,None,None,None,None,None,,None,None,None,None,0.6,3,None,None,None,None,None,None,None,None,None,None,None,None,,None,None,None,None,None,None,None,None,None,None,None,None,None,None,None,None,None,None,267.7120499999728,None,,,,,,,,,,,,,,,,222,f,25,2023_Mar_19_1405,RL,2021.2.3,59.98692286297436,
1,-0.3,-0.225,0,20,20,20,,,,,,,,,,,,,,,None,None,None,None,None,269.4146382000181,None,269.4146382000181,None,269.4146382000181,None,269.4146382000181,None,i,0.5259600999997929,269.4146382000181,None,269.4146382000181,None,269.98432879999746,None,269.98432879999746,None,269.98432879999746,None,269.98432879999746,None,269.98432879999746,None,269.98432879999746,None,270.2776719999965,271.76213230000576,270.2776719999965,271.76213230000576,271.79606660001446,None,271.79606660001446,None,271.79606660001446,None,271.79606660001446,None,271.79606660001446,None,271.79606660001446,None,271.79606660001446,None,271.79606660001446,None,271.79606660001446,None,28,52,60,54,60,65,None,None,None,None,None,None,None,None,None,None,None,None,56,274.33121919998666,None,274.33121919998666,None,274.33121919998666,None,274.33121919998666,None,274.33121919998666,None,274.33121919998666,None,274.33121919998666,None,56,274.33121919998666,None,0.008261309994850308,None,0.2,0,None,None,None,None,None,None,None,None,None,None,None,None,,None,None,None,None,None,None,5.947916666666667,1.7058610999956727,277.19949490000727,None,277.19949490000727,None,277.19949490000727,None,277.19949490000727,None,None,None,278.91820899996674,None,,,,,,,,-0.061197916666666664,-0.3151041666666667,1,0,0,2.8275474999682046,tijiao,,222,f,25,2023_Mar_19_1405,RL,2021.2.3,59.98692286297436,
0,0.3,0.225,0,21,21,21,,,,,,,,,,,,,,,None,None,None,None,None,280.5221412999672,None,280.5221412999672,None,280.5221412999672,None,280.5221412999672,None,r,0.4088583000120707,280.5221412999672,None,280.5221412999672,None,280.97502349998103,None,280.97502349998103,None,280.97502349998103,None,280.97502349998103,None,280.97502349998103,None,280.97502349998103,None,281.2685961999814,None,281.2685961999814,None,282.8696878000046,None,282.8696878000046,None,282.8696878000046,None,282.8696878000046,None,282.8696878000046,None,282.8696878000046,None,282.8696878000046,None,282.8696878000046,None,282.8696878000046,None,26,43,58,50,26,76,None,None,None,None,None,None,None,None,None,None,None,None,,None,None,None,None,None,None,None,None,None,None,None,None,None,None,,None,None,None,None,0.6,1,285.41131960001076,None,285.41131960001076,None,285.41131960001076,None,285.41131960001076,None,285.41131960001076,None,285.41131960001076,None,66,285.41131960001076,None,285.41131960001076,None,0.0014365100068971515,None,4.997395833333333,1.1816283999942243,288.58061900001485,None,288.58061900001485,None,288.58061900001485,None,288.58061900001485,None,None,None,289.78981109999586,None,0.07161458333333333,-0.28125,1,0,0,3.1374936999636702,tijiao,,,,,,,,,222,f,25,2023_Mar_19_1405,RL,2021.2.3,59.98692286297436,
1,-0.3,-0.225,0,22,22,22,,,,,,,,,,,,,,,None,None,None,None,None,291.78018289996544,None,291.78018289996544,None,291.78018289996544,None,291.78018289996544,None,f,0.40052220004145056,291.78018289996544,None,291.78018289996544,None,292.23444889998063,None,292.23444889998063,None,292.23444889998063,None,292.23444889998063,None,292.23444889998063,None,292.23444889998063,None,292.5264790999936,294.44448010000633,292.5264790999936,294.44448010000633,294.4784928999725,None,294.4784928999725,None,294.4784928999725,None,294.4784928999725,None,294.4784928999725,None,294.4784928999725,None,294.4784928999725,None,294.4784928999725,None,294.4784928999725,None,23,42,58,53,42,39,None,None,None,None,None,None,None,None,None,None,None,None,55,297.0035214999807,None,297.0035214999807,None,297.0035214999807,None,297.0035214999807,None,297.0035214999807,None,297.0035214999807,None,297.0035214999807,None,55,297.0035214999807,None,0.0004229400656186044,None,0.6,0,None,None,None,None,None,None,None,None,None,None,None,None,,None,None,None,None,None,None,5.986979166666667,1.4102626999956556,300.09419149998575,None,300.09419149998575,None,300.09419149998575,None,300.09419149998575,None,None,None,301.5314047000138,None,,,,,,,,-0.02734375,-0.28125,1,0,0,3.03651780000655,tijiao,,222,f,25,2023_Mar_19_1405,RL,2021.2.3,59.98692286297436,
0,0.3,0.225,0,23,23,23,,,,,,,,,,,,,,,None,None,None,None,None,303.0710711000138,None,303.0710711000138,None,303.0710711000138,None,303.0710711000138,None,f,0.6197014000499621,303.0710711000138,None,303.0710711000138,None,303.74608399998397,None,303.74608399998397,None,303.74608399998397,None,303.74608399998397,None,303.74608399998397,None,303.74608399998397,None,304.03484460001346,305.3689977999893,304.03484460001346,305.3689977999893,305.39894679997815,None,305.39894679997815,None,305.39894679997815,None,305.39894679997815,None,305.39894679997815,None,305.39894679997815,None,305.39894679997815,None,305.39894679997815,None,305.39894679997815,None,33,38,51,67,38,74,307.9279951999779,None,4.0,1.0183531999937259,307.9279951999779,None,307.9279951999779,None,307.9279951999779,None,307.9279951999779,None,,None,None,None,None,None,None,None,None,None,None,None,None,None,None,,None,None,None,None,0.6,3,None,None,None,None,None,None,None,None,None,None,None,None,,None,None,None,None,None,None,None,None,None,None,None,None,None,None,None,None,None,None,309.001680699992,None,,,,,,,,,,,,,,,,222,f,25,2023_Mar_19_1405,RL,2021.2.3,59.98692286297436,
1,-0.3,-0.225,0,24,24,24,,,,,,,,,,,,,,,None,None,None,None,None,310.5262672000099,None,310.5262672000099,None,310.5262672000099,None,310.5262672000099,None,j,0.5046820000279695,310.5262672000099,None,310.5262672000099,None,311.08424419997027,None,311.08424419997027,None,311.08424419997027,None,311.08424419997027,None,311.08424419997027,None,311.08424419997027,None,311.37300199997844,312.4237420000136,311.37300199997844,312.4237420000136,312.46043099998496,None,312.46043099998496,None,312.46043099998496,None,312.46043099998496,None,312.46043099998496,None,312.46043099998496,None,312.46043099998496,None,312.46043099998496,None,312.46043099998496,None,32,46,47,61,61,41,314.9789975999738,None,4.0,1.0159495999687351,314.9789975999738,None,314.9789975999738,None,314.9789975999738,None,314.9789975999738,None,,None,None,None,None,None,None,None,None,None,None,None,None,None,None,,None,None,None,None,0.2,3,None,None,None,None,None,None,None,None,None,None,None,None,,None,None,None,None,None,None,None,None,None,None,None,None,None,None,None,None,None,None,316.04190060001565,None,,,,,,,,,,,,,,,,222,f,25,2023_Mar_19_1405,RL,2021.2.3,59.98692286297436,
0,0.3,0.225,0,25,25,25,,,,,,,,,,,,,,,None,None,None,None,None,317.9314090000116,None,317.9314090000116,None,317.9314090000116,None,317.9314090000116,None,i,0.4494381000404246,317.9314090000116,None,317.9314090000116,None,318.4325657999725,None,318.4325657999725,None,318.4325657999725,None,318.4325657999725,None,318.4325657999725,None,318.4325657999725,None,318.72802539996337,None,318.72802539996337,None,319.81586999999126,None,319.81586999999126,None,319.81586999999126,None,319.81586999999126,None,319.81586999999126,None,319.81586999999126,None,319.81586999999126,None,319.81586999999126,None,319.81586999999126,None,32,41,42,57,42,59,322.33412810001755,None,4.0,1.0328900999738835,322.33412810001755,None,322.33412810001755,None,322.33412810001755,None,322.33412810001755,None,,None,None,None,None,None,None,None,None,None,None,None,None,None,None,,None,None,None,None,-0.6,3,None,None,None,None,None,None,None,None,None,None,None,None,,None,None,None,None,None,None,None,None,None,None,None,None,None,None,None,None,None,None,323.4130513999844,None,,,,,,,,,,,,,,,,222,f,25,2023_Mar_19_1405,RL,2021.2.3,59.98692286297436,
1,-0.3,-0.225,0,26,26,26,,,,,,,,,,,,,,,None,None,None,None,None,325.13646690000314,None,325.13646690000314,None,325.13646690000314,None,325.13646690000314,None,i,0.9844652999890968,325.13646690000314,None,325.13646690000314,None,326.1705213999958,None,326.1705213999958,None,326.1705213999958,None,326.1705213999958,None,326.1705213999958,None,326.1705213999958,None,326.46693850000156,327.7011017000186,326.46693850000156,327.7011017000186,327.73428460001014,None,327.73428460001014,None,327.73428460001014,None,327.73428460001014,None,327.73428460001014,None,327.73428460001014,None,327.73428460001014,None,327.73428460001014,None,327.73428460001014,None,39,47,43,50,43,69,330.2499759999919,None,4.0,1.0556874999892898,330.2499759999919,None,330.2499759999919,None,330.2499759999919,None,330.2499759999919,None,,None,None,None,None,None,None,None,None,None,None,None,None,None,None,,None,None,None,None,-0.2,3,None,None,None,None,None,None,None,None,None,None,None,None,,None,None,None,None,None,None,None,None,None,None,None,None,None,None,None,None,None,None,331.3609547999804,None,,,,,,,,,,,,,,,,222,f,25,2023_Mar_19_1405,RL,2021.2.3,59.98692286297436,
0,0.3,0.225,0,27,27,27,,,,,,,,,,,,,,,None,None,None,None,None,333.09235300001455,None,333.09235300001455,None,333.09235300001455,None,333.09235300001455,None,f,1.048644400027115,333.09235300001455,None,333.09235300001455,None,334.17993290000595,None,334.17993290000595,None,334.17993290000595,None,334.17993290000595,None,334.17993290000595,None,334.17993290000595,None,334.47246119997,None,334.47246119997,None,335.4357275000075,None,335.4357275000075,None,335.4357275000075,None,335.4357275000075,None,335.4357275000075,None,335.4357275000075,None,335.4357275000075,None,335.4357275000075,None,335.4357275000075,None,31,42,39,43,42,61,None,None,None,None,None,None,None,None,None,None,None,None,55,337.9739033000078,None,337.9739033000078,None,337.9739033000078,None,337.9739033000078,None,337.9739033000078,None,337.9739033000078,None,337.9739033000078,None,55,337.9739033000078,None,0.00944031000835821,None,-0.6,0,None,None,None,None,None,None,None,None,None,None,None,None,,None,None,None,None,None,None,5.010416666666667,1.7208345000399277,341.4309169999906,None,341.4309169999906,None,341.4309169999906,None,341.4309169999906,None,None,None,343.17842139996355,None,,,,,,,,0.0078125,-0.28515625,1,0,0,3.4123041999991983,tijiao,,222,f,25,2023_Mar_19_1405,RL,2021.2.3,59.98692286297436,
1,-0.3,-0.225,0,28,28,28,,,,,,,,,,,,,,,None,None,None,None,None,344.816771599988,None,344.816771599988,None,344.816771599988,None,344.816771599988,None,i,0.8042653999873437,344.816771599988,None,344.816771599988,None,345.6694145000074,None,345.6694145000074,None,345.6694145000074,None,345.6694145000074,None,345.6694145000074,None,345.6694145000074,None,345.9636296000099,347.04774499998894,345.9636296000099,347.04774499998894,347.0804333999986,None,347.0804333999986,None,347.0804333999986,None,347.0804333999986,None,347.0804333999986,None,347.0804333999986,None,347.0804333999986,None,347.0804333999986,None,347.0804333999986,None,37,47,46,45,46,66,349.5966020000051,None,4.0,1.2391876999754459,349.5966020000051,None,349.5966020000051,None,349.5966020000051,None,349.5966020000051,None,,None,None,None,None,None,None,None,None,None,None,None,None,None,None,,None,None,None,None,0.6,3,None,None,None,None,None,None,None,None,None,None,None,None,,None,None,None,None,None,None,None,None,None,None,None,None,None,None,None,None,None,None,350.8877698999713,None,,,,,,,,,,,,,,,,222,f,25,2023_Mar_19_1405,RL,2021.2.3,59.98692286297436,
0,0.3,0.225,0,29,29,29,,,,,,,,,,,,,,,None,None,None,None,None,352.60560890001943,None,352.60560890001943,None,352.60560890001943,None,352.60560890001943,None,r,0.43553720001364127,352.60560890001943,None,352.60560890001943,None,353.090192499978,None,353.090192499978,None,353.090192499978,None,353.090192499978,None,353.090192499978,None,353.090192499978,None,353.38537530001486,354.98657120001735,353.38537530001486,354.98657120001735,355.0171817999799,None,355.0171817999799,None,355.0171817999799,None,355.0171817999799,None,355.0171817999799,None,355.0171817999799,None,355.0171817999799,None,355.0171817999799,None,355.0171817999799,None,38,48,51,54,38,50,None,None,None,None,None,None,None,None,None,None,None,None,55,357.5492022999679,None,357.5492022999679,None,357.5492022999679,None,357.5492022999679,None,357.5492022999679,None,357.5492022999679,None,357.5492022999679,None,55,357.5492022999679,None,0.013951410015579313,None,-0.6,0,None,None,None,None,None,None,None,None,None,None,None,None,,None,None,None,None,None,None,4.9453125,1.4774422000045888,361.302388000011,None,361.302388000011,None,361.302388000011,None,361.302388000011,None,None,None,362.8065750999958,None,,,,,,,,-0.014322916666666666,-0.2721354166666667,1,0,0,3.700599899981171,tijiao,,222,f,25,2023_Mar_19_1405,RL,2021.2.3,59.98692286297436,
1,-0.3,-0.225,0,30,30,30,,,,,,,,,,,,,,,None,None,None,None,None,364.6638576000114,None,364.6638576000114,None,364.6638576000114,None,364.6638576000114,None,f,0.8473028999869712,364.6638576000114,None,364.6638576000114,None,365.54973560001235,None,365.54973560001235,None,365.54973560001235,None,365.54973560001235,None,365.54973560001235,None,365.54973560001235,None,365.8440191000118,366.9614916999708,365.8440191000118,366.9614916999708,366.99292629997944,None,366.99292629997944,None,366.99292629997944,None,366.99292629997944,None,366.99292629997944,None,366.99292629997944,None,366.99292629997944,None,366.99292629997944,None,366.99292629997944,None,37,57,55,44,57,53,None,None,None,None,None,None,None,None,None,None,None,None,56,369.52506060001906,None,369.52506060001906,None,369.52506060001906,None,369.52506060001906,None,369.52506060001906,None,369.52506060001906,None,369.52506060001906,None,56,369.52506060001906,None,0.013239609950687736,None,0.2,0,None,None,None,None,None,None,None,None,None,None,None,None,,None,None,None,None,None,None,4.932291666666667,1.2093762999866158,372.400576199987,None,372.400576199987,None,372.400576199987,None,372.400576199987,None,None,None,373.6321947000106,None,,,,,,,,-0.0078125,-0.3346354166666667,1,0,0,2.832289399986621,tijiao,,222,f,25,2023_Mar_19_1405,RL,2021.2.3,59.98692286297436,
0,0.3,0.225,0,31,31,31,,,,,,,,,,,,,,,None,None,None,None,None,375.5383306000149,None,375.5383306000149,None,375.5383306000149,None,375.5383306000149,None,j,0.5229679999756627,375.5383306000149,None,375.5383306000149,None,376.10632359999,None,376.10632359999,None,376.10632359999,None,376.10632359999,None,376.10632359999,None,376.10632359999,None,376.4016630999977,377.2686965999892,376.4016630999977,377.2686965999892,377.2988459999906,None,377.2988459999906,None,377.2988459999906,None,377.2988459999906,None,377.2988459999906,None,377.2988459999906,None,377.2988459999906,None,377.2988459999906,None,377.2988459999906,None,28,48,65,47,47,39,379.82414440001594,None,4.0,1.1327096999739297,379.82414440001594,None,379.82414440001594,None,379.82414440001594,None,379.82414440001594,None,,None,None,None,None,None,None,None,None,None,None,None,None,None,None,,None,None,None,None,0.2,2,None,None,None,None,None,None,None,None,None,None,None,None,,None,None,None,None,None,None,None,None,None,None,None,None,None,None,None,None,None,None,381.0057149999775,None,,,,,,,,,,,,,,,,222,f,25,2023_Mar_19_1405,RL,2021.2.3,59.98692286297436,
1,-0.3,-0.225,0,32,32,32,,,,,,,,,,,,,,,None,None,None,None,None,382.8602264999645,None,382.8602264999645,None,382.8602264999645,None,382.8602264999645,None,j,0.4811352000106126,382.8602264999645,None,382.8602264999645,None,383.3793082999764,None,383.3793082999764,None,383.3793082999764,None,383.3793082999764,None,383.3793082999764,None,383.3793082999764,None,383.67331420001574,None,383.67331420001574,None,384.5056839999743,None,384.5056839999743,None,384.5056839999743,None,384.5056839999743,None,384.5056839999743,None,384.5056839999743,None,384.5056839999743,None,384.5056839999743,None,384.5056839999743,None,29,52,45,58,58,55,None,None,None,None,None,None,None,None,None,None,None,None,,None,None,None,None,None,None,None,None,None,None,None,None,None,None,,None,None,None,None,0.2,1,387.0487061999738,None,387.0487061999738,None,387.0487061999738,None,387.0487061999738,None,387.0487061999738,None,387.0487061999738,None,66,387.0487061999738,None,387.0487061999738,None,0.0014296100125648081,None,5.049479166666667,2.2256984999985434,390.83834039996145,None,390.83834039996145,None,390.83834039996145,None,390.83834039996145,None,None,None,393.0951706999913,None,0.0390625,-0.29296875,1,0,0,3.7548075999948196,tijiao,,,,,,,,,222,f,25,2023_Mar_19_1405,RL,2021.2.3,59.98692286297436,
0,0.3,0.225,0,33,33,33,,,,,,,,,,,,,,,None,None,None,None,None,394.6853271999862,None,394.6853271999862,None,394.6853271999862,None,394.6853271999862,None,j,0.7171094000223093,394.6853271999862,None,394.6853271999862,None,395.4567986999755,None,395.4567986999755,None,395.4567986999755,None,395.4567986999755,None,395.4567986999755,None,395.4567986999755,None,395.748140199983,397.5160409999662,395.748140199983,397.5160409999662,397.55010399996536,None,397.55010399996536,None,397.55010399996536,None,397.55010399996536,None,397.55010399996536,None,397.55010399996536,None,397.55010399996536,None,397.55010399996536,None,397.55010399996536,None,37,51,59,51,51,75,400.0668971000123,None,4.0,1.3559309000265785,400.0668971000123,None,400.0668971000123,None,400.0668971000123,None,400.0668971000123,None,,None,None,None,None,None,None,None,None,None,None,None,None,None,None,,None,None,None,None,-0.6,3,None,None,None,None,None,None,None,None,None,None,None,None,,None,None,None,None,None,None,None,None,None,None,None,None,None,None,None,None,None,None,401.4734390999656,None,,,,,,,,,,,,,,,,222,f,25,2023_Mar_19_1405,RL,2021.2.3,59.98692286297436,
1,-0.3,-0.225,0,34,34,34,,,,,,,,,,,,,,,None,None,None,None,None,403.1235992999864,None,403.1235992999864,None,403.1235992999864,None,403.1235992999864,None,i,0.8688775000046007,403.1235992999864,None,403.1235992999864,None,404.04255179996835,None,404.04255179996835,None,404.04255179996835,None,404.04255179996835,None,404.04255179996835,None,404.04255179996835,None,404.3376165999798,None,404.3376165999798,None,406.30355469998904,None,406.30355469998904,None,406.30355469998904,None,406.30355469998904,None,406.30355469998904,None,406.30355469998904,None,406.30355469998904,None,406.30355469998904,None,406.30355469998904,None,32,53,50,51,50,62,408.82509619998746,None,4.0,0.8999967999989167,408.82509619998746,None,408.82509619998746,None,408.82509619998746,None,408.82509619998746,None,,None,None,None,None,None,None,None,None,None,None,None,None,None,None,,None,None,None,None,0.2,2,None,None,None,None,None,None,None,None,None,None,None,None,,None,None,None,None,None,None,None,None,None,None,None,None,None,None,None,None,None,None,409.77437890000874,None,,,,,,,,,,,,,,,,222,f,25,2023_Mar_19_1405,RL,2021.2.3,59.98692286297436,
0,0.3,0.225,0,35,35,35,,,,,,,,,,,,,,,None,None,None,None,None,411.71373029996175,None,411.71373029996175,None,411.71373029996175,None,411.71373029996175,None,f,0.4488551000249572,411.71373029996175,None,411.71373029996175,None,412.21344259998295,None,412.21344259998295,None,412.21344259998295,None,412.21344259998295,None,412.21344259998295,None,412.21344259998295,None,412.5097735999734,None,412.5097735999734,None,413.9237613999867,None,413.9237613999867,None,413.9237613999867,None,413.9237613999867,None,413.9237613999867,None,413.9237613999867,None,413.9237613999867,None,413.9237613999867,None,413.9237613999867,None,32,63,49,49,63,66,416.44259260001127,None,4.0,1.089794100029394,416.44259260001127,None,416.44259260001127,None,416.44259260001127,None,416.44259260001127,None,,None,None,None,None,None,None,None,None,None,None,None,None,None,None,,None,None,None,None,-0.6,3,None,None,None,None,None,None,None,None,None,None,None,None,,None,None,None,None,None,None,None,None,None,None,None,None,None,None,None,None,None,None,417.60899039998185,None,,,,,,,,,,,,,,,,222,f,25,2023_Mar_19_1405,RL,2021.2.3,59.98692286297436,
1,-0.3,-0.225,0,36,36,36,,,,,,,,,,,,,,,None,None,None,None,None,419.56886529998155,None,419.56886529998155,None,419.56886529998155,None,419.56886529998155,None,r,0.5936891000019386,419.56886529998155,None,419.56886529998155,None,420.2037732999888,None,420.2037732999888,None,420.2037732999888,None,420.2037732999888,None,420.2037732999888,None,420.2037732999888,None,420.49879859999055,None,420.49879859999055,None,421.3462639999925,None,421.3462639999925,None,421.3462639999925,None,421.3462639999925,None,421.3462639999925,None,421.3462639999925,None,421.3462639999925,None,421.3462639999925,None,421.3462639999925,None,29,60,49,51,29,63,423.86868879996473,None,4.0,0.8493409000220709,423.86868879996473,None,423.86868879996473,None,423.86868879996473,None,423.86868879996473,None,,None,None,None,None,None,None,None,None,None,None,None,None,None,None,,None,None,None,None,0.2,3,None,None,None,None,None,None,None,None,None,None,None,None,,None,None,None,None,None,None,None,None,None,None,None,None,None,None,None,None,None,None,424.7680798000074,None,,,,,,,,,,,,,,,,222,f,25,2023_Mar_19_1405,RL,2021.2.3,59.98692286297436,
0,0.3,0.225,0,37,37,37,,,,,,,,,,,,,,,None,None,None,None,None,426.72387260000687,None,426.72387260000687,None,426.72387260000687,None,426.72387260000687,None,f,0.4987519000424072,426.72387260000687,None,426.72387260000687,None,427.27336130000185,None,427.27336130000185,None,427.27336130000185,None,427.27336130000185,None,427.27336130000185,None,427.27336130000185,None,427.57055509998463,None,427.57055509998463,None,429.0213419999927,None,429.0213419999927,None,429.0213419999927,None,429.0213419999927,None,429.0213419999927,None,429.0213419999927,None,429.0213419999927,None,429.0213419999927,None,429.0213419999927,None,27,52,47,43,52,61,None,None,None,None,None,None,None,None,None,None,None,None,55,431.5485478999908,None,431.5485478999908,None,431.5485478999908,None,431.5485478999908,None,431.5485478999908,None,431.5485478999908,None,431.5485478999908,None,55,431.5485478999908,None,0.016285009973216802,None,0.6,0,None,None,None,None,None,None,None,None,None,None,None,None,,None,None,None,None,None,None,4.997395833333333,2.5354759999900125,434.5095419000136,None,434.5095419000136,None,434.5095419000136,None,434.5095419000136,None,None,None,437.0595468999818,None,,,,,,,,-0.0013020833333333333,-0.2838541666666667,1,0,0,2.9192680999985896,tijiao,,222,f,25,2023_Mar_19_1405,RL,2021.2.3,59.98692286297436,
1,-0.3,-0.225,0,38,38,38,,,,,,,,,,,,,,,None,None,None,None,None,438.9660658999928,None,438.9660658999928,None,438.9660658999928,None,438.9660658999928,None,i,0.40663949999725446,438.9660658999928,None,438.9660658999928,None,439.41794269997627,None,439.41794269997627,None,439.41794269997627,None,439.41794269997627,None,439.41794269997627,None,439.41794269997627,None,439.71203539997805,None,439.71203539997805,None,441.26041669998085,None,441.26041669998085,None,441.26041669998085,None,441.26041669998085,None,441.26041669998085,None,441.26041669998085,None,441.26041669998085,None,441.26041669998085,None,441.26041669998085,None,31,54,53,50,53,61,443.7835844999645,None,4.0,1.5175591000006534,443.7835844999645,None,443.7835844999645,None,443.7835844999645,None,443.7835844999645,None,,None,None,None,None,None,None,None,None,None,None,None,None,None,None,,None,None,None,None,0.6,3,None,None,None,None,None,None,None,None,None,None,None,None,,None,None,None,None,None,None,None,None,None,None,None,None,None,None,None,None,None,None,445.3624778999947,None,,,,,,,,,,,,,,,,222,f,25,2023_Mar_19_1405,RL,2021.2.3,59.98692286297436,
0,0.3,0.225,0,39,39,39,,,,,,,,,,,,,,,None,None,None,None,None,447.0882404000149,None,447.0882404000149,None,447.0882404000149,None,447.0882404000149,None,j,0.4450638000271283,447.0882404000149,None,447.0882404000149,None,447.57719370000996,None,447.57719370000996,None,447.57719370000996,None,447.57719370000996,None,447.57719370000996,None,447.57719370000996,None,447.86780750000617,None,447.86780750000617,None,449.48180130001856,None,449.48180130001856,None,449.48180130001856,None,449.48180130001856,None,449.48180130001856,None,449.48180130001856,None,449.48180130001856,None,449.48180130001856,None,449.48180130001856,None,33,49,44,37,37,59,None,None,None,None,None,None,None,None,None,None,None,None,66,452.0205023000017,None,452.0205023000017,None,452.0205023000017,None,452.0205023000017,None,452.0205023000017,None,452.0205023000017,None,452.0205023000017,None,66,452.0205023000017,None,0.008523709955625236,None,0.6,0,None,None,None,None,None,None,None,None,None,None,None,None,,None,None,None,None,None,None,4.932291666666667,0.9997430000221357,455.6936098000151,None,455.6936098000151,None,455.6936098000151,None,455.6936098000151,None,None,None,456.7281553999637,None,,,,,,,,-0.057291666666666664,-0.2708333333333333,1,0,0,3.6287696000072174,tijiao,,222,f,25,2023_Mar_19_1405,RL,2021.2.3,59.98692286297436,
1,-0.3,-0.225,0,40,40,40,,,,,,,,,,,,,,,None,None,None,None,None,458.662406599964,None,458.662406599964,None,458.662406599964,None,458.662406599964,None,j,0.48035729996627197,458.662406599964,None,458.662406599964,None,459.18173780001234,None,459.18173780001234,None,459.18173780001234,None,459.18173780001234,None,459.18173780001234,None,459.18173780001234,None,459.4757430999889,None,459.4757430999889,None,460.6561193999951,None,460.6561193999951,None,460.6561193999951,None,460.6561193999951,None,460.6561193999951,None,460.6561193999951,None,460.6561193999951,None,460.6561193999951,None,460.6561193999951,None,34,52,48,32,32,60,463.16838619997725,None,4.0,0.977642800018657,463.16838619997725,None,463.16838619997725,None,463.16838619997725,None,463.16838619997725,None,,None,None,None,None,None,None,None,None,None,None,None,None,None,None,,None,None,None,None,-0.2,2,None,None,None,None,None,None,None,None,None,None,None,None,,None,None,None,None,None,None,None,None,None,None,None,None,None,None,None,None,None,None,464.1986129999859,None,,,,,,,,,,,,,,,,222,f,25,2023_Mar_19_1405,RL,2021.2.3,59.98692286297436,
0,0.3,0.225,0,41,41,41,,,,,,,,,,,,,,,None,None,None,None,None,466.06771269999444,None,466.06771269999444,None,466.06771269999444,None,466.06771269999444,None,j,0.5151913000154309,466.06771269999444,None,466.06771269999444,None,466.62394219997805,None,466.62394219997805,None,466.62394219997805,None,466.62394219997805,None,466.62394219997805,None,466.62394219997805,None,466.91432879999047,468.28160380001646,466.91432879999047,468.28160380001646,468.31302840000717,None,468.31302840000717,None,468.31302840000717,None,468.31302840000717,None,468.31302840000717,None,468.31302840000717,None,468.31302840000717,None,468.31302840000717,None,468.31302840000717,None,28,51,49,45,45,43,470.83558469999116,None,4.0,1.6371753999846987,470.83558469999116,None,470.83558469999116,None,470.83558469999116,None,470.83558469999116,None,,None,None,None,None,None,None,None,None,None,None,None,None,None,None,,None,None,None,None,-0.6,2,None,None,None,None,None,None,None,None,None,None,None,None,,None,None,None,None,None,None,None,None,None,None,None,None,None,None,None,None,None,None,472.5283640999696,None,,,,,,,,,,,,,,,,222,f,25,2023_Mar_19_1405,RL,2021.2.3,59.98692286297436,
1,-0.3,-0.225,0,42,42,42,,,,,,,,,,,,,,,None,None,None,None,None,474.32334489998175,None,474.32334489998175,None,474.32334489998175,None,474.32334489998175,None,j,0.4596628000144847,474.32334489998175,None,474.32334489998175,None,474.8237671999959,None,474.8237671999959,None,474.8237671999959,None,474.8237671999959,None,474.8237671999959,None,474.8237671999959,None,475.1199494000175,None,475.1199494000175,None,477.10149919998366,None,477.10149919998366,None,477.10149919998366,None,477.10149919998366,None,477.10149919998366,None,477.10149919998366,None,477.10149919998366,None,477.10149919998366,None,477.10149919998366,None,24,45,52,49,49,62,None,None,None,None,None,None,None,None,None,None,None,None,,None,None,None,None,None,None,None,None,None,None,None,None,None,None,,None,None,None,None,0.2,1,479.6532197999768,None,479.6532197999768,None,479.6532197999768,None,479.6532197999768,None,479.6532197999768,None,479.6532197999768,None,55,479.6532197999768,None,479.6532197999768,None,0.010663280030712485,None,5.088541666666667,2.28195480001159,483.07269729999825,None,483.07269729999825,None,483.07269729999825,None,483.07269729999825,None,None,None,485.3755171999801,None,-0.036458333333333336,-0.2630208333333333,1,0,0,3.3806019999901764,tijiao,,,,,,,,,222,f,25,2023_Mar_19_1405,RL,2021.2.3,59.98692286297436,
0,0.3,0.225,0,43,43,43,,,,,,,,,,,,,,,None,None,None,None,None,487.3497907000128,None,487.3497907000128,None,487.3497907000128,None,487.3497907000128,None,j,1.3137305999989621,487.3497907000128,None,487.3497907000128,None,488.7026806999929,None,488.7026806999929,None,488.7026806999929,None,488.7026806999929,None,488.7026806999929,None,488.7026806999929,None,488.9965180999716,490.9143468000111,488.9965180999716,490.9143468000111,490.94908379996195,None,490.94908379996195,None,490.94908379996195,None,490.94908379996195,None,490.94908379996195,None,490.94908379996195,None,490.94908379996195,None,490.94908379996195,None,490.94908379996195,None,23,54,48,43,43,66,None,None,None,None,None,None,None,None,None,None,None,None,,None,None,None,None,None,None,None,None,None,None,None,None,None,None,,None,None,None,None,0.6,1,493.4937071999884,None,493.4937071999884,None,493.4937071999884,None,493.4937071999884,None,493.4937071999884,None,493.4937071999884,None,66,493.4937071999884,None,493.4937071999884,None,0.01302268001018092,None,5.0625,2.631092499999795,497.91195629996946,None,497.91195629996946,None,497.91195629996946,None,497.91195629996946,None,None,None,500.57245099998545,None,-0.024739583333333332,-0.2799479166666667,1,0,0,4.384237699967343,tijiao,,,,,,,,,222,f,25,2023_Mar_19_1405,RL,2021.2.3,59.98692286297436,
1,-0.3,-0.225,0,44,44,44,,,,,,,,,,,,,,,None,None,None,None,None,502.25922629999695,None,502.25922629999695,None,502.25922629999695,None,502.25922629999695,None,j,0.5741657000035048,502.25922629999695,None,502.25922629999695,None,502.87956739997026,None,502.87956739997026,None,502.87956739997026,None,502.87956739997026,None,502.87956739997026,None,502.87956739997026,None,503.17278399999486,504.9742392000044,503.17278399999486,504.9742392000044,505.00688539998373,None,505.00688539998373,None,505.00688539998373,None,505.00688539998373,None,505.00688539998373,None,505.00688539998373,None,505.00688539998373,None,505.00688539998373,None,505.00688539998373,None,25,55,51,48,48,57,507.5312095999834,None,4.0,1.8317661000182852,507.5312095999834,None,507.5312095999834,None,507.5312095999834,None,507.5312095999834,None,,None,None,None,None,None,None,None,None,None,None,None,None,None,None,,None,None,None,None,0.2,2,None,None,None,None,None,None,None,None,None,None,None,None,,None,None,None,None,None,None,None,None,None,None,None,None,None,None,None,None,None,None,509.4126824999694,None,,,,,,,,,,,,,,,,222,f,25,2023_Mar_19_1405,RL,2021.2.3,59.98692286297436,
0,0.3,0.225,0,45,45,45,,,,,,,,,,,,,,,None,None,None,None,None,511.16552290000254,None,511.16552290000254,None,511.16552290000254,None,511.16552290000254,None,j,1.2076972999493591,511.16552290000254,None,511.16552290000254,None,512.4239451999892,None,512.4239451999892,None,512.4239451999892,None,512.4239451999892,None,512.4239451999892,None,512.4239451999892,None,512.7128441999666,None,512.7128441999666,None,514.6957118000137,None,514.6957118000137,None,514.6957118000137,None,514.6957118000137,None,514.6957118000137,None,514.6957118000137,None,514.6957118000137,None,514.6957118000137,None,514.6957118000137,None,24,53,51,42,42,63,None,None,None,None,None,None,None,None,None,None,None,None,77,517.2305252999649,None,517.2305252999649,None,517.2305252999649,None,517.2305252999649,None,517.2305252999649,None,517.2305252999649,None,517.2305252999649,None,77,517.2305252999649,None,0.009546610002871603,None,-0.6,0,None,None,None,None,None,None,None,None,None,None,None,None,,None,None,None,None,None,None,5.0234375,1.0779157999786548,521.076446299965,None,521.076446299965,None,521.076446299965,None,521.076446299965,None,None,None,522.1686100999941,None,,,,,,,,0.01171875,-0.2955729166666667,1,0,0,3.7965465000015683,tijiao,,222,f,25,2023_Mar_19_1405,RL,2021.2.3,59.98692286297436,
1,-0.3,-0.225,0,46,46,46,,,,,,,,,,,,,,,None,None,None,None,None,523.9405991999665,None,523.9405991999665,None,523.9405991999665,None,523.9405991999665,None,j,0.5026498000370339,523.9405991999665,None,523.9405991999665,None,524.4927408999647,None,524.4927408999647,None,524.4927408999647,None,524.4927408999647,None,524.4927408999647,None,524.4927408999647,None,524.7880356999813,None,524.7880356999813,None,526.3057733000023,None,526.3057733000023,None,526.3057733000023,None,526.3057733000023,None,526.3057733000023,None,526.3057733000023,None,526.3057733000023,None,526.3057733000023,None,526.3057733000023,None,24,45,50,34,34,63,528.8202941999771,None,4.0,1.5230761999846436,528.8202941999771,None,528.8202941999771,None,528.8202941999771,None,528.8202941999771,None,,None,None,None,None,None,None,None,None,None,None,None,None,None,None,,None,None,None,None,0.2,2,None,None,None,None,None,None,None,None,None,None,None,None,,None,None,None,None,None,None,None,None,None,None,None,None,None,None,None,None,None,None,530.4074212000123,None,,,,,,,,,,,,,,,,222,f,25,2023_Mar_19_1405,RL,2021.2.3,59.98692286297436,
0,0.3,0.225,0,47,47,47,,,,,,,,,,,,,,,None,None,None,None,None,531.9964938999619,None,531.9964938999619,None,531.9964938999619,None,531.9964938999619,None,i,0.5068067000247538,531.9964938999619,None,531.9964938999619,None,532.5490469000069,None,532.5490469000069,None,532.5490469000069,None,532.5490469000069,None,532.5490469000069,None,532.5490469000069,None,532.8435279999976,None,532.8435279999976,None,534.1278530000127,None,534.1278530000127,None,534.1278530000127,None,534.1278530000127,None,534.1278530000127,None,534.1278530000127,None,534.1278530000127,None,534.1278530000127,None,534.1278530000127,None,32,47,49,34,49,69,536.6472353999852,None,4.0,1.0690832999534905,536.6472353999852,None,536.6472353999852,None,536.6472353999852,None,536.6472353999852,None,,None,None,None,None,None,None,None,None,None,None,None,None,None,None,,None,None,None,None,-0.6,3,None,None,None,None,None,None,None,None,None,None,None,None,,None,None,None,None,None,None,None,None,None,None,None,None,None,None,None,None,None,None,537.7645441999775,None,,,,,,,,,,,,,,,,222,f,25,2023_Mar_19_1405,RL,2021.2.3,59.98692286297436,
1,-0.3,-0.225,0,48,48,48,,,,,,,,,,,,,,,None,None,None,None,None,539.7188934999867,None,539.7188934999867,None,539.7188934999867,None,539.7188934999867,None,None,,539.7188934999867,None,539.7188934999867,None,None,None,None,None,None,None,None,None,None,None,None,None,None,None,None,None,None,None,None,None,None,None,None,None,None,None,None,None,None,None,None,None,None,None,26,44,49,36,0,**,None,None,None,None,None,None,None,None,None,None,None,None,,None,None,None,None,None,None,None,None,None,None,None,None,None,None,,None,None,None,None,0.6,3,None,None,None,None,None,None,None,None,None,None,None,None,,None,None,None,None,None,None,None,None,None,None,None,None,None,None,None,None,541.4516143999645,None,547.4537654999876,None,,,,,,,,,,,,,,,,222,f,25,2023_Mar_19_1405,RL,2021.2.3,59.98692286297436,
0,0.3,0.225,0,49,49,49,,,,,,,,,,,,,,,None,None,None,None,None,549.0253931999905,None,549.0253931999905,None,549.0253931999905,None,549.0253931999905,None,f,0.4284199000103399,549.0253931999905,None,549.0253931999905,None,549.4954463000176,None,549.4954463000176,None,549.4954463000176,None,549.4954463000176,None,549.4954463000176,None,549.4954463000176,None,549.78851079999,None,549.78851079999,None,550.8041669999948,None,550.8041669999948,None,550.8041669999948,None,550.8041669999948,None,550.8041669999948,None,550.8041669999948,None,550.8041669999948,None,550.8041669999948,None,550.8041669999948,None,24,45,55,37,45,58,None,None,None,None,None,None,None,None,None,None,None,None,,None,None,None,None,None,None,None,None,None,None,None,None,None,None,,None,None,None,None,-0.2,1,553.3463958000066,None,553.3463958000066,None,553.3463958000066,None,553.3463958000066,None,553.3463958000066,None,553.3463958000066,None,66,553.3463958000066,None,553.3463958000066,None,0.0017906100256368518,None,5.0234375,1.8956113000167534,556.3335673999973,None,556.3335673999973,None,556.3335673999973,None,556.3335673999973,None,None,None,558.2438028000179,None,-0.0625,-0.2942708333333333,1,0,0,2.955111199989915,tijiao,,,,,,,,,222,f,25,2023_Mar_19_1405,RL,2021.2.3,59.98692286297436,
1,-0.3,-0.225,0,50,50,50,,,,,,,,,,,,,,,None,None,None,None,None,560.0829804000095,None,560.0829804000095,None,560.0829804000095,None,560.0829804000095,None,r,0.7006675000302494,560.0829804000095,None,560.0829804000095,None,560.8360513999942,None,560.8360513999942,None,560.8360513999942,None,560.8360513999942,None,560.8360513999942,None,560.8360513999942,None,561.1298410000163,None,561.1298410000163,None,562.4111411999911,None,562.4111411999911,None,562.4111411999911,None,562.4111411999911,None,562.4111411999911,None,562.4111411999911,None,562.4111411999911,None,562.4111411999911,None,562.4111411999911,None,19,46,50,34,19,56,564.9303289999953,None,4.0,1.1354640999925323,564.9303289999953,None,564.9303289999953,None,564.9303289999953,None,564.9303289999953,None,,None,None,None,None,None,None,None,None,None,None,None,None,None,None,,None,None,None,None,0.2,3,None,None,None,None,None,None,None,None,None,None,None,None,,None,None,None,None,None,None,None,None,None,None,None,None,None,None,None,None,None,None,566.1182253999868,None,,,,,,,,,,,,,,,,222,f,25,2023_Mar_19_1405,RL,2021.2.3,59.98692286297436,
0,0.3,0.225,0,51,51,51,,,,,,,,,,,,,,,None,None,None,None,None,567.7544136999641,None,567.7544136999641,None,567.7544136999641,None,567.7544136999641,None,i,0.3805886000045575,567.7544136999641,None,567.7544136999641,None,568.1745836000191,None,568.1745836000191,None,568.1745836000191,None,568.1745836000191,None,568.1745836000191,None,568.1745836000191,None,568.468089699978,None,568.468089699978,None,569.4316780999652,None,569.4316780999652,None,569.4316780999652,None,569.4316780999652,None,569.4316780999652,None,569.4316780999652,None,569.4316780999652,None,569.4316780999652,None,569.4316780999652,None,21,44,48,35,48,58,None,None,None,None,None,None,None,None,None,None,None,None,66,571.9615316999843,None,571.9615316999843,None,571.9615316999843,None,571.9615316999843,None,571.9615316999843,None,571.9615316999843,None,571.9615316999843,None,66,571.9615316999843,None,6.83399848639965e-05,None,-0.2,0,None,None,None,None,None,None,None,None,None,None,None,None,,None,None,None,None,None,None,4.984375,1.7133655999787152,575.2603291000123,None,575.2603291000123,None,575.2603291000123,None,575.2603291000123,None,None,None,577.0062496999744,None,,,,,,,,-0.08984375,-0.31640625,1,0,0,3.253074700012803,tijiao,,222,f,25,2023_Mar_19_1405,RL,2021.2.3,59.98692286297436,
1,-0.3,-0.225,0,52,52,52,,,,,,,,,,,,,,,None,None,None,None,None,578.9464676000061,None,578.9464676000061,None,578.9464676000061,None,578.9464676000061,None,f,0.5082125999615528,578.9464676000061,None,578.9464676000061,None,579.4995888000121,None,579.4995888000121,None,579.4995888000121,None,579.4995888000121,None,579.4995888000121,None,579.4995888000121,None,579.7928546000039,581.3269938000012,579.7928546000039,581.3269938000012,581.3588481000043,None,581.3588481000043,None,581.3588481000043,None,581.3588481000043,None,581.3588481000043,None,581.3588481000043,None,581.3588481000043,None,581.3588481000043,None,581.3588481000043,None,24,49,39,36,49,66,None,None,None,None,None,None,None,None,None,None,None,None,77,583.8952464999747,None,583.8952464999747,None,583.8952464999747,None,583.8952464999747,None,583.8952464999747,None,583.8952464999747,None,583.8952464999747,None,77,583.8952464999747,None,0.008554210013244301,None,0.2,0,None,None,None,None,None,None,None,None,None,None,None,None,,None,None,None,None,None,None,5.036458333333333,1.7124681999557652,586.8203491999884,None,586.8203491999884,None,586.8203491999884,None,586.8203491999884,None,None,None,588.5482657999964,None,,,,,,,,-0.028645833333333332,-0.2994791666666667,1,0,0,2.878515700052958,tijiao,,222,f,25,2023_Mar_19_1405,RL,2021.2.3,59.98692286297436,
0,0.3,0.225,0,53,53,53,,,,,,,,,,,,,,,None,None,None,None,None,590.3044335999875,None,590.3044335999875,None,590.3044335999875,None,590.3044335999875,None,i,0.4302902999916114,590.3044335999875,None,590.3044335999875,None,590.7725257999846,None,590.7725257999846,None,590.7725257999846,None,590.7725257999846,None,590.7725257999846,None,590.7725257999846,None,591.0674357999815,None,591.0674357999815,None,592.8529446999892,None,592.8529446999892,None,592.8529446999892,None,592.8529446999892,None,592.8529446999892,None,592.8529446999892,None,592.8529446999892,None,592.8529446999892,None,592.8529446999892,None,16,52,44,50,44,58,None,None,None,None,None,None,None,None,None,None,None,None,77,595.3842741000117,None,595.3842741000117,None,595.3842741000117,None,595.3842741000117,None,595.3842741000117,None,595.3842741000117,None,595.3842741000117,None,77,595.3842741000117,None,0.014893610030412674,None,-0.6,0,None,None,None,None,None,None,None,None,None,None,None,None,,None,None,None,None,None,None,5.0625,0.9753388999961317,598.349477300013,None,598.349477300013,None,598.349477300013,None,598.349477300013,None,None,None,599.344022299978,None,,,,,,,,0.016927083333333332,-0.2591145833333333,1,0,0,2.917654399992898,tijiao,,222,f,25,2023_Mar_19_1405,RL,2021.2.3,59.98692286297436,
1,-0.3,-0.225,0,54,54,54,,,,,,,,,,,,,,,None,None,None,None,None,601.0770199999679,None,601.0770199999679,None,601.0770199999679,None,601.0770199999679,None,i,1.1877823999966495,601.0770199999679,None,601.0770199999679,None,602.313616200001,None,602.313616200001,None,602.313616200001,None,602.313616200001,None,602.313616200001,None,602.313616200001,None,602.6087820999674,604.2096105999663,602.6087820999674,604.2096105999663,604.2406943999813,None,604.2406943999813,None,604.2406943999813,None,604.2406943999813,None,604.2406943999813,None,604.2406943999813,None,604.2406943999813,None,604.2406943999813,None,604.2406943999813,None,17,36,49,44,49,34,606.7650171999703,None,4.0,0.9991091000265442,606.7650171999703,None,606.7650171999703,None,606.7650171999703,None,606.7650171999703,None,,None,None,None,None,None,None,None,None,None,None,None,None,None,None,,None,None,None,None,0.2,3,None,None,None,None,None,None,None,None,None,None,None,None,,None,None,None,None,None,None,None,None,None,None,None,None,None,None,None,None,None,None,607.8146053999662,None,,,,,,,,,,,,,,,,222,f,25,2023_Mar_19_1405,RL,2021.2.3,59.98692286297436,
0,0.3,0.225,0,55,55,55,,,,,,,,,,,,,,,None,None,None,None,None,609.7509493000107,None,609.7509493000107,None,609.7509493000107,None,609.7509493000107,None,j,0.47395730001153424,609.7509493000107,None,609.7509493000107,None,610.2702578000026,None,610.2702578000026,None,610.2702578000026,None,610.2702578000026,None,610.2702578000026,None,610.2702578000026,None,610.5639972999925,None,610.5639972999925,None,611.9284429000109,None,611.9284429000109,None,611.9284429000109,None,611.9284429000109,None,611.9284429000109,None,611.9284429000109,None,611.9284429000109,None,611.9284429000109,None,611.9284429000109,None,12,41,50,47,47,61,None,None,None,None,None,None,None,None,None,None,None,None,77,614.4584854000132,None,614.4584854000132,None,614.4584854000132,None,614.4584854000132,None,614.4584854000132,None,614.4584854000132,None,614.4584854000132,None,77,614.4584854000132,None,0.01560820994200185,None,0.6,0,None,None,None,None,None,None,None,None,None,None,None,None,,None,None,None,None,None,None,4.984375,1.632566999993287,617.5563337999629,None,617.5563337999629,None,617.5563337999629,None,617.5563337999629,None,None,None,619.2026299000136,None,,,,,,,,0.0078125,-0.23828125,1,0,0,2.7515497999847867,tijiao,,222,f,25,2023_Mar_19_1405,RL,2021.2.3,59.98692286297436,
1,-0.3,-0.225,0,56,56,56,,,,,,,,,,,,,,,None,None,None,None,None,620.7748860999709,None,620.7748860999709,None,620.7748860999709,None,620.7748860999709,None,j,0.5602847000118345,620.7748860999709,None,620.7748860999709,None,621.3792262999923,None,621.3792262999923,None,621.3792262999923,None,621.3792262999923,None,621.3792262999923,None,621.3792262999923,None,621.6550796999945,623.5563340999652,621.6550796999945,623.5563340999652,623.5876035999972,None,623.5876035999972,None,623.5876035999972,None,623.5876035999972,None,623.5876035999972,None,623.5876035999972,None,623.5876035999972,None,623.5876035999972,None,623.5876035999972,None,10,43,53,51,51,55,None,None,None,None,None,None,None,None,None,None,None,None,,None,None,None,None,None,None,None,None,None,None,None,None,None,None,,None,None,None,None,-0.6,1,626.1378328999854,None,626.1378328999854,None,626.1378328999854,None,626.1378328999854,None,626.1378328999854,None,626.1378328999854,None,33,626.1378328999854,None,626.1378328999854,None,0.01107288000639528,None,4.997395833333333,2.7727501000044867,629.7329934000154,None,629.7329934000154,None,629.7329934000154,None,629.7329934000154,None,None,None,632.5351133999648,None,-0.06640625,-0.296875,1,0,0,3.564259000006132,tijiao,,,,,,,,,222,f,25,2023_Mar_19_1405,RL,2021.2.3,59.98692286297436,
0,0.3,0.225,0,57,57,57,,,,,,,,,,,,,,,None,None,None,None,None,634.384842999978,None,634.384842999978,None,634.384842999978,None,634.384842999978,None,i,0.7405729999882169,634.384842999978,None,634.384842999978,None,635.1713951000129,None,635.1713951000129,None,635.1713951000129,None,635.1713951000129,None,635.1713951000129,None,635.1713951000129,None,635.4646379000042,636.3822747999802,635.4646379000042,636.3822747999802,636.4162915999768,None,636.4162915999768,None,636.4162915999768,None,636.4162915999768,None,636.4162915999768,None,636.4162915999768,None,636.4162915999768,None,636.4162915999768,None,636.4162915999768,None,16,45,59,56,59,68,638.9354169999715,None,4.0,2.034317299956456,638.9354169999715,None,638.9354169999715,None,638.9354169999715,None,638.9354169999715,None,,None,None,None,None,None,None,None,None,None,None,None,None,None,None,,None,None,None,None,-0.2,2,None,None,None,None,None,None,None,None,None,None,None,None,,None,None,None,None,None,None,None,None,None,None,None,None,None,None,None,None,None,None,641.0216123000137,None,,,,,,,,,,,,,,,,222,f,25,2023_Mar_19_1405,RL,2021.2.3,59.98692286297436,
1,-0.3,-0.225,0,58,58,58,,,,,,,,,,,,,,,None,None,None,None,None,642.590096400003,None,642.590096400003,None,642.590096400003,None,642.590096400003,None,j,0.47500059998128563,642.590096400003,None,642.590096400003,None,643.1100940000033,None,643.1100940000033,None,643.1100940000033,None,643.1100940000033,None,643.1100940000033,None,643.1100940000033,None,643.4035771999625,644.4208614999661,643.4035771999625,644.4208614999661,644.4524384000106,None,644.4524384000106,None,644.4524384000106,None,644.4524384000106,None,644.4524384000106,None,644.4524384000106,None,644.4524384000106,None,644.4524384000106,None,644.4524384000106,None,7,39,69,56,56,68,646.974433699972,None,4.0,1.300603299983777,646.974433699972,None,646.974433699972,None,646.974433699972,None,646.974433699972,None,,None,None,None,None,None,None,None,None,None,None,None,None,None,None,,None,None,None,None,-0.2,2,None,None,None,None,None,None,None,None,None,None,None,None,,None,None,None,None,None,None,None,None,None,None,None,None,None,None,None,None,None,None,648.3238253999734,None,,,,,,,,,,,,,,,,222,f,25,2023_Mar_19_1405,RL,2021.2.3,59.98692286297436,
0,0.3,0.225,0,59,59,59,,,,,,,,,,,,,,,None,None,None,None,None,650.1961073999992,None,650.1961073999992,None,650.1961073999992,None,650.1961073999992,None,i,0.4491845999727957,650.1961073999992,None,650.1961073999992,None,650.7022359999828,None,650.7022359999828,None,650.7022359999828,None,650.7022359999828,None,650.7022359999828,None,650.7022359999828,None,650.9919849999715,None,650.9919849999715,None,652.7434816000168,None,652.7434816000168,None,652.7434816000168,None,652.7434816000168,None,652.7434816000168,None,652.7434816000168,None,652.7434816000168,None,652.7434816000168,None,652.7434816000168,None,16,44,64,66,64,54,655.2655079999822,None,4.0,0.8818393999827094,655.2655079999822,None,655.2655079999822,None,655.2655079999822,None,655.2655079999822,None,,None,None,None,None,None,None,None,None,None,None,None,None,None,None,,None,None,None,None,-0.6,2,None,None,None,None,None,None,None,None,None,None,None,None,,None,None,None,None,None,None,None,None,None,None,None,None,None,None,None,None,None,None,656.1982619999908,None,,,,,,,,,,,,,,,,222,f,25,2023_Mar_19_1405,RL,2021.2.3,59.98692286297436,
1,-0.3,-0.225,0,60,60,60,,,,,,,,,,,,,,,None,None,None,None,None,657.8664318000083,None,657.8664318000083,None,657.8664318000083,None,657.8664318000083,None,i,0.3990794999990612,657.8664318000083,None,657.8664318000083,None,658.3025308999931,None,658.3025308999931,None,658.3025308999931,None,658.3025308999931,None,658.3025308999931,None,658.3025308999931,None,658.5975712999934,None,658.5975712999934,None,660.1012386999791,None,660.1012386999791,None,660.1012386999791,None,660.1012386999791,None,660.1012386999791,None,660.1012386999791,None,660.1012386999791,None,660.1012386999791,None,660.1012386999791,None,-1,55,56,60,56,69,662.6183841999737,None,4.0,1.3685407000011764,662.6183841999737,None,662.6183841999737,None,662.6183841999737,None,662.6183841999737,None,,None,None,None,None,None,None,None,None,None,None,None,None,None,None,,None,None,None,None,-0.2,2,None,None,None,None,None,None,None,None,None,None,None,None,,None,None,None,None,None,None,None,None,None,None,None,None,None,None,None,None,None,None,664.0367225999944,None,,,,,,,,,,,,,,,,222,f,25,2023_Mar_19_1405,RL,2021.2.3,59.98692286297436,
0,0.3,0.225,0,61,61,61,,,,,,,,,,,,,,,None,None,None,None,None,665.8731215000153,None,665.8731215000153,None,665.8731215000153,None,665.8731215000153,None,i,0.6623656000010669,665.8731215000153,None,665.8731215000153,None,666.5767657000106,None,666.5767657000106,None,666.5767657000106,None,666.5767657000106,None,666.5767657000106,None,666.5767657000106,None,666.8697662999621,None,666.8697662999621,None,668.7656588999671,None,668.7656588999671,None,668.7656588999671,None,668.7656588999671,None,668.7656588999671,None,668.7656588999671,None,668.7656588999671,None,668.7656588999671,None,668.7656588999671,None,8,49,55,58,55,71,None,None,None,None,None,None,None,None,None,None,None,None,77,671.3070058000158,None,671.3070058000158,None,671.3070058000158,None,671.3070058000158,None,671.3070058000158,None,671.3070058000158,None,671.3070058000158,None,77,671.3070058000158,None,0.00801650999346748,None,-0.2,0,None,None,None,None,None,None,None,None,None,None,None,None,,None,None,None,None,None,None,4.828125,2.945998099981807,674.4038989999681,None,674.4038989999681,None,674.4038989999681,None,674.4038989999681,None,None,None,677.3787117999746,None,,,,,,,,0.024739583333333332,-0.2799479166666667,1,0,0,3.0461536000366323,tijiao,,222,f,25,2023_Mar_19_1405,RL,2021.2.3,59.98692286297436,
1,-0.3,-0.225,0,62,62,62,,,,,,,,,,,,,,,None,None,None,None,None,678.9150569000049,None,678.9150569000049,None,678.9150569000049,None,678.9150569000049,None,j,0.4603765999781899,678.9150569000049,None,678.9150569000049,None,679.4158289000043,None,679.4158289000043,None,679.4158289000043,None,679.4158289000043,None,679.4158289000043,None,679.4158289000043,None,679.7119353999733,681.1462239999673,679.7119353999733,681.1462239999673,681.1757251999807,None,681.1757251999807,None,681.1757251999807,None,681.1757251999807,None,681.1757251999807,None,681.1757251999807,None,681.1757251999807,None,681.1757251999807,None,681.1757251999807,None,5,61,61,56,56,73,683.7014488999848,None,4.0,1.7351249000057578,683.7014488999848,None,683.7014488999848,None,683.7014488999848,None,683.7014488999848,None,,None,None,None,None,None,None,None,None,None,None,None,None,None,None,,None,None,None,None,0.2,2,None,None,None,None,None,None,None,None,None,None,None,None,,None,None,None,None,None,None,None,None,None,None,None,None,None,None,None,None,None,None,685.4901572999661,None,,,,,,,,,,,,,,,,222,f,25,2023_Mar_19_1405,RL,2021.2.3,59.98692286297436,
0,0.3,0.225,0,63,63,63,,,,,,,,,,,,,,,None,None,None,None,None,687.00436359999,None,687.00436359999,None,687.00436359999,None,687.00436359999,None,f,0.34127119998447597,687.00436359999,None,687.00436359999,None,687.3885996000026,None,687.3885996000026,None,687.3885996000026,None,687.3885996000026,None,687.3885996000026,None,687.3885996000026,None,687.6843639999861,None,687.6843639999861,None,689.6348863000167,None,689.6348863000167,None,689.6348863000167,None,689.6348863000167,None,689.6348863000167,None,689.6348863000167,None,689.6348863000167,None,689.6348863000167,None,689.6348863000167,None,5,52,58,65,52,64,None,None,None,None,None,None,None,None,None,None,None,None,66,692.1624951999984,None,692.1624951999984,None,692.1624951999984,None,692.1624951999984,None,692.1624951999984,None,692.1624951999984,None,692.1624951999984,None,66,692.1624951999984,None,0.016266410006210208,None,0.6,0,None,None,None,None,None,None,None,None,None,None,None,None,,None,None,None,None,None,None,5.8828125,1.3162214999902062,695.4936292999773,None,695.4936292999773,None,695.4936292999773,None,695.4936292999773,None,None,None,696.8233925999957,None,,,,,,,,0.010416666666666666,-0.30859375,1,0,0,3.285890900006052,tijiao,,222,f,25,2023_Mar_19_1405,RL,2021.2.3,59.98692286297436,
1,-0.3,-0.225,0,64,64,64,,,,,,,,,,,,,,,None,None,None,None,None,698.6625184000004,None,698.6625184000004,None,698.6625184000004,None,698.6625184000004,None,r,0.5929877999587916,698.6625184000004,None,698.6625184000004,None,699.297972899978,None,699.297972899978,None,699.297972899978,None,699.297972899978,None,699.297972899978,None,699.297972899978,None,699.5924843999674,None,699.5924843999674,None,701.023555999971,None,701.023555999971,None,701.023555999971,None,701.023555999971,None,701.023555999971,None,701.023555999971,None,701.023555999971,None,701.023555999971,None,701.023555999971,None,11,58,53,70,11,62,None,None,None,None,None,None,None,None,None,None,None,None,100,703.5623449999839,None,703.5623449999839,None,703.5623449999839,None,703.5623449999839,None,703.5623449999839,None,703.5623449999839,None,703.5623449999839,None,100,703.5623449999839,None,0.007891510031186044,None,-0.6,0,None,None,None,None,None,None,None,None,None,None,None,None,,None,None,None,None,None,None,5.088541666666667,1.899373399966862,706.9689709999948,None,706.9689709999948,None,706.9689709999948,None,706.9689709999948,None,None,None,708.8818056000164,None,,,,,,,,-0.05859375,-0.2669270833333333,1,0,0,3.361483299988322,tijiao,,222,f,25,2023_Mar_19_1405,RL,2021.2.3,59.98692286297436,
0,0.3,0.225,0,65,65,65,,,,,,,,,,,,,,,None,None,None,None,None,710.8713626000099,None,710.8713626000099,None,710.8713626000099,None,710.8713626000099,None,r,0.9441765999654308,710.8713626000099,None,710.8713626000099,None,711.8571825000108,None,711.8571825000108,None,711.8571825000108,None,711.8571825000108,None,711.8571825000108,None,711.8571825000108,None,712.151268000016,None,712.151268000016,None,713.3329157999833,None,713.3329157999833,None,713.3329157999833,None,713.3329157999833,None,713.3329157999833,None,713.3329157999833,None,713.3329157999833,None,713.3329157999833,None,713.3329157999833,None,6,58,53,60,6,64,715.8494434999884,None,4.0,1.6574852000339888,715.8494434999884,None,715.8494434999884,None,715.8494434999884,None,715.8494434999884,None,,None,None,None,None,None,None,None,None,None,None,None,None,None,None,,None,None,None,None,0.2,3,None,None,None,None,None,None,None,None,None,None,None,None,,None,None,None,None,None,None,None,None,None,None,None,None,None,None,None,None,None,None,717.5632974000182,None,,,,,,,,,,,,,,,,222,f,25,2023_Mar_19_1405,RL,2021.2.3,59.98692286297436,
1,-0.3,-0.225,0,66,66,66,,,,,,,,,,,,,,,None,None,None,None,None,719.2100223000161,None,719.2100223000161,None,719.2100223000161,None,719.2100223000161,None,i,0.5356215999927372,719.2100223000161,None,719.2100223000161,None,719.7928736999747,None,719.7928736999747,None,719.7928736999747,None,719.7928736999747,None,719.7928736999747,None,719.7928736999747,None,720.0899794999859,None,720.0899794999859,None,721.3865781999775,None,721.3865781999775,None,721.3865781999775,None,721.3865781999775,None,721.3865781999775,None,721.3865781999775,None,721.3865781999775,None,721.3865781999775,None,721.3865781999775,None,8,58,61,55,61,59,None,None,None,None,None,None,None,None,None,None,None,None,,None,None,None,None,None,None,None,None,None,None,None,None,None,None,,None,None,None,None,0.2,1,723.9386406000121,None,723.9386406000121,None,723.9386406000121,None,723.9386406000121,None,723.9386406000121,None,723.9386406000121,None,77,723.9386406000121,None,723.9386406000121,None,0.01235287997405976,None,5.049479166666667,1.852269300026819,727.1679535000003,None,727.1679535000003,None,727.1679535000003,None,727.1679535000003,None,None,None,729.0450575000141,None,0.033854166666666664,-0.2942708333333333,1,0,0,3.199188900005538,tijiao,,,,,,,,,222,f,25,2023_Mar_19_1405,RL,2021.2.3,59.98692286297436,
0,0.3,0.225,0,67,67,67,,,,,,,,,,,,,,,None,None,None,None,None,730.8516637000139,None,730.8516637000139,None,730.8516637000139,None,730.8516637000139,None,j,0.4452602000092156,730.8516637000139,None,730.8516637000139,None,731.3375293000136,None,731.3375293000136,None,731.3375293000136,None,731.3375293000136,None,731.3375293000136,None,731.3375293000136,None,731.6315800999873,732.6823962999624,731.6315800999873,732.6823962999624,732.7146798999747,None,732.7146798999747,None,732.7146798999747,None,732.7146798999747,None,732.7146798999747,None,732.7146798999747,None,732.7146798999747,None,732.7146798999747,None,732.7146798999747,None,9,53,62,59,59,62,None,None,None,None,None,None,None,None,None,None,None,None,66,735.2420061000157,None,735.2420061000157,None,735.2420061000157,None,735.2420061000157,None,735.2420061000157,None,735.2420061000157,None,735.2420061000157,None,66,735.2420061000157,None,0.016247410036157817,None,0.6,0,None,None,None,None,None,None,None,None,None,None,None,None,,None,None,None,None,None,None,5.934895833333333,1.2600159000139683,739.3121555999969,None,739.3121555999969,None,739.3121555999969,None,739.3121555999969,None,None,None,740.5872208999936,None,,,,,,,,-0.044270833333333336,-0.2747395833333333,1,0,0,4.019865399983246,tijiao,,222,f,25,2023_Mar_19_1405,RL,2021.2.3,59.98692286297436,
1,-0.3,-0.225,0,68,68,68,,,,,,,,,,,,,,,None,None,None,None,None,742.1593412999646,None,742.1593412999646,None,742.1593412999646,None,742.1593412999646,None,j,0.38743279996560887,742.1593412999646,None,742.1593412999646,None,742.5940281999647,None,742.5940281999647,None,742.5940281999647,None,742.5940281999647,None,742.5940281999647,None,742.5940281999647,None,742.8895319000003,744.7572195999674,742.8895319000003,744.7572195999674,744.7890503999661,None,744.7890503999661,None,744.7890503999661,None,744.7890503999661,None,744.7890503999661,None,744.7890503999661,None,744.7890503999661,None,744.7890503999661,None,744.7890503999661,None,13,54,55,57,57,59,747.3133928999887,None,4.0,1.6156902000075206,747.3133928999887,None,747.3133928999887,None,747.3133928999887,None,747.3133928999887,None,,None,None,None,None,None,None,None,None,None,None,None,None,None,None,,None,None,None,None,-0.2,3,None,None,None,None,None,None,None,None,None,None,None,None,,None,None,None,None,None,None,None,None,None,None,None,None,None,None,None,None,None,None,748.9926898999838,None,,,,,,,,,,,,,,,,222,f,25,2023_Mar_19_1405,RL,2021.2.3,59.98692286297436,
0,0.3,0.225,0,69,69,69,,,,,,,,,,,,,,,None,None,None,None,None,750.8156684999703,None,750.8156684999703,None,750.8156684999703,None,750.8156684999703,None,i,0.45112110004993156,750.8156684999703,None,750.8156684999703,None,751.3160404000082,None,751.3160404000082,None,751.3160404000082,None,751.3160404000082,None,751.3160404000082,None,751.3160404000082,None,751.6118869999773,752.7961459999788,751.6118869999773,752.7961459999788,752.8269300999818,None,752.8269300999818,None,752.8269300999818,None,752.8269300999818,None,752.8269300999818,None,752.8269300999818,None,752.8269300999818,None,752.8269300999818,None,752.8269300999818,None,17,53,65,60,65,62,None,None,None,None,None,None,None,None,None,None,None,None,,None,None,None,None,None,None,None,None,None,None,None,None,None,None,,None,None,None,None,-0.2,1,755.3728012999636,None,755.3728012999636,None,755.3728012999636,None,755.3728012999636,None,755.3728012999636,None,755.3728012999636,None,66,755.3728012999636,None,755.3728012999636,None,0.0009154099971055984,None,5.140625,1.5981193000334315,758.7551704999642,None,758.7551704999642,None,758.7551704999642,None,758.7551704999642,None,None,None,760.3675383999944,None,-0.045572916666666664,-0.2734375,1,0,0,3.3536975999595597,tijiao,,,,,,,,,222,f,25,2023_Mar_19_1405,RL,2021.2.3,59.98692286297436,
1,-0.3,-0.225,0,70,70,70,,,,,,,,,,,,,,,None,None,None,None,None,762.0401061999728,None,762.0401061999728,None,762.0401061999728,None,762.0401061999728,None,i,0.5468435999937356,762.0401061999728,None,762.0401061999728,None,762.6272147999844,None,762.6272147999844,None,762.6272147999844,None,762.6272147999844,None,762.6272147999844,None,762.6272147999844,None,762.9197294000187,None,762.9197294000187,None,764.25276329997,None,764.25276329997,None,764.25276329997,None,764.25276329997,None,764.25276329997,None,764.25276329997,None,764.25276329997,None,764.25276329997,None,764.25276329997,None,23,60,60,55,60,70,None,None,None,None,None,None,None,None,None,None,None,None,77,766.7810585999978,None,766.7810585999978,None,766.7810585999978,None,766.7810585999978,None,766.7810585999978,None,766.7810585999978,None,766.7810585999978,None,77,766.7810585999978,None,0.016006010002456605,None,-0.6,0,None,None,None,None,None,None,None,None,None,None,None,None,,None,None,None,None,None,None,4.984375,1.2977126999758184,770.2645704000024,None,770.2645704000024,None,770.2645704000024,None,770.2645704000024,None,None,None,771.5753457999672,None,,,,,,,,-0.02734375,-0.3138020833333333,1,0,0,3.4357735999510624,tijiao,,222,f,25,2023_Mar_19_1405,RL,2021.2.3,59.98692286297436,
0,0.3,0.225,0,71,71,71,,,,,,,,,,,,,,,None,None,None,None,None,773.4646062999964,None,773.4646062999964,None,773.4646062999964,None,773.4646062999964,None,i,0.7524032000219449,773.4646062999964,None,773.4646062999964,None,774.2670477000065,None,774.2670477000065,None,774.2670477000065,None,774.2670477000065,None,774.2670477000065,None,774.2670477000065,None,774.5616841000156,None,774.5616841000156,None,776.3918735000188,None,776.3918735000188,None,776.3918735000188,None,776.3918735000188,None,776.3918735000188,None,776.3918735000188,None,776.3918735000188,None,776.3918735000188,None,776.3918735000188,None,25,62,72,62,72,63,None,None,None,None,None,None,None,None,None,None,None,None,,None,None,None,None,None,None,None,None,None,None,None,None,None,None,,None,None,None,None,0.2,1,778.9354140000069,None,778.9354140000069,None,778.9354140000069,None,778.9354140000069,None,778.9354140000069,None,778.9354140000069,None,88,778.9354140000069,None,778.9354140000069,None,0.003267509979195893,None,4.984375,1.1007120999856852,782.0717295999639,None,782.0717295999639,None,782.0717295999639,None,782.0717295999639,None,None,None,783.1994027000037,None,0.03515625,-0.2786458333333333,1,0,0,3.1061526999692433,tijiao,,,,,,,,,222,f,25,2023_Mar_19_1405,RL,2021.2.3,59.98692286297436,
1,-0.3,-0.225,0,72,72,72,,,,,,,,,,,,,,,None,None,None,None,None,784.9222612999729,None,784.9222612999729,None,784.9222612999729,None,784.9222612999729,None,i,0.43480689998250455,784.9222612999729,None,784.9222612999729,None,785.4058375000022,None,785.4058375000022,None,785.4058375000022,None,785.4058375000022,None,785.4058375000022,None,785.4058375000022,None,785.7024843000108,None,785.7024843000108,None,787.419302699971,None,787.419302699971,None,787.419302699971,None,787.419302699971,None,787.419302699971,None,787.419302699971,None,787.419302699971,None,787.419302699971,None,787.419302699971,None,13,53,67,67,67,64,None,None,None,None,None,None,None,None,None,None,None,None,99,789.9462514999905,None,789.9462514999905,None,789.9462514999905,None,789.9462514999905,None,789.9462514999905,None,789.9462514999905,None,789.9462514999905,None,99,789.9462514999905,None,6.033998215571046e-05,None,0.6,0,None,None,None,None,None,None,None,None,None,None,None,None,,None,None,None,None,None,None,4.997395833333333,1.3397451000055298,793.142972200003,None,793.142972200003,None,793.142972200003,None,793.142972200003,None,None,None,794.5077876999858,None,,,,,,,,-0.0625,-0.2864583333333333,1,0,0,3.152821199968457,tijiao,,222,f,25,2023_Mar_19_1405,RL,2021.2.3,59.98692286297436,
0,0.3,0.225,0,73,73,73,,,,,,,,,,,,,,,None,None,None,None,None,796.1636098999879,None,796.1636098999879,None,796.1636098999879,None,796.1636098999879,None,i,0.35368060000473633,796.1636098999879,None,796.1636098999879,None,796.5629260999849,None,796.5629260999849,None,796.5629260999849,None,796.5629260999849,None,796.5629260999849,None,796.5629260999849,None,796.8600844999892,None,796.8600844999892,None,797.8417507999693,None,797.8417507999693,None,797.8417507999693,None,797.8417507999693,None,797.8417507999693,None,797.8417507999693,None,797.8417507999693,None,797.8417507999693,None,797.8417507999693,None,13,64,62,67,62,63,800.3592692000093,None,4.0,2.1394796000095084,800.3592692000093,None,800.3592692000093,None,800.3592692000093,None,800.3592692000093,None,,None,None,None,None,None,None,None,None,None,None,None,None,None,None,,None,None,None,None,0.2,3,None,None,None,None,None,None,None,None,None,None,None,None,,None,None,None,None,None,None,None,None,None,None,None,None,None,None,None,None,None,None,802.5494237999665,None,,,,,,,,,,,,,,,,222,f,25,2023_Mar_19_1405,RL,2021.2.3,59.98692286297436,
1,-0.3,-0.225,0,74,74,74,,,,,,,,,,,,,,,None,None,None,None,None,804.1694664999959,None,804.1694664999959,None,804.1694664999959,None,804.1694664999959,None,i,0.678098600008525,804.1694664999959,None,804.1694664999959,None,804.8968020000029,None,804.8968020000029,None,804.8968020000029,None,804.8968020000029,None,804.8968020000029,None,804.8968020000029,None,805.1826754999929,806.8336207999964,805.1826754999929,806.8336207999964,806.8712094000075,None,806.8712094000075,None,806.8712094000075,None,806.8712094000075,None,806.8712094000075,None,806.8712094000075,None,806.8712094000075,None,806.8712094000075,None,806.8712094000075,None,23,65,64,53,64,50,None,None,None,None,None,None,None,None,None,None,None,None,,None,None,None,None,None,None,None,None,None,None,None,None,None,None,,None,None,None,None,-0.2,1,809.4275361999753,None,809.4275361999753,None,809.4275361999753,None,809.4275361999753,None,809.4275361999753,None,809.4275361999753,None,77,809.4275361999753,None,809.4275361999753,None,0.01586857996881008,None,4.984375,1.4126147999777459,814.3623882000102,None,814.3623882000102,None,814.3623882000102,None,814.3623882000102,None,None,None,815.7891744999797,None,0.028645833333333332,-0.2838541666666667,1,0,0,4.903831400035415,tijiao,,,,,,,,,222,f,25,2023_Mar_19_1405,RL,2021.2.3,59.98692286297436,
0,0.3,0.225,0,75,75,75,,,,,,,,,,,,,,,817.5577086000121,None,q,817.5577086000121,None,1059.7740615999792,None,1059.7740615999792,None,1059.7740615999792,None,1059.7740615999792,None,f,0.6861336000147276,1059.7740615999792,None,1059.7740615999792,None,1060.4987789000152,None,1060.4987789000152,None,1060.4987789000152,None,1060.4987789000152,None,1060.4987789000152,None,1060.4987789000152,None,1060.7934457999654,None,1060.7934457999654,None,1062.5769094999996,None,1062.5769094999996,None,1062.5769094999996,None,1062.5769094999996,None,1062.5769094999996,None,1062.5769094999996,None,1062.5769094999996,None,1062.5769094999996,None,1062.5769094999996,None,29,58,48,64,58,33,1065.0814368000138,None,4.0,1.9508058999781497,1065.0814368000138,None,1065.0814368000138,None,1065.0814368000138,None,1065.0814368000138,None,,None,None,None,None,None,None,None,None,None,None,None,None,None,None,,None,None,None,None,-0.6,2,None,None,None,None,None,None,None,None,None,None,None,None,,None,None,None,None,None,None,None,None,None,None,None,None,None,None,None,None,None,None,1067.096017599979,None,,,,,,,,,,,,,,,242.18555920000654,222,f,25,2023_Mar_19_1405,RL,2021.2.3,59.98692286297436,
1,-0.3,-0.225,0,76,76,76,,,,,,,,,,,,,,,None,None,None,None,None,1068.8863057999988,None,1068.8863057999988,None,1068.8863057999988,None,1068.8863057999988,None,j,0.7048744999920018,1068.8863057999988,None,1068.8863057999988,None,1069.6373931000126,None,1069.6373931000126,None,1069.6373931000126,None,1069.6373931000126,None,1069.6373931000126,None,1069.6373931000126,None,1069.9329829000053,None,1069.9329829000053,None,1071.3686439999728,None,1071.3686439999728,None,1071.3686439999728,None,1071.3686439999728,None,1071.3686439999728,None,1071.3686439999728,None,1071.3686439999728,None,1071.3686439999728,None,1071.3686439999728,None,28,66,57,68,68,46,1073.8817831999622,None,4.0,1.357683000038378,1073.8817831999622,None,1073.8817831999622,None,1073.8817831999622,None,1073.8817831999622,None,,None,None,None,None,None,None,None,None,None,None,None,None,None,None,,None,None,None,None,-0.2,2,None,None,None,None,None,None,None,None,None,None,None,None,,None,None,None,None,None,None,None,None,None,None,None,None,None,None,None,None,None,None,1075.2926162999938,None,,,,,,,,,,,,,,,,222,f,25,2023_Mar_19_1405,RL,2021.2.3,59.98692286297436,
0,0.3,0.225,0,77,77,77,,,,,,,,,,,,,,,None,None,None,None,None,1076.8746362999664,None,1076.8746362999664,None,1076.8746362999664,None,1076.8746362999664,None,i,0.36644269997486845,1076.8746362999664,None,1076.8746362999664,None,1077.2938111000112,None,1077.2938111000112,None,1077.2938111000112,None,1077.2938111000112,None,1077.2938111000112,None,1077.2938111000112,None,1077.5885447000037,1079.1226965999813,1077.5885447000037,1079.1226965999813,1079.1546773000155,None,1079.1546773000155,None,1079.1546773000155,None,1079.1546773000155,None,1079.1546773000155,None,1079.1546773000155,None,1079.1546773000155,None,1079.1546773000155,None,1079.1546773000155,None,27,72,58,62,58,59,1081.6769294000114,None,4.0,1.534159900038503,1081.6769294000114,None,1081.6769294000114,None,1081.6769294000114,None,1081.6769294000114,None,,None,None,None,None,None,None,None,None,None,None,None,None,None,None,,None,None,None,None,0.6,2,None,None,None,None,None,None,None,None,None,None,None,None,,None,None,None,None,None,None,None,None,None,None,None,None,None,None,None,None,None,None,1083.2574205999845,None,,,,,,,,,,,,,,,,222,f,25,2023_Mar_19_1405,RL,2021.2.3,59.98692286297436,
1,-0.3,-0.225,0,78,78,78,,,,,,,,,,,,,,,None,None,None,None,None,1084.8312105999794,None,1084.8312105999794,None,1084.8312105999794,None,1084.8312105999794,None,j,0.6099353000172414,1084.8312105999794,None,1084.8312105999794,None,1085.4835995999747,None,1085.4835995999747,None,1085.4835995999747,None,1085.4835995999747,None,1085.4835995999747,None,1085.4835995999747,None,1085.7773809999926,None,1085.7773809999926,None,1086.9405084999744,None,1086.9405084999744,None,1086.9405084999744,None,1086.9405084999744,None,1086.9405084999744,None,1086.9405084999744,None,1086.9405084999744,None,1086.9405084999744,None,1086.9405084999744,None,40,67,60,64,64,54,None,None,None,None,None,None,None,None,None,None,None,None,,None,None,None,None,None,None,None,None,None,None,None,None,None,None,,None,None,None,None,0.2,1,1089.49367180001,None,1089.49367180001,None,1089.49367180001,None,1089.49367180001,None,1089.49367180001,None,1089.49367180001,None,77,1089.49367180001,None,1089.49367180001,None,0.012124380038585514,None,4.971354166666667,1.7567813000059687,1093.409791300015,None,1093.409791300015,None,1093.409791300015,None,1093.409791300015,None,None,None,1095.199140599987,None,0.048177083333333336,-0.2669270833333333,1,0,0,3.882490699994378,tijiao,,,,,,,,,222,f,25,2023_Mar_19_1405,RL,2021.2.3,59.98692286297436,
