bandit0,black_x_pos_random,black_y_pos_random,trials.thisRepN,trials.thisTrialN,trials.thisN,trials.thisIndex,instru_img1.started,instru_img1.stopped,instru_resp.keys,instru_resp.rt,instru_resp.started,instru_resp.stopped,instru_img2.started,instru_img2.stopped,instru_resp2.keys,instru_resp2.rt,instru_resp2.started,instru_resp2.stopped,fixbefore_2.started,fixbefore_2.stopped,rest_image.started,rest_image.stopped,rest_response.keys,rest_response.started,rest_response.stopped,red.started,red.stopped,green.started,green.stopped,yellow.started,yellow.stopped,blue.started,blue.stopped,choose_bandit.keys,choose_bandit.rt,choose_bandit.started,choose_bandit.stopped,Fixation.started,Fixation.stopped,black.started,black.stopped,red_2.started,red_2.stopped,green_2.started,green_2.stopped,yellow_2.started,yellow_2.stopped,blue_2.started,blue_2.stopped,fixation_2.started,fixation_2.stopped,docs.started,docs.stopped,wait_playerB.started,wait_playerB.stopped,black_com.started,black_com.stopped,reward_sub.started,reward_sub.stopped,palyerb.started,palyerb.stopped,reward__sub.started,reward__sub.stopped,compare.started,compare.stopped,red_compare.started,red_compare.stopped,green_com.started,green_com.stopped,yellow_com.started,yellow_com.stopped,blue_com.started,blue_com.stopped,rewardyellow,rewardred,rewardblue,rewardgreen,subchoose,playerb,image_3.started,image_3.stopped,slider.response,slider.rt,slider.started,slider.stopped,text.started,text.stopped,image_4.started,image_4.stopped,image_5.started,image_5.stopped,value_expect_self,expect_self_black.started,expect_self_black.stopped,expect_self.started,expect_self.stopped,expect_self_red.started,expect_self_red.stopped,expect_self_green.started,expect_self_green.stopped,expect_self_yellow.started,expect_self_yellow.stopped,expect_self_blue.started,expect_self_blue.stopped,tijiao.started,tijiao.stopped,expectself.text,expectself.started,expectself.stopped,tijiao_click.started,tijiao_click.stopped,random_whicharm,whether_ask,jiantou_random.started,jiantou_random.stopped,expect_red.started,expect_red.stopped,expect_green.started,expect_green.stopped,expect_yellow.started,expect_yellow.stopped,expect_blue.started,expect_blue.stopped,expect_random_2.started,expect_random_2.stopped,expect_random_3.text,expect_random_3.started,expect_random_3.stopped,tijiao_random_2.started,tijiao_random_2.stopped,tijiao_random.started,tijiao_random.stopped,slider_2.response,slider_2.rt,slider_2.started,slider_2.stopped,image_7.started,image_7.stopped,confi.started,confi.stopped,notconfi.started,notconfi.stopped,bigx.started,bigx.stopped,intertrialfix.started,intertrialfix.stopped,tijiao_random.x,tijiao_random.y,tijiao_random.leftButton,tijiao_random.midButton,tijiao_random.rightButton,tijiao_random.time,tijiao_random.clicked_name,tijiao_click.x,tijiao_click.y,tijiao_click.leftButton,tijiao_click.midButton,tijiao_click.rightButton,tijiao_click.time,tijiao_click.clicked_name,rest_response.rt,participant,Gender,Age,date,expName,psychopyVersion,frameRate,
,,,,,,,46.631115399999544,None,space,0.8674061999990954,46.631115399999544,None,,,,,,,,,,,,,,,,,,,,,,,,,,,,,,,,,,,,,,,,,,,,,,,,,,,,,,,,,,,,,,,,,,,,,,,,,,,,,,,,,,,,,,,,,,,,,,,,,,,,,,,,,,,,,,,,,,,,,,,,,,,,,,,,,,,,,,,,,,,,,,,,,,,,,,223,m,24,2023_Mar_19_1524,RL,2021.2.3,60.033234399156505,
,,,,,,,,,,,,,47.564043200000015,None,s,3.9205354000005173,47.564043200000015,None,,,,,,,,,,,,,,,,,,,,,,,,,,,,,,,,,,,,,,,,,,,,,,,,,,,,,,,,,,,,,,,,,,,,,,,,,,,,,,,,,,,,,,,,,,,,,,,,,,,,,,,,,,,,,,,,,,,,,,,,,,,,,,,,,,,,,,,,,,,,,,,,223,m,24,2023_Mar_19_1524,RL,2021.2.3,60.033234399156505,
1,-0.3,-0.225,0,0,0,0,,,,,,,,,,,,,51.51595209999505,None,None,None,None,None,None,52.57648889999837,None,52.57648889999837,None,52.57648889999837,None,52.57648889999837,None,f,0.39155400000163354,52.57648889999837,None,52.57648889999837,None,53.097420500002045,None,53.097420500002045,None,53.097420500002045,None,53.097420500002045,None,53.097420500002045,None,53.097420500002045,None,53.387035200001264,54.418091899999126,53.387035200001264,54.418091899999126,54.49219989999983,None,54.49219989999983,None,54.49219989999983,None,54.49219989999983,None,54.49219989999983,None,54.49219989999983,None,54.49219989999983,None,54.49219989999983,None,54.49219989999983,None,44,57,41,42,57,64,57.07039939999959,None,4.0,3.3641809999971883,57.07039939999959,None,57.07039939999959,None,57.07039939999959,None,57.07039939999959,None,,None,None,None,None,None,None,None,None,None,None,None,None,None,None,,None,None,None,None,0.6,2,None,None,None,None,None,None,None,None,None,None,None,None,,None,None,None,None,None,None,None,None,None,None,None,None,None,None,None,None,None,None,61.0322101999991,None,,,,,,,,,,,,,,,,223,m,24,2023_Mar_19_1524,RL,2021.2.3,60.033234399156505,
0,0.3,0.225,0,1,1,1,,,,,,,,,,,,,,,None,None,None,None,None,63.00042609999946,None,63.00042609999946,None,63.00042609999946,None,63.00042609999946,None,i,0.3267327000066871,63.00042609999946,None,63.00042609999946,None,63.360520900001575,None,63.360520900001575,None,63.360520900001575,None,63.360520900001575,None,63.360520900001575,None,63.360520900001575,None,63.64251009999862,65.57079489999887,63.64251009999862,65.57079489999887,65.59241730000213,None,65.59241730000213,None,65.59241730000213,None,65.59241730000213,None,65.59241730000213,None,65.59241730000213,None,65.59241730000213,None,65.59241730000213,None,65.59241730000213,None,47,65,39,54,39,55,68.10184119999758,None,3.0,2.3526580999969156,68.10184119999758,None,68.10184119999758,None,68.10184119999758,None,68.10184119999758,None,,None,None,None,None,None,None,None,None,None,None,None,None,None,None,,None,None,None,None,0.2,3,None,None,None,None,None,None,None,None,None,None,None,None,,None,None,None,None,None,None,None,None,None,None,None,None,None,None,None,None,None,None,70.50593739999749,None,,,,,,,,,,,,,,,,223,m,24,2023_Mar_19_1524,RL,2021.2.3,60.033234399156505,
1,-0.3,-0.225,0,2,2,2,,,,,,,,,,,,,,,None,None,None,None,None,72.48494809999829,None,72.48494809999829,None,72.48494809999829,None,72.48494809999829,None,r,0.29821390000142856,72.48494809999829,None,72.48494809999829,None,72.817988099996,None,72.817988099996,None,72.817988099996,None,72.817988099996,None,72.817988099996,None,72.817988099996,None,73.10014729999966,73.93194039999798,73.10014729999966,73.93194039999798,73.95656189999863,None,73.95656189999863,None,73.95656189999863,None,73.95656189999863,None,73.95656189999863,None,73.95656189999863,None,73.95656189999863,None,73.95656189999863,None,73.95656189999863,None,38,62,36,45,38,43,76.46239699999569,None,3.0,2.835096099996008,76.46239699999569,None,76.46239699999569,None,76.46239699999569,None,76.46239699999569,None,,None,None,None,None,None,None,None,None,None,None,None,None,None,None,,None,None,None,None,-0.2,2,None,None,None,None,None,None,None,None,None,None,None,None,,None,None,None,None,None,None,None,None,None,None,None,None,None,None,None,None,None,None,79.34914710000157,None,,,,,,,,,,,,,,,,223,m,24,2023_Mar_19_1524,RL,2021.2.3,60.033234399156505,
0,0.3,0.225,0,3,3,3,,,,,,,,,,,,,,,None,None,None,None,None,81.29441859999497,None,81.29441859999497,None,81.29441859999497,None,81.29441859999497,None,None,,81.29441859999497,None,81.29441859999497,None,None,None,None,None,None,None,None,None,None,None,None,None,None,None,None,None,None,None,None,None,None,None,None,None,None,None,None,None,None,None,None,None,None,None,38,62,39,43,0,**,None,None,None,None,None,None,None,None,None,None,None,None,,None,None,None,None,None,None,None,None,None,None,None,None,None,None,,None,None,None,None,-0.2,1,None,None,None,None,None,None,None,None,None,None,None,None,,None,None,None,None,None,None,None,None,None,None,None,None,None,None,None,None,83.05886679999821,None,87.56076829999802,None,,,,,,,,,,,,,,,,223,m,24,2023_Mar_19_1524,RL,2021.2.3,60.033234399156505,
1,-0.3,-0.225,0,4,4,4,,,,,,,,,,,,,,,None,None,None,None,None,89.22336070000165,None,89.22336070000165,None,89.22336070000165,None,89.22336070000165,None,j,0.24298460000136402,89.22336070000165,None,89.22336070000165,None,89.50319979999767,None,89.50319979999767,None,89.50319979999767,None,89.50319979999767,None,89.50319979999767,None,89.50319979999767,None,89.78789549999783,91.33353930000158,89.78789549999783,91.33353930000158,91.35489189999498,None,91.35489189999498,None,91.35489189999498,None,91.35489189999498,None,91.35489189999498,None,91.35489189999498,None,91.35489189999498,None,91.35489189999498,None,91.35489189999498,None,35,66,28,47,47,26,None,None,None,None,None,None,None,None,None,None,None,None,,None,None,None,None,None,None,None,None,None,None,None,None,None,None,,None,None,None,None,0.2,1,93.89073359999747,None,93.89073359999747,None,93.89073359999747,None,93.89073359999747,None,93.89073359999747,None,93.89073359999747,None,36,93.89073359999747,None,93.89073359999747,None,0.015363320002506953,None,7.962962962962963,2.8755890000029467,100.0833857999969,None,100.0833857999969,None,100.0833857999969,None,100.0833857999969,None,None,None,102.96869969999534,None,-0.046296296296296294,-0.2722222222222222,1,0,0,6.1482535999966785,tijiao,,,,,,,,,223,m,24,2023_Mar_19_1524,RL,2021.2.3,60.033234399156505,
0,0.3,0.225,0,5,5,5,,,,,,,,,,,,,,,None,None,None,None,None,104.58066439999675,None,104.58066439999675,None,104.58066439999675,None,104.58066439999675,None,r,0.7484437999955844,104.58066439999675,None,104.58066439999675,None,105.35457049999968,None,105.35457049999968,None,105.35457049999968,None,105.35457049999968,None,105.35457049999968,None,105.35457049999968,None,105.64466769999854,107.5064401999989,105.64466769999854,107.5064401999989,107.5276470999961,None,107.5276470999961,None,107.5276470999961,None,107.5276470999961,None,107.5276470999961,None,107.5276470999961,None,107.5276470999961,None,107.5276470999961,None,107.5276470999961,None,42,60,36,37,42,61,110.03542369999923,None,4.0,3.319471299997531,110.03542369999923,None,110.03542369999923,None,110.03542369999923,None,110.03542369999923,None,,None,None,None,None,None,None,None,None,None,None,None,None,None,None,,None,None,None,None,-0.6,3,None,None,None,None,None,None,None,None,None,None,None,None,,None,None,None,None,None,None,None,None,None,None,None,None,None,None,None,None,None,None,113.40446379999776,None,,,,,,,,,,,,,,,,223,m,24,2023_Mar_19_1524,RL,2021.2.3,60.033234399156505,
1,-0.3,-0.225,0,6,6,6,,,,,,,,,,,,,,,None,None,None,None,None,115.0861001000012,None,115.0861001000012,None,115.0861001000012,None,115.0861001000012,None,f,0.5671226999984356,115.0861001000012,None,115.0861001000012,None,115.69240349999745,None,115.69240349999745,None,115.69240349999745,None,115.69240349999745,None,115.69240349999745,None,115.69240349999745,None,115.98316199999681,116.93035349999991,115.98316199999681,116.93035349999991,116.95050690000062,None,116.95050690000062,None,116.95050690000062,None,116.95050690000062,None,116.95050690000062,None,116.95050690000062,None,116.95050690000062,None,116.95050690000062,None,116.95050690000062,None,42,59,34,38,59,62,None,None,None,None,None,None,None,None,None,None,None,None,59,119.4737782000011,None,119.4737782000011,None,119.4737782000011,None,119.4737782000011,None,119.4737782000011,None,119.4737782000011,None,119.4737782000011,None,59,119.4737782000011,None,0.012051780002366286,None,0.6,0,None,None,None,None,None,None,None,None,None,None,None,None,,None,None,None,None,None,None,10.0,2.57913230000122,124.92580449999514,None,124.92580449999514,None,124.92580449999514,None,124.92580449999514,None,None,None,127.51809050000156,None,,,,,,,,-0.026851851851851852,-0.29074074074074074,1,0,0,5.397825100000773,tijiao,,223,m,24,2023_Mar_19_1524,RL,2021.2.3,60.033234399156505,
0,0.3,0.225,0,7,7,7,,,,,,,,,,,,,,,None,None,None,None,None,129.24693779999507,None,129.24693779999507,None,129.24693779999507,None,129.24693779999507,None,j,0.3064775000020745,129.24693779999507,None,129.24693779999507,None,129.5899619999982,None,129.5899619999982,None,129.5899619999982,None,129.5899619999982,None,129.5899619999982,None,129.5899619999982,None,129.87857780000195,None,129.87857780000195,None,131.41445209999802,None,131.41445209999802,None,131.41445209999802,None,131.41445209999802,None,131.41445209999802,None,131.41445209999802,None,131.41445209999802,None,131.41445209999802,None,131.41445209999802,None,47,65,24,47,47,64,None,None,None,None,None,None,None,None,None,None,None,None,,None,None,None,None,None,None,None,None,None,None,None,None,None,None,,None,None,None,None,-0.2,1,133.9444650000005,None,133.9444650000005,None,133.9444650000005,None,133.9444650000005,None,133.9444650000005,None,133.9444650000005,None,34,133.9444650000005,None,133.9444650000005,None,0.015771819998917636,None,3.935185185185185,3.0120591999948374,141.4960676999981,None,141.4960676999981,None,141.4960676999981,None,141.4960676999981,None,None,None,144.52281779999612,None,0.10555555555555556,0.3037037037037037,1,0,0,2.9078660999948625,tijiao,,,,,,,,,223,m,24,2023_Mar_19_1524,RL,2021.2.3,60.033234399156505,
1,-0.3,-0.225,0,8,8,8,,,,,,,,,,,,,,,None,None,None,None,None,146.49992660000134,None,146.49992660000134,None,146.49992660000134,None,146.49992660000134,None,r,0.6006463000012445,146.49992660000134,None,146.49992660000134,None,147.1395365999997,None,147.1395365999997,None,147.1395365999997,None,147.1395365999997,None,147.1395365999997,None,147.1395365999997,None,147.4302974999955,148.24503349999577,147.4302974999955,148.24503349999577,148.26562209999975,None,148.26562209999975,None,148.26562209999975,None,148.26562209999975,None,148.26562209999975,None,148.26562209999975,None,148.26562209999975,None,148.26562209999975,None,148.26562209999975,None,53,59,27,46,53,14,None,None,None,None,None,None,None,None,None,None,None,None,53,150.78542980000202,None,150.78542980000202,None,150.78542980000202,None,150.78542980000202,None,150.78542980000202,None,150.78542980000202,None,150.78542980000202,None,53,150.78542980000202,None,0.012141079998400528,None,0.2,0,None,None,None,None,None,None,None,None,None,None,None,None,,None,None,None,None,None,None,10.907407407407407,3.1999193000010564,156.10169450000103,None,156.10169450000103,None,156.10169450000103,None,156.10169450000103,None,None,None,159.31501109999954,None,,,,,,,,0.07685185185185185,-0.26296296296296295,1,0,0,5.282975100002659,tijiao,,223,m,24,2023_Mar_19_1524,RL,2021.2.3,60.033234399156505,
0,0.3,0.225,0,9,9,9,,,,,,,,,,,,,,,None,None,None,None,None,160.9609616999951,None,160.9609616999951,None,160.9609616999951,None,160.9609616999951,None,f,0.2850703000003705,160.9609616999951,None,160.9609616999951,None,161.2847743999955,None,161.2847743999955,None,161.2847743999955,None,161.2847743999955,None,161.2847743999955,None,161.2847743999955,None,161.57560540000122,None,161.57560540000122,None,163.35642559999542,None,163.35642559999542,None,163.35642559999542,None,163.35642559999542,None,163.35642559999542,None,163.35642559999542,None,163.35642559999542,None,163.35642559999542,None,163.35642559999542,None,45,58,29,52,58,47,None,None,None,None,None,None,None,None,None,None,None,None,,None,None,None,None,None,None,None,None,None,None,None,None,None,None,,None,None,None,None,0.6,1,165.88957669999945,None,165.88957669999945,None,165.88957669999945,None,165.88957669999945,None,165.88957669999945,None,165.88957669999945,None,47,165.88957669999945,None,165.88957669999945,None,0.016366920004657004,None,4.981481481481481,2.6129037999999127,169.83602149999933,None,169.83602149999933,None,169.83602149999933,None,169.83602149999933,None,None,None,172.46212340000056,None,0.10277777777777777,-0.2916666666666667,1,0,0,3.922897300006298,tijiao,,,,,,,,,223,m,24,2023_Mar_19_1524,RL,2021.2.3,60.033234399156505,
1,-0.3,-0.225,0,10,10,10,,,,,,,,,,,,,,,None,None,None,None,None,174.2075005000006,None,174.2075005000006,None,174.2075005000006,None,174.2075005000006,None,i,0.21996119999676012,174.2075005000006,None,174.2075005000006,None,174.46679929999664,None,174.46679929999664,None,174.46679929999664,None,174.46679929999664,None,174.46679929999664,None,174.46679929999664,None,174.75645390000136,175.96909179999784,174.75645390000136,175.96909179999784,175.98947989999579,None,175.98947989999579,None,175.98947989999579,None,175.98947989999579,None,175.98947989999579,None,175.98947989999579,None,175.98947989999579,None,175.98947989999579,None,175.98947989999579,None,42,59,29,57,29,64,None,None,None,None,None,None,None,None,None,None,None,None,29,178.51031240000157,None,178.51031240000157,None,178.51031240000157,None,178.51031240000157,None,178.51031240000157,None,178.51031240000157,None,178.51031240000157,None,29,178.51031240000157,None,0.011876880002091639,None,-0.6,0,None,None,None,None,None,None,None,None,None,None,None,None,,None,None,None,None,None,None,11.0,1.8211500000033993,182.96071010000014,None,182.96071010000014,None,182.96071010000014,None,182.96071010000014,None,None,None,184.7949809999991,None,,,,,,,,-0.12407407407407407,-0.2796296296296296,1,0,0,4.4172894000003,tijiao,,223,m,24,2023_Mar_19_1524,RL,2021.2.3,60.033234399156505,
0,0.3,0.225,0,11,11,11,,,,,,,,,,,,,,,None,None,None,None,None,186.4738567999957,None,186.4738567999957,None,186.4738567999957,None,186.4738567999957,None,f,0.3864099999991595,186.4738567999957,None,186.4738567999957,None,186.8991262999989,None,186.8991262999989,None,186.8991262999989,None,186.8991262999989,None,186.8991262999989,None,186.8991262999989,None,187.18882609999855,188.25261489999684,187.18882609999855,188.25261489999684,188.27319989999523,None,188.27319989999523,None,188.27319989999523,None,188.27319989999523,None,188.27319989999523,None,188.27319989999523,None,188.27319989999523,None,188.27319989999523,None,188.27319989999523,None,42,51,24,55,51,67,190.78292459999648,None,4.0,4.151195799997367,190.78292459999648,None,190.78292459999648,None,190.78292459999648,None,190.78292459999648,None,,None,None,None,None,None,None,None,None,None,None,None,None,None,None,,None,None,None,None,0.2,3,None,None,None,None,None,None,None,None,None,None,None,None,,None,None,None,None,None,None,None,None,None,None,None,None,None,None,None,None,None,None,194.9814148000005,None,,,,,,,,,,,,,,,,223,m,24,2023_Mar_19_1524,RL,2021.2.3,60.033234399156505,
1,-0.3,-0.225,0,12,12,12,,,,,,,,,,,,,,,None,None,None,None,None,196.94743999999628,None,196.94743999999628,None,196.94743999999628,None,196.94743999999628,None,j,0.28129230000195093,196.94743999999628,None,196.94743999999628,None,197.25735089999944,None,197.25735089999944,None,197.25735089999944,None,197.25735089999944,None,197.25735089999944,None,197.25735089999944,None,197.54378189999989,199.08987769999658,197.54378189999989,199.08987769999658,199.11076599999797,None,199.11076599999797,None,199.11076599999797,None,199.11076599999797,None,199.11076599999797,None,199.11076599999797,None,199.11076599999797,None,199.11076599999797,None,199.11076599999797,None,40,47,25,52,52,72,201.6191009999966,None,3.0,2.9880733999962104,201.6191009999966,None,201.6191009999966,None,201.6191009999966,None,201.6191009999966,None,,None,None,None,None,None,None,None,None,None,None,None,None,None,None,,None,None,None,None,-0.6,3,None,None,None,None,None,None,None,None,None,None,None,None,,None,None,None,None,None,None,None,None,None,None,None,None,None,None,None,None,None,None,204.65590549999615,None,,,,,,,,,,,,,,,,223,m,24,2023_Mar_19_1524,RL,2021.2.3,60.033234399156505,
0,0.3,0.225,0,13,13,13,,,,,,,,,,,,,,,None,None,None,None,None,206.18652189999557,None,206.18652189999557,None,206.18652189999557,None,206.18652189999557,None,j,0.5119314000039594,206.18652189999557,None,206.18652189999557,None,206.72934729999542,None,206.72934729999542,None,206.72934729999542,None,206.72934729999542,None,206.72934729999542,None,206.72934729999542,None,207.01812119999522,None,207.01812119999522,None,208.65170149999904,None,208.65170149999904,None,208.65170149999904,None,208.65170149999904,None,208.65170149999904,None,208.65170149999904,None,208.65170149999904,None,208.65170149999904,None,208.65170149999904,None,39,46,30,56,56,44,211.15997580000112,None,5.0,3.1870028999983333,211.15997580000112,None,211.15997580000112,None,211.15997580000112,None,211.15997580000112,None,,None,None,None,None,None,None,None,None,None,None,None,None,None,None,,None,None,None,None,-0.6,2,None,None,None,None,None,None,None,None,None,None,None,None,,None,None,None,None,None,None,None,None,None,None,None,None,None,None,None,None,None,None,214.394750499996,None,,,,,,,,,,,,,,,,223,m,24,2023_Mar_19_1524,RL,2021.2.3,60.033234399156505,
1,-0.3,-0.225,0,14,14,14,,,,,,,,,,,,,,,None,None,None,None,None,216.2595827999976,None,216.2595827999976,None,216.2595827999976,None,216.2595827999976,None,f,0.4682814999978291,216.2595827999976,None,216.2595827999976,None,216.7669051999983,None,216.7669051999983,None,216.7669051999983,None,216.7669051999983,None,216.7669051999983,None,216.7669051999983,None,217.05701319999935,None,217.05701319999935,None,218.10781850000058,None,218.10781850000058,None,218.10781850000058,None,218.10781850000058,None,218.10781850000058,None,218.10781850000058,None,218.10781850000058,None,218.10781850000058,None,218.10781850000058,None,41,37,20,55,37,80,None,None,None,None,None,None,None,None,None,None,None,None,,None,None,None,None,None,None,None,None,None,None,None,None,None,None,,None,None,None,None,-0.2,1,220.64107530000183,None,220.64107530000183,None,220.64107530000183,None,220.64107530000183,None,220.64107530000183,None,220.64107530000183,None,37,220.64107530000183,None,220.64107530000183,None,0.016222120000747964,None,11.0,2.38104359999852,224.43556249999529,None,224.43556249999529,None,224.43556249999529,None,224.43556249999529,None,None,None,226.83060629999818,None,0.10185185185185185,-0.2777777777777778,1,0,0,3.7743367000002763,tijiao,,,,,,,,,223,m,24,2023_Mar_19_1524,RL,2021.2.3,60.033234399156505,
0,0.3,0.225,0,15,15,15,,,,,,,,,,,,,,,None,None,None,None,None,228.79200639999908,None,228.79200639999908,None,228.79200639999908,None,228.79200639999908,None,j,0.2728396000020439,228.79200639999908,None,228.79200639999908,None,229.10186429999885,None,229.10186429999885,None,229.10186429999885,None,229.10186429999885,None,229.10186429999885,None,229.10186429999885,None,229.39053269999567,231.1356134999951,229.39053269999567,231.1356134999951,231.15556800000195,None,231.15556800000195,None,231.15556800000195,None,231.15556800000195,None,231.15556800000195,None,231.15556800000195,None,231.15556800000195,None,231.15556800000195,None,231.15556800000195,None,37,46,19,53,53,77,None,None,None,None,None,None,None,None,None,None,None,None,,None,None,None,None,None,None,None,None,None,None,None,None,None,None,,None,None,None,None,-0.2,1,233.687643199999,None,233.687643199999,None,233.687643199999,None,233.687643199999,None,233.687643199999,None,233.687643199999,None,66,233.687643199999,None,233.687643199999,None,0.01613132000056794,None,2.9537037037037037,1.937136599997757,239.07684799999697,None,239.07684799999697,None,239.07684799999697,None,239.07684799999697,None,None,None,241.02603349999845,None,0.020370370370370372,-0.2537037037037037,1,0,0,5.369051800000307,tijiao,,,,,,,,,223,m,24,2023_Mar_19_1524,RL,2021.2.3,60.033234399156505,
1,-0.3,-0.225,0,16,16,16,,,,,,,,,,,,,,,None,None,None,None,None,242.81987369999842,None,242.81987369999842,None,242.81987369999842,None,242.81987369999842,None,r,0.3262721999999485,242.81987369999842,None,242.81987369999842,None,243.17973530000017,None,243.17973530000017,None,243.17973530000017,None,243.17973530000017,None,243.17973530000017,None,243.17973530000017,None,243.468715899995,245.43013059999794,243.468715899995,245.43013059999794,245.45235259999754,None,245.45235259999754,None,245.45235259999754,None,245.45235259999754,None,245.45235259999754,None,245.45235259999754,None,245.45235259999754,None,245.45235259999754,None,245.45235259999754,None,38,45,14,48,38,48,None,None,None,None,None,None,None,None,None,None,None,None,,None,None,None,None,None,None,None,None,None,None,None,None,None,None,,None,None,None,None,-0.2,1,247.98368669999763,None,247.98368669999763,None,247.98368669999763,None,247.98368669999763,None,247.98368669999763,None,247.98368669999763,None,48,247.98368669999763,None,247.98368669999763,None,0.014478119992418215,None,3.0,2.631571800004167,251.17852439999842,None,251.17852439999842,None,251.17852439999842,None,251.17852439999842,None,None,None,253.823444499998,None,0.002777777777777778,-0.3351851851851852,1,0,0,3.1732746999987285,tijiao,,,,,,,,,223,m,24,2023_Mar_19_1524,RL,2021.2.3,60.033234399156505,
0,0.3,0.225,0,17,17,17,,,,,,,,,,,,,,,None,None,None,None,None,255.81767440000112,None,255.81767440000112,None,255.81767440000112,None,255.81767440000112,None,r,0.4243588999961503,255.81767440000112,None,255.81767440000112,None,256.2772207999951,None,256.2772207999951,None,256.2772207999951,None,256.2772207999951,None,256.2772207999951,None,256.2772207999951,None,256.5662360999995,258.49403309999616,256.5662360999995,258.49403309999616,258.5142951000016,None,258.5142951000016,None,258.5142951000016,None,258.5142951000016,None,258.5142951000016,None,258.5142951000016,None,258.5142951000016,None,258.5142951000016,None,258.5142951000016,None,45,50,26,50,45,83,None,None,None,None,None,None,None,None,None,None,None,None,,None,None,None,None,None,None,None,None,None,None,None,None,None,None,,None,None,None,None,0.2,1,261.04659869999887,None,261.04659869999887,None,261.04659869999887,None,261.04659869999887,None,261.04659869999887,None,261.04659869999887,None,83,261.04659869999887,None,261.04659869999887,None,0.016132320008182433,None,3.9907407407407405,2.7640496000021813,266.9352385999955,None,266.9352385999955,None,266.9352385999955,None,266.9352385999955,None,None,None,269.7134064999991,None,-0.013888888888888888,-0.29814814814814816,1,0,0,5.867662900003779,tijiao,,,,,,,,,223,m,24,2023_Mar_19_1524,RL,2021.2.3,60.033234399156505,
1,-0.3,-0.225,0,18,18,18,,,,,,,,,,,,,,,None,None,None,None,None,271.6910112999976,None,271.6910112999976,None,271.6910112999976,None,271.6910112999976,None,j,0.5042707000029623,271.6910112999976,None,271.6910112999976,None,272.23325959999784,None,272.23325959999784,None,272.23325959999784,None,272.23325959999784,None,272.23325959999784,None,272.23325959999784,None,272.5223266999965,273.4695672999951,272.5223266999965,273.4695672999951,273.4894538000008,None,273.4894538000008,None,273.4894538000008,None,273.4894538000008,None,273.4894538000008,None,273.4894538000008,None,273.4894538000008,None,273.4894538000008,None,273.4894538000008,None,50,57,23,58,58,37,None,None,None,None,None,None,None,None,None,None,None,None,,None,None,None,None,None,None,None,None,None,None,None,None,None,None,,None,None,None,None,-0.2,1,276.02478390000033,None,276.02478390000033,None,276.02478390000033,None,276.02478390000033,None,276.02478390000033,None,276.02478390000033,None,34,276.02478390000033,None,276.02478390000033,None,0.015445119999640156,None,2.1759259259259256,2.3166408999968553,281.992639600001,None,281.992639600001,None,281.992639600001,None,281.992639600001,None,None,None,284.32364249999955,None,-0.09722222222222222,-0.3037037037037037,1,0,0,5.949343000000226,tijiao,,,,,,,,,223,m,24,2023_Mar_19_1524,RL,2021.2.3,60.033234399156505,
0,0.3,0.225,0,19,19,19,,,,,,,,,,,,,,,None,None,None,None,None,285.8858246000018,None,285.8858246000018,None,285.8858246000018,None,285.8858246000018,None,i,1.113940700000967,285.8858246000018,None,285.8858246000018,None,287.03193920000194,None,287.03193920000194,None,287.03193920000194,None,287.03193920000194,None,287.03193920000194,None,287.03193920000194,None,287.31520559999626,288.34563309999794,287.31520559999626,288.34563309999794,288.36568909999914,None,288.36568909999914,None,288.36568909999914,None,288.36568909999914,None,288.36568909999914,None,288.36568909999914,None,288.36568909999914,None,288.36568909999914,None,288.36568909999914,None,47,50,21,52,21,26,None,None,None,None,None,None,None,None,None,None,None,None,,None,None,None,None,None,None,None,None,None,None,None,None,None,None,,None,None,None,None,-0.6,1,290.8978182999999,None,290.8978182999999,None,290.8978182999999,None,290.8978182999999,None,290.8978182999999,None,290.8978182999999,None,34,290.8978182999999,None,290.8978182999999,None,0.00027457999385660514,None,2.9074074074074074,1.8019990000029793,298.2328340000022,None,298.2328340000022,None,298.2328340000022,None,298.2328340000022,None,None,None,300.06351639999775,None,-0.10462962962962963,-0.2361111111111111,1,0,0,6.283536700000695,tijiao,,,,,,,,,223,m,24,2023_Mar_19_1524,RL,2021.2.3,60.033234399156505,
1,-0.3,-0.225,0,20,20,20,,,,,,,,,,,,,,,None,None,None,None,None,301.6926958999975,None,301.6926958999975,None,301.6926958999975,None,301.6926958999975,None,j,0.8901951000007102,301.6926958999975,None,301.6926958999975,None,302.61754039999505,None,302.61754039999505,None,302.61754039999505,None,302.61754039999505,None,302.61754039999505,None,302.61754039999505,None,302.90608809999685,303.95309049999923,302.90608809999685,303.95309049999923,303.9730778000012,None,303.9730778000012,None,303.9730778000012,None,303.9730778000012,None,303.9730778000012,None,303.9730778000012,None,303.9730778000012,None,303.9730778000012,None,303.9730778000012,None,53,49,15,57,57,37,None,None,None,None,None,None,None,None,None,None,None,None,57,306.49383490000037,None,306.49383490000037,None,306.49383490000037,None,306.49383490000037,None,306.49383490000037,None,306.49383490000037,None,306.49383490000037,None,57,306.49383490000037,None,0.011809280003944878,None,-0.2,0,None,None,None,None,None,None,None,None,None,None,None,None,,None,None,None,None,None,None,10.935185185185185,2.568137800000841,310.1639445999972,None,310.1639445999972,None,310.1639445999972,None,310.1639445999972,None,None,None,312.7455148000008,None,,,,,,,,-0.08425925925925926,-0.31203703703703706,1,0,0,3.6362503999989713,tijiao,,223,m,24,2023_Mar_19_1524,RL,2021.2.3,60.033234399156505,
0,0.3,0.225,0,21,21,21,,,,,,,,,,,,,,,None,None,None,None,None,314.49123749999853,None,314.49123749999853,None,314.49123749999853,None,314.49123749999853,None,r,0.3937939000024926,314.49123749999853,None,314.49123749999853,None,314.9186791999964,None,314.9186791999964,None,314.9186791999964,None,314.9186791999964,None,314.9186791999964,None,314.9186791999964,None,315.2062167999975,None,315.2062167999975,None,316.322537,None,316.322537,None,316.322537,None,316.322537,None,316.322537,None,316.322537,None,316.322537,None,316.322537,None,316.322537,None,44,43,18,65,44,74,318.8339218999972,None,3.0,2.753642100004072,318.8339218999972,None,318.8339218999972,None,318.8339218999972,None,318.8339218999972,None,,None,None,None,None,None,None,None,None,None,None,None,None,None,None,,None,None,None,None,0.2,2,None,None,None,None,None,None,None,None,None,None,None,None,,None,None,None,None,None,None,None,None,None,None,None,None,None,None,None,None,None,None,321.6362680999955,None,,,,,,,,,,,,,,,,223,m,24,2023_Mar_19_1524,RL,2021.2.3,60.033234399156505,
1,-0.3,-0.225,0,22,22,22,,,,,,,,,,,,,,,None,None,None,None,None,323.30110969999805,None,323.30110969999805,None,323.30110969999805,None,323.30110969999805,None,f,0.29993259999901056,323.30110969999805,None,323.30110969999805,None,323.62716029999865,None,323.62716029999865,None,323.62716029999865,None,323.62716029999865,None,323.62716029999865,None,323.62716029999865,None,323.9157391999979,325.5114336999977,323.9157391999979,325.5114336999977,325.53145999999833,None,325.53145999999833,None,325.53145999999833,None,325.53145999999833,None,325.53145999999833,None,325.53145999999833,None,325.53145999999833,None,325.53145999999833,None,325.53145999999833,None,56,43,20,60,43,25,328.0406344000003,None,5.0,3.451888499999768,328.0406344000003,None,328.0406344000003,None,328.0406344000003,None,328.0406344000003,None,,None,None,None,None,None,None,None,None,None,None,None,None,None,None,,None,None,None,None,-0.2,3,None,None,None,None,None,None,None,None,None,None,None,None,,None,None,None,None,None,None,None,None,None,None,None,None,None,None,None,None,None,None,331.54116809999687,None,,,,,,,,,,,,,,,,223,m,24,2023_Mar_19_1524,RL,2021.2.3,60.033234399156505,
0,0.3,0.225,0,23,23,23,,,,,,,,,,,,,,,None,None,None,None,None,333.4560605000006,None,333.4560605000006,None,333.4560605000006,None,333.4560605000006,None,i,0.4144951999987825,333.4560605000006,None,333.4560605000006,None,333.89798449999944,None,333.89798449999944,None,333.89798449999944,None,333.89798449999944,None,333.89798449999944,None,333.89798449999944,None,334.187420000002,335.63335959999677,334.187420000002,335.63335959999677,335.6534973000016,None,335.6534973000016,None,335.6534973000016,None,335.6534973000016,None,335.6534973000016,None,335.6534973000016,None,335.6534973000016,None,335.6534973000016,None,335.6534973000016,None,52,54,25,67,25,59,None,None,None,None,None,None,None,None,None,None,None,None,,None,None,None,None,None,None,None,None,None,None,None,None,None,None,,None,None,None,None,-0.6,1,338.1854482999988,None,338.1854482999988,None,338.1854482999988,None,338.1854482999988,None,338.1854482999988,None,338.1854482999988,None,45,338.1854482999988,None,338.1854482999988,None,0.00010358000145060942,None,3.9259259259259265,2.264509000000544,342.77948689999903,None,342.77948689999903,None,342.77948689999903,None,342.77948689999903,None,None,None,345.0739995999975,None,0.06851851851851852,-0.31296296296296294,1,0,0,4.573034700006247,tijiao,,,,,,,,,223,m,24,2023_Mar_19_1524,RL,2021.2.3,60.033234399156505,
1,-0.3,-0.225,0,24,24,24,,,,,,,,,,,,,,,None,None,None,None,None,346.5864775000009,None,346.5864775000009,None,346.5864775000009,None,346.5864775000009,None,i,1.0202817000026698,346.5864775000009,None,346.5864775000009,None,347.6450896999959,None,347.6450896999959,None,347.6450896999959,None,347.6450896999959,None,347.6450896999959,None,347.6450896999959,None,347.93294949999836,None,347.93294949999836,None,349.1997138000006,None,349.1997138000006,None,349.1997138000006,None,349.1997138000006,None,349.1997138000006,None,349.1997138000006,None,349.1997138000006,None,349.1997138000006,None,349.1997138000006,None,45,51,16,60,16,25,351.7091642000014,None,2.0,2.337998899995,351.7091642000014,None,351.7091642000014,None,351.7091642000014,None,351.7091642000014,None,,None,None,None,None,None,None,None,None,None,None,None,None,None,None,,None,None,None,None,-0.2,3,None,None,None,None,None,None,None,None,None,None,None,None,,None,None,None,None,None,None,None,None,None,None,None,None,None,None,None,None,None,None,354.09778849999566,None,,,,,,,,,,,,,,,,223,m,24,2023_Mar_19_1524,RL,2021.2.3,60.033234399156505,
0,0.3,0.225,0,25,25,25,,,,,,,,,,,,,,,None,None,None,None,None,355.6786703999969,None,355.6786703999969,None,355.6786703999969,None,355.6786703999969,None,f,0.41901489999872865,355.6786703999969,None,355.6786703999969,None,356.1357951999962,None,356.1357951999962,None,356.1357951999962,None,356.1357951999962,None,356.1357951999962,None,356.1357951999962,None,356.4269432000001,357.83935550000024,356.4269432000001,357.83935550000024,357.86021289999917,None,357.86021289999917,None,357.86021289999917,None,357.86021289999917,None,357.86021289999917,None,357.86021289999917,None,357.86021289999917,None,357.86021289999917,None,357.86021289999917,None,47,54,27,57,54,77,None,None,None,None,None,None,None,None,None,None,None,None,54,360.3814285999979,None,360.3814285999979,None,360.3814285999979,None,360.3814285999979,None,360.3814285999979,None,360.3814285999979,None,360.3814285999979,None,54,360.3814285999979,None,0.010798479997902177,None,-0.6,0,None,None,None,None,None,None,None,None,None,None,None,None,,None,None,None,None,None,None,10.99074074074074,1.6732317999994848,364.0322700999968,None,364.0322700999968,None,364.0322700999968,None,364.0322700999968,None,None,None,365.71749189999537,None,,,,,,,,-0.075,-0.2759259259259259,1,0,0,3.6174285000015516,tijiao,,223,m,24,2023_Mar_19_1524,RL,2021.2.3,60.033234399156505,
1,-0.3,-0.225,0,26,26,26,,,,,,,,,,,,,,,None,None,None,None,None,367.230312599997,None,367.230312599997,None,367.230312599997,None,367.230312599997,None,j,0.560321600001771,367.230312599997,None,367.230312599997,None,367.82419639999716,None,367.82419639999716,None,367.82419639999716,None,367.82419639999716,None,367.82419639999716,None,367.82419639999716,None,368.1112664999964,369.24180659999547,368.1112664999964,369.24180659999547,369.2621722999975,None,369.2621722999975,None,369.2621722999975,None,369.2621722999975,None,369.2621722999975,None,369.2621722999975,None,369.2621722999975,None,369.2621722999975,None,369.2621722999975,None,46,56,18,61,61,34,371.77102490000107,None,6.0,2.837900999998965,371.77102490000107,None,371.77102490000107,None,371.77102490000107,None,371.77102490000107,None,,None,None,None,None,None,None,None,None,None,None,None,None,None,None,,None,None,None,None,0.6,3,None,None,None,None,None,None,None,None,None,None,None,None,,None,None,None,None,None,None,None,None,None,None,None,None,None,None,None,None,None,None,374.65786999999546,None,,,,,,,,,,,,,,,,223,m,24,2023_Mar_19_1524,RL,2021.2.3,60.033234399156505,
0,0.3,0.225,0,27,27,27,,,,,,,,,,,,,,,None,None,None,None,None,376.40547890000016,None,376.40547890000016,None,376.40547890000016,None,376.40547890000016,None,r,0.3405888999986928,376.40547890000016,None,376.40547890000016,None,376.7815950000004,None,376.7815950000004,None,376.7815950000004,None,376.7815950000004,None,376.7815950000004,None,376.7815950000004,None,377.07017389999965,None,377.07017389999965,None,378.80277529999876,None,378.80277529999876,None,378.80277529999876,None,378.80277529999876,None,378.80277529999876,None,378.80277529999876,None,378.80277529999876,None,378.80277529999876,None,378.80277529999876,None,52,49,20,61,52,67,None,None,None,None,None,None,None,None,None,None,None,None,,None,None,None,None,None,None,None,None,None,None,None,None,None,None,,None,None,None,None,0.6,1,381.3372806999978,None,381.3372806999978,None,381.3372806999978,None,381.3372806999978,None,381.3372806999978,None,381.3372806999978,None,55,381.3372806999978,None,381.3372806999978,None,0.015000019993749447,None,3.0555555555555554,2.5646589000025415,385.7110160000011,None,385.7110160000011,None,385.7110160000011,None,385.7110160000011,None,None,None,388.28927239999757,None,0.07962962962962963,-0.2833333333333333,1,0,0,4.3547133000029135,tijiao,,,,,,,,,223,m,24,2023_Mar_19_1524,RL,2021.2.3,60.033234399156505,
1,-0.3,-0.225,0,28,28,28,,,,,,,,,,,,,,,None,None,None,None,None,389.8850353999951,None,389.8850353999951,None,389.8850353999951,None,389.8850353999951,None,r,0.547721900002216,389.8850353999951,None,389.8850353999951,None,390.4621113999965,None,390.4621113999965,None,390.4621113999965,None,390.4621113999965,None,390.4621113999965,None,390.4621113999965,None,390.749653400002,None,390.749653400002,None,392.08670439999696,None,392.08670439999696,None,392.08670439999696,None,392.08670439999696,None,392.08670439999696,None,392.08670439999696,None,392.08670439999696,None,392.08670439999696,None,392.08670439999696,None,49,54,33,61,49,72,394.59419499999785,None,3.0,2.519462399999611,394.59419499999785,None,394.59419499999785,None,394.59419499999785,None,394.59419499999785,None,,None,None,None,None,None,None,None,None,None,None,None,None,None,None,,None,None,None,None,0.2,3,None,None,None,None,None,None,None,None,None,None,None,None,,None,None,None,None,None,None,None,None,None,None,None,None,None,None,None,None,None,None,397.1638888000016,None,,,,,,,,,,,,,,,,223,m,24,2023_Mar_19_1524,RL,2021.2.3,60.033234399156505,
0,0.3,0.225,0,29,29,29,,,,,,,,,,,,,,,None,None,None,None,None,398.7113404999982,None,398.7113404999982,None,398.7113404999982,None,398.7113404999982,None,f,0.4319002000047476,398.7113404999982,None,398.7113404999982,None,399.17252619999635,None,399.17252619999635,None,399.17252619999635,None,399.17252619999635,None,399.17252619999635,None,399.17252619999635,None,399.45893290000095,400.3235891000004,399.45893290000095,400.3235891000004,400.34569409999676,None,400.34569409999676,None,400.34569409999676,None,400.34569409999676,None,400.34569409999676,None,400.34569409999676,None,400.34569409999676,None,400.34569409999676,None,400.34569409999676,None,50,56,26,55,56,77,None,None,None,None,None,None,None,None,None,None,None,None,56,402.86539829999674,None,402.86539829999674,None,402.86539829999674,None,402.86539829999674,None,402.86539829999674,None,402.86539829999674,None,402.86539829999674,None,56,402.86539829999674,None,0.00976688000082504,None,-0.6,0,None,None,None,None,None,None,None,None,None,None,None,None,,None,None,None,None,None,None,10.972222222222221,1.5887498000010964,406.0660310000021,None,406.0660310000021,None,406.0660310000021,None,406.0660310000021,None,None,None,407.669865799995,None,,,,,,,,0.009259259259259259,-0.3037037037037037,1,0,0,3.1684883999987505,tijiao,,223,m,24,2023_Mar_19_1524,RL,2021.2.3,60.033234399156505,
1,-0.3,-0.225,0,30,30,30,,,,,,,,,,,,,,,None,None,None,None,None,409.6143525000007,None,409.6143525000007,None,409.6143525000007,None,409.6143525000007,None,i,0.24319139999715844,409.6143525000007,None,409.6143525000007,None,409.8911183999953,None,409.8911183999953,None,409.8911183999953,None,409.8911183999953,None,409.8911183999953,None,409.8911183999953,None,410.17984530000103,None,410.17984530000103,None,411.89502640000137,None,411.89502640000137,None,411.89502640000137,None,411.89502640000137,None,411.89502640000137,None,411.89502640000137,None,411.89502640000137,None,411.89502640000137,None,411.89502640000137,None,57,52,30,56,30,78,None,None,None,None,None,None,None,None,None,None,None,None,,None,None,None,None,None,None,None,None,None,None,None,None,None,None,,None,None,None,None,-0.6,1,414.42766599999595,None,414.42766599999595,None,414.42766599999595,None,414.42766599999595,None,414.42766599999595,None,414.42766599999595,None,24,414.42766599999595,None,414.42766599999595,None,0.016376820000004955,None,3.0555555555555554,3.18020709999837,418.67018339999777,None,418.67018339999777,None,418.67018339999777,None,418.67018339999777,None,None,None,421.864456700001,None,0.1259259259259259,-0.25,1,0,0,4.221784100001969,tijiao,,,,,,,,,223,m,24,2023_Mar_19_1524,RL,2021.2.3,60.033234399156505,
0,0.3,0.225,0,31,31,31,,,,,,,,,,,,,,,None,None,None,None,None,423.8754933999953,None,423.8754933999953,None,423.8754933999953,None,423.8754933999953,None,j,0.4014127999980701,423.8754933999953,None,423.8754933999953,None,424.3171712999974,None,424.3171712999974,None,424.3171712999974,None,424.3171712999974,None,424.3171712999974,None,424.3171712999974,None,424.6066384000005,425.4549416000009,424.6066384000005,425.4549416000009,425.47464480000053,None,425.47464480000053,None,425.47464480000053,None,425.47464480000053,None,425.47464480000053,None,425.47464480000053,None,425.47464480000053,None,425.47464480000053,None,425.47464480000053,None,50,64,35,54,54,63,427.98471900000004,None,4.0,2.9073753999982728,427.98471900000004,None,427.98471900000004,None,427.98471900000004,None,427.98471900000004,None,,None,None,None,None,None,None,None,None,None,None,None,None,None,None,,None,None,None,None,0.6,2,None,None,None,None,None,None,None,None,None,None,None,None,,None,None,None,None,None,None,None,None,None,None,None,None,None,None,None,None,None,None,430.93795559999853,None,,,,,,,,,,,,,,,,223,m,24,2023_Mar_19_1524,RL,2021.2.3,60.033234399156505,
1,-0.3,-0.225,0,32,32,32,,,,,,,,,,,,,,,None,None,None,None,None,432.5525521000018,None,432.5525521000018,None,432.5525521000018,None,432.5525521000018,None,r,0.48983050000242656,432.5525521000018,None,432.5525521000018,None,433.0761207999967,None,433.0761207999967,None,433.0761207999967,None,433.0761207999967,None,433.0761207999967,None,433.0761207999967,None,433.3498050999988,434.87954770000215,433.3498050999988,434.87954770000215,434.9163260999994,None,434.9163260999994,None,434.9163260999994,None,434.9163260999994,None,434.9163260999994,None,434.9163260999994,None,434.9163260999994,None,434.9163260999994,None,434.9163260999994,None,48,67,34,58,48,68,None,None,None,None,None,None,None,None,None,None,None,None,48,437.4365831999967,None,437.4365831999967,None,437.4365831999967,None,437.4365831999967,None,437.4365831999967,None,437.4365831999967,None,437.4365831999967,None,48,437.4365831999967,None,0.011715880005795043,None,-0.2,0,None,None,None,None,None,None,None,None,None,None,None,None,,None,None,None,None,None,None,10.953703703703704,1.7382282000035048,441.0235782000018,None,441.0235782000018,None,441.0235782000018,None,441.0235782000018,None,None,None,442.79079239999555,None,,,,,,,,-0.009259259259259259,-0.25555555555555554,1,0,0,3.5523956999968505,tijiao,,223,m,24,2023_Mar_19_1524,RL,2021.2.3,60.033234399156505,
0,0.3,0.225,0,33,33,33,,,,,,,,,,,,,,,None,None,None,None,None,444.66910199999984,None,444.66910199999984,None,444.66910199999984,None,444.66910199999984,None,f,1.2601728000008734,444.66910199999984,None,444.66910199999984,None,445.9603774999996,None,445.9603774999996,None,445.9603774999996,None,445.9603774999996,None,445.9603774999996,None,445.9603774999996,None,446.24830420000217,None,446.24830420000217,None,447.4645614999972,None,447.4645614999972,None,447.4645614999972,None,447.4645614999972,None,447.4645614999972,None,447.4645614999972,None,447.4645614999972,None,447.4645614999972,None,447.4645614999972,None,43,63,42,53,63,25,449.9745789000008,None,6.0,2.7376777999961632,449.9745789000008,None,449.9745789000008,None,449.9745789000008,None,449.9745789000008,None,,None,None,None,None,None,None,None,None,None,None,None,None,None,None,,None,None,None,None,-0.6,2,None,None,None,None,None,None,None,None,None,None,None,None,,None,None,None,None,None,None,None,None,None,None,None,None,None,None,None,None,None,None,452.76119389999803,None,,,,,,,,,,,,,,,,223,m,24,2023_Mar_19_1524,RL,2021.2.3,60.033234399156505,
1,-0.3,-0.225,0,34,34,34,,,,,,,,,,,,,,,None,None,None,None,None,454.30930819999776,None,454.30930819999776,None,454.30930819999776,None,454.30930819999776,None,i,0.46616469999571564,454.30930819999776,None,454.30930819999776,None,454.80172109999694,None,454.80172109999694,None,454.80172109999694,None,454.80172109999694,None,454.80172109999694,None,454.80172109999694,None,455.0908330999955,456.78621839999687,455.0908330999955,456.78621839999687,456.8065650999997,None,456.8065650999997,None,456.8065650999997,None,456.8065650999997,None,456.8065650999997,None,456.8065650999997,None,456.8065650999997,None,456.8065650999997,None,456.8065650999997,None,55,56,35,56,35,57,None,None,None,None,None,None,None,None,None,None,None,None,35,459.3276862999992,None,459.3276862999992,None,459.3276862999992,None,459.3276862999992,None,459.3276862999992,None,459.3276862999992,None,459.3276862999992,None,35,459.3276862999992,None,0.011268280002695974,None,0.2,0,None,None,None,None,None,None,None,None,None,None,None,None,,None,None,None,None,None,None,11,1.6401560999947833,463.1434336999955,None,463.1434336999955,None,463.1434336999955,None,463.1434336999955,None,None,None,464.79765719999705,None,,,,,,,,0.0712962962962963,-0.2824074074074074,1,0,0,3.7841784999982337,tijiao,,223,m,24,2023_Mar_19_1524,RL,2021.2.3,60.033234399156505,
0,0.3,0.225,0,35,35,35,,,,,,,,,,,,,,,None,None,None,None,None,466.37884340000164,None,466.37884340000164,None,466.37884340000164,None,466.37884340000164,None,j,0.6947180999995908,466.37884340000164,None,466.37884340000164,None,467.10336280000047,None,467.10336280000047,None,467.10336280000047,None,467.10336280000047,None,467.10336280000047,None,467.10336280000047,None,467.39031850000174,469.3517095999996,467.39031850000174,469.3517095999996,469.37151879999874,None,469.37151879999874,None,469.37151879999874,None,469.37151879999874,None,469.37151879999874,None,469.37151879999874,None,469.37151879999874,None,469.37151879999874,None,469.37151879999874,None,49,54,38,65,65,50,471.88603760000115,None,5.0,3.347443000006024,471.88603760000115,None,471.88603760000115,None,471.88603760000115,None,471.88603760000115,None,,None,None,None,None,None,None,None,None,None,None,None,None,None,None,,None,None,None,None,-0.6,3,None,None,None,None,None,None,None,None,None,None,None,None,,None,None,None,None,None,None,None,None,None,None,None,None,None,None,None,None,None,None,475.28275459999713,None,,,,,,,,,,,,,,,,223,m,24,2023_Mar_19_1524,RL,2021.2.3,60.033234399156505,
1,-0.3,-0.225,0,36,36,36,,,,,,,,,,,,,,,None,None,None,None,None,477.03040840000176,None,477.03040840000176,None,477.03040840000176,None,477.03040840000176,None,r,0.4773316999999224,477.03040840000176,None,477.03040840000176,None,477.5390428999963,None,477.5390428999963,None,477.5390428999963,None,477.5390428999963,None,477.5390428999963,None,477.5390428999963,None,477.82848759999615,None,477.82848759999615,None,479.1775196000017,None,479.1775196000017,None,479.1775196000017,None,479.1775196000017,None,479.1775196000017,None,479.1775196000017,None,479.1775196000017,None,479.1775196000017,None,479.1775196000017,None,55,57,47,56,55,54,481.6892844999966,None,5.0,2.935143499998958,481.6892844999966,None,481.6892844999966,None,481.6892844999966,None,481.6892844999966,None,,None,None,None,None,None,None,None,None,None,None,None,None,None,None,,None,None,None,None,-0.2,3,None,None,None,None,None,None,None,None,None,None,None,None,,None,None,None,None,None,None,None,None,None,None,None,None,None,None,None,None,None,None,484.6754665999979,None,,,,,,,,,,,,,,,,223,m,24,2023_Mar_19_1524,RL,2021.2.3,60.033234399156505,
0,0.3,0.225,0,37,37,37,,,,,,,,,,,,,,,None,None,None,None,None,486.4217179999978,None,486.4217179999978,None,486.4217179999978,None,486.4217179999978,None,f,0.3867633999980171,486.4217179999978,None,486.4217179999978,None,486.8460760999951,None,486.8460760999951,None,486.8460760999951,None,486.8460760999951,None,486.8460760999951,None,486.8460760999951,None,487.1365952999986,None,487.1365952999986,None,489.07164380000177,None,489.07164380000177,None,489.07164380000177,None,489.07164380000177,None,489.07164380000177,None,489.07164380000177,None,489.07164380000177,None,489.07164380000177,None,489.07164380000177,None,53,54,43,53,54,48,None,None,None,None,None,None,None,None,None,None,None,None,,None,None,None,None,None,None,None,None,None,None,None,None,None,None,,None,None,None,None,0.2,1,491.6017992999987,None,491.6017992999987,None,491.6017992999987,None,491.6017992999987,None,491.6017992999987,None,491.6017992999987,None,58,491.6017992999987,None,491.6017992999987,None,0.015363919999799691,None,5.0092592592592595,1.5204038000010769,496.9730017999973,None,496.9730017999973,None,496.9730017999973,None,496.9730017999973,None,None,None,498.5206296999968,None,-0.002777777777777778,-0.24166666666666667,1,0,0,4.253965500000049,tijiao,,,,,,,,,223,m,24,2023_Mar_19_1524,RL,2021.2.3,60.033234399156505,
1,-0.3,-0.225,0,38,38,38,,,,,,,,,,,,,,,None,None,None,None,None,500.50068699999974,None,500.50068699999974,None,500.50068699999974,None,500.50068699999974,None,j,0.5486605999976746,500.50068699999974,None,500.50068699999974,None,501.0763055999996,None,501.0763055999996,None,501.0763055999996,None,501.0763055999996,None,501.0763055999996,None,501.0763055999996,None,501.3645156999992,502.8601947999996,501.3645156999992,502.8601947999996,502.88145229999645,None,502.88145229999645,None,502.88145229999645,None,502.88145229999645,None,502.88145229999645,None,502.88145229999645,None,502.88145229999645,None,502.88145229999645,None,502.88145229999645,None,44,61,44,55,55,51,None,None,None,None,None,None,None,None,None,None,None,None,,None,None,None,None,None,None,None,None,None,None,None,None,None,None,,None,None,None,None,0.2,1,505.41229179999937,None,505.41229179999937,None,505.41229179999937,None,505.41229179999937,None,505.41229179999937,None,505.41229179999937,None,55,505.41229179999937,None,505.41229179999937,None,0.0004345799970906228,None,3.981481481481482,2.9497841999982484,511.1344456000006,None,511.1344456000006,None,511.1344456000006,None,511.1344456000006,None,None,None,514.0967638000002,None,-0.05,-0.30648148148148147,1,0,0,5.701936500001466,tijiao,,,,,,,,,223,m,24,2023_Mar_19_1524,RL,2021.2.3,60.033234399156505,
0,0.3,0.225,0,39,39,39,,,,,,,,,,,,,,,None,None,None,None,None,516.042257299996,None,516.042257299996,None,516.042257299996,None,516.042257299996,None,r,0.5815688999937265,516.042257299996,None,516.042257299996,None,516.6499351999955,None,516.6499351999955,None,516.6499351999955,None,516.6499351999955,None,516.6499351999955,None,516.6499351999955,None,516.938295699998,518.2350477,516.938295699998,518.2350477,518.2558866999971,None,518.2558866999971,None,518.2558866999971,None,518.2558866999971,None,518.2558866999971,None,518.2558866999971,None,518.2558866999971,None,518.2558866999971,None,518.2558866999971,None,38,53,50,62,38,56,None,None,None,None,None,None,None,None,None,None,None,None,38,520.7780399999974,None,520.7780399999974,None,520.7780399999974,None,520.7780399999974,None,520.7780399999974,None,520.7780399999974,None,520.7780399999974,None,38,520.7780399999974,None,0.009840279999480117,None,-0.2,0,None,None,None,None,None,None,None,None,None,None,None,None,,None,None,None,None,None,None,10.916666666666668,1.9389148999980534,524.4258848999962,None,524.4258848999962,None,524.4258848999962,None,524.4258848999962,None,None,None,526.3792557999986,None,,,,,,,,-0.1388888888888889,-0.25277777777777777,1,0,0,3.6168703000003006,tijiao,,223,m,24,2023_Mar_19_1524,RL,2021.2.3,60.033234399156505,
1,-0.3,-0.225,0,40,40,40,,,,,,,,,,,,,,,None,None,None,None,None,528.0253099999973,None,528.0253099999973,None,528.0253099999973,None,528.0253099999973,None,f,0.3419703999970807,528.0253099999973,None,528.0253099999973,None,528.4007668999984,None,528.4007668999984,None,528.4007668999984,None,528.4007668999984,None,528.4007668999984,None,528.4007668999984,None,528.6896358000013,530.4020487000016,528.6896358000013,530.4020487000016,530.4231438999996,None,530.4231438999996,None,530.4231438999996,None,530.4231438999996,None,530.4231438999996,None,530.4231438999996,None,530.4231438999996,None,530.4231438999996,None,530.4231438999996,None,39,61,47,65,61,18,None,None,None,None,None,None,None,None,None,None,None,None,,None,None,None,None,None,None,None,None,None,None,None,None,None,None,,None,None,None,None,0.6,1,532.9537408999968,None,532.9537408999968,None,532.9537408999968,None,532.9537408999968,None,532.9537408999968,None,532.9537408999968,None,18,532.9537408999968,None,532.9537408999968,None,0.016418020000855904,None,5.018518518518518,4.3783637000015005,537.7943843999965,None,537.7943843999965,None,537.7943843999965,None,537.7943843999965,None,None,None,542.1888191999969,None,0.025,-0.2611111111111111,1,0,0,4.820327800000086,tijiao,,,,,,,,,223,m,24,2023_Mar_19_1524,RL,2021.2.3,60.033234399156505,
0,0.3,0.225,0,41,41,41,,,,,,,,,,,,,,,None,None,None,None,None,543.8655700000018,None,543.8655700000018,None,543.8655700000018,None,543.8655700000018,None,j,0.49537509999936447,543.8655700000018,None,543.8655700000018,None,544.3901909999986,None,544.3901909999986,None,544.3901909999986,None,544.3901909999986,None,544.3901909999986,None,544.3901909999986,None,544.6796911999991,None,544.6796911999991,None,546.5615514000019,None,546.5615514000019,None,546.5615514000019,None,546.5615514000019,None,546.5615514000019,None,546.5615514000019,None,546.5615514000019,None,546.5615514000019,None,546.5615514000019,None,43,53,60,70,70,54,None,None,None,None,None,None,None,None,None,None,None,None,,None,None,None,None,None,None,None,None,None,None,None,None,None,None,,None,None,None,None,0.2,1,549.0935353999957,None,549.0935353999957,None,549.0935353999957,None,549.0935353999957,None,549.0935353999957,None,549.0935353999957,None,54,549.0935353999957,None,549.0935353999957,None,0.01626211999246152,None,3.9444444444444446,1.8516219000011915,554.066845100002,None,554.066845100002,None,554.066845100002,None,554.066845100002,None,None,None,555.9481861999957,None,-0.012037037037037037,-0.2861111111111111,1,0,0,4.953019200002018,tijiao,,,,,,,,,223,m,24,2023_Mar_19_1524,RL,2021.2.3,60.033234399156505,
1,-0.3,-0.225,0,42,42,42,,,,,,,,,,,,,,,None,None,None,None,None,557.9430501999959,None,557.9430501999959,None,557.9430501999959,None,557.9430501999959,None,f,0.589116200004355,557.9430501999959,None,557.9430501999959,None,558.568752399995,None,558.568752399995,None,558.568752399995,None,558.568752399995,None,558.568752399995,None,558.568752399995,None,558.8573151000019,560.3364938000013,558.8573151000019,560.3364938000013,560.3579029999964,None,560.3579029999964,None,560.3579029999964,None,560.3579029999964,None,560.3579029999964,None,560.3579029999964,None,560.3579029999964,None,560.3579029999964,None,560.3579029999964,None,54,59,54,61,59,49,562.8671955999962,None,5.0,3.069402400004037,562.8671955999962,None,562.8671955999962,None,562.8671955999962,None,562.8671955999962,None,,None,None,None,None,None,None,None,None,None,None,None,None,None,None,,None,None,None,None,0.6,3,None,None,None,None,None,None,None,None,None,None,None,None,,None,None,None,None,None,None,None,None,None,None,None,None,None,None,None,None,None,None,565.9855652999977,None,,,,,,,,,,,,,,,,223,m,24,2023_Mar_19_1524,RL,2021.2.3,60.033234399156505,
0,0.3,0.225,0,43,43,43,,,,,,,,,,,,,,,None,None,None,None,None,567.7329784999965,None,567.7329784999965,None,567.7329784999965,None,567.7329784999965,None,j,0.7193872999996529,567.7329784999965,None,567.7329784999965,None,568.489651799995,None,568.489651799995,None,568.489651799995,None,568.489651799995,None,568.489651799995,None,568.489651799995,None,568.7803620999985,None,568.7803620999985,None,569.5988466999988,None,569.5988466999988,None,569.5988466999988,None,569.5988466999988,None,569.5988466999988,None,569.5988466999988,None,569.5988466999988,None,569.5988466999988,None,569.5988466999988,None,50,55,59,57,57,43,None,None,None,None,None,None,None,None,None,None,None,None,57,572.1183633999972,None,572.1183633999972,None,572.1183633999972,None,572.1183633999972,None,572.1183633999972,None,572.1183633999972,None,572.1183633999972,None,57,572.1183633999972,None,0.011639479998848401,None,-0.6,0,None,None,None,None,None,None,None,None,None,None,None,None,,None,None,None,None,None,None,10.916666666666668,1.7916007999956491,576.714430699998,None,576.714430699998,None,576.714430699998,None,576.714430699998,None,None,None,578.5199210999999,None,,,,,,,,0.07314814814814814,-0.2462962962962963,1,0,0,3.4200512999959756,tijiao,,223,m,24,2023_Mar_19_1524,RL,2021.2.3,60.033234399156505,
1,-0.3,-0.225,0,44,44,44,,,,,,,,,,,,,,,None,None,None,None,None,580.0329267999987,None,580.0329267999987,None,580.0329267999987,None,580.0329267999987,None,r,0.5461652999947546,580.0329267999987,None,580.0329267999987,None,580.6106249000004,None,580.6106249000004,None,580.6106249000004,None,580.6106249000004,None,580.6106249000004,None,580.6106249000004,None,580.8973697999973,582.2768341999981,580.8973697999973,582.2768341999981,582.2984729000018,None,582.2984729000018,None,582.2984729000018,None,582.2984729000018,None,582.2984729000018,None,582.2984729000018,None,582.2984729000018,None,582.2984729000018,None,582.2984729000018,None,48,55,57,62,48,42,None,None,None,None,None,None,None,None,None,None,None,None,,None,None,None,None,None,None,None,None,None,None,None,None,None,None,,None,None,None,None,-0.6,1,584.8308735999963,None,584.8308735999963,None,584.8308735999963,None,584.8308735999963,None,584.8308735999963,None,584.8308735999963,None,48,584.8308735999963,None,584.8308735999963,None,0.014754119998542592,None,10.86111111111111,1.6851978000049712,588.6390587999995,None,588.6390587999995,None,588.6390587999995,None,588.6390587999995,None,None,None,590.3378243999978,None,0.12407407407407407,-0.28703703703703703,1,0,0,3.7882451999976183,tijiao,,,,,,,,,223,m,24,2023_Mar_19_1524,RL,2021.2.3,60.033234399156505,
0,0.3,0.225,0,45,45,45,,,,,,,,,,,,,,,None,None,None,None,None,592.0169241999974,None,592.0169241999974,None,592.0169241999974,None,592.0169241999974,None,None,,592.0169241999974,None,592.0169241999974,None,None,None,None,None,None,None,None,None,None,None,None,None,None,None,None,None,None,None,None,None,None,None,None,None,None,None,None,None,None,None,None,None,None,None,43,56,51,46,0,**,None,None,None,None,None,None,None,None,None,None,None,None,,None,None,None,None,None,None,None,None,None,None,None,None,None,None,,None,None,None,None,-0.2,0,None,None,None,None,None,None,None,None,None,None,None,None,,None,None,None,None,None,None,None,None,None,None,None,None,None,None,None,None,593.5872327999969,None,598.1000490000006,None,,,,,,,,,,,,,,,,223,m,24,2023_Mar_19_1524,RL,2021.2.3,60.033234399156505,
1,-0.3,-0.225,0,46,46,46,,,,,,,,,,,,,,,None,None,None,None,None,600.0946640999973,None,600.0946640999973,None,600.0946640999973,None,600.0946640999973,None,i,0.2595718000011402,600.0946640999973,None,600.0946640999973,None,600.3879244999989,None,600.3879244999989,None,600.3879244999989,None,600.3879244999989,None,600.3879244999989,None,600.3879244999989,None,600.6767989,None,600.6767989,None,602.076189200001,None,602.076189200001,None,602.076189200001,None,602.076189200001,None,602.076189200001,None,602.076189200001,None,602.076189200001,None,602.076189200001,None,602.076189200001,None,49,60,52,55,52,65,None,None,None,None,None,None,None,None,None,None,None,None,52,604.5995666999952,None,604.5995666999952,None,604.5995666999952,None,604.5995666999952,None,604.5995666999952,None,604.5995666999952,None,604.5995666999952,None,52,604.5995666999952,None,0.009024380000482779,None,-0.2,0,None,None,None,None,None,None,None,None,None,None,None,None,,None,None,None,None,None,None,10.925925925925926,1.6061617999948794,609.4107788999972,None,609.4107788999972,None,609.4107788999972,None,609.4107788999972,None,None,None,611.0313231999971,None,,,,,,,,0.008333333333333333,-0.2953703703703704,1,0,0,4.77970049999567,tijiao,,223,m,24,2023_Mar_19_1524,RL,2021.2.3,60.033234399156505,
0,0.3,0.225,0,47,47,47,,,,,,,,,,,,,,,None,None,None,None,None,612.9925351999991,None,612.9925351999991,None,612.9925351999991,None,612.9925351999991,None,f,0.3293582999976934,612.9925351999991,None,612.9925351999991,None,613.3525440000012,None,613.3525440000012,None,613.3525440000012,None,613.3525440000012,None,613.3525440000012,None,613.3525440000012,None,613.6412599999967,None,613.6412599999967,None,615.110732299996,None,615.110732299996,None,615.110732299996,None,615.110732299996,None,615.110732299996,None,615.110732299996,None,615.110732299996,None,615.110732299996,None,615.110732299996,None,50,50,52,65,50,69,None,None,None,None,None,None,None,None,None,None,None,None,,None,None,None,None,None,None,None,None,None,None,None,None,None,None,,None,None,None,None,0.6,1,617.6402856999994,None,617.6402856999994,None,617.6402856999994,None,617.6402856999994,None,617.6402856999994,None,617.6402856999994,None,69,617.6402856999994,None,617.6402856999994,None,0.015169419995800126,None,3.8888888888888884,2.7136222000044654,622.2664035999987,None,622.2664035999987,None,622.2664035999987,None,622.2664035999987,None,None,None,624.9931821999999,None,0.15648148148148147,-0.2212962962962963,1,0,0,3.672520499996608,tijiao,,,,,,,,,223,m,24,2023_Mar_19_1524,RL,2021.2.3,60.033234399156505,
1,-0.3,-0.225,0,48,48,48,,,,,,,,,,,,,,,None,None,None,None,None,626.7384655999995,None,626.7384655999995,None,626.7384655999995,None,626.7384655999995,None,j,0.753216799996153,626.7384655999995,None,626.7384655999995,None,627.5299032999974,None,627.5299032999974,None,627.5299032999974,None,627.5299032999974,None,627.5299032999974,None,627.5299032999974,None,627.819617299996,629.0658354999978,627.819617299996,629.0658354999978,629.0869930999979,None,629.0869930999979,None,629.0869930999979,None,629.0869930999979,None,629.0869930999979,None,629.0869930999979,None,629.0869930999979,None,629.0869930999979,None,629.0869930999979,None,34,64,51,62,62,68,None,None,None,None,None,None,None,None,None,None,None,None,,None,None,None,None,None,None,None,None,None,None,None,None,None,None,,None,None,None,None,-0.2,1,631.6199602999986,None,631.6199602999986,None,631.6199602999986,None,631.6199602999986,None,631.6199602999986,None,631.6199602999986,None,78,631.6199602999986,None,631.6199602999986,None,0.014720920000399929,None,2.9907407407407405,1.6682476999994833,636.258253699998,None,636.258253699998,None,636.258253699998,None,636.258253699998,None,None,None,637.9429212999967,None,-0.04351851851851852,-0.2712962962962963,1,0,0,4.619111100000737,tijiao,,,,,,,,,223,m,24,2023_Mar_19_1524,RL,2021.2.3,60.033234399156505,
0,0.3,0.225,0,49,49,49,,,,,,,,,,,,,,,None,None,None,None,None,639.8362340000022,None,639.8362340000022,None,639.8362340000022,None,639.8362340000022,None,f,0.35283210000488907,639.8362340000022,None,639.8362340000022,None,640.2300595999986,None,640.2300595999986,None,640.2300595999986,None,640.2300595999986,None,640.2300595999986,None,640.2300595999986,None,640.517826299998,642.1632787999988,640.517826299998,642.1632787999988,642.1831999999995,None,642.1831999999995,None,642.1831999999995,None,642.1831999999995,None,642.1831999999995,None,642.1831999999995,None,642.1831999999995,None,642.1831999999995,None,642.1831999999995,None,43,57,52,57,57,38,644.6935460999957,None,4.0,3.450877199997194,644.6935460999957,None,644.6935460999957,None,644.6935460999957,None,644.6935460999957,None,,None,None,None,None,None,None,None,None,None,None,None,None,None,None,,None,None,None,None,0.6,3,None,None,None,None,None,None,None,None,None,None,None,None,,None,None,None,None,None,None,None,None,None,None,None,None,None,None,None,None,None,None,648.1942512999958,None,,,,,,,,,,,,,,,,223,m,24,2023_Mar_19_1524,RL,2021.2.3,60.033234399156505,
1,-0.3,-0.225,0,50,50,50,,,,,,,,,,,,,,,None,None,None,None,None,649.8418023999984,None,649.8418023999984,None,649.8418023999984,None,649.8418023999984,None,j,0.3962734000015189,649.8418023999984,None,649.8418023999984,None,650.2724601000009,None,650.2724601000009,None,650.2724601000009,None,650.2724601000009,None,650.2724601000009,None,650.2724601000009,None,650.5573747999952,652.2193534999969,650.5573747999952,652.2193534999969,652.2400846000019,None,652.2400846000019,None,652.2400846000019,None,652.2400846000019,None,652.2400846000019,None,652.2400846000019,None,652.2400846000019,None,652.2400846000019,None,652.2400846000019,None,42,55,51,55,55,59,None,None,None,None,None,None,None,None,None,None,None,None,55,654.7592145999952,None,654.7592145999952,None,654.7592145999952,None,654.7592145999952,None,654.7592145999952,None,654.7592145999952,None,654.7592145999952,None,55,654.7592145999952,None,0.011857280005642679,None,-0.2,0,None,None,None,None,None,None,None,None,None,None,None,None,,None,None,None,None,None,None,10.99074074074074,1.6058237000033841,659.6073582999961,None,659.6073582999961,None,659.6073582999961,None,659.6073582999961,None,None,None,661.2281589999984,None,,,,,,,,0.05185185185185185,-0.29814814814814816,1,0,0,4.8158800000019255,tijiao,,223,m,24,2023_Mar_19_1524,RL,2021.2.3,60.033234399156505,
0,0.3,0.225,0,51,51,51,,,,,,,,,,,,,,,None,None,None,None,None,662.8568069999965,None,662.8568069999965,None,662.8568069999965,None,662.8568069999965,None,r,0.5537913000007393,662.8568069999965,None,662.8568069999965,None,663.4479047999994,None,663.4479047999994,None,663.4479047999994,None,663.4479047999994,None,663.4479047999994,None,663.4479047999994,None,663.7376730999968,None,663.7376730999968,None,664.9395824999956,None,664.9395824999956,None,664.9395824999956,None,664.9395824999956,None,664.9395824999956,None,664.9395824999956,None,664.9395824999956,None,664.9395824999956,None,664.9395824999956,None,48,58,58,49,48,66,None,None,None,None,None,None,None,None,None,None,None,None,,None,None,None,None,None,None,None,None,None,None,None,None,None,None,,None,None,None,None,-0.2,1,667.4706581999999,None,667.4706581999999,None,667.4706581999999,None,667.4706581999999,None,667.4706581999999,None,667.4706581999999,None,66,667.4706581999999,None,667.4706581999999,None,0.016129620002175216,None,4.101851851851851,3.098088699996879,671.1966857000007,None,671.1966857000007,None,671.1966857000007,None,671.1966857000007,None,None,None,674.3085795000006,None,0.06574074074074074,-0.262037037037037,1,0,0,3.705933899997035,tijiao,,,,,,,,,223,m,24,2023_Mar_19_1524,RL,2021.2.3,60.033234399156505,
1,-0.3,-0.225,0,52,52,52,,,,,,,,,,,,,,,None,None,None,None,None,675.971154400002,None,675.971154400002,None,675.971154400002,None,675.971154400002,None,j,0.3662920999995549,675.971154400002,None,675.971154400002,None,676.3635810999986,None,676.3635810999986,None,676.3635810999986,None,676.3635810999986,None,676.3635810999986,None,676.3635810999986,None,676.6528756999978,None,676.6528756999978,None,677.6039848,None,677.6039848,None,677.6039848,None,677.6039848,None,677.6039848,None,677.6039848,None,677.6039848,None,677.6039848,None,677.6039848,None,37,55,62,42,42,58,None,None,None,None,None,None,None,None,None,None,None,None,42,680.1252322,None,680.1252322,None,680.1252322,None,680.1252322,None,680.1252322,None,680.1252322,None,680.1252322,None,42,680.1252322,None,0.011011679998773616,None,-0.6,0,None,None,None,None,None,None,None,None,None,None,None,None,,None,None,None,None,None,None,10.916666666666668,1.838494499999797,684.0242834000019,None,684.0242834000019,None,684.0242834000019,None,684.0242834000019,None,None,None,685.877530400001,None,,,,,,,,-0.025925925925925925,-0.2759259259259259,1,0,0,3.866900799999712,tijiao,,223,m,24,2023_Mar_19_1524,RL,2021.2.3,60.033234399156505,
0,0.3,0.225,0,53,53,53,,,,,,,,,,,,,,,None,None,None,None,None,687.592198899998,None,687.592198899998,None,687.592198899998,None,687.592198899998,None,j,0.7226319999972475,687.592198899998,None,687.592198899998,None,688.346709999998,None,688.346709999998,None,688.346709999998,None,688.346709999998,None,688.346709999998,None,688.346709999998,None,688.6361783999964,None,688.6361783999964,None,689.6036038999955,None,689.6036038999955,None,689.6036038999955,None,689.6036038999955,None,689.6036038999955,None,689.6036038999955,None,689.6036038999955,None,689.6036038999955,None,689.6036038999955,None,34,59,67,50,50,60,692.1131143999955,None,3.0,3.403244500004803,692.1131143999955,None,692.1131143999955,None,692.1131143999955,None,692.1131143999955,None,,None,None,None,None,None,None,None,None,None,None,None,None,None,None,,None,None,None,None,-0.2,2,None,None,None,None,None,None,None,None,None,None,None,None,,None,None,None,None,None,None,None,None,None,None,None,None,None,None,None,None,None,None,695.5641399000015,None,,,,,,,,,,,,,,,,223,m,24,2023_Mar_19_1524,RL,2021.2.3,60.033234399156505,
1,-0.3,-0.225,0,54,54,54,,,,,,,,,,,,,,,None,None,None,None,None,697.5782527999982,None,697.5782527999982,None,697.5782527999982,None,697.5782527999982,None,r,0.35585490000084974,697.5782527999982,None,697.5782527999982,None,697.9694851999957,None,697.9694851999957,None,697.9694851999957,None,697.9694851999957,None,697.9694851999957,None,697.9694851999957,None,698.2602408999956,699.7558467999988,698.2602408999956,699.7558467999988,699.7753245999993,None,699.7753245999993,None,699.7753245999993,None,699.7753245999993,None,699.7753245999993,None,699.7753245999993,None,699.7753245999993,None,699.7753245999993,None,699.7753245999993,None,34,54,65,43,34,57,702.2851871000021,None,3.0,2.4064314999995986,702.2851871000021,None,702.2851871000021,None,702.2851871000021,None,702.2851871000021,None,,None,None,None,None,None,None,None,None,None,None,None,None,None,None,,None,None,None,None,0.2,2,None,None,None,None,None,None,None,None,None,None,None,None,,None,None,None,None,None,None,None,None,None,None,None,None,None,None,None,None,None,None,704.7398923000001,None,,,,,,,,,,,,,,,,223,m,24,2023_Mar_19_1524,RL,2021.2.3,60.033234399156505,
0,0.3,0.225,0,55,55,55,,,,,,,,,,,,,,,None,None,None,None,None,706.6867434000014,None,706.6867434000014,None,706.6867434000014,None,706.6867434000014,None,i,0.32870489999913843,706.6867434000014,None,706.6867434000014,None,707.0488989000005,None,707.0488989000005,None,707.0488989000005,None,707.0488989000005,None,707.0488989000005,None,707.0488989000005,None,707.3351838999952,708.548512100002,707.3351838999952,708.548512100002,708.5684079999992,None,708.5684079999992,None,708.5684079999992,None,708.5684079999992,None,708.5684079999992,None,708.5684079999992,None,708.5684079999992,None,708.5684079999992,None,708.5684079999992,None,38,53,64,52,64,34,None,None,None,None,None,None,None,None,None,None,None,None,64,711.0934586000003,None,711.0934586000003,None,711.0934586000003,None,711.0934586000003,None,711.0934586000003,None,711.0934586000003,None,711.0934586000003,None,64,711.0934586000003,None,0.008486480001010932,None,0.6,0,None,None,None,None,None,None,None,None,None,None,None,None,,None,None,None,None,None,None,10.935185185185185,1.8080641999986256,714.9240819999977,None,714.9240819999977,None,714.9240819999977,None,714.9240819999977,None,None,None,716.7581176999956,None,,,,,,,,-0.08981481481481482,-0.2537037037037037,1,0,0,3.7989637999999104,tijiao,,223,m,24,2023_Mar_19_1524,RL,2021.2.3,60.033234399156505,
1,-0.3,-0.225,0,56,56,56,,,,,,,,,,,,,,,None,None,None,None,None,718.5212323000014,None,718.5212323000014,None,718.5212323000014,None,718.5212323000014,None,j,0.7728770999965491,718.5212323000014,None,718.5212323000014,None,719.3313854000007,None,719.3313854000007,None,719.3313854000007,None,719.3313854000007,None,719.3313854000007,None,719.3313854000007,None,719.6183278999961,720.882162599999,719.6183278999961,720.882162599999,720.9033926999982,None,720.9033926999982,None,720.9033926999982,None,720.9033926999982,None,720.9033926999982,None,720.9033926999982,None,720.9033926999982,None,720.9033926999982,None,720.9033926999982,None,42,50,66,48,48,34,723.4120786999993,None,5.0,2.6872982999993837,723.4120786999993,None,723.4120786999993,None,723.4120786999993,None,723.4120786999993,None,,None,None,None,None,None,None,None,None,None,None,None,None,None,None,,None,None,None,None,-0.2,3,None,None,None,None,None,None,None,None,None,None,None,None,,None,None,None,None,None,None,None,None,None,None,None,None,None,None,None,None,None,None,726.1484283999962,None,,,,,,,,,,,,,,,,223,m,24,2023_Mar_19_1524,RL,2021.2.3,60.033234399156505,
0,0.3,0.225,0,57,57,57,,,,,,,,,,,,,,,None,None,None,None,None,727.6803996999952,None,727.6803996999952,None,727.6803996999952,None,727.6803996999952,None,j,0.6999263000034261,727.6803996999952,None,727.6803996999952,None,728.4216480999967,None,728.4216480999967,None,728.4216480999967,None,728.4216480999967,None,728.4216480999967,None,728.4216480999967,None,728.7104478999972,730.3555988000007,728.7104478999972,730.3555988000007,730.3759811999989,None,730.3759811999989,None,730.3759811999989,None,730.3759811999989,None,730.3759811999989,None,730.3759811999989,None,730.3759811999989,None,730.3759811999989,None,730.3759811999989,None,33,52,66,35,35,36,732.8854601999992,None,5.0,4.150459600001341,732.8854601999992,None,732.8854601999992,None,732.8854601999992,None,732.8854601999992,None,,None,None,None,None,None,None,None,None,None,None,None,None,None,None,,None,None,None,None,0.2,2,None,None,None,None,None,None,None,None,None,None,None,None,,None,None,None,None,None,None,None,None,None,None,None,None,None,None,None,None,None,None,737.0836832999994,None,,,,,,,,,,,,,,,,223,m,24,2023_Mar_19_1524,RL,2021.2.3,60.033234399156505,
1,-0.3,-0.225,0,58,58,58,,,,,,,,,,,,,,,None,None,None,None,None,738.6182030999989,None,738.6182030999989,None,738.6182030999989,None,738.6182030999989,None,f,0.415899100000388,738.6182030999989,None,738.6182030999989,None,739.073719299995,None,739.073719299995,None,739.073719299995,None,739.073719299995,None,739.073719299995,None,739.073719299995,None,739.3478286999962,740.6442915000007,739.3478286999962,740.6442915000007,740.6677220999991,None,740.6677220999991,None,740.6677220999991,None,740.6677220999991,None,740.6677220999991,None,740.6677220999991,None,740.6677220999991,None,740.6677220999991,None,740.6677220999991,None,40,57,63,44,57,77,743.1753253999996,None,3.0,3.0677169999980833,743.1753253999996,None,743.1753253999996,None,743.1753253999996,None,743.1753253999996,None,,None,None,None,None,None,None,None,None,None,None,None,None,None,None,,None,None,None,None,-0.6,3,None,None,None,None,None,None,None,None,None,None,None,None,,None,None,None,None,None,None,None,None,None,None,None,None,None,None,None,None,None,None,746.2935773999998,None,,,,,,,,,,,,,,,,223,m,24,2023_Mar_19_1524,RL,2021.2.3,60.033234399156505,
0,0.3,0.225,0,59,59,59,,,,,,,,,,,,,,,None,None,None,None,None,748.0408783999956,None,748.0408783999956,None,748.0408783999956,None,748.0408783999956,None,i,0.398829099998693,748.0408783999956,None,748.0408783999956,None,748.465886500002,None,748.465886500002,None,748.465886500002,None,748.465886500002,None,748.465886500002,None,748.465886500002,None,748.7557343000008,None,748.7557343000008,None,750.1067496999967,None,750.1067496999967,None,750.1067496999967,None,750.1067496999967,None,750.1067496999967,None,750.1067496999967,None,750.1067496999967,None,750.1067496999967,None,750.1067496999967,None,44,64,62,48,62,67,None,None,None,None,None,None,None,None,None,None,None,None,62,752.6261921999976,None,752.6261921999976,None,752.6261921999976,None,752.6261921999976,None,752.6261921999976,None,752.6261921999976,None,752.6261921999976,None,62,752.6261921999976,None,0.011760479996155482,None,-0.6,0,None,None,None,None,None,None,None,None,None,None,None,None,,None,None,None,None,None,None,10.981481481481483,3.1828606000053696,757.0939542999986,None,757.0939542999986,None,757.0939542999986,None,757.0939542999986,None,None,None,760.2903617999982,None,,,,,,,,-0.020370370370370372,-0.30185185185185187,1,0,0,4.434704799998144,tijiao,,223,m,24,2023_Mar_19_1524,RL,2021.2.3,60.033234399156505,
1,-0.3,-0.225,0,60,60,60,,,,,,,,,,,,,,,None,None,None,None,None,761.8200727000003,None,761.8200727000003,None,761.8200727000003,None,761.8200727000003,None,f,0.7208507999966969,761.8200727000003,None,761.8200727000003,None,762.5787756999998,None,762.5787756999998,None,762.5787756999998,None,762.5787756999998,None,762.5787756999998,None,762.5787756999998,None,762.8670820999978,763.7145602999954,762.8670820999978,763.7145602999954,763.7360857000021,None,763.7360857000021,None,763.7360857000021,None,763.7360857000021,None,763.7360857000021,None,763.7360857000021,None,763.7360857000021,None,763.7360857000021,None,763.7360857000021,None,39,57,58,46,57,68,766.247235099996,None,3.0,3.8978914999970584,766.247235099996,None,766.247235099996,None,766.247235099996,None,766.247235099996,None,,None,None,None,None,None,None,None,None,None,None,None,None,None,None,,None,None,None,None,0.6,2,None,None,None,None,None,None,None,None,None,None,None,None,,None,None,None,None,None,None,None,None,None,None,None,None,None,None,None,None,None,None,770.1934717999975,None,,,,,,,,,,,,,,,,223,m,24,2023_Mar_19_1524,RL,2021.2.3,60.033234399156505,
0,0.3,0.225,0,61,61,61,,,,,,,,,,,,,,,None,None,None,None,None,772.1272527999972,None,772.1272527999972,None,772.1272527999972,None,772.1272527999972,None,r,0.41384560000005877,772.1272527999972,None,772.1272527999972,None,772.5666368999955,None,772.5666368999955,None,772.5666368999955,None,772.5666368999955,None,772.5666368999955,None,772.5666368999955,None,772.856205600001,None,772.856205600001,None,774.1728088000018,None,774.1728088000018,None,774.1728088000018,None,774.1728088000018,None,774.1728088000018,None,774.1728088000018,None,774.1728088000018,None,774.1728088000018,None,774.1728088000018,None,39,66,58,45,39,64,776.6823369999984,None,3.0,2.1557274000006146,776.6823369999984,None,776.6823369999984,None,776.6823369999984,None,776.6823369999984,None,,None,None,None,None,None,None,None,None,None,None,None,None,None,None,,None,None,None,None,0.6,2,None,None,None,None,None,None,None,None,None,None,None,None,,None,None,None,None,None,None,None,None,None,None,None,None,None,None,None,None,None,None,778.8876751999996,None,,,,,,,,,,,,,,,,223,m,24,2023_Mar_19_1524,RL,2021.2.3,60.033234399156505,
1,-0.3,-0.225,0,62,62,62,,,,,,,,,,,,,,,None,None,None,None,None,780.6349623999995,None,780.6349623999995,None,780.6349623999995,None,780.6349623999995,None,f,0.3024072000043816,780.6349623999995,None,780.6349623999995,None,780.9756424000007,None,780.9756424000007,None,780.9756424000007,None,780.9756424000007,None,780.9756424000007,None,780.9756424000007,None,781.2665631999989,None,781.2665631999989,None,783.0816657999967,None,783.0816657999967,None,783.0816657999967,None,783.0816657999967,None,783.0816657999967,None,783.0816657999967,None,783.0816657999967,None,783.0816657999967,None,783.0816657999967,None,35,62,63,51,62,68,None,None,None,None,None,None,None,None,None,None,None,None,,None,None,None,None,None,None,None,None,None,None,None,None,None,None,,None,None,None,None,-0.2,1,785.6140970999986,None,785.6140970999986,None,785.6140970999986,None,785.6140970999986,None,785.6140970999986,None,785.6140970999986,None,62,785.6140970999986,None,785.6140970999986,None,0.016405820002546534,None,10.935185185185185,2.4489594000042416,789.0411663999985,None,789.0411663999985,None,789.0411663999985,None,789.0411663999985,None,None,None,791.5051879999955,None,-0.044444444444444446,-0.29074074074074074,1,0,0,3.4077353999964544,tijiao,,,,,,,,,223,m,24,2023_Mar_19_1524,RL,2021.2.3,60.033234399156505,
0,0.3,0.225,0,63,63,63,,,,,,,,,,,,,,,None,None,None,None,None,793.0178649000009,None,793.0178649000009,None,793.0178649000009,None,793.0178649000009,None,i,0.47152000000642147,793.0178649000009,None,793.0178649000009,None,793.5256523999997,None,793.5256523999997,None,793.5256523999997,None,793.5256523999997,None,793.5256523999997,None,793.5256523999997,None,793.8157257999992,795.3614985999957,793.8157257999992,795.3614985999957,795.3811289000005,None,795.3811289000005,None,795.3811289000005,None,795.3811289000005,None,795.3811289000005,None,795.3811289000005,None,795.3811289000005,None,795.3811289000005,None,795.3811289000005,None,38,57,55,43,55,73,797.8909452000007,None,3.0,2.85371689999738,797.8909452000007,None,797.8909452000007,None,797.8909452000007,None,797.8909452000007,None,,None,None,None,None,None,None,None,None,None,None,None,None,None,None,,None,None,None,None,-0.2,3,None,None,None,None,None,None,None,None,None,None,None,None,,None,None,None,None,None,None,None,None,None,None,None,None,None,None,None,None,None,None,800.7933612999987,None,,,,,,,,,,,,,,,,223,m,24,2023_Mar_19_1524,RL,2021.2.3,60.033234399156505,
1,-0.3,-0.225,0,64,64,64,,,,,,,,,,,,,,,None,None,None,None,None,802.4931471999953,None,802.4931471999953,None,802.4931471999953,None,802.4931471999953,None,j,0.8207831999970949,802.4931471999953,None,802.4931471999953,None,803.3502234999978,None,803.3502234999978,None,803.3502234999978,None,803.3502234999978,None,803.3502234999978,None,803.3502234999978,None,803.638938899996,804.5700550999973,803.638938899996,804.5700550999973,804.5909563999958,None,804.5909563999958,None,804.5909563999958,None,804.5909563999958,None,804.5909563999958,None,804.5909563999958,None,804.5909563999958,None,804.5909563999958,None,804.5909563999958,None,33,67,55,40,40,63,807.0987466000006,None,2.0,3.7515072999958647,807.0987466000006,None,807.0987466000006,None,807.0987466000006,None,807.0987466000006,None,,None,None,None,None,None,None,None,None,None,None,None,None,None,None,,None,None,None,None,-0.2,3,None,None,None,None,None,None,None,None,None,None,None,None,,None,None,None,None,None,None,None,None,None,None,None,None,None,None,None,None,None,None,810.9006931999975,None,,,,,,,,,,,,,,,,223,m,24,2023_Mar_19_1524,RL,2021.2.3,60.033234399156505,
0,0.3,0.225,0,65,65,65,,,,,,,,,,,,,,,None,None,None,None,None,812.6642541999972,None,812.6642541999972,None,812.6642541999972,None,812.6642541999972,None,i,0.5352330999958212,812.6642541999972,None,812.6642541999972,None,813.2378357999987,None,813.2378357999987,None,813.2378357999987,None,813.2378357999987,None,813.2378357999987,None,813.2378357999987,None,813.5285356999957,814.8420850999973,813.5285356999957,814.8420850999973,814.8627061000007,None,814.8627061000007,None,814.8627061000007,None,814.8627061000007,None,814.8627061000007,None,814.8627061000007,None,814.8627061000007,None,814.8627061000007,None,814.8627061000007,None,32,61,44,31,44,59,817.3708366999999,None,2.0,2.0060824999964098,817.3708366999999,None,817.3708366999999,None,817.3708366999999,None,817.3708366999999,None,,None,None,None,None,None,None,None,None,None,None,None,None,None,None,,None,None,None,None,0.2,2,None,None,None,None,None,None,None,None,None,None,None,None,,None,None,None,None,None,None,None,None,None,None,None,None,None,None,None,None,None,None,819.426822100002,None,,,,,,,,,,,,,,,,223,m,24,2023_Mar_19_1524,RL,2021.2.3,60.033234399156505,
1,-0.3,-0.225,0,66,66,66,,,,,,,,,,,,,,,None,None,None,None,None,821.0916539999962,None,821.0916539999962,None,821.0916539999962,None,821.0916539999962,None,i,0.8436337000021012,821.0916539999962,None,821.0916539999962,None,821.9666758000021,None,821.9666758000021,None,821.9666758000021,None,821.9666758000021,None,821.9666758000021,None,821.9666758000021,None,822.2550431999989,823.5682299999971,822.2550431999989,823.5682299999971,823.5886516999963,None,823.5886516999963,None,823.5886516999963,None,823.5886516999963,None,823.5886516999963,None,823.5886516999963,None,823.5886516999963,None,823.5886516999963,None,823.5886516999963,None,49,53,42,34,42,57,826.0982728999952,None,1.0,1.9389929000026314,826.0982728999952,None,826.0982728999952,None,826.0982728999952,None,826.0982728999952,None,,None,None,None,None,None,None,None,None,None,None,None,None,None,None,,None,None,None,None,0.6,3,None,None,None,None,None,None,None,None,None,None,None,None,,None,None,None,None,None,None,None,None,None,None,None,None,None,None,None,None,None,None,828.0868246999962,None,,,,,,,,,,,,,,,,223,m,24,2023_Mar_19_1524,RL,2021.2.3,60.033234399156505,
0,0.3,0.225,0,67,67,67,,,,,,,,,,,,,,,None,None,None,None,None,829.7348685999968,None,829.7348685999968,None,829.7348685999968,None,829.7348685999968,None,i,1.4006768999970518,829.7348685999968,None,829.7348685999968,None,831.174305200002,None,831.174305200002,None,831.174305200002,None,831.174305200002,None,831.174305200002,None,831.174305200002,None,831.4631599999993,None,831.4631599999993,None,832.8972161999991,None,832.8972161999991,None,832.8972161999991,None,832.8972161999991,None,832.8972161999991,None,832.8972161999991,None,832.8972161999991,None,832.8972161999991,None,832.8972161999991,None,47,53,41,42,41,54,None,None,None,None,None,None,None,None,None,None,None,None,54,835.4181243999992,None,835.4181243999992,None,835.4181243999992,None,835.4181243999992,None,835.4181243999992,None,835.4181243999992,None,835.4181243999992,None,54,835.4181243999992,None,0.010861779999686405,None,-0.6,0,None,None,None,None,None,None,None,None,None,None,None,None,,None,None,None,None,None,None,1.925925925925926,1.8060126999989734,840.0644398000004,None,840.0644398000004,None,840.0644398000004,None,840.0644398000004,None,None,None,841.8845512999978,None,,,,,,,,-0.05185185185185185,-0.29074074074074074,1,0,0,4.615126800003054,tijiao,,223,m,24,2023_Mar_19_1524,RL,2021.2.3,60.033234399156505,
1,-0.3,-0.225,0,68,68,68,,,,,,,,,,,,,,,None,None,None,None,None,843.5630344999954,None,843.5630344999954,None,843.5630344999954,None,843.5630344999954,None,i,0.3399745000060648,843.5630344999954,None,843.5630344999954,None,843.9398681000021,None,843.9398681000021,None,843.9398681000021,None,843.9398681000021,None,843.9398681000021,None,843.9398681000021,None,844.2284020000006,845.1589620000013,844.2284020000006,845.1589620000013,845.1795820999978,None,845.1795820999978,None,845.1795820999978,None,845.1795820999978,None,845.1795820999978,None,845.1795820999978,None,845.1795820999978,None,845.1795820999978,None,845.1795820999978,None,47,50,44,35,44,57,847.6874097999971,None,2.0,3.303862000000663,847.6874097999971,None,847.6874097999971,None,847.6874097999971,None,847.6874097999971,None,,None,None,None,None,None,None,None,None,None,None,None,None,None,None,,None,None,None,None,-0.2,3,None,None,None,None,None,None,None,None,None,None,None,None,,None,None,None,None,None,None,None,None,None,None,None,None,None,None,None,None,None,None,851.0404137000005,None,,,,,,,,,,,,,,,,223,m,24,2023_Mar_19_1524,RL,2021.2.3,60.033234399156505,
0,0.3,0.225,0,69,69,69,,,,,,,,,,,,,,,None,None,None,None,None,852.9067071999962,None,852.9067071999962,None,852.9067071999962,None,852.9067071999962,None,f,0.4274255999989691,852.9067071999962,None,852.9067071999962,None,853.3642397000003,None,853.3642397000003,None,853.3642397000003,None,853.3642397000003,None,853.3642397000003,None,853.3642397000003,None,853.6522140000015,854.6993771999987,853.6522140000015,854.6993771999987,854.7199664,None,854.7199664,None,854.7199664,None,854.7199664,None,854.7199664,None,854.7199664,None,854.7199664,None,854.7199664,None,854.7199664,None,54,51,49,30,51,68,None,None,None,None,None,None,None,None,None,None,None,None,,None,None,None,None,None,None,None,None,None,None,None,None,None,None,,None,None,None,None,-0.6,1,857.2509288000001,None,857.2509288000001,None,857.2509288000001,None,857.2509288000001,None,857.2509288000001,None,857.2509288000001,None,67,857.2509288000001,None,857.2509288000001,None,0.0006555800064234063,None,3.037037037037037,1.6516970000011497,861.1113609999957,None,861.1113609999957,None,861.1113609999957,None,861.1113609999957,None,None,None,862.7774874999959,None,-0.10833333333333334,-0.2777777777777778,1,0,0,3.84025109999493,tijiao,,,,,,,,,223,m,24,2023_Mar_19_1524,RL,2021.2.3,60.033234399156505,
1,-0.3,-0.225,0,70,70,70,,,,,,,,,,,,,,,None,None,None,None,None,864.406814599999,None,864.406814599999,None,864.406814599999,None,864.406814599999,None,r,0.40615149999939604,864.406814599999,None,864.406814599999,None,864.8518034000008,None,864.8518034000008,None,864.8518034000008,None,864.8518034000008,None,864.8518034000008,None,864.8518034000008,None,865.1375305999973,867.1156373999984,865.1375305999973,867.1156373999984,867.1367845999994,None,867.1367845999994,None,867.1367845999994,None,867.1367845999994,None,867.1367845999994,None,867.1367845999994,None,867.1367845999994,None,867.1367845999994,None,867.1367845999994,None,51,59,43,30,51,74,869.6453526999976,None,2.0,2.0400244999982533,869.6453526999976,None,869.6453526999976,None,869.6453526999976,None,869.6453526999976,None,,None,None,None,None,None,None,None,None,None,None,None,None,None,None,,None,None,None,None,0.6,2,None,None,None,None,None,None,None,None,None,None,None,None,,None,None,None,None,None,None,None,None,None,None,None,None,None,None,None,None,None,None,871.7325636999958,None,,,,,,,,,,,,,,,,223,m,24,2023_Mar_19_1524,RL,2021.2.3,60.033234399156505,
0,0.3,0.225,0,71,71,71,,,,,,,,,,,,,,,None,None,None,None,None,873.680643300002,None,873.680643300002,None,873.680643300002,None,873.680643300002,None,f,0.8478351000012481,873.680643300002,None,873.680643300002,None,874.5551923999956,None,874.5551923999956,None,874.5551923999956,None,874.5551923999956,None,874.5551923999956,None,874.5551923999956,None,874.8445064999978,876.5399959999995,874.8445064999978,876.5399959999995,876.5615632999979,None,876.5615632999979,None,876.5615632999979,None,876.5615632999979,None,876.5615632999979,None,876.5615632999979,None,876.5615632999979,None,876.5615632999979,None,876.5615632999979,None,51,46,41,25,46,75,None,None,None,None,None,None,None,None,None,None,None,None,46,879.0797867000001,None,879.0797867000001,None,879.0797867000001,None,879.0797867000001,None,879.0797867000001,None,879.0797867000001,None,879.0797867000001,None,46,879.0797867000001,None,0.01238978000037605,None,-0.6,0,None,None,None,None,None,None,None,None,None,None,None,None,,None,None,None,None,None,None,10.907407407407407,2.42068279999512,882.9497512000016,None,882.9497512000016,None,882.9497512000016,None,882.9497512000016,None,None,None,885.382457300002,None,,,,,,,,0.012962962962962963,-0.26851851851851855,1,0,0,3.8364517000009073,tijiao,,223,m,24,2023_Mar_19_1524,RL,2021.2.3,60.033234399156505,
1,-0.3,-0.225,0,72,72,72,,,,,,,,,,,,,,,None,None,None,None,None,886.9813796999952,None,886.9813796999952,None,886.9813796999952,None,886.9813796999952,None,i,0.3887436000004527,886.9813796999952,None,886.9813796999952,None,887.4050504999977,None,887.4050504999977,None,887.4050504999977,None,887.4050504999977,None,887.4050504999977,None,887.4050504999977,None,887.6927500999955,None,887.6927500999955,None,889.6743697999991,None,889.6743697999991,None,889.6743697999991,None,889.6743697999991,None,889.6743697999991,None,889.6743697999991,None,889.6743697999991,None,889.6743697999991,None,889.6743697999991,None,57,55,45,27,45,81,892.1848467999953,None,2.0,3.718291600001976,892.1848467999953,None,892.1848467999953,None,892.1848467999953,None,892.1848467999953,None,,None,None,None,None,None,None,None,None,None,None,None,None,None,None,,None,None,None,None,-0.6,2,None,None,None,None,None,None,None,None,None,None,None,None,,None,None,None,None,None,None,None,None,None,None,None,None,None,None,None,None,None,None,895.9501670999962,None,,,,,,,,,,,,,,,,223,m,24,2023_Mar_19_1524,RL,2021.2.3,60.033234399156505,
0,0.3,0.225,0,73,73,73,,,,,,,,,,,,,,,None,None,None,None,None,897.7645825,None,897.7645825,None,897.7645825,None,897.7645825,None,j,0.4997135999947204,897.7645825,None,897.7645825,None,898.2897435999985,None,898.2897435999985,None,898.2897435999985,None,898.2897435999985,None,898.2897435999985,None,898.2897435999985,None,898.5796035000021,900.2752655000004,898.5796035000021,900.2752655000004,900.2967198999977,None,900.2967198999977,None,900.2967198999977,None,900.2967198999977,None,900.2967198999977,None,900.2967198999977,None,900.2967198999977,None,900.2967198999977,None,900.2967198999977,None,59,62,36,32,32,68,None,None,None,None,None,None,None,None,None,None,None,None,32,902.8158050999991,None,902.8158050999991,None,902.8158050999991,None,902.8158050999991,None,902.8158050999991,None,902.8158050999991,None,902.8158050999991,None,32,902.8158050999991,None,0.012414680000802036,None,-0.2,0,None,None,None,None,None,None,None,None,None,None,None,None,,None,None,None,None,None,None,10.962962962962962,2.9718859999993583,907.2817194999952,None,907.2817194999952,None,907.2817194999952,None,907.2817194999952,None,None,None,910.2804179000013,None,,,,,,,,-0.15648148148148147,-0.2898148148148148,1,0,0,4.434393100003945,tijiao,,223,m,24,2023_Mar_19_1524,RL,2021.2.3,60.033234399156505,
1,-0.3,-0.225,0,74,74,74,,,,,,,,,,,,,,,None,None,None,None,None,912.2422757999957,None,912.2422757999957,None,912.2422757999957,None,912.2422757999957,None,i,0.4925507999942056,912.2422757999957,None,912.2422757999957,None,912.7705543999982,None,912.7705543999982,None,912.7705543999982,None,912.7705543999982,None,912.7705543999982,None,912.7705543999982,None,913.0568258999992,None,913.0568258999992,None,914.7553514999963,None,914.7553514999963,None,914.7553514999963,None,914.7553514999963,None,914.7553514999963,None,914.7553514999963,None,914.7553514999963,None,914.7553514999963,None,914.7553514999963,None,50,59,39,34,39,71,None,None,None,None,None,None,None,None,None,None,None,None,,None,None,None,None,None,None,None,None,None,None,None,None,None,None,,None,None,None,None,0.6,1,917.288338499995,None,917.288338499995,None,917.288338499995,None,917.288338499995,None,917.288338499995,None,917.288338499995,None,71,917.288338499995,None,917.288338499995,None,0.016402920002292376,None,3.981481481481482,2.665515399996366,921.7977939999982,None,921.7977939999982,None,921.7977939999982,None,921.7977939999982,None,None,None,924.4784872000018,None,0.10462962962962963,-0.2898148148148148,1,0,0,4.489406099994085,tijiao,,,,,,,,,223,m,24,2023_Mar_19_1524,RL,2021.2.3,60.033234399156505,
0,0.3,0.225,0,75,75,75,,,,,,,,,,,,,,,926.3040946999972,None,q,926.3040946999972,None,965.9247802999962,None,965.9247802999962,None,965.9247802999962,None,965.9247802999962,None,f,0.683000599994557,965.9247802999962,None,965.9247802999962,None,966.6378328999999,None,966.6378328999999,None,966.6378328999999,None,966.6378328999999,None,966.6378328999999,None,966.6378328999999,None,966.9264624999996,968.6550814000002,966.9264624999996,968.6550814000002,968.6751210000002,None,968.6751210000002,None,968.6751210000002,None,968.6751210000002,None,968.6751210000002,None,968.6751210000002,None,968.6751210000002,None,968.6751210000002,None,968.6751210000002,None,51,63,41,24,63,36,971.1856850999975,None,6.0,2.9364185000013094,971.1856850999975,None,971.1856850999975,None,971.1856850999975,None,971.1856850999975,None,,None,None,None,None,None,None,None,None,None,None,None,None,None,None,,None,None,None,None,-0.2,2,None,None,None,None,None,None,None,None,None,None,None,None,,None,None,None,None,None,None,None,None,None,None,None,None,None,None,None,None,None,None,974.1705230000007,None,,,,,,,,,,,,,,,39.58519449999585,223,m,24,2023_Mar_19_1524,RL,2021.2.3,60.033234399156505,
1,-0.3,-0.225,0,76,76,76,,,,,,,,,,,,,,,None,None,None,None,None,976.001834499999,None,976.001834499999,None,976.001834499999,None,976.001834499999,None,j,0.4718764999997802,976.001834499999,None,976.001834499999,None,976.5104771999977,None,976.5104771999977,None,976.5104771999977,None,976.5104771999977,None,976.5104771999977,None,976.5104771999977,None,976.7994265999951,None,976.7994265999951,None,978.3993573999978,None,978.3993573999978,None,978.3993573999978,None,978.3993573999978,None,978.3993573999978,None,978.3993573999978,None,978.3993573999978,None,978.3993573999978,None,978.3993573999978,None,54,63,40,22,22,73,980.9082546999998,None,2.0,2.2055957000047783,980.9082546999998,None,980.9082546999998,None,980.9082546999998,None,980.9082546999998,None,,None,None,None,None,None,None,None,None,None,None,None,None,None,None,,None,None,None,None,0.2,2,None,None,None,None,None,None,None,None,None,None,None,None,,None,None,None,None,None,None,None,None,None,None,None,None,None,None,None,None,None,None,983.1625579999964,None,,,,,,,,,,,,,,,,223,m,24,2023_Mar_19_1524,RL,2021.2.3,60.033234399156505,
0,0.3,0.225,0,77,77,77,,,,,,,,,,,,,,,None,None,None,None,None,985.0606552999961,None,985.0606552999961,None,985.0606552999961,None,985.0606552999961,None,r,0.06627719999960391,985.0606552999961,None,985.0606552999961,None,985.1542479999989,None,985.1542479999989,None,985.1542479999989,None,985.1542479999989,None,985.1542479999989,None,985.1542479999989,None,985.4427482999963,987.371052800001,985.4427482999963,987.371052800001,987.3918401999981,None,987.3918401999981,None,987.3918401999981,None,987.3918401999981,None,987.3918401999981,None,987.3918401999981,None,987.3918401999981,None,987.3918401999981,None,987.3918401999981,None,48,62,39,22,48,70,None,None,None,None,None,None,None,None,None,None,None,None,48,989.9118011999963,None,989.9118011999963,None,989.9118011999963,None,989.9118011999963,None,989.9118011999963,None,989.9118011999963,None,989.9118011999963,None,48,989.9118011999963,None,0.011264680004387628,None,-0.6,0,None,None,None,None,None,None,None,None,None,None,None,None,,None,None,None,None,None,None,6.027777777777778,3.036211499995261,996.0385124000022,None,996.0385124000022,None,996.0385124000022,None,996.0385124000022,None,None,None,999.0884120999981,None,,,,,,,,0.003703703703703704,-0.2898148148148148,1,0,0,6.094707500000368,tijiao,,223,m,24,2023_Mar_19_1524,RL,2021.2.3,60.033234399156505,
