bandit0,black_x_pos_random,black_y_pos_random,trials.thisRepN,trials.thisTrialN,trials.thisN,trials.thisIndex,instru_img1.started,instru_img1.stopped,instru_resp.keys,instru_resp.rt,instru_resp.started,instru_resp.stopped,instru_img2.started,instru_img2.stopped,instru_resp2.keys,instru_resp2.rt,instru_resp2.started,instru_resp2.stopped,fixbefore_2.started,fixbefore_2.stopped,rest_image.started,rest_image.stopped,rest_response.keys,rest_response.started,rest_response.stopped,red.started,red.stopped,green.started,green.stopped,yellow.started,yellow.stopped,blue.started,blue.stopped,choose_bandit.keys,choose_bandit.rt,choose_bandit.started,choose_bandit.stopped,Fixation.started,Fixation.stopped,black.started,black.stopped,red_2.started,red_2.stopped,green_2.started,green_2.stopped,yellow_2.started,yellow_2.stopped,blue_2.started,blue_2.stopped,fixation_2.started,fixation_2.stopped,docs.started,docs.stopped,wait_playerB.started,wait_playerB.stopped,black_com.started,black_com.stopped,reward_sub.started,reward_sub.stopped,palyerb.started,palyerb.stopped,reward__sub.started,reward__sub.stopped,compare.started,compare.stopped,red_compare.started,red_compare.stopped,green_com.started,green_com.stopped,yellow_com.started,yellow_com.stopped,blue_com.started,blue_com.stopped,rewardyellow,rewardred,rewardblue,rewardgreen,subchoose,playerb,image_3.started,image_3.stopped,slider.response,slider.rt,slider.started,slider.stopped,text.started,text.stopped,image_4.started,image_4.stopped,image_5.started,image_5.stopped,value_expect_self,expect_self_black.started,expect_self_black.stopped,expect_self.started,expect_self.stopped,expect_self_red.started,expect_self_red.stopped,expect_self_green.started,expect_self_green.stopped,expect_self_yellow.started,expect_self_yellow.stopped,expect_self_blue.started,expect_self_blue.stopped,tijiao.started,tijiao.stopped,expectself.text,expectself.started,expectself.stopped,tijiao_click.x,tijiao_click.y,tijiao_click.leftButton,tijiao_click.midButton,tijiao_click.rightButton,tijiao_click.time,tijiao_click.clicked_name,tijiao_click.started,tijiao_click.stopped,random_whicharm,whether_ask,jiantou_random.started,jiantou_random.stopped,expect_red.started,expect_red.stopped,expect_green.started,expect_green.stopped,expect_yellow.started,expect_yellow.stopped,expect_blue.started,expect_blue.stopped,expect_random_2.started,expect_random_2.stopped,expect_random_3.text,expect_random_3.started,expect_random_3.stopped,tijiao_random_2.started,tijiao_random_2.stopped,tijiao_random.started,tijiao_random.stopped,slider_2.response,slider_2.rt,slider_2.started,slider_2.stopped,image_7.started,image_7.stopped,confi.started,confi.stopped,notconfi.started,notconfi.stopped,bigx.started,bigx.stopped,intertrialfix.started,intertrialfix.stopped,tijiao_random.x,tijiao_random.y,tijiao_random.leftButton,tijiao_random.midButton,tijiao_random.rightButton,tijiao_random.time,tijiao_random.clicked_name,rest_response.rt,participant,Gender,Age,date,expName,psychopyVersion,frameRate,
,,,,,,,18.70790360000683,None,space,6.6843856000341475,18.70790360000683,None,,,,,,,,,,,,,,,,,,,,,,,,,,,,,,,,,,,,,,,,,,,,,,,,,,,,,,,,,,,,,,,,,,,,,,,,,,,,,,,,,,,,,,,,,,,,,,,,,,,,,,,,,,,,,,,,,,,,,,,,,,,,,,,,,,,,,,,,,,,,,,,,,,,,,,224,f,23,2023_Mar_19_1524,RL,2021.2.3,59.95890417524056,
,,,,,,,,,,,,,25.424826000002213,None,s,8.367535199970007,25.424826000002213,None,,,,,,,,,,,,,,,,,,,,,,,,,,,,,,,,,,,,,,,,,,,,,,,,,,,,,,,,,,,,,,,,,,,,,,,,,,,,,,,,,,,,,,,,,,,,,,,,,,,,,,,,,,,,,,,,,,,,,,,,,,,,,,,,,,,,,,,,,,,,,,,,224,f,23,2023_Mar_19_1524,RL,2021.2.3,59.95890417524056,
1,-0.3,-0.225,0,0,0,0,,,,,,,,,,,,,33.828918000042904,None,None,None,None,None,None,34.91519980004523,None,34.91519980004523,None,34.91519980004523,None,34.91519980004523,None,i,0.4071847000159323,34.91519980004523,None,34.91519980004523,None,35.44272769999225,None,35.44272769999225,None,35.44272769999225,None,35.44272769999225,None,35.44272769999225,None,35.44272769999225,None,35.73621840000851,36.68688460002886,35.73621840000851,36.68688460002886,36.7945267999894,None,36.7945267999894,None,36.7945267999894,None,36.7945267999894,None,36.7945267999894,None,36.7945267999894,None,36.7945267999894,None,36.7945267999894,None,36.7945267999894,None,35,48,63,20,63,38,None,None,None,None,None,None,None,None,None,None,None,None,36,39.53916129999561,None,39.53916129999561,None,39.53916129999561,None,39.53916129999561,None,39.53916129999561,None,39.53916129999561,None,39.53916129999561,None,36,39.53916129999561,None,-0.07942708333333333,-0.2903645833333333,1,0,0,6.021009200019762,tijiao,0.014989749994128942,None,0.6,0,None,None,None,None,None,None,None,None,None,None,None,None,,None,None,None,None,None,None,6.013020833333334,3.393767300003674,45.917442100006156,None,45.917442100006156,None,45.917442100006156,None,45.917442100006156,None,None,None,49.40370329999132,None,,,,,,,,,224,f,23,2023_Mar_19_1524,RL,2021.2.3,59.95890417524056,
0,0.3,0.225,0,1,1,1,,,,,,,,,,,,,,,None,None,None,None,None,51.06814809999196,None,51.06814809999196,None,51.06814809999196,None,51.06814809999196,None,f,0.724356499966234,51.06814809999196,None,51.06814809999196,None,51.842906500038225,None,51.842906500038225,None,51.842906500038225,None,51.842906500038225,None,51.842906500038225,None,51.842906500038225,None,52.131006100040395,53.5154827000224,52.131006100040395,53.5154827000224,53.552384999988135,None,53.552384999988135,None,53.552384999988135,None,53.552384999988135,None,53.552384999988135,None,53.552384999988135,None,53.552384999988135,None,53.552384999988135,None,53.552384999988135,None,53,50,64,25,50,42,56.066205300041474,None,4.0,6.128180600004271,56.066205300041474,None,56.066205300041474,None,56.066205300041474,None,56.066205300041474,None,,None,None,None,None,None,None,None,None,None,None,None,None,None,None,,None,None,,,,,,,,None,None,0.6,3,None,None,None,None,None,None,None,None,None,None,None,None,,None,None,None,None,None,None,None,None,None,None,None,None,None,None,None,None,None,None,62.35969720000867,None,,,,,,,,,224,f,23,2023_Mar_19_1524,RL,2021.2.3,59.95890417524056,
1,-0.3,-0.225,0,2,2,2,,,,,,,,,,,,,,,None,None,None,None,None,63.95852620003279,None,63.95852620003279,None,63.95852620003279,None,63.95852620003279,None,f,0.9942312999628484,63.95852620003279,None,63.95852620003279,None,65.00258140004007,None,65.00258140004007,None,65.00258140004007,None,65.00258140004007,None,65.00258140004007,None,65.00258140004007,None,65.29042130004382,None,65.29042130004382,None,67.02539940003771,None,67.02539940003771,None,67.02539940003771,None,67.02539940003771,None,67.02539940003771,None,67.02539940003771,None,67.02539940003771,None,67.02539940003771,None,67.02539940003771,None,49,50,62,28,50,67,69.54426220001187,None,4.0,2.7517339999903925,69.54426220001187,None,69.54426220001187,None,69.54426220001187,None,69.54426220001187,None,,None,None,None,None,None,None,None,None,None,None,None,None,None,None,,None,None,,,,,,,,None,None,0.2,3,None,None,None,None,None,None,None,None,None,None,None,None,,None,None,None,None,None,None,None,None,None,None,None,None,None,None,None,None,None,None,72.34453540004324,None,,,,,,,,,224,f,23,2023_Mar_19_1524,RL,2021.2.3,59.95890417524056,
0,0.3,0.225,0,3,3,3,,,,,,,,,,,,,,,None,None,None,None,None,74.08324710000306,None,74.08324710000306,None,74.08324710000306,None,74.08324710000306,None,r,0.6591167000005953,74.08324710000306,None,74.08324710000306,None,74.79225460003363,None,74.79225460003363,None,74.79225460003363,None,74.79225460003363,None,74.79225460003363,None,74.79225460003363,None,75.08003479999024,76.21425080002518,75.08003479999024,76.21425080002518,76.24981160002062,None,76.24981160002062,None,76.24981160002062,None,76.24981160002062,None,76.24981160002062,None,76.24981160002062,None,76.24981160002062,None,76.24981160002062,None,76.24981160002062,None,54,51,63,18,54,68,78.76625690003857,None,4.0,2.4685966999968514,78.76625690003857,None,78.76625690003857,None,78.76625690003857,None,78.76625690003857,None,,None,None,None,None,None,None,None,None,None,None,None,None,None,None,,None,None,,,,,,,,None,None,0.2,2,None,None,None,None,None,None,None,None,None,None,None,None,,None,None,None,None,None,None,None,None,None,None,None,None,None,None,None,None,None,None,81.29742900002748,None,,,,,,,,,224,f,23,2023_Mar_19_1524,RL,2021.2.3,59.95890417524056,
1,-0.3,-0.225,0,4,4,4,,,,,,,,,,,,,,,None,None,None,None,None,82.9227971000364,None,82.9227971000364,None,82.9227971000364,None,82.9227971000364,None,i,0.7307275999919511,82.9227971000364,None,82.9227971000364,None,83.69253340002615,None,83.69253340002615,None,83.69253340002615,None,83.69253340002615,None,83.69253340002615,None,83.69253340002615,None,83.98630079999566,None,83.98630079999566,None,85.03461560001597,None,85.03461560001597,None,85.03461560001597,None,85.03461560001597,None,85.03461560001597,None,85.03461560001597,None,85.03461560001597,None,85.03461560001597,None,85.03461560001597,None,45,42,70,28,70,48,87.55805089999922,None,4.0,2.1176187000237405,87.55805089999922,None,87.55805089999922,None,87.55805089999922,None,87.55805089999922,None,,None,None,None,None,None,None,None,None,None,None,None,None,None,None,,None,None,,,,,,,,None,None,-0.6,2,None,None,None,None,None,None,None,None,None,None,None,None,,None,None,None,None,None,None,None,None,None,None,None,None,None,None,None,None,None,None,89.72426410001935,None,,,,,,,,,224,f,23,2023_Mar_19_1524,RL,2021.2.3,59.95890417524056,
0,0.3,0.225,0,5,5,5,,,,,,,,,,,,,,,None,None,None,None,None,91.67910400003893,None,91.67910400003893,None,91.67910400003893,None,91.67910400003893,None,i,0.9544128999696113,91.67910400003893,None,91.67910400003893,None,92.68240400002105,None,92.68240400002105,None,92.68240400002105,None,92.68240400002105,None,92.68240400002105,None,92.68240400002105,None,92.97603560000425,None,92.97603560000425,None,93.90718959999504,None,93.90718959999504,None,93.90718959999504,None,93.90718959999504,None,93.90718959999504,None,93.90718959999504,None,93.90718959999504,None,93.90718959999504,None,93.90718959999504,None,44,48,65,25,65,46,None,None,None,None,None,None,None,None,None,None,None,None,57,96.44711589999497,None,96.44711589999497,None,96.44711589999497,None,96.44711589999497,None,96.44711589999497,None,96.44711589999497,None,96.44711589999497,None,57,96.44711589999497,None,0.010416666666666666,-0.31640625,1,0,0,6.246896600001492,tijiao,0.008413309988100082,None,0.6,0,None,None,None,None,None,None,None,None,None,None,None,None,,None,None,None,None,None,None,8.0703125,4.028450399986468,102.73912370001199,None,102.73912370001199,None,102.73912370001199,None,102.73912370001199,None,None,None,106.80135250004241,None,,,,,,,,,224,f,23,2023_Mar_19_1524,RL,2021.2.3,59.95890417524056,
1,-0.3,-0.225,0,6,6,6,,,,,,,,,,,,,,,None,None,None,None,None,108.79065450001508,None,108.79065450001508,None,108.79065450001508,None,108.79065450001508,None,j,0.7030661000171676,108.79065450001508,None,108.79065450001508,None,109.54150009999285,None,109.54150009999285,None,109.54150009999285,None,109.54150009999285,None,109.54150009999285,None,109.54150009999285,None,109.8376301000244,110.78833310003392,109.8376301000244,110.78833310003392,110.82583019998856,None,110.82583019998856,None,110.82583019998856,None,110.82583019998856,None,110.82583019998856,None,110.82583019998856,None,110.82583019998856,None,110.82583019998856,None,110.82583019998856,None,58,46,61,24,24,57,113.3438557999907,None,2.0,2.13581410003826,113.3438557999907,None,113.3438557999907,None,113.3438557999907,None,113.3438557999907,None,,None,None,None,None,None,None,None,None,None,None,None,None,None,None,,None,None,,,,,,,,None,None,0.2,2,None,None,None,None,None,None,None,None,None,None,None,None,,None,None,None,None,None,None,None,None,None,None,None,None,None,None,None,None,None,None,115.54422380001051,None,,,,,,,,,224,f,23,2023_Mar_19_1524,RL,2021.2.3,59.95890417524056,
0,0.3,0.225,0,7,7,7,,,,,,,,,,,,,,,None,None,None,None,None,117.26382699998794,None,117.26382699998794,None,117.26382699998794,None,117.26382699998794,None,r,0.6000450999708846,117.26382699998794,None,117.26382699998794,None,117.91476280003553,None,117.91476280003553,None,117.91476280003553,None,117.91476280003553,None,117.91476280003553,None,117.91476280003553,None,118.21011680003721,None,118.21011680003721,None,119.24883220001357,None,119.24883220001357,None,119.24883220001357,None,119.24883220001357,None,119.24883220001357,None,119.24883220001357,None,119.24883220001357,None,119.24883220001357,None,119.24883220001357,None,52,58,65,22,52,64,None,None,None,None,None,None,None,None,None,None,None,None,73,121.79308410000522,None,121.79308410000522,None,121.79308410000522,None,121.79308410000522,None,121.79308410000522,None,121.79308410000522,None,121.79308410000522,None,73,121.79308410000522,None,-0.024739583333333332,-0.28515625,1,0,0,7.550231500004884,tijiao,0.011272809992078692,None,0.2,0,None,None,None,None,None,None,None,None,None,None,None,None,,None,None,None,None,None,None,7.015625,4.41950459999498,129.38672740000766,None,129.38672740000766,None,129.38672740000766,None,129.38672740000766,None,None,None,133.82018620002782,None,,,,,,,,,224,f,23,2023_Mar_19_1524,RL,2021.2.3,59.95890417524056,
1,-0.3,-0.225,0,8,8,8,,,,,,,,,,,,,,,None,None,None,None,None,135.6427670000121,None,135.6427670000121,None,135.6427670000121,None,135.6427670000121,None,f,0.47115519997896627,135.6427670000121,None,135.6427670000121,None,136.16115609998815,None,136.16115609998815,None,136.16115609998815,None,136.16115609998815,None,136.16115609998815,None,136.16115609998815,None,136.45651089999592,None,136.45651089999592,None,138.28625200001989,None,138.28625200001989,None,138.28625200001989,None,138.28625200001989,None,138.28625200001989,None,138.28625200001989,None,138.28625200001989,None,138.28625200001989,None,138.28625200001989,None,51,47,59,32,47,55,None,None,None,None,None,None,None,None,None,None,None,None,57,140.82493639999302,None,140.82493639999302,None,140.82493639999302,None,140.82493639999302,None,140.82493639999302,None,140.82493639999302,None,140.82493639999302,None,57,140.82493639999302,None,0.018229166666666668,-0.296875,1,0,0,6.931135299964808,tijiao,0.00922390999039635,None,-0.6,0,None,None,None,None,None,None,None,None,None,None,None,None,,None,None,None,None,None,None,8.03125,2.7849355000071228,147.80278410000028,None,147.80278410000028,None,147.80278410000028,None,147.80278410000028,None,None,None,150.61454570002388,None,,,,,,,,,224,f,23,2023_Mar_19_1524,RL,2021.2.3,59.95890417524056,
0,0.3,0.225,0,9,9,9,,,,,,,,,,,,,,,None,None,None,None,None,152.3549120000098,None,152.3549120000098,None,152.3549120000098,None,152.3549120000098,None,i,0.5390990999876522,152.3549120000098,None,152.3549120000098,None,152.93880930001615,None,152.93880930001615,None,152.93880930001615,None,152.93880930001615,None,152.93880930001615,None,152.93880930001615,None,153.23478240001714,None,153.23478240001714,None,154.7557186000049,None,154.7557186000049,None,154.7557186000049,None,154.7557186000049,None,154.7557186000049,None,154.7557186000049,None,154.7557186000049,None,154.7557186000049,None,154.7557186000049,None,44,53,60,23,60,66,None,None,None,None,None,None,None,None,None,None,None,None,55,157.27843460004078,None,157.27843460004078,None,157.27843460004078,None,157.27843460004078,None,157.27843460004078,None,157.27843460004078,None,157.27843460004078,None,55,157.27843460004078,None,0.022135416666666668,-0.3020833333333333,1,0,0,4.889359900029376,tijiao,0.0004144400008954108,None,0.2,0,None,None,None,None,None,None,None,None,None,None,None,None,,None,None,None,None,None,None,9.919270833333332,4.27067530003842,162.2149602000136,None,162.2149602000136,None,162.2149602000136,None,162.2149602000136,None,None,None,166.50886460003676,None,,,,,,,,,224,f,23,2023_Mar_19_1524,RL,2021.2.3,59.95890417524056,
1,-0.3,-0.225,0,10,10,10,,,,,,,,,,,,,,,None,None,None,None,None,168.34962340001948,None,168.34962340001948,None,168.34962340001948,None,168.34962340001948,None,j,0.6345760999829508,168.34962340001948,None,168.34962340001948,None,169.03351380000822,None,169.03351380000822,None,169.03351380000822,None,169.03351380000822,None,169.03351380000822,None,169.03351380000822,None,169.32867030001944,171.1469136000378,169.32867030001944,171.1469136000378,171.18123200000264,None,171.18123200000264,None,171.18123200000264,None,171.18123200000264,None,171.18123200000264,None,171.18123200000264,None,171.18123200000264,None,171.18123200000264,None,171.18123200000264,None,46,47,55,30,30,59,None,None,None,None,None,None,None,None,None,None,None,None,40,173.71350030001486,None,173.71350030001486,None,173.71350030001486,None,173.71350030001486,None,173.71350030001486,None,173.71350030001486,None,173.71350030001486,None,40,173.71350030001486,None,0.029947916666666668,-0.2760416666666667,1,0,0,6.899467299983371,tijiao,0.010611110017634928,None,0.2,0,None,None,None,None,None,None,None,None,None,None,None,None,,None,None,None,None,None,None,5.8046875,2.217252100002952,180.6580652000266,None,180.6580652000266,None,180.6580652000266,None,180.6580652000266,None,None,None,182.90390760003356,None,,,,,,,,,224,f,23,2023_Mar_19_1524,RL,2021.2.3,59.95890417524056,
0,0.3,0.225,0,11,11,11,,,,,,,,,,,,,,,None,None,None,None,None,184.42648670001654,None,184.42648670001654,None,184.42648670001654,None,184.42648670001654,None,f,0.4977023000246845,184.42648670001654,None,184.42648670001654,None,184.96688730001915,None,184.96688730001915,None,184.96688730001915,None,184.96688730001915,None,184.96688730001915,None,184.96688730001915,None,185.25672569999006,186.35740750003606,185.25672569999006,186.35740750003606,186.38954260002356,None,186.38954260002356,None,186.38954260002356,None,186.38954260002356,None,186.38954260002356,None,186.38954260002356,None,186.38954260002356,None,186.38954260002356,None,186.38954260002356,None,50,42,53,27,42,62,None,None,None,None,None,None,None,None,None,None,None,None,,None,None,None,None,None,None,None,None,None,None,None,None,None,None,,None,None,,,,,,,,None,None,0.2,1,188.9420277000172,None,188.9420277000172,None,188.9420277000172,None,188.9420277000172,None,188.9420277000172,None,188.9420277000172,None,73,188.9420277000172,None,188.9420277000172,None,0.009913879970554262,None,4.033854166666666,2.9539006000268273,197.16463940002723,None,197.16463940002723,None,197.16463940002723,None,197.16463940002723,None,None,None,200.13338499999372,None,-0.036458333333333336,-0.29296875,1,0,0,8.166097500012256,tijiao,,224,f,23,2023_Mar_19_1524,RL,2021.2.3,59.95890417524056,
1,-0.3,-0.225,0,12,12,12,,,,,,,,,,,,,,,None,None,None,None,None,202.02153830003226,None,202.02153830003226,None,202.02153830003226,None,202.02153830003226,None,f,0.4929280999931507,202.02153830003226,None,202.02153830003226,None,202.55652169999667,None,202.55652169999667,None,202.55652169999667,None,202.55652169999667,None,202.55652169999667,None,202.55652169999667,None,202.85246550000738,None,202.85246550000738,None,204.23384790000273,None,204.23384790000273,None,204.23384790000273,None,204.23384790000273,None,204.23384790000273,None,204.23384790000273,None,204.23384790000273,None,204.23384790000273,None,204.23384790000273,None,58,46,50,31,46,42,206.75057299999753,None,4.0,4.159694000030868,206.75057299999753,None,206.75057299999753,None,206.75057299999753,None,206.75057299999753,None,,None,None,None,None,None,None,None,None,None,None,None,None,None,None,,None,None,,,,,,,,None,None,-0.2,2,None,None,None,None,None,None,None,None,None,None,None,None,,None,None,None,None,None,None,None,None,None,None,None,None,None,None,None,None,None,None,210.97265850001713,None,,,,,,,,,224,f,23,2023_Mar_19_1524,RL,2021.2.3,59.95890417524056,
0,0.3,0.225,0,13,13,13,,,,,,,,,,,,,,,None,None,None,None,None,212.7463023000164,None,212.7463023000164,None,212.7463023000164,None,212.7463023000164,None,i,0.767797700013034,212.7463023000164,None,212.7463023000164,None,213.55011110001942,None,213.55011110001942,None,213.55011110001942,None,213.55011110001942,None,213.55011110001942,None,213.55011110001942,None,213.84257320000324,None,213.84257320000324,None,215.8106607000227,None,215.8106607000227,None,215.8106607000227,None,215.8106607000227,None,215.8106607000227,None,215.8106607000227,None,215.8106607000227,None,215.8106607000227,None,215.8106607000227,None,56,39,46,21,46,33,None,None,None,None,None,None,None,None,None,None,None,None,40,218.33875729999272,None,218.33875729999272,None,218.33875729999272,None,218.33875729999272,None,218.33875729999272,None,218.33875729999272,None,218.33875729999272,None,40,218.33875729999272,None,0.00390625,-0.3125,1,0,0,6.672325300052762,tijiao,0.016619209956843406,None,-0.2,0,None,None,None,None,None,None,None,None,None,None,None,None,,None,None,None,None,None,None,7.067708333333334,3.0870488000218756,225.05762340000365,None,225.05762340000365,None,225.05762340000365,None,225.05762340000365,None,None,None,228.16826900001615,None,,,,,,,,,224,f,23,2023_Mar_19_1524,RL,2021.2.3,59.95890417524056,
1,-0.3,-0.225,0,14,14,14,,,,,,,,,,,,,,,None,None,None,None,None,230.00875500001712,None,230.00875500001712,None,230.00875500001712,None,230.00875500001712,None,f,0.4359097999986261,230.00875500001712,None,230.00875500001712,None,230.4933782000444,None,230.4933782000444,None,230.4933782000444,None,230.4933782000444,None,230.4933782000444,None,230.4933782000444,None,230.7882832000032,232.05588420003187,230.7882832000032,232.05588420003187,232.0874785000342,None,232.0874785000342,None,232.0874785000342,None,232.0874785000342,None,232.0874785000342,None,232.0874785000342,None,232.0874785000342,None,232.0874785000342,None,232.0874785000342,None,66,42,48,31,42,36,234.60335849999683,None,5.0,1.9767742999829352,234.60335849999683,None,234.60335849999683,None,234.60335849999683,None,234.60335849999683,None,,None,None,None,None,None,None,None,None,None,None,None,None,None,None,,None,None,,,,,,,,None,None,-0.6,2,None,None,None,None,None,None,None,None,None,None,None,None,,None,None,None,None,None,None,None,None,None,None,None,None,None,None,None,None,None,None,236.64661799999885,None,,,,,,,,,224,f,23,2023_Mar_19_1524,RL,2021.2.3,59.95890417524056,
0,0.3,0.225,0,15,15,15,,,,,,,,,,,,,,,None,None,None,None,None,238.33079450001242,None,238.33079450001242,None,238.33079450001242,None,238.33079450001242,None,r,0.5939009000430815,238.33079450001242,None,238.33079450001242,None,238.96751310001127,None,238.96751310001127,None,238.96751310001127,None,238.96751310001127,None,238.96751310001127,None,238.96751310001127,None,239.26095800002804,240.9788287000265,239.26095800002804,240.9788287000265,241.01240470004268,None,241.01240470004268,None,241.01240470004268,None,241.01240470004268,None,241.01240470004268,None,241.01240470004268,None,241.01240470004268,None,241.01240470004268,None,241.01240470004268,None,54,36,49,23,54,65,243.52701270004036,None,5.0,2.5220572000253014,243.52701270004036,None,243.52701270004036,None,243.52701270004036,None,243.52701270004036,None,,None,None,None,None,None,None,None,None,None,None,None,None,None,None,,None,None,,,,,,,,None,None,0.6,3,None,None,None,None,None,None,None,None,None,None,None,None,,None,None,None,None,None,None,None,None,None,None,None,None,None,None,None,None,None,None,246.10164110001642,None,,,,,,,,,224,f,23,2023_Mar_19_1524,RL,2021.2.3,59.95890417524056,
1,-0.3,-0.225,0,16,16,16,,,,,,,,,,,,,,,None,None,None,None,None,247.9543428000179,None,247.9543428000179,None,247.9543428000179,None,247.9543428000179,None,f,0.9812664999626577,247.9543428000179,None,247.9543428000179,None,248.97507839999162,None,248.97507839999162,None,248.97507839999162,None,248.97507839999162,None,248.97507839999162,None,248.97507839999162,None,249.2679127000156,None,249.2679127000156,None,251.01667089998955,None,251.01667089998955,None,251.01667089998955,None,251.01667089998955,None,251.01667089998955,None,251.01667089998955,None,251.01667089998955,None,251.01667089998955,None,251.01667089998955,None,57,37,45,23,37,56,253.54353309998987,None,3.0,2.4499687000061385,253.54353309998987,None,253.54353309998987,None,253.54353309998987,None,253.54353309998987,None,,None,None,None,None,None,None,None,None,None,None,None,None,None,None,,None,None,,,,,,,,None,None,-0.6,2,None,None,None,None,None,None,None,None,None,None,None,None,,None,None,None,None,None,None,None,None,None,None,None,None,None,None,None,None,None,None,256.0425455000368,None,,,,,,,,,224,f,23,2023_Mar_19_1524,RL,2021.2.3,59.95890417524056,
0,0.3,0.225,0,17,17,17,,,,,,,,,,,,,,,None,None,None,None,None,257.91127460001735,None,257.91127460001735,None,257.91127460001735,None,257.91127460001735,None,r,1.0547654000110924,257.91127460001735,None,257.91127460001735,None,259.0179113000049,None,259.0179113000049,None,259.0179113000049,None,259.0179113000049,None,259.0179113000049,None,259.0179113000049,None,259.30808160000015,None,259.30808160000015,None,260.5081165000447,None,260.5081165000447,None,260.5081165000447,None,260.5081165000447,None,260.5081165000447,None,260.5081165000447,None,260.5081165000447,None,260.5081165000447,None,260.5081165000447,None,65,33,53,37,65,39,263.0244776000036,None,6.0,2.0567420999868773,263.0244776000036,None,263.0244776000036,None,263.0244776000036,None,263.0244776000036,None,,None,None,None,None,None,None,None,None,None,None,None,None,None,None,,None,None,,,,,,,,None,None,-0.2,2,None,None,None,None,None,None,None,None,None,None,None,None,,None,None,None,None,None,None,None,None,None,None,None,None,None,None,None,None,None,None,265.14126910001505,None,,,,,,,,,224,f,23,2023_Mar_19_1524,RL,2021.2.3,59.95890417524056,
1,-0.3,-0.225,0,18,18,18,,,,,,,,,,,,,,,None,None,None,None,None,266.9008138999925,None,266.9008138999925,None,266.9008138999925,None,266.9008138999925,None,i,0.6149700999958441,266.9008138999925,None,266.9008138999925,None,267.5692279000068,None,267.5692279000068,None,267.5692279000068,None,267.5692279000068,None,267.5692279000068,None,267.5692279000068,None,267.86411140003474,None,267.86411140003474,None,269.1822339000064,None,269.1822339000064,None,269.1822339000064,None,269.1822339000064,None,269.1822339000064,None,269.1822339000064,None,269.1822339000064,None,269.1822339000064,None,269.1822339000064,None,63,39,42,33,42,49,None,None,None,None,None,None,None,None,None,None,None,None,,None,None,None,None,None,None,None,None,None,None,None,None,None,None,,None,None,,,,,,,,None,None,-0.6,1,271.726167100016,None,271.726167100016,None,271.726167100016,None,271.726167100016,None,271.726167100016,None,271.726167100016,None,69,271.726167100016,None,271.726167100016,None,0.015082780038937926,None,8.03125,4.1929415999911726,279.21197589999065,None,279.21197589999065,None,279.21197589999065,None,279.21197589999065,None,None,None,283.42370620003203,None,0.010416666666666666,-0.29296875,1,0,0,7.437474700040184,tijiao,,224,f,23,2023_Mar_19_1524,RL,2021.2.3,59.95890417524056,
0,0.3,0.225,0,19,19,19,,,,,,,,,,,,,,,None,None,None,None,None,285.33007060003,None,285.33007060003,None,285.33007060003,None,285.33007060003,None,i,0.5458071000175551,285.33007060003,None,285.33007060003,None,285.9143939000205,None,285.9143939000205,None,285.9143939000205,None,285.9143939000205,None,285.9143939000205,None,285.9143939000205,None,286.21015500003705,None,286.21015500003705,None,288.2120675999904,None,288.2120675999904,None,288.2120675999904,None,288.2120675999904,None,288.2120675999904,None,288.2120675999904,None,288.2120675999904,None,288.2120675999904,None,288.2120675999904,None,61,33,41,26,41,34,None,None,None,None,None,None,None,None,None,None,None,None,65,290.7376350000268,None,290.7376350000268,None,290.7376350000268,None,290.7376350000268,None,290.7376350000268,None,290.7376350000268,None,290.7376350000268,None,65,290.7376350000268,None,0.02734375,-0.2786458333333333,1,0,0,4.321771099988837,tijiao,0.0013168400037102401,None,-0.2,0,None,None,None,None,None,None,None,None,None,None,None,None,,None,None,None,None,None,None,7.770833333333334,3.031936500046868,295.1076078999904,None,295.1076078999904,None,295.1076078999904,None,295.1076078999904,None,None,None,298.15131340001244,None,,,,,,,,,224,f,23,2023_Mar_19_1524,RL,2021.2.3,59.95890417524056,
1,-0.3,-0.225,0,20,20,20,,,,,,,,,,,,,,,None,None,None,None,None,299.7570143000339,None,299.7570143000339,None,299.7570143000339,None,299.7570143000339,None,i,0.568912899994757,299.7570143000339,None,299.7570143000339,None,300.37647100002505,None,300.37647100002505,None,300.37647100002505,None,300.37647100002505,None,300.37647100002505,None,300.37647100002505,None,300.67056440003216,302.4713417000021,300.67056440003216,302.4713417000021,302.5040791000356,None,302.5040791000356,None,302.5040791000356,None,302.5040791000356,None,302.5040791000356,None,302.5040791000356,None,302.5040791000356,None,302.5040791000356,None,302.5040791000356,None,67,28,42,37,42,30,305.0273356999969,None,6.0,2.416669500002172,305.0273356999969,None,305.0273356999969,None,305.0273356999969,None,305.0273356999969,None,,None,None,None,None,None,None,None,None,None,None,None,None,None,None,,None,None,,,,,,,,None,None,-0.6,2,None,None,None,None,None,None,None,None,None,None,None,None,,None,None,None,None,None,None,None,None,None,None,None,None,None,None,None,None,None,None,307.49687959998846,None,,,,,,,,,224,f,23,2023_Mar_19_1524,RL,2021.2.3,59.95890417524056,
0,0.3,0.225,0,21,21,21,,,,,,,,,,,,,,,None,None,None,None,None,309.11387980001746,None,309.11387980001746,None,309.11387980001746,None,309.11387980001746,None,i,0.7522660000249743,309.11387980001746,None,309.11387980001746,None,309.9144981999998,None,309.9144981999998,None,309.9144981999998,None,309.9144981999998,None,309.9144981999998,None,309.9144981999998,None,310.21016280003823,311.1941602000152,310.21016280003823,311.1941602000152,311.2256525999983,None,311.2256525999983,None,311.2256525999983,None,311.2256525999983,None,311.2256525999983,None,311.2256525999983,None,311.2256525999983,None,311.2256525999983,None,311.2256525999983,None,63,29,41,41,41,53,313.75082750001457,None,5.0,1.7172419999842532,313.75082750001457,None,313.75082750001457,None,313.75082750001457,None,313.75082750001457,None,,None,None,None,None,None,None,None,None,None,None,None,None,None,None,,None,None,,,,,,,,None,None,0.2,2,None,None,None,None,None,None,None,None,None,None,None,None,,None,None,None,None,None,None,None,None,None,None,None,None,None,None,None,None,None,None,315.51506470004097,None,,,,,,,,,224,f,23,2023_Mar_19_1524,RL,2021.2.3,59.95890417524056,
1,-0.3,-0.225,0,22,22,22,,,,,,,,,,,,,,,None,None,None,None,None,317.50304400001187,None,317.50304400001187,None,317.50304400001187,None,317.50304400001187,None,r,0.3832599999732338,317.50304400001187,None,317.50304400001187,None,317.93927660002373,None,317.93927660002373,None,317.93927660002373,None,317.93927660002373,None,317.93927660002373,None,317.93927660002373,None,318.2157152,319.9334879000089,318.2157152,319.9334879000089,319.96479960001307,None,319.96479960001307,None,319.96479960001307,None,319.96479960001307,None,319.96479960001307,None,319.96479960001307,None,319.96479960001307,None,319.96479960001307,None,319.96479960001307,None,65,24,46,42,65,52,None,None,None,None,None,None,None,None,None,None,None,None,45,322.4944570999942,None,322.4944570999942,None,322.4944570999942,None,322.4944570999942,None,322.4944570999942,None,322.4944570999942,None,322.4944570999942,None,45,322.4944570999942,None,0.013020833333333334,-0.3346354166666667,1,0,0,6.7551356999902055,tijiao,0.016511610010638833,None,0.2,0,None,None,None,None,None,None,None,None,None,None,None,None,,None,None,None,None,None,None,5.908854166666667,2.8995703000109643,329.29452689999016,None,329.29452689999016,None,329.29452689999016,None,329.29452689999016,None,None,None,332.20802650001133,None,,,,,,,,,224,f,23,2023_Mar_19_1524,RL,2021.2.3,59.95890417524056,
0,0.3,0.225,0,23,23,23,,,,,,,,,,,,,,,None,None,None,None,None,333.8639681999921,None,333.8639681999921,None,333.8639681999921,None,333.8639681999921,None,f,0.6722205000114627,333.8639681999921,None,333.8639681999921,None,334.58493559999624,None,334.58493559999624,None,334.58493559999624,None,334.58493559999624,None,334.58493559999624,None,334.58493559999624,None,334.8775793000241,None,334.8775793000241,None,335.9090288000298,None,335.9090288000298,None,335.9090288000298,None,335.9090288000298,None,335.9090288000298,None,335.9090288000298,None,335.9090288000298,None,335.9090288000298,None,335.9090288000298,None,74,38,40,43,38,71,None,None,None,None,None,None,None,None,None,None,None,None,55,338.4444844000391,None,338.4444844000391,None,338.4444844000391,None,338.4444844000391,None,338.4444844000391,None,338.4444844000391,None,338.4444844000391,None,55,338.4444844000391,None,-0.040364583333333336,-0.3138020833333333,1,0,0,3.964138100040145,tijiao,0.009981709939893335,None,-0.2,0,None,None,None,None,None,None,None,None,None,None,None,None,,None,None,None,None,None,None,4.8671875,4.0701428999891505,342.4567629999947,None,342.4567629999947,None,342.4567629999947,None,342.4567629999947,None,None,None,346.5506108000409,None,,,,,,,,,224,f,23,2023_Mar_19_1524,RL,2021.2.3,59.95890417524056,
1,-0.3,-0.225,0,24,24,24,,,,,,,,,,,,,,,None,None,None,None,None,348.4402423000429,None,348.4402423000429,None,348.4402423000429,None,348.4402423000429,None,i,0.6261382999946363,348.4402423000429,None,348.4402423000429,None,349.11019969999325,None,349.11019969999325,None,349.11019969999325,None,349.11019969999325,None,349.11019969999325,None,349.11019969999325,None,349.40393040003255,None,349.40393040003255,None,350.3033400000422,None,350.3033400000422,None,350.3033400000422,None,350.3033400000422,None,350.3033400000422,None,350.3033400000422,None,350.3033400000422,None,350.3033400000422,None,350.3033400000422,None,71,35,45,40,45,46,None,None,None,None,None,None,None,None,None,None,None,None,35,352.83075250004185,None,352.83075250004185,None,352.83075250004185,None,352.83075250004185,None,352.83075250004185,None,352.83075250004185,None,352.83075250004185,None,35,352.83075250004185,None,-0.08333333333333333,-0.28125,1,0,0,5.204630899999756,tijiao,0.0002512400387786329,None,-0.2,0,None,None,None,None,None,None,None,None,None,None,None,None,,None,None,None,None,None,None,4.932291666666667,2.66792350000469,358.0804207000183,None,358.0804207000183,None,358.0804207000183,None,358.0804207000183,None,None,None,360.7766249999986,None,,,,,,,,,224,f,23,2023_Mar_19_1524,RL,2021.2.3,59.95890417524056,
0,0.3,0.225,0,25,25,25,,,,,,,,,,,,,,,None,None,None,None,None,362.35090469999705,None,362.35090469999705,None,362.35090469999705,None,362.35090469999705,None,j,1.4656061999849044,362.35090469999705,None,362.35090469999705,None,363.8682939000428,None,363.8682939000428,None,363.8682939000428,None,363.8682939000428,None,363.8682939000428,None,363.8682939000428,None,364.1642488000216,None,364.1642488000216,None,365.0300392000354,None,365.0300392000354,None,365.0300392000354,None,365.0300392000354,None,365.0300392000354,None,365.0300392000354,None,365.0300392000354,None,365.0300392000354,None,365.0300392000354,None,66,43,39,36,36,61,367.548295399989,None,1.0,2.4051800000015646,367.548295399989,None,367.548295399989,None,367.548295399989,None,367.548295399989,None,,None,None,None,None,None,None,None,None,None,None,None,None,None,None,,None,None,,,,,,,,None,None,0.2,2,None,None,None,None,None,None,None,None,None,None,None,None,,None,None,None,None,None,None,None,None,None,None,None,None,None,None,None,None,None,None,370.0038172000204,None,,,,,,,,,224,f,23,2023_Mar_19_1524,RL,2021.2.3,59.95890417524056,
1,-0.3,-0.225,0,26,26,26,,,,,,,,,,,,,,,None,None,None,None,None,371.97357490001014,None,371.97357490001014,None,371.97357490001014,None,371.97357490001014,None,i,0.7529349999967963,371.97357490001014,None,371.97357490001014,None,372.78383299999405,None,372.78383299999405,None,372.78383299999405,None,372.78383299999405,None,372.78383299999405,None,372.78383299999405,None,373.0705569999991,None,373.0705569999991,None,374.8523186999955,None,374.8523186999955,None,374.8523186999955,None,374.8523186999955,None,374.8523186999955,None,374.8523186999955,None,374.8523186999955,None,374.8523186999955,None,374.8523186999955,None,57,45,48,35,48,65,None,None,None,None,None,None,None,None,None,None,None,None,56,377.38134080002783,None,377.38134080002783,None,377.38134080002783,None,377.38134080002783,None,377.38134080002783,None,377.38134080002783,None,377.38134080002783,None,56,377.38134080002783,None,0.028645833333333332,-0.2994791666666667,1,0,0,3.8048340000095777,tijiao,0.0006908400100655854,None,-0.2,0,None,None,None,None,None,None,None,None,None,None,None,None,,None,None,None,None,None,None,5.908854166666667,2.2706592999747954,381.2302713000099,None,381.2302713000099,None,381.2302713000099,None,381.2302713000099,None,None,None,383.52618320001056,None,,,,,,,,,224,f,23,2023_Mar_19_1524,RL,2021.2.3,59.95890417524056,
0,0.3,0.225,0,27,27,27,,,,,,,,,,,,,,,None,None,None,None,None,385.48300930002006,None,385.48300930002006,None,385.48300930002006,None,385.48300930002006,None,f,0.39370839996263385,385.48300930002006,None,385.48300930002006,None,385.918738700042,None,385.918738700042,None,385.918738700042,None,385.918738700042,None,385.918738700042,None,385.918738700042,None,386.21313970000483,None,386.21313970000483,None,387.8774151999969,None,387.8774151999969,None,387.8774151999969,None,387.8774151999969,None,387.8774151999969,None,387.8774151999969,None,387.8774151999969,None,387.8774151999969,None,387.8774151999969,None,65,44,40,42,44,33,None,None,None,None,None,None,None,None,None,None,None,None,,None,None,None,None,None,None,None,None,None,None,None,None,None,None,,None,None,,,,,,,,None,None,0.6,1,390.42372479999904,None,390.42372479999904,None,390.42372479999904,None,390.42372479999904,None,390.42372479999904,None,390.42372479999904,None,45,390.42372479999904,None,390.42372479999904,None,5.5209966376423836e-05,None,7.888020833333334,2.1688562000053935,396.3767724999925,None,396.3767724999925,None,396.3767724999925,None,396.3767724999925,None,None,None,398.57039360003546,None,-0.01953125,-0.3268229166666667,1,0,0,5.921909800032154,tijiao,,224,f,23,2023_Mar_19_1524,RL,2021.2.3,59.95890417524056,
1,-0.3,-0.225,0,28,28,28,,,,,,,,,,,,,,,None,None,None,None,None,400.193563000008,None,400.193563000008,None,400.193563000008,None,400.193563000008,None,f,0.6831120999995619,400.193563000008,None,400.193563000008,None,400.9292753000045,None,400.9292753000045,None,400.9292753000045,None,400.9292753000045,None,400.9292753000045,None,400.9292753000045,None,401.2234673000057,None,401.2234673000057,None,402.1372774000047,None,402.1372774000047,None,402.1372774000047,None,402.1372774000047,None,402.1372774000047,None,402.1372774000047,None,402.1372774000047,None,402.1372774000047,None,402.1372774000047,None,64,40,39,45,40,77,404.6631484000245,None,3.0,1.920220399973914,404.6631484000245,None,404.6631484000245,None,404.6631484000245,None,404.6631484000245,None,,None,None,None,None,None,None,None,None,None,None,None,None,None,None,,None,None,,,,,,,,None,None,0.2,2,None,None,None,None,None,None,None,None,None,None,None,None,,None,None,None,None,None,None,None,None,None,None,None,None,None,None,None,None,None,None,406.6380435000174,None,,,,,,,,,224,f,23,2023_Mar_19_1524,RL,2021.2.3,59.95890417524056,
0,0.3,0.225,0,29,29,29,,,,,,,,,,,,,,,None,None,None,None,None,408.5997142000124,None,408.5997142000124,None,408.5997142000124,None,408.5997142000124,None,r,0.8371424999786541,408.5997142000124,None,408.5997142000124,None,409.4840195000288,None,409.4840195000288,None,409.4840195000288,None,409.4840195000288,None,409.4840195000288,None,409.4840195000288,None,409.779227800027,None,409.779227800027,None,411.2930680999998,None,411.2930680999998,None,411.2930680999998,None,411.2930680999998,None,411.2930680999998,None,411.2930680999998,None,411.2930680999998,None,411.2930680999998,None,411.2930680999998,None,71,47,32,49,71,77,None,None,None,None,None,None,None,None,None,None,None,None,,None,None,None,None,None,None,None,None,None,None,None,None,None,None,,None,None,,,,,,,,None,None,-0.2,1,413.8405713000102,None,413.8405713000102,None,413.8405713000102,None,413.8405713000102,None,413.8405713000102,None,413.8405713000102,None,35,413.8405713000102,None,413.8405713000102,None,0.016629379941150546,None,4.489583333333334,3.427155000041239,418.36592890002066,None,418.36592890002066,None,418.36592890002066,None,418.36592890002066,None,None,None,421.8037770999945,None,-0.02734375,-0.2799479166666667,1,0,0,4.486965199990664,tijiao,,224,f,23,2023_Mar_19_1524,RL,2021.2.3,59.95890417524056,
1,-0.3,-0.225,0,30,30,30,,,,,,,,,,,,,,,None,None,None,None,None,423.6435358999879,None,423.6435358999879,None,423.6435358999879,None,423.6435358999879,None,i,0.5950832000235096,423.6435358999879,None,423.6435358999879,None,424.28088870004285,None,424.28088870004285,None,424.28088870004285,None,424.28088870004285,None,424.28088870004285,None,424.28088870004285,None,424.57280910003465,425.92380829999456,424.57280910003465,425.92380829999456,425.9564970000065,None,425.9564970000065,None,425.9564970000065,None,425.9564970000065,None,425.9564970000065,None,425.9564970000065,None,425.9564970000065,None,425.9564970000065,None,425.9564970000065,None,71,46,40,44,40,65,None,None,None,None,None,None,None,None,None,None,None,None,,None,None,None,None,None,None,None,None,None,None,None,None,None,None,,None,None,,,,,,,,None,None,-0.2,1,428.499702400004,None,428.499702400004,None,428.499702400004,None,428.499702400004,None,428.499702400004,None,428.499702400004,None,55,428.499702400004,None,428.499702400004,None,0.0005155099788680673,None,4.5546875,2.1817244999692775,431.7526524999994,None,431.7526524999994,None,431.7526524999994,None,431.7526524999994,None,None,None,433.9667421000195,None,-0.08072916666666667,-0.2955729166666667,1,0,0,3.220541900023818,tijiao,,224,f,23,2023_Mar_19_1524,RL,2021.2.3,59.95890417524056,
0,0.3,0.225,0,31,31,31,,,,,,,,,,,,,,,None,None,None,None,None,435.9349533999921,None,435.9349533999921,None,435.9349533999921,None,435.9349533999921,None,f,0.7229262000182644,435.9349533999921,None,435.9349533999921,None,436.7045128000318,None,436.7045128000318,None,436.7045128000318,None,436.7045128000318,None,436.7045128000318,None,436.7045128000318,None,436.99816940003075,437.8657127000042,436.99816940003075,437.8657127000042,437.8990913000307,None,437.8990913000307,None,437.8990913000307,None,437.8990913000307,None,437.8990913000307,None,437.8990913000307,None,437.8990913000307,None,437.8990913000307,None,437.8990913000307,None,74,54,45,44,54,67,440.4141502000275,None,3.0,2.5902504000114277,440.4141502000275,None,440.4141502000275,None,440.4141502000275,None,440.4141502000275,None,,None,None,None,None,None,None,None,None,None,None,None,None,None,None,,None,None,,,,,,,,None,None,0.6,2,None,None,None,None,None,None,None,None,None,None,None,None,,None,None,None,None,None,None,None,None,None,None,None,None,None,None,None,None,None,None,443.0591735999915,None,,,,,,,,,224,f,23,2023_Mar_19_1524,RL,2021.2.3,59.95890417524056,
1,-0.3,-0.225,0,32,32,32,,,,,,,,,,,,,,,None,None,None,None,None,444.59022340003867,None,444.59022340003867,None,444.59022340003867,None,444.59022340003867,None,r,0.7877127999672666,444.59022340003867,None,444.59022340003867,None,445.4253056999878,None,445.4253056999878,None,445.4253056999878,None,445.4253056999878,None,445.4253056999878,None,445.4253056999878,None,445.7210092000314,None,445.7210092000314,None,447.136276300007,None,447.136276300007,None,447.136276300007,None,447.136276300007,None,447.136276300007,None,447.136276300007,None,447.136276300007,None,447.136276300007,None,447.136276300007,None,72,52,49,46,72,69,449.6533554000198,None,4.0,1.7233549000229686,449.6533554000198,None,449.6533554000198,None,449.6533554000198,None,449.6533554000198,None,,None,None,None,None,None,None,None,None,None,None,None,None,None,None,,None,None,,,,,,,,None,None,-0.6,3,None,None,None,None,None,None,None,None,None,None,None,None,,None,None,None,None,None,None,None,None,None,None,None,None,None,None,None,None,None,None,451.4240341000259,None,,,,,,,,,224,f,23,2023_Mar_19_1524,RL,2021.2.3,59.95890417524056,
0,0.3,0.225,0,33,33,33,,,,,,,,,,,,,,,None,None,None,None,None,453.28035050001927,None,453.28035050001927,None,453.28035050001927,None,453.28035050001927,None,i,0.9177115999627858,453.28035050001927,None,453.28035050001927,None,454.24667730001966,None,454.24667730001966,None,454.24667730001966,None,454.24667730001966,None,454.24667730001966,None,454.24667730001966,None,454.5436668000184,None,454.5436668000184,None,455.44183279998833,None,455.44183279998833,None,455.44183279998833,None,455.44183279998833,None,455.44183279998833,None,455.44183279998833,None,455.44183279998833,None,455.44183279998833,None,455.44183279998833,None,64,45,34,45,34,47,None,None,None,None,None,None,None,None,None,None,None,None,45,457.96874159999425,None,457.96874159999425,None,457.96874159999425,None,457.96874159999425,None,457.96874159999425,None,457.96874159999425,None,457.96874159999425,None,45,457.96874159999425,None,-0.029947916666666668,-0.30859375,1,0,0,5.122296100016683,tijiao,0.0017022399697452784,None,0.6,0,None,None,None,None,None,None,None,None,None,None,None,None,,None,None,None,None,None,None,4.8671875,2.2001330999773927,463.13688210002147,None,463.13688210002147,None,463.13688210002147,None,463.13688210002147,None,None,None,465.35094690002734,None,,,,,,,,,224,f,23,2023_Mar_19_1524,RL,2021.2.3,59.95890417524056,
1,-0.3,-0.225,0,34,34,34,,,,,,,,,,,,,,,None,None,None,None,None,467.23944309999933,None,467.23944309999933,None,467.23944309999933,None,467.23944309999933,None,j,0.5294074000557885,467.23944309999933,None,467.23944309999933,None,467.80993899999885,None,467.80993899999885,None,467.80993899999885,None,467.80993899999885,None,467.80993899999885,None,467.80993899999885,None,468.10299129999476,468.98701620002976,468.10299129999476,468.98701620002976,469.01675060001435,None,469.01675060001435,None,469.01675060001435,None,469.01675060001435,None,469.01675060001435,None,469.01675060001435,None,469.01675060001435,None,469.01675060001435,None,469.01675060001435,None,70,52,42,48,48,67,471.5398211000138,None,3.0,1.7528547000256367,471.5398211000138,None,471.5398211000138,None,471.5398211000138,None,471.5398211000138,None,,None,None,None,None,None,None,None,None,None,None,None,None,None,None,,None,None,,,,,,,,None,None,0.2,3,None,None,None,None,None,None,None,None,None,None,None,None,,None,None,None,None,None,None,None,None,None,None,None,None,None,None,None,None,None,None,473.3557692000177,None,,,,,,,,,224,f,23,2023_Mar_19_1524,RL,2021.2.3,59.95890417524056,
0,0.3,0.225,0,35,35,35,,,,,,,,,,,,,,,None,None,None,None,None,475.2956636000308,None,475.2956636000308,None,475.2956636000308,None,475.2956636000308,None,r,0.8228614999679849,475.2956636000308,None,475.2956636000308,None,476.1642165000085,None,476.1642165000085,None,476.1642165000085,None,476.1642165000085,None,476.1642165000085,None,476.1642165000085,None,476.45900630002143,None,476.45900630002143,None,478.10735940001905,None,478.10735940001905,None,478.10735940001905,None,478.10735940001905,None,478.10735940001905,None,478.10735940001905,None,478.10735940001905,None,478.10735940001905,None,478.10735940001905,None,79,44,35,40,79,28,None,None,None,None,None,None,None,None,None,None,None,None,,None,None,None,None,None,None,None,None,None,None,None,None,None,None,,None,None,,,,,,,,None,None,-0.2,1,480.6493466999964,None,480.6493466999964,None,480.6493466999964,None,480.6493466999964,None,480.6493466999964,None,480.6493466999964,None,45,480.6493466999964,None,480.6493466999964,None,0.003467709932010621,None,6.9765625,2.695833700010553,484.82466470001964,None,484.82466470001964,None,484.82466470001964,None,484.82466470001964,None,None,None,487.5329774999991,None,-0.053385416666666664,-0.2669270833333333,1,0,0,4.140820699976757,tijiao,,224,f,23,2023_Mar_19_1524,RL,2021.2.3,59.95890417524056,
1,-0.3,-0.225,0,36,36,36,,,,,,,,,,,,,,,None,None,None,None,None,489.3554038000293,None,489.3554038000293,None,489.3554038000293,None,489.3554038000293,None,f,0.8328648000024259,489.3554038000293,None,489.3554038000293,None,490.2394365000073,None,490.2394365000073,None,490.2394365000073,None,490.2394365000073,None,490.2394365000073,None,490.2394365000073,None,490.53533049998805,None,490.53533049998805,None,491.43196489999536,None,491.43196489999536,None,491.43196489999536,None,491.43196489999536,None,491.43196489999536,None,491.43196489999536,None,491.43196489999536,None,491.43196489999536,None,491.43196489999536,None,73,48,42,41,48,57,493.9566828000243,None,4.0,2.030965299985837,493.9566828000243,None,493.9566828000243,None,493.9566828000243,None,493.9566828000243,None,,None,None,None,None,None,None,None,None,None,None,None,None,None,None,,None,None,,,,,,,,None,None,-0.6,2,None,None,None,None,None,None,None,None,None,None,None,None,,None,None,None,None,None,None,None,None,None,None,None,None,None,None,None,None,None,None,496.0427711000084,None,,,,,,,,,224,f,23,2023_Mar_19_1524,RL,2021.2.3,59.95890417524056,
0,0.3,0.225,0,37,37,37,,,,,,,,,,,,,,,None,None,None,None,None,497.8950649999897,None,497.8950649999897,None,497.8950649999897,None,497.8950649999897,None,j,0.9333532000309788,497.8950649999897,None,497.8950649999897,None,498.8822386999964,None,498.8822386999964,None,498.8822386999964,None,498.8822386999964,None,498.8822386999964,None,498.8822386999964,None,499.1746877999976,501.126193300006,499.1746877999976,501.126193300006,501.1580602999893,None,501.1580602999893,None,501.1580602999893,None,501.1580602999893,None,501.1580602999893,None,501.1580602999893,None,501.1580602999893,None,501.1580602999893,None,501.1580602999893,None,73,40,42,39,39,59,None,None,None,None,None,None,None,None,None,None,None,None,,None,None,None,None,None,None,None,None,None,None,None,None,None,None,,None,None,,,,,,,,None,None,-0.6,1,503.70014359999914,None,503.70014359999914,None,503.70014359999914,None,503.70014359999914,None,503.70014359999914,None,503.70014359999914,None,25,503.70014359999914,None,503.70014359999914,None,0.00291241001104936,None,5.348958333333333,2.0278808000148274,507.40818210004363,None,507.40818210004363,None,507.40818210004363,None,507.40818210004363,None,None,None,509.44816329999594,None,-0.01171875,-0.2916666666666667,1,0,0,3.6560322000295855,tijiao,,224,f,23,2023_Mar_19_1524,RL,2021.2.3,59.95890417524056,
1,-0.3,-0.225,0,38,38,38,,,,,,,,,,,,,,,None,None,None,None,None,511.43764870002633,None,511.43764870002633,None,511.43764870002633,None,511.43764870002633,None,f,0.7007824999745935,511.43764870002633,None,511.43764870002633,None,512.1941557000391,None,512.1941557000391,None,512.1941557000391,None,512.1941557000391,None,512.1941557000391,None,512.1941557000391,None,512.4841750999913,513.5179771000403,512.4841750999913,513.5179771000403,513.5518991000135,None,513.5518991000135,None,513.5518991000135,None,513.5518991000135,None,513.5518991000135,None,513.5518991000135,None,513.5518991000135,None,513.5518991000135,None,513.5518991000135,None,74,50,33,42,50,43,516.0733631000039,None,4.0,1.7829596000374295,516.0733631000039,None,516.0733631000039,None,516.0733631000039,None,516.0733631000039,None,,None,None,None,None,None,None,None,None,None,None,None,None,None,None,,None,None,,,,,,,,None,None,-0.2,2,None,None,None,None,None,None,None,None,None,None,None,None,,None,None,None,None,None,None,None,None,None,None,None,None,None,None,None,None,None,None,517.9165152999922,None,,,,,,,,,224,f,23,2023_Mar_19_1524,RL,2021.2.3,59.95890417524056,
0,0.3,0.225,0,39,39,39,,,,,,,,,,,,,,,None,None,None,None,None,519.8262104000314,None,519.8262104000314,None,519.8262104000314,None,519.8262104000314,None,r,0.6322730999672785,519.8262104000314,None,519.8262104000314,None,520.5188232000219,None,520.5188232000219,None,520.5188232000219,None,520.5188232000219,None,520.5188232000219,None,520.5188232000219,None,520.8061223000404,None,520.8061223000404,None,522.3611462000408,None,522.3611462000408,None,522.3611462000408,None,522.3611462000408,None,522.3611462000408,None,522.3611462000408,None,522.3611462000408,None,522.3611462000408,None,522.3611462000408,None,75,49,31,35,75,60,524.8799689000007,None,5.0,1.616894399980083,524.8799689000007,None,524.8799689000007,None,524.8799689000007,None,524.8799689000007,None,,None,None,None,None,None,None,None,None,None,None,None,None,None,None,,None,None,,,,,,,,None,None,-0.2,3,None,None,None,None,None,None,None,None,None,None,None,None,,None,None,None,None,None,None,None,None,None,None,None,None,None,None,None,None,None,None,526.5560097999987,None,,,,,,,,,224,f,23,2023_Mar_19_1524,RL,2021.2.3,59.95890417524056,
1,-0.3,-0.225,0,40,40,40,,,,,,,,,,,,,,,None,None,None,None,None,528.0659434000263,None,528.0659434000263,None,528.0659434000263,None,528.0659434000263,None,f,0.6525757999625057,528.0659434000263,None,528.0659434000263,None,528.7672351000365,None,528.7672351000365,None,528.7672351000365,None,528.7672351000365,None,528.7672351000365,None,528.7672351000365,None,529.0622101000044,None,529.0622101000044,None,530.7127576000057,None,530.7127576000057,None,530.7127576000057,None,530.7127576000057,None,530.7127576000057,None,530.7127576000057,None,530.7127576000057,None,530.7127576000057,None,530.7127576000057,None,73,50,30,37,50,60,533.2341986999963,None,5.0,2.8167643999913707,533.2341986999963,None,533.2341986999963,None,533.2341986999963,None,533.2341986999963,None,,None,None,None,None,None,None,None,None,None,None,None,None,None,None,,None,None,,,,,,,,None,None,0.6,2,None,None,None,None,None,None,None,None,None,None,None,None,,None,None,None,None,None,None,None,None,None,None,None,None,None,None,None,None,None,None,536.1040724000195,None,,,,,,,,,224,f,23,2023_Mar_19_1524,RL,2021.2.3,59.95890417524056,
0,0.3,0.225,0,41,41,41,,,,,,,,,,,,,,,None,None,None,None,None,537.9894398000324,None,537.9894398000324,None,537.9894398000324,None,537.9894398000324,None,j,1.0592211000039242,537.9894398000324,None,537.9894398000324,None,539.0974488999927,None,539.0974488999927,None,539.0974488999927,None,539.0974488999927,None,539.0974488999927,None,539.0974488999927,None,539.3859526000451,540.7034419000265,539.3859526000451,540.7034419000265,540.7359377000248,None,540.7359377000248,None,540.7359377000248,None,540.7359377000248,None,540.7359377000248,None,540.7359377000248,None,540.7359377000248,None,540.7359377000248,None,540.7359377000248,None,71,48,31,35,35,61,543.2586796000251,None,3.0,1.667679300007876,543.2586796000251,None,543.2586796000251,None,543.2586796000251,None,543.2586796000251,None,,None,None,None,None,None,None,None,None,None,None,None,None,None,None,,None,None,,,,,,,,None,None,0.6,2,None,None,None,None,None,None,None,None,None,None,None,None,,None,None,None,None,None,None,None,None,None,None,None,None,None,None,None,None,None,None,545.0007811000105,None,,,,,,,,,224,f,23,2023_Mar_19_1524,RL,2021.2.3,59.95890417524056,
1,-0.3,-0.225,0,42,42,42,,,,,,,,,,,,,,,None,None,None,None,None,546.6615901000332,None,546.6615901000332,None,546.6615901000332,None,546.6615901000332,None,r,0.6771570999990217,546.6615901000332,None,546.6615901000332,None,547.3793299000245,None,547.3793299000245,None,547.3793299000245,None,547.3793299000245,None,547.3793299000245,None,547.3793299000245,None,547.6750525000389,None,547.6750525000389,None,549.5624413000187,None,549.5624413000187,None,549.5624413000187,None,549.5624413000187,None,549.5624413000187,None,549.5624413000187,None,549.5624413000187,None,549.5624413000187,None,549.5624413000187,None,64,45,25,39,64,32,None,None,None,None,None,None,None,None,None,None,None,None,,None,None,None,None,None,None,None,None,None,None,None,None,None,None,,None,None,,,,,,,,None,None,-0.6,1,552.0997324000346,None,552.0997324000346,None,552.0997324000346,None,552.0997324000346,None,552.0997324000346,None,552.0997324000346,None,36,552.0997324000346,None,552.0997324000346,None,0.003517709963489324,None,8.109375,1.6608013000222854,555.6055441999924,None,555.6055441999924,None,555.6055441999924,None,555.6055441999924,None,None,None,557.2811524000135,None,-0.033854166666666664,-0.3216145833333333,1,0,0,3.47354139998788,tijiao,,224,f,23,2023_Mar_19_1524,RL,2021.2.3,59.95890417524056,
0,0.3,0.225,0,43,43,43,,,,,,,,,,,,,,,None,None,None,None,None,559.27045489999,None,559.27045489999,None,559.27045489999,None,559.27045489999,None,f,0.6786939000012353,559.27045489999,None,559.27045489999,None,559.9953193000401,None,559.9953193000401,None,559.9953193000401,None,559.9953193000401,None,559.9953193000401,None,559.9953193000401,None,560.283880300005,562.0850216000108,560.283880300005,562.0850216000108,562.1180370000075,None,562.1180370000075,None,562.1180370000075,None,562.1180370000075,None,562.1180370000075,None,562.1180370000075,None,562.1180370000075,None,562.1180370000075,None,562.1180370000075,None,74,47,27,37,47,60,564.6398673999938,None,4.0,2.2344541999627836,564.6398673999938,None,564.6398673999938,None,564.6398673999938,None,564.6398673999938,None,,None,None,None,None,None,None,None,None,None,None,None,None,None,None,,None,None,,,,,,,,None,None,-0.6,3,None,None,None,None,None,None,None,None,None,None,None,None,,None,None,None,None,None,None,None,None,None,None,None,None,None,None,None,None,None,None,566.927525600011,None,,,,,,,,,224,f,23,2023_Mar_19_1524,RL,2021.2.3,59.95890417524056,
1,-0.3,-0.225,0,44,44,44,,,,,,,,,,,,,,,None,None,None,None,None,568.5603390000178,None,568.5603390000178,None,568.5603390000178,None,568.5603390000178,None,j,0.9684957999852486,568.5603390000178,None,568.5603390000178,None,569.5771323000081,None,569.5771323000081,None,569.5771323000081,None,569.5771323000081,None,569.5771323000081,None,569.5771323000081,None,569.8738122000359,571.0745740000275,569.8738122000359,571.0745740000275,571.10718370002,None,571.10718370002,None,571.10718370002,None,571.10718370002,None,571.10718370002,None,571.10718370002,None,571.10718370002,None,571.10718370002,None,571.10718370002,None,62,37,22,40,40,64,573.6233848000411,None,3.0,1.7900519000249915,573.6233848000411,None,573.6233848000411,None,573.6233848000411,None,573.6233848000411,None,,None,None,None,None,None,None,None,None,None,None,None,None,None,None,,None,None,,,,,,,,None,None,0.2,3,None,None,None,None,None,None,None,None,None,None,None,None,,None,None,None,None,None,None,None,None,None,None,None,None,None,None,None,None,None,None,575.4633350000367,None,,,,,,,,,224,f,23,2023_Mar_19_1524,RL,2021.2.3,59.95890417524056,
0,0.3,0.225,0,45,45,45,,,,,,,,,,,,,,,None,None,None,None,None,577.0664009000175,None,577.0664009000175,None,577.0664009000175,None,577.0664009000175,None,r,0.7727761000278406,577.0664009000175,None,577.0664009000175,None,577.8850306000095,None,577.8850306000095,None,577.8850306000095,None,577.8850306000095,None,577.8850306000095,None,577.8850306000095,None,578.179829300032,None,578.179829300032,None,579.6770110999933,None,579.6770110999933,None,579.6770110999933,None,579.6770110999933,None,579.6770110999933,None,579.6770110999933,None,579.6770110999933,None,579.6770110999933,None,579.6770110999933,None,79,45,29,32,79,44,None,None,None,None,None,None,None,None,None,None,None,None,67,582.2066274000099,None,582.2066274000099,None,582.2066274000099,None,582.2066274000099,None,582.2066274000099,None,582.2066274000099,None,582.2066274000099,None,67,582.2066274000099,None,0.059895833333333336,-0.2786458333333333,1,0,0,6.1225296999909915,tijiao,0.0005456400103867054,None,-0.2,0,None,None,None,None,None,None,None,None,None,None,None,None,,None,None,None,None,None,None,7.953125,2.1389942999812774,588.3861172000179,None,588.3861172000179,None,588.3861172000179,None,588.3861172000179,None,None,None,590.5367026000167,None,,,,,,,,,224,f,23,2023_Mar_19_1524,RL,2021.2.3,59.95890417524056,
1,-0.3,-0.225,0,46,46,46,,,,,,,,,,,,,,,None,None,None,None,None,592.4922934999922,None,592.4922934999922,None,592.4922934999922,None,592.4922934999922,None,f,1.2477218999993056,592.4922934999922,None,592.4922934999922,None,593.785669600009,None,593.785669600009,None,593.785669600009,None,593.785669600009,None,593.785669600009,None,593.785669600009,None,594.0739933000295,None,594.0739933000295,None,595.003003699996,None,595.003003699996,None,595.003003699996,None,595.003003699996,None,595.003003699996,None,595.003003699996,None,595.003003699996,None,595.003003699996,None,595.003003699996,None,72,43,29,34,43,44,None,None,None,None,None,None,None,None,None,None,None,None,,None,None,None,None,None,None,None,None,None,None,None,None,None,None,,None,None,,,,,,,,None,None,-0.6,1,597.5514679999906,None,597.5514679999906,None,597.5514679999906,None,597.5514679999906,None,597.5514679999906,None,597.5514679999906,None,55,597.5514679999906,None,597.5514679999906,None,0.015338079945649952,None,7.1328125,1.8395272999769077,604.728334399988,None,604.728334399988,None,604.728334399988,None,604.728334399988,None,None,None,606.5818768999889,None,0.049479166666666664,-0.2994791666666667,1,0,0,7.1378192999982275,tijiao,,224,f,23,2023_Mar_19_1524,RL,2021.2.3,59.95890417524056,
0,0.3,0.225,0,47,47,47,,,,,,,,,,,,,,,None,None,None,None,None,608.3042283999966,None,608.3042283999966,None,608.3042283999966,None,608.3042283999966,None,r,1.1760748000233434,608.3042283999966,None,608.3042283999966,None,609.5292077999911,None,609.5292077999911,None,609.5292077999911,None,609.5292077999911,None,609.5292077999911,None,609.5292077999911,None,609.8178353999974,611.1857067000237,609.8178353999974,611.1857067000237,611.2177049000165,None,611.2177049000165,None,611.2177049000165,None,611.2177049000165,None,611.2177049000165,None,611.2177049000165,None,611.2177049000165,None,611.2177049000165,None,611.2177049000165,None,67,53,32,34,67,46,613.7418894000002,None,5.0,1.9667338999570347,613.7418894000002,None,613.7418894000002,None,613.7418894000002,None,613.7418894000002,None,,None,None,None,None,None,None,None,None,None,None,None,None,None,None,,None,None,,,,,,,,None,None,-0.2,3,None,None,None,None,None,None,None,None,None,None,None,None,,None,None,None,None,None,None,None,None,None,None,None,None,None,None,None,None,None,None,615.7576462000143,None,,,,,,,,,224,f,23,2023_Mar_19_1524,RL,2021.2.3,59.95890417524056,
1,-0.3,-0.225,0,48,48,48,,,,,,,,,,,,,,,None,None,None,None,None,617.6108488999889,None,617.6108488999889,None,617.6108488999889,None,617.6108488999889,None,r,0.6595146000036038,617.6108488999889,None,617.6108488999889,None,618.3137866000179,None,618.3137866000179,None,618.3137866000179,None,618.3137866000179,None,618.3137866000179,None,618.3137866000179,None,618.6077142000431,None,618.6077142000431,None,619.7042743000202,None,619.7042743000202,None,619.7042743000202,None,619.7042743000202,None,619.7042743000202,None,619.7042743000202,None,619.7042743000202,None,619.7042743000202,None,619.7042743000202,None,77,41,18,35,77,46,None,None,None,None,None,None,None,None,None,None,None,None,65,622.2426549000083,None,622.2426549000083,None,622.2426549000083,None,622.2426549000083,None,622.2426549000083,None,622.2426549000083,None,622.2426549000083,None,65,622.2426549000083,None,0.0234375,-0.3294270833333333,1,0,0,4.496569300012197,tijiao,0.009078609989956021,None,-0.2,0,None,None,None,None,None,None,None,None,None,None,None,None,,None,None,None,None,None,None,8.421875,2.4982784999883734,626.7860061000101,None,626.7860061000101,None,626.7860061000101,None,626.7860061000101,None,None,None,629.2977753999876,None,,,,,,,,,224,f,23,2023_Mar_19_1524,RL,2021.2.3,59.95890417524056,
0,0.3,0.225,0,49,49,49,,,,,,,,,,,,,,,None,None,None,None,None,631.0041714000399,None,631.0041714000399,None,631.0041714000399,None,631.0041714000399,None,r,0.7161144000128843,631.0041714000399,None,631.0041714000399,None,631.7770753999939,None,631.7770753999939,None,631.7770753999939,None,631.7770753999939,None,631.7770753999939,None,631.7770753999939,None,632.0671666000271,633.6515860999934,632.0671666000271,633.6515860999934,633.6888410000247,None,633.6888410000247,None,633.6888410000247,None,633.6888410000247,None,633.6888410000247,None,633.6888410000247,None,633.6888410000247,None,633.6888410000247,None,633.6888410000247,None,73,42,22,38,73,36,None,None,None,None,None,None,None,None,None,None,None,None,66,636.2261327999877,None,636.2261327999877,None,636.2261327999877,None,636.2261327999877,None,636.2261327999877,None,636.2261327999877,None,636.2261327999877,None,66,636.2261327999877,None,0.02734375,-0.2864583333333333,1,0,0,4.955225499987137,tijiao,0.0014111400814726949,None,-0.2,0,None,None,None,None,None,None,None,None,None,None,None,None,,None,None,None,None,None,None,9.1640625,2.252660099999048,641.2282211999991,None,641.2282211999991,None,641.2282211999991,None,641.2282211999991,None,None,None,643.5066993000219,None,,,,,,,,,224,f,23,2023_Mar_19_1524,RL,2021.2.3,59.95890417524056,
1,-0.3,-0.225,0,50,50,50,,,,,,,,,,,,,,,None,None,None,None,None,645.2636740999878,None,645.2636740999878,None,645.2636740999878,None,645.2636740999878,None,r,0.43666380003560334,645.2636740999878,None,645.2636740999878,None,645.7536101000151,None,645.7536101000151,None,645.7536101000151,None,645.7536101000151,None,645.7536101000151,None,645.7536101000151,None,646.0432932000258,None,646.0432932000258,None,646.9111635000445,None,646.9111635000445,None,646.9111635000445,None,646.9111635000445,None,646.9111635000445,None,646.9111635000445,None,646.9111635000445,None,646.9111635000445,None,646.9111635000445,None,68,47,14,31,68,45,649.429569000029,None,6.0,2.05368680000538,649.429569000029,None,649.429569000029,None,649.429569000029,None,649.429569000029,None,,None,None,None,None,None,None,None,None,None,None,None,None,None,None,,None,None,,,,,,,,None,None,0.2,3,None,None,None,None,None,None,None,None,None,None,None,None,,None,None,None,None,None,None,None,None,None,None,None,None,None,None,None,None,None,None,651.5480856000213,None,,,,,,,,,224,f,23,2023_Mar_19_1524,RL,2021.2.3,59.95890417524056,
0,0.3,0.225,0,51,51,51,,,,,,,,,,,,,,,None,None,None,None,None,653.4855964999879,None,653.4855964999879,None,653.4855964999879,None,653.4855964999879,None,r,0.8250826000003144,653.4855964999879,None,653.4855964999879,None,654.3558135000058,None,654.3558135000058,None,654.3558135000058,None,654.3558135000058,None,654.3558135000058,None,654.3558135000058,None,654.6494434000342,655.8001622000011,654.6494434000342,655.8001622000011,655.8313524000114,None,655.8313524000114,None,655.8313524000114,None,655.8313524000114,None,655.8313524000114,None,655.8313524000114,None,655.8313524000114,None,655.8313524000114,None,655.8313524000114,None,61,34,17,33,61,65,658.3542624000111,None,7.0,2.2696631000144407,658.3542624000111,None,658.3542624000111,None,658.3542624000111,None,658.3542624000111,None,,None,None,None,None,None,None,None,None,None,None,None,None,None,None,,None,None,,,,,,,,None,None,-0.6,2,None,None,None,None,None,None,None,None,None,None,None,None,,None,None,None,None,None,None,None,None,None,None,None,None,None,None,None,None,None,None,660.681026700011,None,,,,,,,,,224,f,23,2023_Mar_19_1524,RL,2021.2.3,59.95890417524056,
1,-0.3,-0.225,0,52,52,52,,,,,,,,,,,,,,,None,None,None,None,None,662.540795500041,None,662.540795500041,None,662.540795500041,None,662.540795500041,None,r,0.8301715000416152,662.540795500041,None,662.540795500041,None,663.4169320000219,None,663.4169320000219,None,663.4169320000219,None,663.4169320000219,None,663.4169320000219,None,663.4169320000219,None,663.7058282000362,None,663.7058282000362,None,665.1060698000365,None,665.1060698000365,None,665.1060698000365,None,665.1060698000365,None,665.1060698000365,None,665.1060698000365,None,665.1060698000365,None,665.1060698000365,None,665.1060698000365,None,69,46,23,31,69,70,667.6225796000217,None,6.0,1.5555667000007816,667.6225796000217,None,667.6225796000217,None,667.6225796000217,None,667.6225796000217,None,,None,None,None,None,None,None,None,None,None,None,None,None,None,None,,None,None,,,,,,,,None,None,-0.2,3,None,None,None,None,None,None,None,None,None,None,None,None,,None,None,None,None,None,None,None,None,None,None,None,None,None,None,None,None,None,None,669.2311487999978,None,,,,,,,,,224,f,23,2023_Mar_19_1524,RL,2021.2.3,59.95890417524056,
0,0.3,0.225,0,53,53,53,,,,,,,,,,,,,,,None,None,None,None,None,671.1649394000415,None,671.1649394000415,None,671.1649394000415,None,671.1649394000415,None,r,0.7955889000440948,671.1649394000415,None,671.1649394000415,None,672.0025926000089,None,672.0025926000089,None,672.0025926000089,None,672.0025926000089,None,672.0025926000089,None,672.0025926000089,None,672.294923700043,673.3789280999918,672.294923700043,673.3789280999918,673.4136196000036,None,673.4136196000036,None,673.4136196000036,None,673.4136196000036,None,673.4136196000036,None,673.4136196000036,None,673.4136196000036,None,673.4136196000036,None,673.4136196000036,None,66,43,23,21,66,41,675.9342909000115,None,7.0,1.5657183000002988,675.9342909000115,None,675.9342909000115,None,675.9342909000115,None,675.9342909000115,None,,None,None,None,None,None,None,None,None,None,None,None,None,None,None,,None,None,,,,,,,,None,None,-0.6,3,None,None,None,None,None,None,None,None,None,None,None,None,,None,None,None,None,None,None,None,None,None,None,None,None,None,None,None,None,None,None,677.5521363000153,None,,,,,,,,,224,f,23,2023_Mar_19_1524,RL,2021.2.3,59.95890417524056,
1,-0.3,-0.225,0,54,54,54,,,,,,,,,,,,,,,None,None,None,None,None,679.2540505999932,None,679.2540505999932,None,679.2540505999932,None,679.2540505999932,None,r,0.5967299000476487,679.2540505999932,None,679.2540505999932,None,679.8901431999984,None,679.8901431999984,None,679.8901431999984,None,679.8901431999984,None,679.8901431999984,None,679.8901431999984,None,680.1838024000172,None,680.1838024000172,None,681.0817522000289,None,681.0817522000289,None,681.0817522000289,None,681.0817522000289,None,681.0817522000289,None,681.0817522000289,None,681.0817522000289,None,681.0817522000289,None,681.0817522000289,None,68,36,6,17,68,68,None,None,None,None,None,None,None,None,None,None,None,None,,None,None,None,None,None,None,None,None,None,None,None,None,None,None,,None,None,,,,,,,,None,None,-0.6,1,683.6229676000075,None,683.6229676000075,None,683.6229676000075,None,683.6229676000075,None,683.6229676000075,None,683.6229676000075,None,65,683.6229676000075,None,683.6229676000075,None,0.0043510099640116096,None,9.893229166666668,3.3277470999746583,689.8830492999987,None,689.8830492999987,None,689.8830492999987,None,689.8830492999987,None,None,None,693.2257038000389,None,0.014322916666666666,-0.2981770833333333,1,0,0,6.2263701999909244,tijiao,,224,f,23,2023_Mar_19_1524,RL,2021.2.3,59.95890417524056,
0,0.3,0.225,0,55,55,55,,,,,,,,,,,,,,,None,None,None,None,None,695.0477386999992,None,695.0477386999992,None,695.0477386999992,None,695.0477386999992,None,r,0.40311579999979585,695.0477386999992,None,695.0477386999992,None,695.5031866999925,None,695.5031866999925,None,695.5031866999925,None,695.5031866999925,None,695.5031866999925,None,695.5031866999925,None,695.7947392000351,697.0290330999997,695.7947392000351,697.0290330999997,697.0611502000247,None,697.0611502000247,None,697.0611502000247,None,697.0611502000247,None,697.0611502000247,None,697.0611502000247,None,697.0611502000247,None,697.0611502000247,None,697.0611502000247,None,78,42,4,20,78,57,None,None,None,None,None,None,None,None,None,None,None,None,,None,None,None,None,None,None,None,None,None,None,None,None,None,None,,None,None,,,,,,,,None,None,-0.6,1,699.6019039000385,None,699.6019039000385,None,699.6019039000385,None,699.6019039000385,None,699.6019039000385,None,699.6019039000385,None,70,699.6019039000385,None,699.6019039000385,None,0.003446510003414005,None,9.580729166666668,1.7317828999948688,703.6058942000382,None,703.6058942000382,None,703.6058942000382,None,703.6058942000382,None,None,None,705.3507545000175,None,-0.01171875,-0.2747395833333333,1,0,0,3.973318900039885,tijiao,,224,f,23,2023_Mar_19_1524,RL,2021.2.3,59.95890417524056,
1,-0.3,-0.225,0,56,56,56,,,,,,,,,,,,,,,None,None,None,None,None,706.9225650000153,None,706.9225650000153,None,706.9225650000153,None,706.9225650000153,None,r,0.6582340999739245,706.9225650000153,None,706.9225650000153,None,707.6324147999985,None,707.6324147999985,None,707.6324147999985,None,707.6324147999985,None,707.6324147999985,None,707.6324147999985,None,707.9197576000006,None,707.9197576000006,None,709.7051257000421,None,709.7051257000421,None,709.7051257000421,None,709.7051257000421,None,709.7051257000421,None,709.7051257000421,None,709.7051257000421,None,709.7051257000421,None,709.7051257000421,None,65,43,3,33,65,67,None,None,None,None,None,None,None,None,None,None,None,None,66,712.2383092000382,None,712.2383092000382,None,712.2383092000382,None,712.2383092000382,None,712.2383092000382,None,712.2383092000382,None,712.2383092000382,None,66,712.2383092000382,None,0.00390625,-0.2825520833333333,1,0,0,4.179717999999411,tijiao,0.009213009965606034,None,-0.6,0,None,None,None,None,None,None,None,None,None,None,None,None,,None,None,None,None,None,None,9.841145833333332,1.9851858000038192,716.4655907000415,None,716.4655907000415,None,716.4655907000415,None,716.4655907000415,None,None,None,718.4757056999952,None,,,,,,,,,224,f,23,2023_Mar_19_1524,RL,2021.2.3,59.95890417524056,
0,0.3,0.225,0,57,57,57,,,,,,,,,,,,,,,None,None,None,None,None,720.1156432999996,None,720.1156432999996,None,720.1156432999996,None,720.1156432999996,None,r,1.0152497999952175,720.1156432999996,None,720.1156432999996,None,721.1900657000369,None,721.1900657000369,None,721.1900657000369,None,721.1900657000369,None,721.1900657000369,None,721.1900657000369,None,721.4791650000261,722.9302523999941,721.4791650000261,722.9302523999941,722.9603756000288,None,722.9603756000288,None,722.9603756000288,None,722.9603756000288,None,722.9603756000288,None,722.9603756000288,None,722.9603756000288,None,722.9603756000288,None,722.9603756000288,None,70,48,12,36,70,24,None,None,None,None,None,None,None,None,None,None,None,None,60,725.4982930000406,None,725.4982930000406,None,725.4982930000406,None,725.4982930000406,None,725.4982930000406,None,725.4982930000406,None,725.4982930000406,None,60,725.4982930000406,None,0.05078125,-0.27734375,1,0,0,4.46154899999965,tijiao,0.007824509986676276,None,0.6,0,None,None,None,None,None,None,None,None,None,None,None,None,,None,None,None,None,None,None,10.205729166666668,2.0537077999906614,730.0068629000452,None,730.0068629000452,None,730.0068629000452,None,730.0068629000452,None,None,None,732.0848389000166,None,,,,,,,,,224,f,23,2023_Mar_19_1524,RL,2021.2.3,59.95890417524056,
1,-0.3,-0.225,0,58,58,58,,,,,,,,,,,,,,,None,None,None,None,None,734.0082995000412,None,734.0082995000412,None,734.0082995000412,None,734.0082995000412,None,f,0.5428575999685563,734.0082995000412,None,734.0082995000412,None,734.598632200039,None,734.598632200039,None,734.598632200039,None,734.598632200039,None,734.598632200039,None,734.598632200039,None,734.8884948000195,736.6897238999954,734.8884948000195,736.6897238999954,736.7234428999946,None,736.7234428999946,None,736.7234428999946,None,736.7234428999946,None,736.7234428999946,None,736.7234428999946,None,736.7234428999946,None,736.7234428999946,None,736.7234428999946,None,79,45,14,31,45,60,None,None,None,None,None,None,None,None,None,None,None,None,35,739.2502357999911,None,739.2502357999911,None,739.2502357999911,None,739.2502357999911,None,739.2502357999911,None,739.2502357999911,None,739.2502357999911,None,35,739.2502357999911,None,0.057291666666666664,-0.3255208333333333,1,0,0,3.835742100025527,tijiao,0.01574720995267853,None,-0.2,0,None,None,None,None,None,None,None,None,None,None,None,None,,None,None,None,None,None,None,9.255208333333332,1.9679801000165753,743.1309869000106,None,743.1309869000106,None,743.1309869000106,None,743.1309869000106,None,None,None,745.1116354000405,None,,,,,,,,,224,f,23,2023_Mar_19_1524,RL,2021.2.3,59.95890417524056,
0,0.3,0.225,0,59,59,59,,,,,,,,,,,,,,,None,None,None,None,None,746.9843034000369,None,746.9843034000369,None,746.9843034000369,None,746.9843034000369,None,j,0.7868722999701276,746.9843034000369,None,746.9843034000369,None,747.8237451000023,None,747.8237451000023,None,747.8237451000023,None,747.8237451000023,None,747.8237451000023,None,747.8237451000023,None,748.1142889999901,749.1482930000057,748.1142889999901,749.1482930000057,749.1803279999876,None,749.1803279999876,None,749.1803279999876,None,749.1803279999876,None,749.1803279999876,None,749.1803279999876,None,749.1803279999876,None,749.1803279999876,None,749.1803279999876,None,72,47,21,26,26,70,751.6981582000153,None,1.0,2.7385207999614067,751.6981582000153,None,751.6981582000153,None,751.6981582000153,None,751.6981582000153,None,,None,None,None,None,None,None,None,None,None,None,None,None,None,None,,None,None,,,,,,,,None,None,0.2,2,None,None,None,None,None,None,None,None,None,None,None,None,,None,None,None,None,None,None,None,None,None,None,None,None,None,None,None,None,None,None,754.4898951000068,None,,,,,,,,,224,f,23,2023_Mar_19_1524,RL,2021.2.3,59.95890417524056,
1,-0.3,-0.225,0,60,60,60,,,,,,,,,,,,,,,None,None,None,None,None,756.3082097000442,None,756.3082097000442,None,756.3082097000442,None,756.3082097000442,None,r,0.3741380000137724,756.3082097000442,None,756.3082097000442,None,756.7256678999984,None,756.7256678999984,None,756.7256678999984,None,756.7256678999984,None,756.7256678999984,None,756.7256678999984,None,757.0205566000077,None,757.0205566000077,None,758.8068820000044,None,758.8068820000044,None,758.8068820000044,None,758.8068820000044,None,758.8068820000044,None,758.8068820000044,None,758.8068820000044,None,758.8068820000044,None,758.8068820000044,None,69,48,17,40,69,44,761.3275238000206,None,6.0,1.9830387000110932,761.3275238000206,None,761.3275238000206,None,761.3275238000206,None,761.3275238000206,None,,None,None,None,None,None,None,None,None,None,None,None,None,None,None,,None,None,,,,,,,,None,None,0.2,3,None,None,None,None,None,None,None,None,None,None,None,None,,None,None,None,None,None,None,None,None,None,None,None,None,None,None,None,None,None,None,763.361595400027,None,,,,,,,,,224,f,23,2023_Mar_19_1524,RL,2021.2.3,59.95890417524056,
0,0.3,0.225,0,61,61,61,,,,,,,,,,,,,,,None,None,None,None,None,764.9131118000369,None,764.9131118000369,None,764.9131118000369,None,764.9131118000369,None,r,0.6891895000007935,764.9131118000369,None,764.9131118000369,None,765.6546092000208,None,765.6546092000208,None,765.6546092000208,None,765.6546092000208,None,765.6546092000208,None,765.6546092000208,None,765.9434189000167,767.7445912000258,765.9434189000167,767.7445912000258,767.7759202000452,None,767.7759202000452,None,767.7759202000452,None,767.7759202000452,None,767.7759202000452,None,767.7759202000452,None,767.7759202000452,None,767.7759202000452,None,767.7759202000452,None,72,55,17,49,72,68,None,None,None,None,None,None,None,None,None,None,None,None,70,770.3123828000389,None,770.3123828000389,None,770.3123828000389,None,770.3123828000389,None,770.3123828000389,None,770.3123828000389,None,770.3123828000389,None,70,770.3123828000389,None,-0.03125,-0.2890625,1,0,0,3.8456447000498883,tijiao,0.00920180999673903,None,-0.6,0,None,None,None,None,None,None,None,None,None,None,None,None,,None,None,None,None,None,None,10.244791666666668,2.033198799996171,774.2017124000122,None,774.2017124000122,None,774.2017124000122,None,774.2017124000122,None,None,None,776.249716499995,None,,,,,,,,,224,f,23,2023_Mar_19_1524,RL,2021.2.3,59.95890417524056,
1,-0.3,-0.225,0,62,62,62,,,,,,,,,,,,,,,None,None,None,None,None,778.1048878000001,None,778.1048878000001,None,778.1048878000001,None,778.1048878000001,None,r,0.3673230999847874,778.1048878000001,None,778.1048878000001,None,778.5290663000196,None,778.5290663000196,None,778.5290663000196,None,778.5290663000196,None,778.5290663000196,None,778.5290663000196,None,778.8188063999987,780.0531587000005,778.8188063999987,780.0531587000005,780.0835431999876,None,780.0835431999876,None,780.0835431999876,None,780.0835431999876,None,780.0835431999876,None,780.0835431999876,None,780.0835431999876,None,780.0835431999876,None,780.0835431999876,None,62,54,28,39,62,66,None,None,None,None,None,None,None,None,None,None,None,None,60,782.6181786000379,None,782.6181786000379,None,782.6181786000379,None,782.6181786000379,None,782.6181786000379,None,782.6181786000379,None,782.6181786000379,None,60,782.6181786000379,None,0.044270833333333336,-0.2630208333333333,1,0,0,3.798947900009807,tijiao,0.011394709988962859,None,0.6,0,None,None,None,None,None,None,None,None,None,None,None,None,,None,None,None,None,None,None,10.127604166666668,1.9162063999683596,786.4604831000324,None,786.4604831000324,None,786.4604831000324,None,786.4604831000324,None,None,None,788.3915344999987,None,,,,,,,,,224,f,23,2023_Mar_19_1524,RL,2021.2.3,59.95890417524056,
0,0.3,0.225,0,63,63,63,,,,,,,,,,,,,,,None,None,None,None,None,790.0474735000171,None,790.0474735000171,None,790.0474735000171,None,790.0474735000171,None,r,0.7952240000013262,790.0474735000171,None,790.0474735000171,None,790.8920297000441,None,790.8920297000441,None,790.8920297000441,None,790.8920297000441,None,790.8920297000441,None,790.8920297000441,None,791.177619700029,792.6786637000041,791.177619700029,792.6786637000041,792.7093562000082,None,792.7093562000082,None,792.7093562000082,None,792.7093562000082,None,792.7093562000082,None,792.7093562000082,None,792.7093562000082,None,792.7093562000082,None,792.7093562000082,None,64,51,33,46,64,45,None,None,None,None,None,None,None,None,None,None,None,None,,None,None,None,None,None,None,None,None,None,None,None,None,None,None,,None,None,,,,,,,,None,None,0.2,1,795.2535124000278,None,795.2535124000278,None,795.2535124000278,None,795.2535124000278,None,795.2535124000278,None,795.2535124000278,None,45,795.2535124000278,None,795.2535124000278,None,0.0009856100077740848,None,9.932291666666668,2.0620962000102736,801.0330358000356,None,801.0330358000356,None,801.0330358000356,None,801.0330358000356,None,None,None,803.1186679000384,None,0.046875,-0.2838541666666667,1,0,0,5.7548996999976225,tijiao,,224,f,23,2023_Mar_19_1524,RL,2021.2.3,59.95890417524056,
1,-0.3,-0.225,0,64,64,64,,,,,,,,,,,,,,,None,None,None,None,None,804.6910193000222,None,804.6910193000222,None,804.6910193000222,None,804.6910193000222,None,i,0.42138580000028014,804.6910193000222,None,804.6910193000222,None,805.1673200000077,None,805.1673200000077,None,805.1673200000077,None,805.1673200000077,None,805.1673200000077,None,805.1673200000077,None,805.4538502999931,807.3219216000289,805.4538502999931,807.3219216000289,807.3532991000102,None,807.3532991000102,None,807.3532991000102,None,807.3532991000102,None,807.3532991000102,None,807.3532991000102,None,807.3532991000102,None,807.3532991000102,None,807.3532991000102,None,66,44,29,51,29,76,809.8773536999943,None,2.0,2.035458300029859,809.8773536999943,None,809.8773536999943,None,809.8773536999943,None,809.8773536999943,None,,None,None,None,None,None,None,None,None,None,None,None,None,None,None,,None,None,,,,,,,,None,None,-0.2,2,None,None,None,None,None,None,None,None,None,None,None,None,,None,None,None,None,None,None,None,None,None,None,None,None,None,None,None,None,None,None,811.975244100031,None,,,,,,,,,224,f,23,2023_Mar_19_1524,RL,2021.2.3,59.95890417524056,
0,0.3,0.225,0,65,65,65,,,,,,,,,,,,,,,None,None,None,None,None,813.7461081999936,None,813.7461081999936,None,813.7461081999936,None,813.7461081999936,None,r,0.43636350001906976,813.7461081999936,None,813.7461081999936,None,814.2317119000363,None,814.2317119000363,None,814.2317119000363,None,814.2317119000363,None,814.2317119000363,None,814.2317119000363,None,814.5260662999935,None,814.5260662999935,None,815.5232458999963,None,815.5232458999963,None,815.5232458999963,None,815.5232458999963,None,815.5232458999963,None,815.5232458999963,None,815.5232458999963,None,815.5232458999963,None,815.5232458999963,None,61,45,25,43,61,72,818.0437092999928,None,5.0,2.0560532999807037,818.0437092999928,None,818.0437092999928,None,818.0437092999928,None,818.0437092999928,None,,None,None,None,None,None,None,None,None,None,None,None,None,None,None,,None,None,,,,,,,,None,None,0.6,2,None,None,None,None,None,None,None,None,None,None,None,None,,None,None,None,None,None,None,None,None,None,None,None,None,None,None,None,None,None,None,820.1637136000209,None,,,,,,,,,224,f,23,2023_Mar_19_1524,RL,2021.2.3,59.95890417524056,
1,-0.3,-0.225,0,66,66,66,,,,,,,,,,,,,,,None,None,None,None,None,821.9532642000122,None,821.9532642000122,None,821.9532642000122,None,821.9532642000122,None,r,0.33927270001731813,821.9532642000122,None,821.9532642000122,None,822.3406872000196,None,822.3406872000196,None,822.3406872000196,None,822.3406872000196,None,822.3406872000196,None,822.3406872000196,None,822.6328393000294,None,822.6328393000294,None,824.3963937000372,None,824.3963937000372,None,824.3963937000372,None,824.3963937000372,None,824.3963937000372,None,824.3963937000372,None,824.3963937000372,None,824.3963937000372,None,824.3963937000372,None,63,52,23,41,63,48,None,None,None,None,None,None,None,None,None,None,None,None,70,826.9309269000078,None,826.9309269000078,None,826.9309269000078,None,826.9309269000078,None,826.9309269000078,None,826.9309269000078,None,826.9309269000078,None,70,826.9309269000078,None,0.0078125,-0.2955729166666667,1,0,0,3.5508615000289865,tijiao,0.014430009992793202,None,0.2,0,None,None,None,None,None,None,None,None,None,None,None,None,,None,None,None,None,None,None,10.010416666666668,1.8620363000081852,830.5348352000001,None,830.5348352000001,None,830.5348352000001,None,830.5348352000001,None,None,None,832.4214059000369,None,,,,,,,,,224,f,23,2023_Mar_19_1524,RL,2021.2.3,59.95890417524056,
0,0.3,0.225,0,67,67,67,,,,,,,,,,,,,,,None,None,None,None,None,834.3283777000033,None,834.3283777000033,None,834.3283777000033,None,834.3283777000033,None,r,0.4842637000256218,834.3283777000033,None,834.3283777000033,None,834.8730953999911,None,834.8730953999911,None,834.8730953999911,None,834.8730953999911,None,834.8730953999911,None,834.8730953999911,None,835.1748933999916,None,835.1748933999916,None,836.1727780000074,None,836.1727780000074,None,836.1727780000074,None,836.1727780000074,None,836.1727780000074,None,836.1727780000074,None,836.1727780000074,None,836.1727780000074,None,836.1727780000074,None,69,49,25,45,69,79,838.6980736000114,None,6.0,2.152598599961493,838.6980736000114,None,838.6980736000114,None,838.6980736000114,None,838.6980736000114,None,,None,None,None,None,None,None,None,None,None,None,None,None,None,None,,None,None,,,,,,,,None,None,0.6,2,None,None,None,None,None,None,None,None,None,None,None,None,,None,None,None,None,None,None,None,None,None,None,None,None,None,None,None,None,None,None,840.9022881000419,None,,,,,,,,,224,f,23,2023_Mar_19_1524,RL,2021.2.3,59.95890417524056,
1,-0.3,-0.225,0,68,68,68,,,,,,,,,,,,,,,None,None,None,None,None,842.633951900003,None,842.633951900003,None,842.633951900003,None,842.633951900003,None,r,0.5787491000373848,842.633951900003,None,842.633951900003,None,843.253317900002,None,843.253317900002,None,843.253317900002,None,843.253317900002,None,843.253317900002,None,843.253317900002,None,843.5470760000171,None,843.5470760000171,None,845.3681186999893,None,845.3681186999893,None,845.3681186999893,None,845.3681186999893,None,845.3681186999893,None,845.3681186999893,None,845.3681186999893,None,845.3681186999893,None,845.3681186999893,None,68,50,41,47,68,66,847.8805295000202,None,6.0,1.7877146999817342,847.8805295000202,None,847.8805295000202,None,847.8805295000202,None,847.8805295000202,None,,None,None,None,None,None,None,None,None,None,None,None,None,None,None,,None,None,,,,,,,,None,None,0.2,2,None,None,None,None,None,None,None,None,None,None,None,None,,None,None,None,None,None,None,None,None,None,None,None,None,None,None,None,None,None,None,849.7209960999899,None,,,,,,,,,224,f,23,2023_Mar_19_1524,RL,2021.2.3,59.95890417524056,
0,0.3,0.225,0,69,69,69,,,,,,,,,,,,,,,None,None,None,None,None,851.4732630000217,None,851.4732630000217,None,851.4732630000217,None,851.4732630000217,None,r,0.8696132999612018,851.4732630000217,None,851.4732630000217,None,852.391088000033,None,852.391088000033,None,852.391088000033,None,852.391088000033,None,852.391088000033,None,852.391088000033,None,852.6870114000048,None,852.6870114000048,None,853.5869861000101,None,853.5869861000101,None,853.5869861000101,None,853.5869861000101,None,853.5869861000101,None,853.5869861000101,None,853.5869861000101,None,853.5869861000101,None,853.5869861000101,None,73,47,23,42,73,53,None,None,None,None,None,None,None,None,None,None,None,None,,None,None,None,None,None,None,None,None,None,None,None,None,None,None,,None,None,,,,,,,,None,None,0.2,1,856.1251208999893,None,856.1251208999893,None,856.1251208999893,None,856.1251208999893,None,856.1251208999893,None,856.1251208999893,None,30,856.1251208999893,None,856.1251208999893,None,0.005478109989780933,None,9.75,1.8921591999824159,860.9391025000368,None,860.9391025000368,None,860.9391025000368,None,860.9391025000368,None,None,None,862.8440201000194,None,0.0625,-0.2877604166666667,1,0,0,4.776078999973834,tijiao,,224,f,23,2023_Mar_19_1524,RL,2021.2.3,59.95890417524056,
1,-0.3,-0.225,0,70,70,70,,,,,,,,,,,,,,,None,None,None,None,None,864.4820551000303,None,864.4820551000303,None,864.4820551000303,None,864.4820551000303,None,r,1.1408052999759093,864.4820551000303,None,864.4820551000303,None,865.6735389000387,None,865.6735389000387,None,865.6735389000387,None,865.6735389000387,None,865.6735389000387,None,865.6735389000387,None,865.9630018000025,867.8140333000338,865.9630018000025,867.8140333000338,867.8501227000379,None,867.8501227000379,None,867.8501227000379,None,867.8501227000379,None,867.8501227000379,None,867.8501227000379,None,867.8501227000379,None,867.8501227000379,None,867.8501227000379,None,69,56,26,44,69,63,None,None,None,None,None,None,None,None,None,None,None,None,70,870.3823114000261,None,870.3823114000261,None,870.3823114000261,None,870.3823114000261,None,870.3823114000261,None,870.3823114000261,None,870.3823114000261,None,70,870.3823114000261,None,0.0625,-0.296875,1,0,0,3.9792697000084445,tijiao,0.009292309987358749,None,-0.6,0,None,None,None,None,None,None,None,None,None,None,None,None,,None,None,None,None,None,None,9.997395833333332,1.684127599990461,874.4094068999984,None,874.4094068999984,None,874.4094068999984,None,874.4094068999984,None,None,None,876.1240668999963,None,,,,,,,,,224,f,23,2023_Mar_19_1524,RL,2021.2.3,59.95890417524056,
0,0.3,0.225,0,71,71,71,,,,,,,,,,,,,,,None,None,None,None,None,878.0251945999917,None,878.0251945999917,None,878.0251945999917,None,878.0251945999917,None,r,0.42783320002490655,878.0251945999917,None,878.0251945999917,None,878.4991374000092,None,878.4991374000092,None,878.4991374000092,None,878.4991374000092,None,878.4991374000092,None,878.4991374000092,None,878.7882508999901,None,878.7882508999901,None,880.5712179000257,None,880.5712179000257,None,880.5712179000257,None,880.5712179000257,None,880.5712179000257,None,880.5712179000257,None,880.5712179000257,None,880.5712179000257,None,880.5712179000257,None,69,54,19,36,69,13,None,None,None,None,None,None,None,None,None,None,None,None,,None,None,None,None,None,None,None,None,None,None,None,None,None,None,,None,None,,,,,,,,None,None,-0.2,1,883.1132119999966,None,883.1132119999966,None,883.1132119999966,None,883.1132119999966,None,883.1132119999966,None,883.1132119999966,None,55,883.1132119999966,None,883.1132119999966,None,0.0022060099872760475,None,10.088541666666668,1.79236259998288,887.7020143000409,None,887.7020143000409,None,887.7020143000409,None,887.7020143000409,None,None,None,889.5277701999876,None,0.08984375,-0.2955729166666667,1,0,0,4.556179300008807,tijiao,,224,f,23,2023_Mar_19_1524,RL,2021.2.3,59.95890417524056,
1,-0.3,-0.225,0,72,72,72,,,,,,,,,,,,,,,None,None,None,None,None,891.216648600006,None,891.216648600006,None,891.216648600006,None,891.216648600006,None,r,0.5063757000025362,891.216648600006,None,891.216648600006,None,891.7758545000106,None,891.7758545000106,None,891.7758545000106,None,891.7758545000106,None,891.7758545000106,None,891.7758545000106,None,892.0642326000379,893.3650947000133,892.0642326000379,893.3650947000133,893.3951771000284,None,893.3951771000284,None,893.3951771000284,None,893.3951771000284,None,893.3951771000284,None,893.3951771000284,None,893.3951771000284,None,893.3951771000284,None,893.3951771000284,None,69,50,15,45,69,62,None,None,None,None,None,None,None,None,None,None,None,None,,None,None,None,None,None,None,None,None,None,None,None,None,None,None,,None,None,,,,,,,,None,None,0.6,1,895.9468569000019,None,895.9468569000019,None,895.9468569000019,None,895.9468569000019,None,895.9468569000019,None,895.9468569000019,None,29,895.9468569000019,None,895.9468569000019,None,0.010407280002254993,None,8.747395833333332,2.048079600033816,899.6428386000334,None,899.6428386000334,None,899.6428386000334,None,899.6428386000334,None,None,None,901.7036634000251,None,0.07552083333333333,-0.2604166666666667,1,0,0,3.6636347000021487,tijiao,,224,f,23,2023_Mar_19_1524,RL,2021.2.3,59.95890417524056,
0,0.3,0.225,0,73,73,73,,,,,,,,,,,,,,,None,None,None,None,None,903.3260084000067,None,903.3260084000067,None,903.3260084000067,None,903.3260084000067,None,r,0.36744840000756085,903.3260084000067,None,903.3260084000067,None,903.7507930000429,None,903.7507930000429,None,903.7507930000429,None,903.7507930000429,None,903.7507930000429,None,903.7507930000429,None,904.0393577000359,905.9570592000382,904.0393577000359,905.9570592000382,905.989157700038,None,905.989157700038,None,905.989157700038,None,905.989157700038,None,905.989157700038,None,905.989157700038,None,905.989157700038,None,905.989157700038,None,905.989157700038,None,66,49,24,43,66,61,908.5078569999896,None,7.0,2.5868185999570414,908.5078569999896,None,908.5078569999896,None,908.5078569999896,None,908.5078569999896,None,,None,None,None,None,None,None,None,None,None,None,None,None,None,None,,None,None,,,,,,,,None,None,-0.6,2,None,None,None,None,None,None,None,None,None,None,None,None,,None,None,None,None,None,None,None,None,None,None,None,None,None,None,None,None,None,None,911.1474344000453,None,,,,,,,,,224,f,23,2023_Mar_19_1524,RL,2021.2.3,59.95890417524056,
1,-0.3,-0.225,0,74,74,74,,,,,,,,,,,,,,,None,None,None,None,None,912.9322904000292,None,912.9322904000292,None,912.9322904000292,None,912.9322904000292,None,r,0.6718970999936573,912.9322904000292,None,912.9322904000292,None,913.6520160000073,None,913.6520160000073,None,913.6520160000073,None,913.6520160000073,None,913.6520160000073,None,913.6520160000073,None,913.9459400000051,None,913.9459400000051,None,915.7005415000021,None,915.7005415000021,None,915.7005415000021,None,915.7005415000021,None,915.7005415000021,None,915.7005415000021,None,915.7005415000021,None,915.7005415000021,None,915.7005415000021,None,65,50,20,39,65,61,918.227990799991,None,6.0,2.1911721999640577,918.227990799991,None,918.227990799991,None,918.227990799991,None,918.227990799991,None,,None,None,None,None,None,None,None,None,None,None,None,None,None,None,,None,None,,,,,,,,None,None,0.6,3,None,None,None,None,None,None,None,None,None,None,None,None,,None,None,None,None,None,None,None,None,None,None,None,None,None,None,None,None,None,None,920.4834599000169,None,,,,,,,,,224,f,23,2023_Mar_19_1524,RL,2021.2.3,59.95890417524056,
0,0.3,0.225,0,75,75,75,,,,,,,,,,,,,,,922.2351048000273,None,q,922.2351048000273,None,947.3883967000293,None,947.3883967000293,None,947.3883967000293,None,947.3883967000293,None,r,0.4465469000278972,947.3883967000293,None,947.3883967000293,None,947.8809411000111,None,947.8809411000111,None,947.8809411000111,None,947.8809411000111,None,947.8809411000111,None,947.8809411000111,None,948.1698078000336,949.9209516000119,948.1698078000336,949.9209516000119,949.9522366999881,None,949.9522366999881,None,949.9522366999881,None,949.9522366999881,None,949.9522366999881,None,949.9522366999881,None,949.9522366999881,None,949.9522366999881,None,949.9522366999881,None,66,49,22,42,66,54,None,None,None,None,None,None,None,None,None,None,None,None,,None,None,None,None,None,None,None,None,None,None,None,None,None,None,,None,None,,,,,,,,None,None,-0.6,1,952.5033132000244,None,952.5033132000244,None,952.5033132000244,None,952.5033132000244,None,952.5033132000244,None,952.5033132000244,None,69,952.5033132000244,None,952.5033132000244,None,0.010310180019587278,None,9.841145833333332,2.204920799995307,956.5660547000007,None,956.5660547000007,None,956.5660547000007,None,956.5660547000007,None,None,None,958.8091537000146,None,0.06770833333333333,-0.28125,1,0,0,4.030864300031681,tijiao,25.079341000004206,224,f,23,2023_Mar_19_1524,RL,2021.2.3,59.95890417524056,
1,-0.3,-0.225,0,76,76,76,,,,,,,,,,,,,,,None,None,None,None,None,960.7322711999877,None,960.7322711999877,None,960.7322711999877,None,960.7322711999877,None,r,0.43217509996611625,960.7322711999877,None,960.7322711999877,None,961.2196802000399,None,961.2196802000399,None,961.2196802000399,None,961.2196802000399,None,961.2196802000399,None,961.2196802000399,None,961.5123829999939,963.163489700004,961.5123829999939,963.163489700004,963.2002741000033,None,963.2002741000033,None,963.2002741000033,None,963.2002741000033,None,963.2002741000033,None,963.2002741000033,None,963.2002741000033,None,963.2002741000033,None,963.2002741000033,None,66,53,26,39,66,54,965.7204666000325,None,7.0,2.717379500041716,965.7204666000325,None,965.7204666000325,None,965.7204666000325,None,965.7204666000325,None,,None,None,None,None,None,None,None,None,None,None,None,None,None,None,,None,None,,,,,,,,None,None,0.6,2,None,None,None,None,None,None,None,None,None,None,None,None,,None,None,None,None,None,None,None,None,None,None,None,None,None,None,None,None,None,None,968.5009980000323,None,,,,,,,,,224,f,23,2023_Mar_19_1524,RL,2021.2.3,59.95890417524056,
0,0.3,0.225,0,77,77,77,,,,,,,,,,,,,,,None,None,None,None,None,970.1725893000257,None,970.1725893000257,None,970.1725893000257,None,970.1725893000257,None,r,0.7119163000024855,970.1725893000257,None,970.1725893000257,None,970.930768500024,None,970.930768500024,None,970.930768500024,None,970.930768500024,None,970.930768500024,None,970.930768500024,None,971.2191070000408,None,971.2191070000408,None,972.4689197000116,None,972.4689197000116,None,972.4689197000116,None,972.4689197000116,None,972.4689197000116,None,972.4689197000116,None,972.4689197000116,None,972.4689197000116,None,972.4689197000116,None,69,60,21,37,69,60,974.9945529000252,None,7.0,1.933293899986893,974.9945529000252,None,974.9945529000252,None,974.9945529000252,None,974.9945529000252,None,,None,None,None,None,None,None,None,None,None,None,None,None,None,None,,None,None,,,,,,,,None,None,0.6,3,None,None,None,None,None,None,None,None,None,None,None,None,,None,None,None,None,None,None,None,None,None,None,None,None,None,None,None,None,None,None,976.9742703000084,None,,,,,,,,,224,f,23,2023_Mar_19_1524,RL,2021.2.3,59.95890417524056,
