bandit0,black_x_pos_random,black_y_pos_random,trials.thisRepN,trials.thisTrialN,trials.thisN,trials.thisIndex,instru_img1.started,instru_img1.stopped,instru_resp.keys,instru_resp.rt,instru_resp.started,instru_resp.stopped,instru_img2.started,instru_img2.stopped,instru_resp2.keys,instru_resp2.rt,instru_resp2.started,instru_resp2.stopped,fixbefore_2.started,fixbefore_2.stopped,rest_image.started,rest_image.stopped,rest_response.keys,rest_response.started,rest_response.stopped,red.started,red.stopped,green.started,green.stopped,yellow.started,yellow.stopped,blue.started,blue.stopped,choose_bandit.keys,choose_bandit.rt,choose_bandit.started,choose_bandit.stopped,Fixation.started,Fixation.stopped,black.started,black.stopped,red_2.started,red_2.stopped,green_2.started,green_2.stopped,yellow_2.started,yellow_2.stopped,blue_2.started,blue_2.stopped,fixation_2.started,fixation_2.stopped,docs.started,docs.stopped,wait_playerB.started,wait_playerB.stopped,black_com.started,black_com.stopped,reward_sub.started,reward_sub.stopped,palyerb.started,palyerb.stopped,reward__sub.started,reward__sub.stopped,compare.started,compare.stopped,red_compare.started,red_compare.stopped,green_com.started,green_com.stopped,yellow_com.started,yellow_com.stopped,blue_com.started,blue_com.stopped,rewardyellow,rewardred,rewardblue,rewardgreen,subchoose,playerb,image_3.started,image_3.stopped,slider.response,slider.rt,slider.started,slider.stopped,text.started,text.stopped,image_4.started,image_4.stopped,image_5.started,image_5.stopped,value_expect_self,expect_self_black.started,expect_self_black.stopped,expect_self.started,expect_self.stopped,expect_self_red.started,expect_self_red.stopped,expect_self_green.started,expect_self_green.stopped,expect_self_yellow.started,expect_self_yellow.stopped,expect_self_blue.started,expect_self_blue.stopped,tijiao.started,tijiao.stopped,expectself.text,expectself.started,expectself.stopped,tijiao_click.x,tijiao_click.y,tijiao_click.leftButton,tijiao_click.midButton,tijiao_click.rightButton,tijiao_click.time,tijiao_click.clicked_name,tijiao_click.started,tijiao_click.stopped,random_whicharm,whether_ask,jiantou_random.started,jiantou_random.stopped,expect_red.started,expect_red.stopped,expect_green.started,expect_green.stopped,expect_yellow.started,expect_yellow.stopped,expect_blue.started,expect_blue.stopped,expect_random_2.started,expect_random_2.stopped,expect_random_3.text,expect_random_3.started,expect_random_3.stopped,tijiao_random_2.started,tijiao_random_2.stopped,tijiao_random.started,tijiao_random.stopped,slider_2.response,slider_2.rt,slider_2.started,slider_2.stopped,image_7.started,image_7.stopped,confi.started,confi.stopped,notconfi.started,notconfi.stopped,bigx.started,bigx.stopped,intertrialfix.started,intertrialfix.stopped,tijiao_random.x,tijiao_random.y,tijiao_random.leftButton,tijiao_random.midButton,tijiao_random.rightButton,tijiao_random.time,tijiao_random.clicked_name,rest_response.rt,participant,Gender,Age,date,expName,psychopyVersion,frameRate,
,,,,,,,52.044154600000184,None,space,6.583903800004919,52.044154600000184,None,,,,,,,,,,,,,,,,,,,,,,,,,,,,,,,,,,,,,,,,,,,,,,,,,,,,,,,,,,,,,,,,,,,,,,,,,,,,,,,,,,,,,,,,,,,,,,,,,,,,,,,,,,,,,,,,,,,,,,,,,,,,,,,,,,,,,,,,,,,,,,,,,,,,,,225,F,19,2023_Mar_19_1632,RL,2021.2.3,60.10991699582852,
,,,,,,,,,,,,,58.66230540000106,None,s,18.212189099998795,58.66230540000106,None,,,,,,,,,,,,,,,,,,,,,,,,,,,,,,,,,,,,,,,,,,,,,,,,,,,,,,,,,,,,,,,,,,,,,,,,,,,,,,,,,,,,,,,,,,,,,,,,,,,,,,,,,,,,,,,,,,,,,,,,,,,,,,,,,,,,,,,,,,,,,,,,225,F,19,2023_Mar_19_1632,RL,2021.2.3,60.10991699582852,
1,-0.3,-0.225,0,0,0,0,,,,,,,,,,,,,76.90553640000144,None,None,None,None,None,None,77.96764599999733,None,77.96764599999733,None,77.96764599999733,None,77.96764599999733,None,j,0.6099230999971041,77.96764599999733,None,77.96764599999733,None,78.714221299997,None,78.714221299997,None,78.714221299997,None,78.714221299997,None,78.714221299997,None,78.714221299997,None,78.99530580000282,80.1251093000028,78.99530580000282,80.1251093000028,80.20839379999961,None,80.20839379999961,None,80.20839379999961,None,80.20839379999961,None,80.20839379999961,None,80.20839379999961,None,80.20839379999961,None,80.20839379999961,None,80.20839379999961,None,34,73,49,50,50,62,None,None,None,None,None,None,None,None,None,None,None,None,50,82.93115760000364,None,82.93115760000364,None,82.93115760000364,None,82.93115760000364,None,82.93115760000364,None,82.93115760000364,None,82.93115760000364,None,50,82.93115760000364,None,-0.14629629629629629,-0.28703703703703703,1,0,0,11.666346999998495,tijiao,0.015070879999257158,None,-0.2,0,None,None,None,None,None,None,None,None,None,None,None,None,,None,None,None,None,None,None,8.87037037037037,3.3597713999988628,94.93892939999932,None,94.93892939999932,None,94.93892939999932,None,94.93892939999932,None,None,None,98.40572119999706,None,,,,,,,,,225,F,19,2023_Mar_19_1632,RL,2021.2.3,60.10991699582852,
0,0.3,0.225,0,1,1,1,,,,,,,,,,,,,,,None,None,None,None,None,100.14391949999845,None,100.14391949999845,None,100.14391949999845,None,100.14391949999845,None,i,0.6071762999999919,100.14391949999845,None,100.14391949999845,None,100.78605830000015,None,100.78605830000015,None,100.78605830000015,None,100.78605830000015,None,100.78605830000015,None,100.78605830000015,None,101.0680502000032,102.14822460000141,101.0680502000032,102.14822460000141,102.17456949999905,None,102.17456949999905,None,102.17456949999905,None,102.17456949999905,None,102.17456949999905,None,102.17456949999905,None,102.17456949999905,None,102.17456949999905,None,102.17456949999905,None,36,70,43,49,43,26,None,None,None,None,None,None,None,None,None,None,None,None,,104.6890349000023,None,104.6890349000023,None,104.6890349000023,None,104.6890349000023,None,104.6890349000023,None,104.6890349000023,None,104.6890349000023,None,,104.6890349000023,None,0.09814814814814815,-0.2935185185185185,1,0,0,0.5256091999981436,tijiao,0.009870940004475415,None,0.2,0,None,None,None,None,None,None,None,None,None,None,None,None,,None,None,None,None,None,None,9.86111111111111,2.4693776999993133,105.24938359999942,None,105.24938359999942,None,105.24938359999942,None,105.24938359999942,None,None,None,107.73227059999772,None,,,,,,,,,225,F,19,2023_Mar_19_1632,RL,2021.2.3,60.10991699582852,
1,-0.3,-0.225,0,2,2,2,,,,,,,,,,,,,,,None,None,None,None,None,109.26229949999833,None,109.26229949999833,None,109.26229949999833,None,109.26229949999833,None,f,0.38396949999878416,109.26229949999833,None,109.26229949999833,None,109.67929770000046,None,109.67929770000046,None,109.67929770000046,None,109.67929770000046,None,109.67929770000046,None,109.67929770000046,None,109.96070060000056,111.12390880000021,109.96070060000056,111.12390880000021,111.16285909999715,None,111.16285909999715,None,111.16285909999715,None,111.16285909999715,None,111.16285909999715,None,111.16285909999715,None,111.16285909999715,None,111.16285909999715,None,111.16285909999715,None,31,77,40,43,77,55,None,None,None,None,None,None,None,None,None,None,None,None,60,113.68478969999705,None,113.68478969999705,None,113.68478969999705,None,113.68478969999705,None,113.68478969999705,None,113.68478969999705,None,113.68478969999705,None,60,113.68478969999705,None,0.2222222222222222,-0.2861111111111111,1,0,0,5.359972899997956,tijiao,0.007924339995952323,None,0.2,0,None,None,None,None,None,None,None,None,None,None,None,None,,None,None,None,None,None,None,7.962962962962963,4.395213099996909,121.50589259999833,None,121.50589259999833,None,121.50589259999833,None,121.50589259999833,None,None,None,125.91579710000224,None,,,,,,,,,225,F,19,2023_Mar_19_1632,RL,2021.2.3,60.10991699582852,
0,0.3,0.225,0,3,3,3,,,,,,,,,,,,,,,None,None,None,None,None,127.86117499999818,None,127.86117499999818,None,127.86117499999818,None,127.86117499999818,None,f,0.29701050000585383,127.86117499999818,None,127.86117499999818,None,128.19026110000414,None,128.19026110000414,None,128.19026110000414,None,128.19026110000414,None,128.19026110000414,None,128.19026110000414,None,128.47689060000266,130.37146609999763,128.47689060000266,130.37146609999763,130.39339489999838,None,130.39339489999838,None,130.39339489999838,None,130.39339489999838,None,130.39339489999838,None,130.39339489999838,None,130.39339489999838,None,130.39339489999838,None,130.39339489999838,None,37,73,53,39,73,39,132.90687040000194,None,6.0,3.580850999998802,132.90687040000194,None,132.90687040000194,None,132.90687040000194,None,132.90687040000194,None,,None,None,None,None,None,None,None,None,None,None,None,None,None,None,,None,None,,,,,,,,None,None,-0.6,2,None,None,None,None,None,None,None,None,None,None,None,None,,None,None,None,None,None,None,None,None,None,None,None,None,None,None,None,None,None,None,136.654978700004,None,,,,,,,,,225,F,19,2023_Mar_19_1632,RL,2021.2.3,60.10991699582852,
1,-0.3,-0.225,0,4,4,4,,,,,,,,,,,,,,,None,None,None,None,None,138.34935750000295,None,138.34935750000295,None,138.34935750000295,None,138.34935750000295,None,r,0.5231825999944704,138.34935750000295,None,138.34935750000295,None,138.91218939999817,None,138.91218939999817,None,138.91218939999817,None,138.91218939999817,None,138.91218939999817,None,138.91218939999817,None,139.1978453999982,140.7594093000007,139.1978453999982,140.7594093000007,140.78014699999767,None,140.78014699999767,None,140.78014699999767,None,140.78014699999767,None,140.78014699999767,None,140.78014699999767,None,140.78014699999767,None,140.78014699999767,None,140.78014699999767,None,29,67,48,38,29,54,143.28862579999986,None,3.0,3.069094500002393,143.28862579999986,None,143.28862579999986,None,143.28862579999986,None,143.28862579999986,None,,None,None,None,None,None,None,None,None,None,None,None,None,None,None,,None,None,,,,,,,,None,None,0.6,3,None,None,None,None,None,None,None,None,None,None,None,None,,None,None,None,None,None,None,None,None,None,None,None,None,None,None,None,None,None,None,146.41002290000324,None,,,,,,,,,225,F,19,2023_Mar_19_1632,RL,2021.2.3,60.10991699582852,
0,0.3,0.225,0,5,5,5,,,,,,,,,,,,,,,None,None,None,None,None,147.95655650000117,None,147.95655650000117,None,147.95655650000117,None,147.95655650000117,None,r,0.5916619000054197,147.95655650000117,None,147.95655650000117,None,148.58608200000162,None,148.58608200000162,None,148.58608200000162,None,148.58608200000162,None,148.58608200000162,None,148.58608200000162,None,148.871415900001,150.5328303999995,148.871415900001,150.5328303999995,150.55339359999925,None,150.55339359999925,None,150.55339359999925,None,150.55339359999925,None,150.55339359999925,None,150.55339359999925,None,150.55339359999925,None,150.55339359999925,None,150.55339359999925,None,37,62,49,44,37,42,153.0622491000031,None,3.0,2.7852130999963265,153.0622491000031,None,153.0622491000031,None,153.0622491000031,None,153.0622491000031,None,,None,None,None,None,None,None,None,None,None,None,None,None,None,None,,None,None,,,,,,,,None,None,0.6,3,None,None,None,None,None,None,None,None,None,None,None,None,,None,None,None,None,None,None,None,None,None,None,None,None,None,None,None,None,None,None,155.89746890000242,None,,,,,,,,,225,F,19,2023_Mar_19_1632,RL,2021.2.3,60.10991699582852,
1,-0.3,-0.225,0,6,6,6,,,,,,,,,,,,,,,None,None,None,None,None,157.61326420000114,None,157.61326420000114,None,157.61326420000114,None,157.61326420000114,None,j,0.6349245999954292,157.61326420000114,None,157.61326420000114,None,158.28705020000052,None,158.28705020000052,None,158.28705020000052,None,158.28705020000052,None,158.28705020000052,None,158.28705020000052,None,158.5783401000008,159.59182650000002,158.5783401000008,159.59182650000002,159.6128041999982,None,159.6128041999982,None,159.6128041999982,None,159.6128041999982,None,159.6128041999982,None,159.6128041999982,None,159.6128041999982,None,159.6128041999982,None,159.6128041999982,None,40,58,54,44,44,49,None,None,None,None,None,None,None,None,None,None,None,None,50,162.13662489999842,None,162.13662489999842,None,162.13662489999842,None,162.13662489999842,None,162.13662489999842,None,162.13662489999842,None,162.13662489999842,None,50,162.13662489999842,None,-0.17592592592592593,-0.24166666666666667,1,0,0,0.00998750000144355,tijiao,0.007406140000966843,None,0.6,0,None,None,None,None,None,None,None,None,None,None,None,None,,None,None,None,None,None,None,6.027777777777778,5.210664600002929,166.1166052999979,None,166.1166052999979,None,166.1166052999979,None,166.1166052999979,None,None,None,171.3417679999984,None,,,,,,,,,225,F,19,2023_Mar_19_1632,RL,2021.2.3,60.10991699582852,
0,0.3,0.225,0,7,7,7,,,,,,,,,,,,,,,None,None,None,None,None,173.12092320000374,None,173.12092320000374,None,173.12092320000374,None,173.12092320000374,None,i,0.47733019999577664,173.12092320000374,None,173.12092320000374,None,173.63106820000394,None,173.63106820000394,None,173.63106820000394,None,173.63106820000394,None,173.63106820000394,None,173.63106820000394,None,173.91920209999807,None,173.91920209999807,None,175.23582439999882,None,175.23582439999882,None,175.23582439999882,None,175.23582439999882,None,175.23582439999882,None,175.23582439999882,None,175.23582439999882,None,175.23582439999882,None,175.23582439999882,None,42,55,46,51,46,30,177.74486009999964,None,5.0,1.7224324999988312,177.74486009999964,None,177.74486009999964,None,177.74486009999964,None,177.74486009999964,None,,None,None,None,None,None,None,None,None,None,None,None,None,None,None,,None,None,,,,,,,,None,None,-0.2,2,None,None,None,None,None,None,None,None,None,None,None,None,,None,None,None,None,None,None,None,None,None,None,None,None,None,None,None,None,None,None,179.51929199999722,None,,,,,,,,,225,F,19,2023_Mar_19_1632,RL,2021.2.3,60.10991699582852,
1,-0.3,-0.225,0,8,8,8,,,,,,,,,,,,,,,None,None,None,None,None,181.51466320000327,None,181.51466320000327,None,181.51466320000327,None,181.51466320000327,None,r,0.7396262000038405,181.51466320000327,None,181.51466320000327,None,182.29162480000377,None,182.29162480000377,None,182.29162480000377,None,182.29162480000377,None,182.29162480000377,None,182.29162480000377,None,182.5792106000008,184.25737890000164,182.5792106000008,184.25737890000164,184.27763530000084,None,184.27763530000084,None,184.27763530000084,None,184.27763530000084,None,184.27763530000084,None,184.27763530000084,None,184.27763530000084,None,184.27763530000084,None,184.27763530000084,None,47,54,40,56,47,79,186.78762689999712,None,2.0,2.2529504999984056,186.78762689999712,None,186.78762689999712,None,186.78762689999712,None,186.78762689999712,None,,None,None,None,None,None,None,None,None,None,None,None,None,None,None,,None,None,,,,,,,,None,None,0.2,2,None,None,None,None,None,None,None,None,None,None,None,None,,None,None,None,None,None,None,None,None,None,None,None,None,None,None,None,None,None,None,189.09166320000077,None,,,,,,,,,225,F,19,2023_Mar_19_1632,RL,2021.2.3,60.10991699582852,
0,0.3,0.225,0,9,9,9,,,,,,,,,,,,,,,None,None,None,None,None,191.03855029999977,None,191.03855029999977,None,191.03855029999977,None,191.03855029999977,None,i,0.5767820999972173,191.03855029999977,None,191.03855029999977,None,191.6481066999986,None,191.6481066999986,None,191.6481066999986,None,191.6481066999986,None,191.6481066999986,None,191.6481066999986,None,191.9369452000028,193.150215499998,191.9369452000028,193.150215499998,193.17242329999863,None,193.17242329999863,None,193.17242329999863,None,193.17242329999863,None,193.17242329999863,None,193.17242329999863,None,193.17242329999863,None,193.17242329999863,None,193.17242329999863,None,46,61,46,51,46,85,195.6826927000002,None,1.0,3.1645535999996355,195.6826927000002,None,195.6826927000002,None,195.6826927000002,None,195.6826927000002,None,,None,None,None,None,None,None,None,None,None,None,None,None,None,None,,None,None,,,,,,,,None,None,-0.6,3,None,None,None,None,None,None,None,None,None,None,None,None,,None,None,None,None,None,None,None,None,None,None,None,None,None,None,None,None,None,None,198.89622560000134,None,,,,,,,,,225,F,19,2023_Mar_19_1632,RL,2021.2.3,60.10991699582852,
1,-0.3,-0.225,0,10,10,10,,,,,,,,,,,,,,,None,None,None,None,None,200.47991609999735,None,200.47991609999735,None,200.47991609999735,None,200.47991609999735,None,j,0.7396494000058738,200.47991609999735,None,200.47991609999735,None,201.25545540000167,None,201.25545540000167,None,201.25545540000167,None,201.25545540000167,None,201.25545540000167,None,201.25545540000167,None,201.5437910000037,None,201.5437910000037,None,202.76271650000126,None,202.76271650000126,None,202.76271650000126,None,202.76271650000126,None,202.76271650000126,None,202.76271650000126,None,202.76271650000126,None,202.76271650000126,None,202.76271650000126,None,39,78,42,51,51,77,205.27339490000304,None,2.0,2.8843077999990783,205.27339490000304,None,205.27339490000304,None,205.27339490000304,None,205.27339490000304,None,,None,None,None,None,None,None,None,None,None,None,None,None,None,None,,None,None,,,,,,,,None,None,-0.2,2,None,None,None,None,None,None,None,None,None,None,None,None,,None,None,None,None,None,None,None,None,None,None,None,None,None,None,None,None,None,None,208.20588619999762,None,,,,,,,,,225,F,19,2023_Mar_19_1632,RL,2021.2.3,60.10991699582852,
0,0.3,0.225,0,11,11,11,,,,,,,,,,,,,,,None,None,None,None,None,209.95410979999724,None,209.95410979999724,None,209.95410979999724,None,209.95410979999724,None,r,0.3117005000021891,209.95410979999724,None,209.95410979999724,None,210.29900790000102,None,210.29900790000102,None,210.29900790000102,None,210.29900790000102,None,210.29900790000102,None,210.29900790000102,None,210.58577409999998,None,210.58577409999998,None,211.4689545000001,None,211.4689545000001,None,211.4689545000001,None,211.4689545000001,None,211.4689545000001,None,211.4689545000001,None,211.4689545000001,None,211.4689545000001,None,211.4689545000001,None,42,78,48,48,42,41,213.98147730000346,None,4.0,1.9870319000037853,213.98147730000346,None,213.98147730000346,None,213.98147730000346,None,213.98147730000346,None,,None,None,None,None,None,None,None,None,None,None,None,None,None,None,,None,None,,,,,,,,None,None,0.6,2,None,None,None,None,None,None,None,None,None,None,None,None,,None,None,None,None,None,None,None,None,None,None,None,None,None,None,None,None,None,None,216.01728990000265,None,,,,,,,,,225,F,19,2023_Mar_19_1632,RL,2021.2.3,60.10991699582852,
1,-0.3,-0.225,0,12,12,12,,,,,,,,,,,,,,,None,None,None,None,None,217.98189699999784,None,217.98189699999784,None,217.98189699999784,None,217.98189699999784,None,j,0.6353225999991992,217.98189699999784,None,217.98189699999784,None,218.65722180000012,None,218.65722180000012,None,218.65722180000012,None,218.65722180000012,None,218.65722180000012,None,218.65722180000012,None,218.94643109999743,220.6250402000005,218.94643109999743,220.6250402000005,220.64724410000053,None,220.64724410000053,None,220.64724410000053,None,220.64724410000053,None,220.64724410000053,None,220.64724410000053,None,220.64724410000053,None,220.64724410000053,None,220.64724410000053,None,45,72,40,51,51,75,None,None,None,None,None,None,None,None,None,None,None,None,60,223.16742250000243,None,223.16742250000243,None,223.16742250000243,None,223.16742250000243,None,223.16742250000243,None,223.16742250000243,None,223.16742250000243,None,60,223.16742250000243,None,-0.19722222222222222,-0.2388888888888889,1,0,0,7.955017200001748,tijiao,0.00919523999618832,None,0.2,0,None,None,None,None,None,None,None,None,None,None,None,None,,None,None,None,None,None,None,4.925925925925926,2.8488818000041647,234.91349929999706,None,234.91349929999706,None,234.91349929999706,None,234.91349929999706,None,None,None,237.7770759999985,None,,,,,,,,,225,F,19,2023_Mar_19_1632,RL,2021.2.3,60.10991699582852,
0,0.3,0.225,0,13,13,13,,,,,,,,,,,,,,,None,None,None,None,None,239.62267799999972,None,239.62267799999972,None,239.62267799999972,None,239.62267799999972,None,f,0.5376465999943321,239.62267799999972,None,239.62267799999972,None,240.1990216999984,None,240.1990216999984,None,240.1990216999984,None,240.1990216999984,None,240.1990216999984,None,240.1990216999984,None,240.48740740000358,242.1159553000034,240.48740740000358,242.1159553000034,242.13811949999945,None,242.13811949999945,None,242.13811949999945,None,242.13811949999945,None,242.13811949999945,None,242.13811949999945,None,242.13811949999945,None,242.13811949999945,None,242.13811949999945,None,43,68,50,46,68,77,244.64738170000055,None,4.0,2.0204957999958424,244.64738170000055,None,244.64738170000055,None,244.64738170000055,None,244.64738170000055,None,,None,None,None,None,None,None,None,None,None,None,None,None,None,None,,None,None,,,,,,,,None,None,-0.6,2,None,None,None,None,None,None,None,None,None,None,None,None,,None,None,None,None,None,None,None,None,None,None,None,None,None,None,None,None,None,None,246.71870019999915,None,,,,,,,,,225,F,19,2023_Mar_19_1632,RL,2021.2.3,60.10991699582852,
1,-0.3,-0.225,0,14,14,14,,,,,,,,,,,,,,,None,None,None,None,None,248.5653547000038,None,248.5653547000038,None,248.5653547000038,None,248.5653547000038,None,r,0.43144629999733297,248.5653547000038,None,248.5653547000038,None,249.02493839999806,None,249.02493839999806,None,249.02493839999806,None,249.02493839999806,None,249.02493839999806,None,249.02493839999806,None,249.31359849999717,250.31086309999955,249.31359849999717,250.31086309999955,250.33144829999947,None,250.33144829999947,None,250.33144829999947,None,250.33144829999947,None,250.33144829999947,None,250.33144829999947,None,250.33144829999947,None,250.33144829999947,None,250.33144829999947,None,43,70,46,50,43,77,252.84177259999706,None,3.0,2.8183668999990914,252.84177259999706,None,252.84177259999706,None,252.84177259999706,None,252.84177259999706,None,,None,None,None,None,None,None,None,None,None,None,None,None,None,None,,None,None,,,,,,,,None,None,0.2,3,None,None,None,None,None,None,None,None,None,None,None,None,,None,None,None,None,None,None,None,None,None,None,None,None,None,None,None,None,None,None,255.70836860000418,None,,,,,,,,,225,F,19,2023_Mar_19_1632,RL,2021.2.3,60.10991699582852,
0,0.3,0.225,0,15,15,15,,,,,,,,,,,,,,,None,None,None,None,None,257.68985950000206,None,257.68985950000206,None,257.68985950000206,None,257.68985950000206,None,i,0.662103800001205,257.68985950000206,None,257.68985950000206,None,258.38322170000174,None,258.38322170000174,None,258.38322170000174,None,258.38322170000174,None,258.38322170000174,None,258.38322170000174,None,258.67147110000224,260.549193699997,258.67147110000224,260.549193699997,260.5697674000039,None,260.5697674000039,None,260.5697674000039,None,260.5697674000039,None,260.5697674000039,None,260.5697674000039,None,260.5697674000039,None,260.5697674000039,None,260.5697674000039,None,35,71,47,54,47,45,None,None,None,None,None,None,None,None,None,None,None,None,,263.09484099999827,None,263.09484099999827,None,263.09484099999827,None,263.09484099999827,None,263.09484099999827,None,263.09484099999827,None,263.09484099999827,None,,263.09484099999827,None,-0.12777777777777777,-0.2675925925925926,1,0,0,0.9051502000002074,tijiao,0.006283039998379536,None,0.2,0,None,None,None,None,None,None,None,None,None,None,None,None,,None,None,None,None,None,None,6.9907407407407405,3.5136256999976467,264.0344474000012,None,264.0344474000012,None,264.0344474000012,None,264.0344474000012,None,None,None,267.562385899997,None,,,,,,,,,225,F,19,2023_Mar_19_1632,RL,2021.2.3,60.10991699582852,
1,-0.3,-0.225,0,16,16,16,,,,,,,,,,,,,,,None,None,None,None,None,269.2751399999979,None,269.2751399999979,None,269.2751399999979,None,269.2751399999979,None,r,0.8289272999973036,269.2751399999979,None,269.2751399999979,None,270.13450040000316,None,270.13450040000316,None,270.13450040000316,None,270.13450040000316,None,270.13450040000316,None,270.13450040000316,None,270.4223385000005,None,270.4223385000005,None,272.37313500000164,None,272.37313500000164,None,272.37313500000164,None,272.37313500000164,None,272.37313500000164,None,272.37313500000164,None,272.37313500000164,None,272.37313500000164,None,272.37313500000164,None,39,73,44,51,39,63,None,None,None,None,None,None,None,None,None,None,None,None,48,274.89206990000093,None,274.89206990000093,None,274.89206990000093,None,274.89206990000093,None,274.89206990000093,None,274.89206990000093,None,274.89206990000093,None,48,274.89206990000093,None,0.010185185185185186,-0.31851851851851853,1,0,0,11.761458199995104,tijiao,0.00975153999752365,None,0.6,0,None,None,None,None,None,None,None,None,None,None,None,None,,None,None,None,None,None,None,7.0092592592592595,3.899260400001367,286.68635930000164,None,286.68635930000164,None,286.68635930000164,None,286.68635930000164,None,None,None,290.5994744999989,None,,,,,,,,,225,F,19,2023_Mar_19_1632,RL,2021.2.3,60.10991699582852,
0,0.3,0.225,0,17,17,17,,,,,,,,,,,,,,,None,None,None,None,None,292.595178399999,None,292.595178399999,None,292.595178399999,None,292.595178399999,None,r,0.8453043999979855,292.595178399999,None,292.595178399999,None,293.47195700000157,None,293.47195700000157,None,293.47195700000157,None,293.47195700000157,None,293.47195700000157,None,293.47195700000157,None,293.7588109999997,None,293.7588109999997,None,294.609916399997,None,294.609916399997,None,294.609916399997,None,294.609916399997,None,294.609916399997,None,294.609916399997,None,294.609916399997,None,294.609916399997,None,294.609916399997,None,37,74,38,57,37,49,297.11853800000245,None,2.0,1.9880246000029729,297.11853800000245,None,297.11853800000245,None,297.11853800000245,None,297.11853800000245,None,,None,None,None,None,None,None,None,None,None,None,None,None,None,None,,None,None,,,,,,,,None,None,-0.6,3,None,None,None,None,None,None,None,None,None,None,None,None,,None,None,None,None,None,None,None,None,None,None,None,None,None,None,None,None,None,None,299.1562228000039,None,,,,,,,,,225,F,19,2023_Mar_19_1632,RL,2021.2.3,60.10991699582852,
1,-0.3,-0.225,0,18,18,18,,,,,,,,,,,,,,,None,None,None,None,None,300.822379199999,None,300.822379199999,None,300.822379199999,None,300.822379199999,None,r,1.068930099994759,300.822379199999,None,300.822379199999,None,301.9307456000024,None,301.9307456000024,None,301.9307456000024,None,301.9307456000024,None,301.9307456000024,None,301.9307456000024,None,302.2187886000029,304.04692870000144,302.2187886000029,304.04692870000144,304.0679211000024,None,304.0679211000024,None,304.0679211000024,None,304.0679211000024,None,304.0679211000024,None,304.0679211000024,None,304.0679211000024,None,304.0679211000024,None,304.0679211000024,None,40,71,40,54,40,82,None,None,None,None,None,None,None,None,None,None,None,None,,None,None,None,None,None,None,None,None,None,None,None,None,None,None,,None,None,,,,,,,,None,None,0.6,1,306.60706409999693,None,306.60706409999693,None,306.60706409999693,None,306.60706409999693,None,306.60706409999693,None,306.60706409999693,None,62,306.60706409999693,None,306.60706409999693,None,0.012943510002514813,None,7.046296296296296,5.133367199996428,317.1483883999972,None,317.1483883999972,None,317.1483883999972,None,317.1483883999972,None,None,None,322.2964845000024,None,-0.1259259259259259,-0.23981481481481481,1,0,0,8.822650099995371,tijiao,,225,F,19,2023_Mar_19_1632,RL,2021.2.3,60.10991699582852,
0,0.3,0.225,0,19,19,19,,,,,,,,,,,,,,,None,None,None,None,None,323.8764364000017,None,323.8764364000017,None,323.8764364000017,None,323.8764364000017,None,j,0.3771831000049133,323.8764364000017,None,323.8764364000017,None,324.2883957000013,None,324.2883957000013,None,324.2883957000013,None,324.2883957000013,None,324.2883957000013,None,324.2883957000013,None,324.5746148000035,326.4862800999981,324.5746148000035,326.4862800999981,326.50641390000237,None,326.50641390000237,None,326.50641390000237,None,326.50641390000237,None,326.50641390000237,None,326.50641390000237,None,326.50641390000237,None,326.50641390000237,None,326.50641390000237,None,43,61,34,46,46,71,329.0187057000003,None,3.0,2.6828138999990188,329.0187057000003,None,329.0187057000003,None,329.0187057000003,None,329.0187057000003,None,,None,None,None,None,None,None,None,None,None,None,None,None,None,None,,None,None,,,,,,,,None,None,0.6,2,None,None,None,None,None,None,None,None,None,None,None,None,,None,None,None,None,None,None,None,None,None,None,None,None,None,None,None,None,None,None,331.7496836999999,None,,,,,,,,,225,F,19,2023_Mar_19_1632,RL,2021.2.3,60.10991699582852,
1,-0.3,-0.225,0,20,20,20,,,,,,,,,,,,,,,None,None,None,None,None,333.4668585000036,None,333.4668585000036,None,333.4668585000036,None,333.4668585000036,None,i,1.0577967999997782,333.4668585000036,None,333.4668585000036,None,334.5579335000002,None,334.5579335000002,None,334.5579335000002,None,334.5579335000002,None,334.5579335000002,None,334.5579335000002,None,334.8466954000032,336.0434919000036,334.8466954000032,336.0434919000036,336.0668418999994,None,336.0668418999994,None,336.0668418999994,None,336.0668418999994,None,336.0668418999994,None,336.0668418999994,None,336.0668418999994,None,336.0668418999994,None,336.0668418999994,None,43,61,43,49,43,31,338.5752730000022,None,5.0,2.0517028000031132,338.5752730000022,None,338.5752730000022,None,338.5752730000022,None,338.5752730000022,None,,None,None,None,None,None,None,None,None,None,None,None,None,None,None,,None,None,,,,,,,,None,None,-0.2,2,None,None,None,None,None,None,None,None,None,None,None,None,,None,None,None,None,None,None,None,None,None,None,None,None,None,None,None,None,None,None,340.67759659999865,None,,,,,,,,,225,F,19,2023_Mar_19_1632,RL,2021.2.3,60.10991699582852,
0,0.3,0.225,0,21,21,21,,,,,,,,,,,,,,,None,None,None,None,None,342.54177360000176,None,342.54177360000176,None,342.54177360000176,None,342.54177360000176,None,j,0.8432111000001896,342.54177360000176,None,342.54177360000176,None,343.41706669999985,None,343.41706669999985,None,343.41706669999985,None,343.41706669999985,None,343.41706669999985,None,343.41706669999985,None,343.706210700002,344.83580749999965,343.706210700002,344.83580749999965,344.8563778000025,None,344.8563778000025,None,344.8563778000025,None,344.8563778000025,None,344.8563778000025,None,344.8563778000025,None,344.8563778000025,None,344.8563778000025,None,344.8563778000025,None,41,64,30,52,52,68,347.366729100002,None,4.0,2.7839465999932145,347.366729100002,None,347.366729100002,None,347.366729100002,None,347.366729100002,None,,None,None,None,None,None,None,None,None,None,None,None,None,None,None,,None,None,,,,,,,,None,None,-0.2,2,None,None,None,None,None,None,None,None,None,None,None,None,,None,None,None,None,None,None,None,None,None,None,None,None,None,None,None,None,None,None,350.201189899999,None,,,,,,,,,225,F,19,2023_Mar_19_1632,RL,2021.2.3,60.10991699582852,
1,-0.3,-0.225,0,22,22,22,,,,,,,,,,,,,,,None,None,None,None,None,352.0660959000015,None,352.0660959000015,None,352.0660959000015,None,352.0660959000015,None,j,0.760134800002561,352.0660959000015,None,352.0660959000015,None,352.8589207000041,None,352.8589207000041,None,352.8589207000041,None,352.8589207000041,None,352.8589207000041,None,352.8589207000041,None,353.146668399997,None,353.146668399997,None,354.46279080000386,None,354.46279080000386,None,354.46279080000386,None,354.46279080000386,None,354.46279080000386,None,354.46279080000386,None,354.46279080000386,None,354.46279080000386,None,354.46279080000386,None,50,58,40,41,41,65,356.9730965999988,None,3.0,3.2370377000042936,356.9730965999988,None,356.9730965999988,None,356.9730965999988,None,356.9730965999988,None,,None,None,None,None,None,None,None,None,None,None,None,None,None,None,,None,None,,,,,,,,None,None,0.2,3,None,None,None,None,None,None,None,None,None,None,None,None,,None,None,None,None,None,None,None,None,None,None,None,None,None,None,None,None,None,None,360.25484080000024,None,,,,,,,,,225,F,19,2023_Mar_19_1632,RL,2021.2.3,60.10991699582852,
0,0.3,0.225,0,23,23,23,,,,,,,,,,,,,,,None,None,None,None,None,361.9386608999994,None,361.9386608999994,None,361.9386608999994,None,361.9386608999994,None,r,0.5939255999983288,361.9386608999994,None,361.9386608999994,None,362.5654932000034,None,362.5654932000034,None,362.5654932000034,None,362.5654932000034,None,362.5654932000034,None,362.5654932000034,None,362.8532441999996,364.23268539999845,362.8532441999996,364.23268539999845,364.2545183999973,None,364.2545183999973,None,364.2545183999973,None,364.2545183999973,None,364.2545183999973,None,364.2545183999973,None,364.2545183999973,None,364.2545183999973,None,364.2545183999973,None,48,53,45,53,48,60,None,None,None,None,None,None,None,None,None,None,None,None,45,366.7758096000034,None,366.7758096000034,None,366.7758096000034,None,366.7758096000034,None,366.7758096000034,None,366.7758096000034,None,366.7758096000034,None,45,366.7758096000034,None,-0.027777777777777776,-0.23796296296296296,1,0,0,9.333954100002302,tijiao,0.008626139999250881,None,0.6,0,None,None,None,None,None,None,None,None,None,None,None,None,,None,None,None,None,None,None,7.046296296296296,2.7507680999988224,378.2716583000001,None,378.2716583000001,None,378.2716583000001,None,378.2716583000001,None,None,None,381.0358123000042,None,,,,,,,,,225,F,19,2023_Mar_19_1632,RL,2021.2.3,60.10991699582852,
1,-0.3,-0.225,0,24,24,24,,,,,,,,,,,,,,,None,None,None,None,None,382.56569619999937,None,382.56569619999937,None,382.56569619999937,None,382.56569619999937,None,r,0.8555610000039451,382.56569619999937,None,382.56569619999937,None,383.45665030000237,None,383.45665030000237,None,383.45665030000237,None,383.45665030000237,None,383.45665030000237,None,383.45665030000237,None,383.7466072000025,384.62709259999974,383.7466072000025,384.62709259999974,384.64824509999744,None,384.64824509999744,None,384.64824509999744,None,384.64824509999744,None,384.64824509999744,None,384.64824509999744,None,384.64824509999744,None,384.64824509999744,None,384.64824509999744,None,44,67,43,49,44,56,387.15873190000275,None,7.0,2.501666500000283,387.15873190000275,None,387.15873190000275,None,387.15873190000275,None,387.15873190000275,None,,None,None,None,None,None,None,None,None,None,None,None,None,None,None,,None,None,,,,,,,,None,None,0.6,3,None,None,None,None,None,None,None,None,None,None,None,None,,None,None,None,None,None,None,None,None,None,None,None,None,None,None,None,None,None,None,389.7097903000031,None,,,,,,,,,225,F,19,2023_Mar_19_1632,RL,2021.2.3,60.10991699582852,
0,0.3,0.225,0,25,25,25,,,,,,,,,,,,,,,None,None,None,None,None,391.2257979999995,None,391.2257979999995,None,391.2257979999995,None,391.2257979999995,None,f,1.107461499996134,391.2257979999995,None,391.2257979999995,None,392.36715930000355,None,392.36715930000355,None,392.36715930000355,None,392.36715930000355,None,392.36715930000355,None,392.36715930000355,None,392.6552659000008,None,392.6552659000008,None,394.2061815999987,None,394.2061815999987,None,394.2061815999987,None,394.2061815999987,None,394.2061815999987,None,394.2061815999987,None,394.2061815999987,None,394.2061815999987,None,394.2061815999987,None,39,65,34,47,65,66,396.7157578999977,None,5.0,2.4846613999980036,396.7157578999977,None,396.7157578999977,None,396.7157578999977,None,396.7157578999977,None,,None,None,None,None,None,None,None,None,None,None,None,None,None,None,,None,None,,,,,,,,None,None,-0.6,2,None,None,None,None,None,None,None,None,None,None,None,None,,None,None,None,None,None,None,None,None,None,None,None,None,None,None,None,None,None,None,399.24947290000273,None,,,,,,,,,225,F,19,2023_Mar_19_1632,RL,2021.2.3,60.10991699582852,
1,-0.3,-0.225,0,26,26,26,,,,,,,,,,,,,,,None,None,None,None,None,401.032157499998,None,401.032157499998,None,401.032157499998,None,401.032157499998,None,f,0.7363411999976961,401.032157499998,None,401.032157499998,None,401.80942560000403,None,401.80942560000403,None,401.80942560000403,None,401.80942560000403,None,401.80942560000403,None,401.80942560000403,None,402.0962312999982,403.8084786000036,402.0962312999982,403.8084786000036,403.8289692000035,None,403.8289692000035,None,403.8289692000035,None,403.8289692000035,None,403.8289692000035,None,403.8289692000035,None,403.8289692000035,None,403.8289692000035,None,403.8289692000035,None,35,73,28,50,73,61,None,None,None,None,None,None,None,None,None,None,None,None,68,406.35057360000064,None,406.35057360000064,None,406.35057360000064,None,406.35057360000064,None,406.35057360000064,None,406.35057360000064,None,406.35057360000064,None,68,406.35057360000064,None,0.03425925925925926,-0.3611111111111111,1,0,0,5.777522600001248,tijiao,0.009010139998281375,None,-0.6,0,None,None,None,None,None,None,None,None,None,None,None,None,,None,None,None,None,None,None,9.0,3.0832505999933346,414.32352959999844,None,414.32352959999844,None,414.32352959999844,None,414.32352959999844,None,None,None,417.41979939999874,None,,,,,,,,,225,F,19,2023_Mar_19_1632,RL,2021.2.3,60.10991699582852,
0,0.3,0.225,0,27,27,27,,,,,,,,,,,,,,,None,None,None,None,None,419.1824906999973,None,419.1824906999973,None,419.1824906999973,None,419.1824906999973,None,f,0.4924959000054514,419.1824906999973,None,419.1824906999973,None,419.71013539999694,None,419.71013539999694,None,419.71013539999694,None,419.71013539999694,None,419.71013539999694,None,419.71013539999694,None,419.99758160000056,420.91177230000176,419.99758160000056,420.91177230000176,420.93330190000415,None,420.93330190000415,None,420.93330190000415,None,420.93330190000415,None,420.93330190000415,None,420.93330190000415,None,420.93330190000415,None,420.93330190000415,None,420.93330190000415,None,37,65,36,52,65,66,423.445618800004,None,5.0,4.65965739999956,423.445618800004,None,423.445618800004,None,423.445618800004,None,423.445618800004,None,,None,None,None,None,None,None,None,None,None,None,None,None,None,None,,None,None,,,,,,,,None,None,-0.6,2,None,None,None,None,None,None,None,None,None,None,None,None,,None,None,None,None,None,None,None,None,None,None,None,None,None,None,None,None,None,None,428.1549335000018,None,,,,,,,,,225,F,19,2023_Mar_19_1632,RL,2021.2.3,60.10991699582852,
1,-0.3,-0.225,0,28,28,28,,,,,,,,,,,,,,,None,None,None,None,None,429.80399800000305,None,429.80399800000305,None,429.80399800000305,None,429.80399800000305,None,f,0.6351107000009506,429.80399800000305,None,429.80399800000305,None,430.4780935000017,None,430.4780935000017,None,430.4780935000017,None,430.4780935000017,None,430.4780935000017,None,430.4780935000017,None,430.7683356999987,432.5630014999988,430.7683356999987,432.5630014999988,432.586035100001,None,432.586035100001,None,432.586035100001,None,432.586035100001,None,432.586035100001,None,432.586035100001,None,432.586035100001,None,432.586035100001,None,432.586035100001,None,41,57,42,47,57,73,None,None,None,None,None,None,None,None,None,None,None,None,,None,None,None,None,None,None,None,None,None,None,None,None,None,None,,None,None,,,,,,,,None,None,0.2,1,435.1177454999997,None,435.1177454999997,None,435.1177454999997,None,435.1177454999997,None,435.1177454999997,None,435.1177454999997,None,65,435.1177454999997,None,435.1177454999997,None,0.013574210002843756,None,7.9907407407407405,2.8951534000007086,441.43672589999915,None,441.43672589999915,None,441.43672589999915,None,441.43672589999915,None,None,None,444.3464034999997,None,0.11666666666666667,-0.28055555555555556,1,0,0,6.297107500002312,tijiao,,225,F,19,2023_Mar_19_1632,RL,2021.2.3,60.10991699582852,
0,0.3,0.225,0,29,29,29,,,,,,,,,,,,,,,None,None,None,None,None,446.27556529999856,None,446.27556529999856,None,446.27556529999856,None,446.27556529999856,None,f,0.5423164000021643,446.27556529999856,None,446.27556529999856,None,446.85081609999907,None,446.85081609999907,None,446.85081609999907,None,446.85081609999907,None,446.85081609999907,None,446.85081609999907,None,447.1397655999972,None,447.1397655999972,None,448.90387460000056,None,448.90387460000056,None,448.90387460000056,None,448.90387460000056,None,448.90387460000056,None,448.90387460000056,None,448.90387460000056,None,448.90387460000056,None,448.90387460000056,None,37,65,44,40,65,63,None,None,None,None,None,None,None,None,None,None,None,None,,451.42496499999834,None,451.42496499999834,None,451.42496499999834,None,451.42496499999834,None,451.42496499999834,None,451.42496499999834,None,451.42496499999834,None,,451.42496499999834,None,0.11296296296296296,-0.2759259259259259,1,0,0,1.258702599996468,tijiao,0.01101203999860445,None,0.2,0,None,None,None,None,None,None,None,None,None,None,None,None,,None,None,None,None,None,None,7.0092592592592595,5.111833399998432,452.7168010000023,None,452.7168010000023,None,452.7168010000023,None,452.7168010000023,None,None,None,457.8428234000021,None,,,,,,,,,225,F,19,2023_Mar_19_1632,RL,2021.2.3,60.10991699582852,
1,-0.3,-0.225,0,30,30,30,,,,,,,,,,,,,,,None,None,None,None,None,459.60569250000117,None,459.60569250000117,None,459.60569250000117,None,459.60569250000117,None,j,1.308109900004638,459.60569250000117,None,459.60569250000117,None,460.94614210000145,None,460.94614210000145,None,460.94614210000145,None,460.94614210000145,None,460.94614210000145,None,460.94614210000145,None,461.23502400000143,None,461.23502400000143,None,463.1004238000023,None,463.1004238000023,None,463.1004238000023,None,463.1004238000023,None,463.1004238000023,None,463.1004238000023,None,463.1004238000023,None,463.1004238000023,None,463.1004238000023,None,49,65,38,40,40,56,None,None,None,None,None,None,None,None,None,None,None,None,30,465.6231469999984,None,465.6231469999984,None,465.6231469999984,None,465.6231469999984,None,465.6231469999984,None,465.6231469999984,None,465.6231469999984,None,30,465.6231469999984,None,-0.09074074074074075,-0.262037037037037,1,0,0,5.39364249999926,tijiao,0.007503739994717762,None,0.6,0,None,None,None,None,None,None,None,None,None,None,None,None,,None,None,None,None,None,None,3.962962962962963,5.676857200000086,471.05007340000157,None,471.05007340000157,None,471.05007340000157,None,471.05007340000157,None,None,None,476.7414697999993,None,,,,,,,,,225,F,19,2023_Mar_19_1632,RL,2021.2.3,60.10991699582852,
0,0.3,0.225,0,31,31,31,,,,,,,,,,,,,,,None,None,None,None,None,478.4044295999993,None,478.4044295999993,None,478.4044295999993,None,478.4044295999993,None,None,,478.4044295999993,None,478.4044295999993,None,None,None,None,None,None,None,None,None,None,None,None,None,None,None,None,None,None,None,None,None,None,None,None,None,None,None,None,None,None,None,None,None,None,None,29,58,45,48,0,**,None,None,None,None,None,None,None,None,None,None,None,None,,None,None,None,None,None,None,None,None,None,None,None,None,None,None,,None,None,,,,,,,,None,None,0.2,0,None,None,None,None,None,None,None,None,None,None,None,None,,None,None,None,None,None,None,None,None,None,None,None,None,None,None,None,None,480.1167881000001,None,484.6202945999976,None,,,,,,,,,225,F,19,2023_Mar_19_1632,RL,2021.2.3,60.10991699582852,
1,-0.3,-0.225,0,32,32,32,,,,,,,,,,,,,,,None,None,None,None,None,486.58188840000366,None,486.58188840000366,None,486.58188840000366,None,486.58188840000366,None,i,0.8155092000015429,486.58188840000366,None,486.58188840000366,None,487.4247333000021,None,487.4247333000021,None,487.4247333000021,None,487.4247333000021,None,487.4247333000021,None,487.4247333000021,None,487.71275400000013,489.6072948000001,487.71275400000013,489.6072948000001,489.6283101000008,None,489.6283101000008,None,489.6283101000008,None,489.6283101000008,None,489.6283101000008,None,489.6283101000008,None,489.6283101000008,None,489.6283101000008,None,489.6283101000008,None,40,58,32,43,32,62,492.1380911000015,None,2.0,2.6513455000022077,492.1380911000015,None,492.1380911000015,None,492.1380911000015,None,492.1380911000015,None,,None,None,None,None,None,None,None,None,None,None,None,None,None,None,,None,None,,,,,,,,None,None,-0.2,3,None,None,None,None,None,None,None,None,None,None,None,None,,None,None,None,None,None,None,None,None,None,None,None,None,None,None,None,None,None,None,494.8390337000019,None,,,,,,,,,225,F,19,2023_Mar_19_1632,RL,2021.2.3,60.10991699582852,
0,0.3,0.225,0,33,33,33,,,,,,,,,,,,,,,None,None,None,None,None,496.63804289999825,None,496.63804289999825,None,496.63804289999825,None,496.63804289999825,None,i,0.6540122000005795,496.63804289999825,None,496.63804289999825,None,497.3288759999996,None,497.3288759999996,None,497.3288759999996,None,497.3288759999996,None,497.3288759999996,None,497.3288759999996,None,497.6187129000027,None,497.6187129000027,None,499.56636640000215,None,499.56636640000215,None,499.56636640000215,None,499.56636640000215,None,499.56636640000215,None,499.56636640000215,None,499.56636640000215,None,499.56636640000215,None,499.56636640000215,None,32,64,30,55,30,57,None,None,None,None,None,None,None,None,None,None,None,None,45,502.08958220000204,None,502.08958220000204,None,502.08958220000204,None,502.08958220000204,None,502.08958220000204,None,502.08958220000204,None,502.08958220000204,None,45,502.08958220000204,None,-0.08703703703703704,-0.2601851851851852,1,0,0,7.007749999997031,tijiao,0.009460539993597195,None,0.2,0,None,None,None,None,None,None,None,None,None,None,None,None,,None,None,None,None,None,None,3.0277777777777777,7.55445360000158,509.12971749999997,None,509.12971749999997,None,509.12971749999997,None,509.12971749999997,None,None,None,516.698854000002,None,,,,,,,,,225,F,19,2023_Mar_19_1632,RL,2021.2.3,60.10991699582852,
1,-0.3,-0.225,0,34,34,34,,,,,,,,,,,,,,,None,None,None,None,None,518.4784156000023,None,518.4784156000023,None,518.4784156000023,None,518.4784156000023,None,i,0.643024000004516,518.4784156000023,None,518.4784156000023,None,519.1525315000035,None,519.1525315000035,None,519.1525315000035,None,519.1525315000035,None,519.1525315000035,None,519.1525315000035,None,519.4428354999982,520.3231169999999,519.4428354999982,520.3231169999999,520.3435643999983,None,520.3435643999983,None,520.3435643999983,None,520.3435643999983,None,520.3435643999983,None,520.3435643999983,None,520.3435643999983,None,520.3435643999983,None,520.3435643999983,None,32,62,33,52,33,58,None,None,None,None,None,None,None,None,None,None,None,None,30,522.8664129000026,None,522.8664129000026,None,522.8664129000026,None,522.8664129000026,None,522.8664129000026,None,522.8664129000026,None,522.8664129000026,None,30,522.8664129000026,None,-0.1361111111111111,-0.28055555555555556,1,0,0,5.32931429999735,tijiao,0.009667940001236275,None,0.6,0,None,None,None,None,None,None,None,None,None,None,None,None,,None,None,None,None,None,None,4.888888888888889,2.6015887999965344,528.2277421000035,None,528.2277421000035,None,528.2277421000035,None,528.2277421000035,None,None,None,530.8436769999971,None,,,,,,,,,225,F,19,2023_Mar_19_1632,RL,2021.2.3,60.10991699582852,
0,0.3,0.225,0,35,35,35,,,,,,,,,,,,,,,None,None,None,None,None,532.7889437999984,None,532.7889437999984,None,532.7889437999984,None,532.7889437999984,None,j,0.43352669999876525,532.7889437999984,None,532.7889437999984,None,533.2517365000022,None,533.2517365000022,None,533.2517365000022,None,533.2517365000022,None,533.2517365000022,None,533.2517365000022,None,533.5375270000004,535.3322450999985,533.5375270000004,535.3322450999985,535.3528042000034,None,535.3528042000034,None,535.3528042000034,None,535.3528042000034,None,535.3528042000034,None,535.3528042000034,None,535.3528042000034,None,535.3528042000034,None,535.3528042000034,None,26,56,40,45,45,54,537.863380499999,None,4.0,2.6174411000029068,537.863380499999,None,537.863380499999,None,537.863380499999,None,537.863380499999,None,,None,None,None,None,None,None,None,None,None,None,None,None,None,None,,None,None,,,,,,,,None,None,0.2,2,None,None,None,None,None,None,None,None,None,None,None,None,,None,None,None,None,None,None,None,None,None,None,None,None,None,None,None,None,None,None,540.5315743000028,None,,,,,,,,,225,F,19,2023_Mar_19_1632,RL,2021.2.3,60.10991699582852,
1,-0.3,-0.225,0,36,36,36,,,,,,,,,,,,,,,None,None,None,None,None,542.4626619999981,None,542.4626619999981,None,542.4626619999981,None,542.4626619999981,None,i,0.7606440999952611,542.4626619999981,None,542.4626619999981,None,543.2550513000024,None,543.2550513000024,None,543.2550513000024,None,543.2550513000024,None,543.2550513000024,None,543.2550513000024,None,543.5433350000021,545.2056193000026,543.5433350000021,545.2056193000026,545.2257490999982,None,545.2257490999982,None,545.2257490999982,None,545.2257490999982,None,545.2257490999982,None,545.2257490999982,None,545.2257490999982,None,545.2257490999982,None,545.2257490999982,None,18,56,34,42,34,50,547.7343455000009,None,3.0,3.334391999997024,547.7343455000009,None,547.7343455000009,None,547.7343455000009,None,547.7343455000009,None,,None,None,None,None,None,None,None,None,None,None,None,None,None,None,,None,None,,,,,,,,None,None,0.2,2,None,None,None,None,None,None,None,None,None,None,None,None,,None,None,None,None,None,None,None,None,None,None,None,None,None,None,None,None,None,None,551.1192164000022,None,,,,,,,,,225,F,19,2023_Mar_19_1632,RL,2021.2.3,60.10991699582852,
0,0.3,0.225,0,37,37,37,,,,,,,,,,,,,,,None,None,None,None,None,552.9344071000014,None,552.9344071000014,None,552.9344071000014,None,552.9344071000014,None,r,0.6085945000013453,552.9344071000014,None,552.9344071000014,None,553.5767745999983,None,553.5767745999983,None,553.5767745999983,None,553.5767745999983,None,553.5767745999983,None,553.5767745999983,None,553.865037399999,554.8290459999989,553.865037399999,554.8290459999989,554.8494228999989,None,554.8494228999989,None,554.8494228999989,None,554.8494228999989,None,554.8494228999989,None,554.8494228999989,None,554.8494228999989,None,554.8494228999989,None,554.8494228999989,None,25,51,37,40,25,51,557.3616609000019,None,2.0,2.4014225999999326,557.3616609000019,None,557.3616609000019,None,557.3616609000019,None,557.3616609000019,None,,None,None,None,None,None,None,None,None,None,None,None,None,None,None,,None,None,,,,,,,,None,None,-0.2,3,None,None,None,None,None,None,None,None,None,None,None,None,,None,None,None,None,None,None,None,None,None,None,None,None,None,None,None,None,None,None,559.810562300001,None,,,,,,,,,225,F,19,2023_Mar_19_1632,RL,2021.2.3,60.10991699582852,
1,-0.3,-0.225,0,38,38,38,,,,,,,,,,,,,,,None,None,None,None,None,561.5607968999975,None,561.5607968999975,None,561.5607968999975,None,561.5607968999975,None,i,0.7294457000025432,561.5607968999975,None,561.5607968999975,None,562.3178486000033,None,562.3178486000033,None,562.3178486000033,None,562.3178486000033,None,562.3178486000033,None,562.3178486000033,None,562.6080791999993,None,562.6080791999993,None,564.4886422999989,None,564.4886422999989,None,564.4886422999989,None,564.4886422999989,None,564.4886422999989,None,564.4886422999989,None,564.4886422999989,None,564.4886422999989,None,564.4886422999989,None,33,60,40,45,40,58,566.9986216000034,None,3.0,2.6194042999995872,566.9986216000034,None,566.9986216000034,None,566.9986216000034,None,566.9986216000034,None,,None,None,None,None,None,None,None,None,None,None,None,None,None,None,,None,None,,,,,,,,None,None,-0.6,2,None,None,None,None,None,None,None,None,None,None,None,None,,None,None,None,None,None,None,None,None,None,None,None,None,None,None,None,None,None,None,569.6720121000035,None,,,,,,,,,225,F,19,2023_Mar_19_1632,RL,2021.2.3,60.10991699582852,
0,0.3,0.225,0,39,39,39,,,,,,,,,,,,,,,None,None,None,None,None,571.4167964000007,None,571.4167964000007,None,571.4167964000007,None,571.4167964000007,None,j,0.8739176999952178,571.4167964000007,None,571.4167964000007,None,572.3246919000012,None,572.3246919000012,None,572.3246919000012,None,572.3246919000012,None,572.3246919000012,None,572.3246919000012,None,572.6141395000013,574.1595029000018,572.6141395000013,574.1595029000018,574.1795015000025,None,574.1795015000025,None,574.1795015000025,None,574.1795015000025,None,574.1795015000025,None,574.1795015000025,None,574.1795015000025,None,574.1795015000025,None,574.1795015000025,None,29,62,45,44,44,54,None,None,None,None,None,None,None,None,None,None,None,None,65,576.7000834999999,None,576.7000834999999,None,576.7000834999999,None,576.7000834999999,None,576.7000834999999,None,576.7000834999999,None,576.7000834999999,None,65,576.7000834999999,None,-0.1962962962962963,-0.24814814814814815,1,0,0,5.264156900004309,tijiao,0.01094463999470463,None,0.6,0,None,None,None,None,None,None,None,None,None,None,None,None,,None,None,None,None,None,None,8.925925925925926,4.661482300005446,584.4450993999999,None,584.4450993999999,None,584.4450993999999,None,584.4450993999999,None,None,None,589.1178291000033,None,,,,,,,,,225,F,19,2023_Mar_19_1632,RL,2021.2.3,60.10991699582852,
1,-0.3,-0.225,0,40,40,40,,,,,,,,,,,,,,,None,None,None,None,None,590.8142447999999,None,590.8142447999999,None,590.8142447999999,None,590.8142447999999,None,j,0.5283135999998194,590.8142447999999,None,590.8142447999999,None,591.3740006000007,None,591.3740006000007,None,591.3740006000007,None,591.3740006000007,None,591.3740006000007,None,591.3740006000007,None,591.6620419000028,592.4765619000027,591.6620419000028,592.4765619000027,592.4968049000017,None,592.4968049000017,None,592.4968049000017,None,592.4968049000017,None,592.4968049000017,None,592.4968049000017,None,592.4968049000017,None,592.4968049000017,None,592.4968049000017,None,35,58,41,46,46,51,None,None,None,None,None,None,None,None,None,None,None,None,60,595.0181921999974,None,595.0181921999974,None,595.0181921999974,None,595.0181921999974,None,595.0181921999974,None,595.0181921999974,None,595.0181921999974,None,60,595.0181921999974,None,0.175,-0.30925925925925923,1,0,0,6.044406900000467,tijiao,0.010174840004765429,None,-0.2,0,None,None,None,None,None,None,None,None,None,None,None,None,,None,None,None,None,None,None,10.074074074074074,3.2991751000008662,601.0958331000002,None,601.0958331000002,None,601.0958331000002,None,601.0958331000002,None,None,None,604.4093775000001,None,,,,,,,,,225,F,19,2023_Mar_19_1632,RL,2021.2.3,60.10991699582852,
0,0.3,0.225,0,41,41,41,,,,,,,,,,,,,,,None,None,None,None,None,606.2554086000018,None,606.2554086000018,None,606.2554086000018,None,606.2554086000018,None,j,0.3661033000025782,606.2554086000018,None,606.2554086000018,None,606.6493241999997,None,606.6493241999997,None,606.6493241999997,None,606.6493241999997,None,606.6493241999997,None,606.6493241999997,None,606.9372896999994,None,606.9372896999994,None,608.121192700004,None,608.121192700004,None,608.121192700004,None,608.121192700004,None,608.121192700004,None,608.121192700004,None,608.121192700004,None,608.121192700004,None,608.121192700004,None,35,51,39,54,54,53,None,None,None,None,None,None,None,None,None,None,None,None,54,610.6398345999987,None,610.6398345999987,None,610.6398345999987,None,610.6398345999987,None,610.6398345999987,None,610.6398345999987,None,610.6398345999987,None,54,610.6398345999987,None,0.10185185185185185,-0.2953703703703704,1,0,0,5.34749759999977,tijiao,0.01154223999765236,None,-0.2,0,None,None,None,None,None,None,None,None,None,None,None,None,,None,None,None,None,None,None,9.055555555555555,2.4696758999998565,616.0207585000026,None,616.0207585000026,None,616.0207585000026,None,616.0207585000026,None,None,None,618.5043764000002,None,,,,,,,,,225,F,19,2023_Mar_19_1632,RL,2021.2.3,60.10991699582852,
1,-0.3,-0.225,0,42,42,42,,,,,,,,,,,,,,,None,None,None,None,None,620.050777299999,None,620.050777299999,None,620.050777299999,None,620.050777299999,None,j,0.5471783999964828,620.050777299999,None,620.050777299999,None,620.6264114000005,None,620.6264114000005,None,620.6264114000005,None,620.6264114000005,None,620.6264114000005,None,620.6264114000005,None,620.9154656000028,622.5775710000016,620.9154656000028,622.5775710000016,622.5986797000005,None,622.5986797000005,None,622.5986797000005,None,622.5986797000005,None,622.5986797000005,None,622.5986797000005,None,622.5986797000005,None,622.5986797000005,None,622.5986797000005,None,42,54,43,51,51,50,625.1091617999991,None,5.0,2.8003810999944108,625.1091617999991,None,625.1091617999991,None,625.1091617999991,None,625.1091617999991,None,,None,None,None,None,None,None,None,None,None,None,None,None,None,None,,None,None,,,,,,,,None,None,-0.6,2,None,None,None,None,None,None,None,None,None,None,None,None,,None,None,None,None,None,None,None,None,None,None,None,None,None,None,None,None,None,None,627.9592580000026,None,,,,,,,,,225,F,19,2023_Mar_19_1632,RL,2021.2.3,60.10991699582852,
0,0.3,0.225,0,43,43,43,,,,,,,,,,,,,,,None,None,None,None,None,629.5415961000035,None,629.5415961000035,None,629.5415961000035,None,629.5415961000035,None,j,0.5226270000057411,629.5415961000035,None,629.5415961000035,None,630.1026032000009,None,630.1026032000009,None,630.1026032000009,None,630.1026032000009,None,630.1026032000009,None,630.1026032000009,None,630.3897576000018,None,630.3897576000018,None,631.9219136000029,None,631.9219136000029,None,631.9219136000029,None,631.9219136000029,None,631.9219136000029,None,631.9219136000029,None,631.9219136000029,None,631.9219136000029,None,631.9219136000029,None,40,53,38,44,44,47,None,None,None,None,None,None,None,None,None,None,None,None,39,634.4448319000003,None,634.4448319000003,None,634.4448319000003,None,634.4448319000003,None,634.4448319000003,None,634.4448319000003,None,634.4448319000003,None,39,634.4448319000003,None,-0.03518518518518519,-0.29074074074074074,1,0,0,6.175752100003592,tijiao,0.008777939990977757,None,0.2,0,None,None,None,None,None,None,None,None,None,None,None,None,,None,None,None,None,None,None,9.99074074074074,4.396058699996502,640.654063300004,None,640.654063300004,None,640.654063300004,None,640.654063300004,None,None,None,645.0650230000028,None,,,,,,,,,225,F,19,2023_Mar_19_1632,RL,2021.2.3,60.10991699582852,
1,-0.3,-0.225,0,44,44,44,,,,,,,,,,,,,,,None,None,None,None,None,646.8446331000014,None,646.8446331000014,None,646.8446331000014,None,646.8446331000014,None,j,0.409580300001835,646.8446331000014,None,646.8446331000014,None,647.287714799997,None,647.287714799997,None,647.287714799997,None,647.287714799997,None,647.287714799997,None,647.287714799997,None,647.5762054000006,648.7563537000024,647.5762054000006,648.7563537000024,648.7772946999976,None,648.7772946999976,None,648.7772946999976,None,648.7772946999976,None,648.7772946999976,None,648.7772946999976,None,648.7772946999976,None,648.7772946999976,None,648.7772946999976,None,33,57,34,53,53,48,None,None,None,None,None,None,None,None,None,None,None,None,40,651.2980097000036,None,651.2980097000036,None,651.2980097000036,None,651.2980097000036,None,651.2980097000036,None,651.2980097000036,None,651.2980097000036,None,40,651.2980097000036,None,0.022222222222222223,-0.24351851851851852,1,0,0,0.17733609999413602,tijiao,0.010018439992563799,None,0.2,0,None,None,None,None,None,None,None,None,None,None,None,None,,None,None,None,None,None,None,7.064814814814815,2.800946200004546,659.5358746999991,None,659.5358746999991,None,659.5358746999991,None,659.5358746999991,None,None,None,662.3511205000032,None,,,,,,,,,225,F,19,2023_Mar_19_1632,RL,2021.2.3,60.10991699582852,
0,0.3,0.225,0,45,45,45,,,,,,,,,,,,,,,None,None,None,None,None,663.8646603000016,None,663.8646603000016,None,663.8646603000016,None,663.8646603000016,None,i,0.6917959999991581,663.8646603000016,None,663.8646603000016,None,664.5910592,None,664.5910592,None,664.5910592,None,664.5910592,None,664.5910592,None,664.5910592,None,664.8789831000031,666.8232696999985,664.8789831000031,666.8232696999985,666.845588199998,None,666.845588199998,None,666.845588199998,None,666.845588199998,None,666.845588199998,None,666.845588199998,None,666.845588199998,None,666.845588199998,None,666.845588199998,None,43,58,38,51,38,50,None,None,None,None,None,None,None,None,None,None,None,None,54,669.3680494,None,669.3680494,None,669.3680494,None,669.3680494,None,669.3680494,None,669.3680494,None,669.3680494,None,54,669.3680494,None,-0.020370370370370372,-0.3148148148148148,1,0,0,6.2086304999975255,tijiao,0.008255439999629743,None,-0.2,0,None,None,None,None,None,None,None,None,None,None,None,None,,None,None,None,None,None,None,9.00925925925926,2.75133569999889,675.608003100002,None,675.608003100002,None,675.608003100002,None,675.608003100002,None,None,None,678.3741121999992,None,,,,,,,,,225,F,19,2023_Mar_19_1632,RL,2021.2.3,60.10991699582852,
1,-0.3,-0.225,0,46,46,46,,,,,,,,,,,,,,,None,None,None,None,None,680.1200921999989,None,680.1200921999989,None,680.1200921999989,None,680.1200921999989,None,j,0.5361556999996537,680.1200921999989,None,680.1200921999989,None,680.6973403000011,None,680.6973403000011,None,680.6973403000011,None,680.6973403000011,None,680.6973403000011,None,680.6973403000011,None,680.984644199998,682.281358100001,680.984644199998,682.281358100001,682.3014891999992,None,682.3014891999992,None,682.3014891999992,None,682.3014891999992,None,682.3014891999992,None,682.3014891999992,None,682.3014891999992,None,682.3014891999992,None,682.3014891999992,None,46,61,31,51,51,41,684.8139402000015,None,6.0,4.893049499994959,684.8139402000015,None,684.8139402000015,None,684.8139402000015,None,684.8139402000015,None,,None,None,None,None,None,None,None,None,None,None,None,None,None,None,,None,None,,,,,,,,None,None,0.6,3,None,None,None,None,None,None,None,None,None,None,None,None,,None,None,None,None,None,None,None,None,None,None,None,None,None,None,None,None,None,None,689.7563652000026,None,,,,,,,,,225,F,19,2023_Mar_19_1632,RL,2021.2.3,60.10991699582852,
0,0.3,0.225,0,47,47,47,,,,,,,,,,,,,,,None,None,None,None,None,691.3735462999975,None,691.3735462999975,None,691.3735462999975,None,691.3735462999975,None,j,0.9162739999956102,691.3735462999975,None,691.3735462999975,None,692.3322453000001,None,692.3322453000001,None,692.3322453000001,None,692.3322453000001,None,692.3322453000001,None,692.3322453000001,None,692.6194319999995,694.4312073000037,692.6194319999995,694.4312073000037,694.4512189000015,None,694.4512189000015,None,694.4512189000015,None,694.4512189000015,None,694.4512189000015,None,694.4512189000015,None,694.4512189000015,None,694.4512189000015,None,694.4512189000015,None,41,56,34,55,55,34,696.9606484000033,None,6.0,1.8049159000001964,696.9606484000033,None,696.9606484000033,None,696.9606484000033,None,696.9606484000033,None,,None,None,None,None,None,None,None,None,None,None,None,None,None,None,,None,None,,,,,,,,None,None,0.2,2,None,None,None,None,None,None,None,None,None,None,None,None,,None,None,None,None,None,None,None,None,None,None,None,None,None,None,None,None,None,None,698.8205540999988,None,,,,,,,,,225,F,19,2023_Mar_19_1632,RL,2021.2.3,60.10991699582852,
1,-0.3,-0.225,0,48,48,48,,,,,,,,,,,,,,,None,None,None,None,None,700.6142070999995,None,700.6142070999995,None,700.6142070999995,None,700.6142070999995,None,j,0.4725728999983403,700.6142070999995,None,700.6142070999995,None,701.1220506000027,None,701.1220506000027,None,701.1220506000027,None,701.1220506000027,None,701.1220506000027,None,701.1220506000027,None,701.4126658000023,702.6254400999969,701.4126658000023,702.6254400999969,702.6472359000036,None,702.6472359000036,None,702.6472359000036,None,702.6472359000036,None,702.6472359000036,None,702.6472359000036,None,702.6472359000036,None,702.6472359000036,None,702.6472359000036,None,39,53,27,53,53,52,705.1580308999983,None,6.0,2.1018565999984276,705.1580308999983,None,705.1580308999983,None,705.1580308999983,None,705.1580308999983,None,,None,None,None,None,None,None,None,None,None,None,None,None,None,None,,None,None,,,,,,,,None,None,-0.6,3,None,None,None,None,None,None,None,None,None,None,None,None,,None,None,None,None,None,None,None,None,None,None,None,None,None,None,None,None,None,None,707.3098317999975,None,,,,,,,,,225,F,19,2023_Mar_19_1632,RL,2021.2.3,60.10991699582852,
0,0.3,0.225,0,49,49,49,,,,,,,,,,,,,,,None,None,None,None,None,709.0579903999969,None,709.0579903999969,None,709.0579903999969,None,709.0579903999969,None,j,0.4260368000032031,709.0579903999969,None,709.0579903999969,None,709.5164178999985,None,709.5164178999985,None,709.5164178999985,None,709.5164178999985,None,709.5164178999985,None,709.5164178999985,None,709.8063613999984,711.0860383000036,709.8063613999984,711.0860383000036,711.1064426000012,None,711.1064426000012,None,711.1064426000012,None,711.1064426000012,None,711.1064426000012,None,711.1064426000012,None,711.1064426000012,None,711.1064426000012,None,711.1064426000012,None,46,59,31,41,41,45,None,None,None,None,None,None,None,None,None,None,None,None,30,713.626445599999,None,713.626445599999,None,713.626445599999,None,713.626445599999,None,713.626445599999,None,713.626445599999,None,713.626445599999,None,30,713.626445599999,None,0.15925925925925927,-0.25833333333333336,1,0,0,4.882209600000351,tijiao,0.01126574000227265,None,0.2,0,None,None,None,None,None,None,None,None,None,None,None,None,,None,None,None,None,None,None,10.092592592592592,4.329852499999106,718.5417364000023,None,718.5417364000023,None,718.5417364000023,None,718.5417364000023,None,None,None,722.8860155000002,None,,,,,,,,,225,F,19,2023_Mar_19_1632,RL,2021.2.3,60.10991699582852,
1,-0.3,-0.225,0,50,50,50,,,,,,,,,,,,,,,None,None,None,None,None,724.7652820000003,None,724.7652820000003,None,724.7652820000003,None,724.7652820000003,None,j,0.5833843000000343,724.7652820000003,None,724.7652820000003,None,725.3740605999992,None,725.3740605999992,None,725.3740605999992,None,725.3740605999992,None,725.3740605999992,None,725.3740605999992,None,725.6631333000041,727.5907063999985,725.6631333000041,727.5907063999985,727.6112987000015,None,727.6112987000015,None,727.6112987000015,None,727.6112987000015,None,727.6112987000015,None,727.6112987000015,None,727.6112987000015,None,727.6112987000015,None,727.6112987000015,None,38,59,23,32,32,52,730.1220042999994,None,7.0,2.318618700002844,730.1220042999994,None,730.1220042999994,None,730.1220042999994,None,730.1220042999994,None,,None,None,None,None,None,None,None,None,None,None,None,None,None,None,,None,None,,,,,,,,None,None,-0.2,2,None,None,None,None,None,None,None,None,None,None,None,None,,None,None,None,None,None,None,None,None,None,None,None,None,None,None,None,None,None,None,732.4906459999984,None,,,,,,,,,225,F,19,2023_Mar_19_1632,RL,2021.2.3,60.10991699582852,
0,0.3,0.225,0,51,51,51,,,,,,,,,,,,,,,None,None,None,None,None,734.1893943000032,None,734.1893943000032,None,734.1893943000032,None,734.1893943000032,None,j,0.4964765000040643,734.1893943000032,None,734.1893943000032,None,734.7165669000024,None,734.7165669000024,None,734.7165669000024,None,734.7165669000024,None,734.7165669000024,None,734.7165669000024,None,735.0038179000039,None,735.0038179000039,None,735.9215901999996,None,735.9215901999996,None,735.9215901999996,None,735.9215901999996,None,735.9215901999996,None,735.9215901999996,None,735.9215901999996,None,735.9215901999996,None,735.9215901999996,None,41,67,36,47,47,49,None,None,None,None,None,None,None,None,None,None,None,None,54,738.4430934999982,None,738.4430934999982,None,738.4430934999982,None,738.4430934999982,None,738.4430934999982,None,738.4430934999982,None,738.4430934999982,None,54,738.4430934999982,None,0.002777777777777778,-0.2712962962962963,1,0,0,6.210660200005805,tijiao,0.01062973999796668,None,-0.6,0,None,None,None,None,None,None,None,None,None,None,None,None,,None,None,None,None,None,None,9.944444444444443,3.064299999998184,744.6888285000023,None,744.6888285000023,None,744.6888285000023,None,744.6888285000023,None,None,None,747.7679341000039,None,,,,,,,,,225,F,19,2023_Mar_19_1632,RL,2021.2.3,60.10991699582852,
1,-0.3,-0.225,0,52,52,52,,,,,,,,,,,,,,,None,None,None,None,None,749.6648131999973,None,749.6648131999973,None,749.6648131999973,None,749.6648131999973,None,j,0.4722613999983878,749.6648131999973,None,749.6648131999973,None,750.1732919999995,None,750.1732919999995,None,750.1732919999995,None,750.1732919999995,None,750.1732919999995,None,750.1732919999995,None,750.462016999998,751.3258752999973,750.462016999998,751.3258752999973,751.3460516999985,None,751.3460516999985,None,751.3460516999985,None,751.3460516999985,None,751.3460516999985,None,751.3460516999985,None,751.3460516999985,None,751.3460516999985,None,751.3460516999985,None,55,51,28,39,39,47,753.8549236000035,None,3.0,7.240819500002544,753.8549236000035,None,753.8549236000035,None,753.8549236000035,None,753.8549236000035,None,,None,None,None,None,None,None,None,None,None,None,None,None,None,None,,None,None,,,,,,,,None,None,0.6,3,None,None,None,None,None,None,None,None,None,None,None,None,,None,None,None,None,None,None,None,None,None,None,None,None,None,None,None,None,None,None,761.1449644000022,None,,,,,,,,,225,F,19,2023_Mar_19_1632,RL,2021.2.3,60.10991699582852,
0,0.3,0.225,0,53,53,53,,,,,,,,,,,,,,,None,None,None,None,None,762.9939806000039,None,762.9939806000039,None,762.9939806000039,None,762.9939806000039,None,i,0.4303953000053298,762.9939806000039,None,762.9939806000039,None,763.4524466000003,None,763.4524466000003,None,763.4524466000003,None,763.4524466000003,None,763.4524466000003,None,763.4524466000003,None,763.7422998000038,None,763.7422998000038,None,764.9085245000024,None,764.9085245000024,None,764.9085245000024,None,764.9085245000024,None,764.9085245000024,None,764.9085245000024,None,764.9085245000024,None,764.9085245000024,None,764.9085245000024,None,50,53,34,42,34,33,767.4208339000033,None,3.0,1.90220589999808,767.4208339000033,None,767.4208339000033,None,767.4208339000033,None,767.4208339000033,None,,None,None,None,None,None,None,None,None,None,None,None,None,None,None,,None,None,,,,,,,,None,None,0.2,3,None,None,None,None,None,None,None,None,None,None,None,None,,None,None,None,None,None,None,None,None,None,None,None,None,None,None,None,None,None,None,769.3713525999992,None,,,,,,,,,225,F,19,2023_Mar_19_1632,RL,2021.2.3,60.10991699582852,
1,-0.3,-0.225,0,54,54,54,,,,,,,,,,,,,,,None,None,None,None,None,771.0551525999981,None,771.0551525999981,None,771.0551525999981,None,771.0551525999981,None,j,0.561793700006092,771.0551525999981,None,771.0551525999981,None,771.6479139000003,None,771.6479139000003,None,771.6479139000003,None,771.6479139000003,None,771.6479139000003,None,771.6479139000003,None,771.9366940000036,773.3491358000028,771.9366940000036,773.3491358000028,773.3697573000027,None,773.3697573000027,None,773.3697573000027,None,773.3697573000027,None,773.3697573000027,None,773.3697573000027,None,773.3697573000027,None,773.3697573000027,None,773.3697573000027,None,44,51,22,45,45,60,None,None,None,None,None,None,None,None,None,None,None,None,,None,None,None,None,None,None,None,None,None,None,None,None,None,None,,None,None,,,,,,,,None,None,-0.2,1,775.9061750999972,None,775.9061750999972,None,775.9061750999972,None,775.9061750999972,None,775.9061750999972,None,775.9061750999972,None,35,775.9061750999972,None,775.9061750999972,None,0.011666209997201804,None,4.972222222222222,4.542512299994996,784.282160900002,None,784.282160900002,None,784.282160900002,None,784.282160900002,None,None,None,788.8392237000007,None,-0.0787037037037037,-0.30277777777777776,1,0,0,8.355880299997807,tijiao,,225,F,19,2023_Mar_19_1632,RL,2021.2.3,60.10991699582852,
0,0.3,0.225,0,55,55,55,,,,,,,,,,,,,,,None,None,None,None,None,790.6018299999996,None,790.6018299999996,None,790.6018299999996,None,790.6018299999996,None,f,0.32706279999547405,790.6018299999996,None,790.6018299999996,None,790.9642029000024,None,790.9642029000024,None,790.9642029000024,None,790.9642029000024,None,790.9642029000024,None,790.9642029000024,None,791.2503432000012,792.6131749999986,791.2503432000012,792.6131749999986,792.6339344000007,None,792.6339344000007,None,792.6339344000007,None,792.6339344000007,None,792.6339344000007,None,792.6339344000007,None,792.6339344000007,None,792.6339344000007,None,792.6339344000007,None,39,55,27,47,55,46,795.1457190000001,None,7.0,3.250373499999114,795.1457190000001,None,795.1457190000001,None,795.1457190000001,None,795.1457190000001,None,,None,None,None,None,None,None,None,None,None,None,None,None,None,None,,None,None,,,,,,,,None,None,-0.2,3,None,None,None,None,None,None,None,None,None,None,None,None,,None,None,None,None,None,None,None,None,None,None,None,None,None,None,None,None,None,None,798.4431774000041,None,,,,,,,,,225,F,19,2023_Mar_19_1632,RL,2021.2.3,60.10991699582852,
1,-0.3,-0.225,0,56,56,56,,,,,,,,,,,,,,,None,None,None,None,None,800.2589589999989,None,800.2589589999989,None,800.2589589999989,None,800.2589589999989,None,r,0.5109822000013082,800.2589589999989,None,800.2589589999989,None,800.801360999998,None,800.801360999998,None,800.801360999998,None,800.801360999998,None,800.801360999998,None,800.801360999998,None,801.0905998000017,None,801.0905998000017,None,802.8563417000041,None,802.8563417000041,None,802.8563417000041,None,802.8563417000041,None,802.8563417000041,None,802.8563417000041,None,802.8563417000041,None,802.8563417000041,None,802.8563417000041,None,54,53,34,46,54,71,None,None,None,None,None,None,None,None,None,None,None,None,67,805.3797680999996,None,805.3797680999996,None,805.3797680999996,None,805.3797680999996,None,805.3797680999996,None,805.3797680999996,None,805.3797680999996,None,67,805.3797680999996,None,-0.11296296296296296,-0.2222222222222222,1,0,0,6.557837000000291,tijiao,0.007447340001817793,None,-0.2,0,None,None,None,None,None,None,None,None,None,None,None,None,,None,None,None,None,None,None,7.981481481481482,2.850917199997639,814.4458226999996,None,814.4458226999996,None,814.4458226999996,None,814.4458226999996,None,None,None,817.3113908000014,None,,,,,,,,,225,F,19,2023_Mar_19_1632,RL,2021.2.3,60.10991699582852,
0,0.3,0.225,0,57,57,57,,,,,,,,,,,,,,,None,None,None,None,None,818.9082458999983,None,818.9082458999983,None,818.9082458999983,None,818.9082458999983,None,f,0.4938220999974874,818.9082458999983,None,818.9082458999983,None,819.4334797999982,None,819.4334797999982,None,819.4334797999982,None,819.4334797999982,None,819.4334797999982,None,819.4334797999982,None,819.7228493000002,821.7169649999996,819.7228493000002,821.7169649999996,821.737855600004,None,821.737855600004,None,821.737855600004,None,821.737855600004,None,821.737855600004,None,821.737855600004,None,821.737855600004,None,821.737855600004,None,821.737855600004,None,41,49,31,45,49,59,None,None,None,None,None,None,None,None,None,None,None,None,,None,None,None,None,None,None,None,None,None,None,None,None,None,None,,None,None,,,,,,,,None,None,0.2,1,824.275401699997,None,824.275401699997,None,824.275401699997,None,824.275401699997,None,824.275401699997,None,824.275401699997,None,78,824.275401699997,None,824.275401699997,None,0.011124710006697569,None,8.87962962962963,3.726364199996169,829.5601588999998,None,829.5601588999998,None,829.5601588999998,None,829.5601588999998,None,None,None,833.3012626999989,None,0.05462962962962963,-0.3074074074074074,1,0,0,5.264184100000421,tijiao,,225,F,19,2023_Mar_19_1632,RL,2021.2.3,60.10991699582852,
1,-0.3,-0.225,0,58,58,58,,,,,,,,,,,,,,,None,None,None,None,None,835.0141345000011,None,835.0141345000011,None,835.0141345000011,None,835.0141345000011,None,i,0.25713120000000345,835.0141345000011,None,835.0141345000011,None,835.3071664000017,None,835.3071664000017,None,835.3071664000017,None,835.3071664000017,None,835.3071664000017,None,835.3071664000017,None,835.5959779999976,837.2414652000007,835.5959779999976,837.2414652000007,837.2618035999985,None,837.2618035999985,None,837.2618035999985,None,837.2618035999985,None,837.2618035999985,None,837.2618035999985,None,837.2618035999985,None,837.2618035999985,None,837.2618035999985,None,34,53,25,44,25,66,None,None,None,None,None,None,None,None,None,None,None,None,,None,None,None,None,None,None,None,None,None,None,None,None,None,None,,None,None,,,,,,,,None,None,-0.6,1,839.7978809999986,None,839.7978809999986,None,839.7978809999986,None,839.7978809999986,None,839.7978809999986,None,839.7978809999986,None,49,839.7978809999986,None,839.7978809999986,None,0.011205410002730787,None,6.851851851851851,4.460165999997116,851.2988637000017,None,851.2988637000017,None,851.2988637000017,None,851.2988637000017,None,None,None,855.773051199998,None,0.08518518518518518,-0.29907407407407405,1,0,0,11.480152700001781,tijiao,,225,F,19,2023_Mar_19_1632,RL,2021.2.3,60.10991699582852,
0,0.3,0.225,0,59,59,59,,,,,,,,,,,,,,,None,None,None,None,None,857.785355699998,None,857.785355699998,None,857.785355699998,None,857.785355699998,None,r,0.26511570000002393,857.785355699998,None,857.785355699998,None,858.0794494000002,None,858.0794494000002,None,858.0794494000002,None,858.0794494000002,None,858.0794494000002,None,858.0794494000002,None,858.3670993999986,860.3119877999998,858.3670993999986,860.3119877999998,860.3322056000034,None,860.3322056000034,None,860.3322056000034,None,860.3322056000034,None,860.3322056000034,None,860.3322056000034,None,860.3322056000034,None,860.3322056000034,None,860.3322056000034,None,39,47,36,38,39,64,None,None,None,None,None,None,None,None,None,None,None,None,34,862.8555093000032,None,862.8555093000032,None,862.8555093000032,None,862.8555093000032,None,862.8555093000032,None,862.8555093000032,None,862.8555093000032,None,34,862.8555093000032,None,-0.03611111111111111,-0.287962962962963,1,0,0,4.713653699996939,tijiao,0.009629139996832237,None,0.2,0,None,None,None,None,None,None,None,None,None,None,None,None,,None,None,None,None,None,None,8.925925925925926,4.148744099999021,867.6057877999992,None,867.6057877999992,None,867.6057877999992,None,867.6057877999992,None,None,None,871.7627393000002,None,,,,,,,,,225,F,19,2023_Mar_19_1632,RL,2021.2.3,60.10991699582852,
1,-0.3,-0.225,0,60,60,60,,,,,,,,,,,,,,,None,None,None,None,None,873.6586756000033,None,873.6586756000033,None,873.6586756000033,None,873.6586756000033,None,r,0.2556618999951752,873.6586756000033,None,873.6586756000033,None,873.9525986000008,None,873.9525986000008,None,873.9525986000008,None,873.9525986000008,None,873.9525986000008,None,873.9525986000008,None,874.2407806999981,None,874.2407806999981,None,875.3406631000034,None,875.3406631000034,None,875.3406631000034,None,875.3406631000034,None,875.3406631000034,None,875.3406631000034,None,875.3406631000034,None,875.3406631000034,None,875.3406631000034,None,42,50,34,44,42,65,None,None,None,None,None,None,None,None,None,None,None,None,,None,None,None,None,None,None,None,None,None,None,None,None,None,None,,None,None,,,,,,,,None,None,-0.2,1,877.8769485000012,None,877.8769485000012,None,877.8769485000012,None,877.8769485000012,None,877.8769485000012,None,877.8769485000012,None,52,877.8769485000012,None,877.8769485000012,None,0.013482910006132443,None,4.907407407407407,2.9469086000026437,891.5076517999987,None,891.5076517999987,None,891.5076517999987,None,891.5076517999987,None,None,None,894.4674894999989,None,0.07777777777777778,-0.29907407407407405,1,0,0,13.610266700001375,tijiao,,225,F,19,2023_Mar_19_1632,RL,2021.2.3,60.10991699582852,
0,0.3,0.225,0,61,61,61,,,,,,,,,,,,,,,None,None,None,None,None,896.1971166000003,None,896.1971166000003,None,896.1971166000003,None,896.1971166000003,None,f,0.3858308999988367,896.1971166000003,None,896.1971166000003,None,896.6230282000033,None,896.6230282000033,None,896.6230282000033,None,896.6230282000033,None,896.6230282000033,None,896.6230282000033,None,896.9122496999989,898.2081219000029,896.9122496999989,898.2081219000029,898.2291551000017,None,898.2291551000017,None,898.2291551000017,None,898.2291551000017,None,898.2291551000017,None,898.2291551000017,None,898.2291551000017,None,898.2291551000017,None,898.2291551000017,None,45,47,41,38,47,39,None,None,None,None,None,None,None,None,None,None,None,None,45,900.751935799999,None,900.751935799999,None,900.751935799999,None,900.751935799999,None,900.751935799999,None,900.751935799999,None,900.751935799999,None,45,900.751935799999,None,-0.12314814814814815,-0.30925925925925923,1,0,0,7.721264500003599,tijiao,0.008541339993826114,None,0.6,0,None,None,None,None,None,None,None,None,None,None,None,None,,None,None,None,None,None,None,7.0092592592592595,2.8010311999969417,908.5059668000031,None,908.5059668000031,None,908.5059668000031,None,908.5059668000031,None,None,None,911.3212509000005,None,,,,,,,,,225,F,19,2023_Mar_19_1632,RL,2021.2.3,60.10991699582852,
1,-0.3,-0.225,0,62,62,62,,,,,,,,,,,,,,,None,None,None,None,None,913.1342989999976,None,913.1342989999976,None,913.1342989999976,None,913.1342989999976,None,f,0.5021230000056676,913.1342989999976,None,913.1342989999976,None,913.676355100004,None,913.676355100004,None,913.676355100004,None,913.676355100004,None,913.676355100004,None,913.676355100004,None,913.9652614000006,914.796222500001,913.9652614000006,914.796222500001,914.8175095999977,None,914.8175095999977,None,914.8175095999977,None,914.8175095999977,None,914.8175095999977,None,914.8175095999977,None,914.8175095999977,None,914.8175095999977,None,914.8175095999977,None,44,46,49,43,46,65,917.3275796000016,None,5.0,2.0203946999972686,917.3275796000016,None,917.3275796000016,None,917.3275796000016,None,917.3275796000016,None,,None,None,None,None,None,None,None,None,None,None,None,None,None,None,,None,None,,,,,,,,None,None,-0.2,3,None,None,None,None,None,None,None,None,None,None,None,None,,None,None,None,None,None,None,None,None,None,None,None,None,None,None,None,None,None,None,919.3979629000023,None,,,,,,,,,225,F,19,2023_Mar_19_1632,RL,2021.2.3,60.10991699582852,
0,0.3,0.225,0,63,63,63,,,,,,,,,,,,,,,None,None,None,None,None,921.2453743000005,None,921.2453743000005,None,921.2453743000005,None,921.2453743000005,None,f,0.6291753999976208,921.2453743000005,None,921.2453743000005,None,921.9042045000024,None,921.9042045000024,None,921.9042045000024,None,921.9042045000024,None,921.9042045000024,None,921.9042045000024,None,922.1931698999979,924.0380243999971,922.1931698999979,924.0380243999971,924.059110299997,None,924.059110299997,None,924.059110299997,None,924.059110299997,None,924.059110299997,None,924.059110299997,None,924.059110299997,None,924.059110299997,None,924.059110299997,None,51,44,49,39,44,48,926.5691492000042,None,6.0,2.4514541999960784,926.5691492000042,None,926.5691492000042,None,926.5691492000042,None,926.5691492000042,None,,None,None,None,None,None,None,None,None,None,None,None,None,None,None,,None,None,,,,,,,,None,None,-0.6,3,None,None,None,None,None,None,None,None,None,None,None,None,,None,None,None,None,None,None,None,None,None,None,None,None,None,None,None,None,None,None,929.073111800004,None,,,,,,,,,225,F,19,2023_Mar_19_1632,RL,2021.2.3,60.10991699582852,
1,-0.3,-0.225,0,64,64,64,,,,,,,,,,,,,,,None,None,None,None,None,930.9352895999982,None,930.9352895999982,None,930.9352895999982,None,930.9352895999982,None,f,0.7490030999979354,930.9352895999982,None,930.9352895999982,None,931.7105322999996,None,931.7105322999996,None,931.7105322999996,None,931.7105322999996,None,931.7105322999996,None,931.7105322999996,None,931.9993947999974,932.9799448999984,931.9993947999974,932.9799448999984,933.0020902000033,None,933.0020902000033,None,933.0020902000033,None,933.0020902000033,None,933.0020902000033,None,933.0020902000033,None,933.0020902000033,None,933.0020902000033,None,933.0020902000033,None,47,53,47,46,53,61,None,None,None,None,None,None,None,None,None,None,None,None,64,935.5217559000012,None,935.5217559000012,None,935.5217559000012,None,935.5217559000012,None,935.5217559000012,None,935.5217559000012,None,935.5217559000012,None,64,935.5217559000012,None,0.023148148148148147,-0.325,1,0,0,9.301867099995434,tijiao,0.00940813999477541,None,0.6,0,None,None,None,None,None,None,None,None,None,None,None,None,,None,None,None,None,None,None,8.953703703703704,2.6329633999994257,944.8585201000024,None,944.8585201000024,None,944.8585201000024,None,944.8585201000024,None,None,None,947.5061226999969,None,,,,,,,,,225,F,19,2023_Mar_19_1632,RL,2021.2.3,60.10991699582852,
0,0.3,0.225,0,65,65,65,,,,,,,,,,,,,,,None,None,None,None,None,949.1191885000007,None,949.1191885000007,None,949.1191885000007,None,949.1191885000007,None,f,0.4472574999963399,949.1191885000007,None,949.1191885000007,None,949.5949986999985,None,949.5949986999985,None,949.5949986999985,None,949.5949986999985,None,949.5949986999985,None,949.5949986999985,None,949.8841911999989,None,949.8841911999989,None,951.267772799998,None,951.267772799998,None,951.267772799998,None,951.267772799998,None,951.267772799998,None,951.267772799998,None,951.267772799998,None,951.267772799998,None,951.267772799998,None,40,48,45,41,48,49,953.7785411000004,None,6.0,3.8315847999983816,953.7785411000004,None,953.7785411000004,None,953.7785411000004,None,953.7785411000004,None,,None,None,None,None,None,None,None,None,None,None,None,None,None,None,,None,None,,,,,,,,None,None,-0.6,3,None,None,None,None,None,None,None,None,None,None,None,None,,None,None,None,None,None,None,None,None,None,None,None,None,None,None,None,None,None,None,957.6604873000033,None,,,,,,,,,225,F,19,2023_Mar_19_1632,RL,2021.2.3,60.10991699582852,
1,-0.3,-0.225,0,66,66,66,,,,,,,,,,,,,,,None,None,None,None,None,959.5572938000041,None,959.5572938000041,None,959.5572938000041,None,959.5572938000041,None,f,0.6888505999959307,959.5572938000041,None,959.5572938000041,None,960.2812950000007,None,960.2812950000007,None,960.2812950000007,None,960.2812950000007,None,960.2812950000007,None,960.2812950000007,None,960.5715262000012,961.7845716000011,960.5715262000012,961.7845716000011,961.8051887999973,None,961.8051887999973,None,961.8051887999973,None,961.8051887999973,None,961.8051887999973,None,961.8051887999973,None,961.8051887999973,None,961.8051887999973,None,961.8051887999973,None,37,54,40,48,54,47,964.3184401000035,None,4.0,3.562294800001837,964.3184401000035,None,964.3184401000035,None,964.3184401000035,None,964.3184401000035,None,,None,None,None,None,None,None,None,None,None,None,None,None,None,None,,None,None,,,,,,,,None,None,0.2,3,None,None,None,None,None,None,None,None,None,None,None,None,,None,None,None,None,None,None,None,None,None,None,None,None,None,None,None,None,None,None,967.9301487999983,None,,,,,,,,,225,F,19,2023_Mar_19_1632,RL,2021.2.3,60.10991699582852,
0,0.3,0.225,0,67,67,67,,,,,,,,,,,,,,,None,None,None,None,None,969.6460928000015,None,969.6460928000015,None,969.6460928000015,None,969.6460928000015,None,None,,969.6460928000015,None,969.6460928000015,None,None,None,None,None,None,None,None,None,None,None,None,None,None,None,None,None,None,None,None,None,None,None,None,None,None,None,None,None,None,None,None,None,None,None,37,50,36,43,0,**,None,None,None,None,None,None,None,None,None,None,None,None,,None,None,None,None,None,None,None,None,None,None,None,None,None,None,,None,None,,,,,,,,None,None,0.6,1,None,None,None,None,None,None,None,None,None,None,None,None,,None,None,None,None,None,None,None,None,None,None,None,None,None,None,None,None,971.2184208000035,None,975.7291078999988,None,,,,,,,,,225,F,19,2023_Mar_19_1632,RL,2021.2.3,60.10991699582852,
1,-0.3,-0.225,0,68,68,68,,,,,,,,,,,,,,,None,None,None,None,None,977.6414057000002,None,977.6414057000002,None,977.6414057000002,None,977.6414057000002,None,f,0.5283972999968682,977.6414057000002,None,977.6414057000002,None,978.2010295,None,978.2010295,None,978.2010295,None,978.2010295,None,978.2010295,None,978.2010295,None,978.4895555000039,980.0015628000037,978.4895555000039,980.0015628000037,980.0225070000015,None,980.0225070000015,None,980.0225070000015,None,980.0225070000015,None,980.0225070000015,None,980.0225070000015,None,980.0225070000015,None,980.0225070000015,None,980.0225070000015,None,47,63,26,49,63,67,982.5308031000022,None,4.0,3.217750399999204,982.5308031000022,None,982.5308031000022,None,982.5308031000022,None,982.5308031000022,None,,None,None,None,None,None,None,None,None,None,None,None,None,None,None,,None,None,,,,,,,,None,None,-0.2,3,None,None,None,None,None,None,None,None,None,None,None,None,,None,None,None,None,None,None,None,None,None,None,None,None,None,None,None,None,None,None,985.798870700004,None,,,,,,,,,225,F,19,2023_Mar_19_1632,RL,2021.2.3,60.10991699582852,
0,0.3,0.225,0,69,69,69,,,,,,,,,,,,,,,None,None,None,None,None,987.7137044999981,None,987.7137044999981,None,987.7137044999981,None,987.7137044999981,None,f,0.46573050000006333,987.7137044999981,None,987.7137044999981,None,988.2080447999979,None,988.2080447999979,None,988.2080447999979,None,988.2080447999979,None,988.2080447999979,None,988.2080447999979,None,988.4953937000028,990.3898935000034,988.4953937000028,990.3898935000034,990.4110466999991,None,990.4110466999991,None,990.4110466999991,None,990.4110466999991,None,990.4110466999991,None,990.4110466999991,None,990.4110466999991,None,990.4110466999991,None,990.4110466999991,None,40,50,33,47,50,33,992.9232616000008,None,5.0,2.6178654999966966,992.9232616000008,None,992.9232616000008,None,992.9232616000008,None,992.9232616000008,None,,None,None,None,None,None,None,None,None,None,None,None,None,None,None,,None,None,,,,,,,,None,None,-0.2,2,None,None,None,None,None,None,None,None,None,None,None,None,,None,None,None,None,None,None,None,None,None,None,None,None,None,None,None,None,None,None,995.5871916000033,None,,,,,,,,,225,F,19,2023_Mar_19_1632,RL,2021.2.3,60.10991699582852,
1,-0.3,-0.225,0,70,70,70,,,,,,,,,,,,,,,None,None,None,None,None,997.2379884999973,None,997.2379884999973,None,997.2379884999973,None,997.2379884999973,None,f,0.49721259999932954,997.2379884999973,None,997.2379884999973,None,997.7638893000039,None,997.7638893000039,None,997.7638893000039,None,997.7638893000039,None,997.7638893000039,None,997.7638893000039,None,998.0526843999978,998.8666570999994,998.0526843999978,998.8666570999994,998.888466299999,None,998.888466299999,None,998.888466299999,None,998.888466299999,None,998.888466299999,None,998.888466299999,None,998.888466299999,None,998.888466299999,None,998.888466299999,None,41,61,27,43,61,78,1001.3980420000007,None,3.0,2.683839100005571,1001.3980420000007,None,1001.3980420000007,None,1001.3980420000007,None,1001.3980420000007,None,,None,None,None,None,None,None,None,None,None,None,None,None,None,None,,None,None,,,,,,,,None,None,0.6,2,None,None,None,None,None,None,None,None,None,None,None,None,,None,None,None,None,None,None,None,None,None,None,None,None,None,None,None,None,None,None,1004.1305149000036,None,,,,,,,,,225,F,19,2023_Mar_19_1632,RL,2021.2.3,60.10991699582852,
0,0.3,0.225,0,71,71,71,,,,,,,,,,,,,,,None,None,None,None,None,1005.9307947999987,None,1005.9307947999987,None,1005.9307947999987,None,1005.9307947999987,None,r,0.24705119999998715,1005.9307947999987,None,1005.9307947999987,None,1006.207392999997,None,1006.207392999997,None,1006.207392999997,None,1006.207392999997,None,1006.207392999997,None,1006.207392999997,None,1006.4960503000038,1008.2082005999982,1006.4960503000038,1008.2082005999982,1008.2289339999988,None,1008.2289339999988,None,1008.2289339999988,None,1008.2289339999988,None,1008.2289339999988,None,1008.2289339999988,None,1008.2289339999988,None,1008.2289339999988,None,1008.2289339999988,None,42,49,30,31,42,63,1010.739969299997,None,4.0,4.696471299997938,1010.739969299997,None,1010.739969299997,None,1010.739969299997,None,1010.739969299997,None,,None,None,None,None,None,None,None,None,None,None,None,None,None,None,,None,None,,,,,,,,None,None,0.2,2,None,None,None,None,None,None,None,None,None,None,None,None,,None,None,None,None,None,None,None,None,None,None,None,None,None,None,None,None,None,None,1015.4828937999991,None,,,,,,,,,225,F,19,2023_Mar_19_1632,RL,2021.2.3,60.10991699582852,
1,-0.3,-0.225,0,72,72,72,,,,,,,,,,,,,,,None,None,None,None,None,1017.0503306000028,None,1017.0503306000028,None,1017.0503306000028,None,1017.0503306000028,None,r,0.45588580000185175,1017.0503306000028,None,1017.0503306000028,None,1017.5421293999971,None,1017.5421293999971,None,1017.5421293999971,None,1017.5421293999971,None,1017.5421293999971,None,1017.5421293999971,None,1017.832161899998,1019.2615936000002,1017.832161899998,1019.2615936000002,1019.2815858000031,None,1019.2815858000031,None,1019.2815858000031,None,1019.2815858000031,None,1019.2815858000031,None,1019.2815858000031,None,1019.2815858000031,None,1019.2815858000031,None,1019.2815858000031,None,48,48,24,40,48,48,None,None,None,None,None,None,None,None,None,None,None,None,69,1021.8064697000009,None,1021.8064697000009,None,1021.8064697000009,None,1021.8064697000009,None,1021.8064697000009,None,1021.8064697000009,None,1021.8064697000009,None,69,1021.8064697000009,None,-0.13333333333333333,-0.2601851851851852,1,0,0,6.539212399999087,tijiao,0.006433340000512544,None,0.6,0,None,None,None,None,None,None,None,None,None,None,None,None,,None,None,None,None,None,None,6.944444444444445,4.430585699999938,1028.3773608999982,None,1028.3773608999982,None,1028.3773608999982,None,1028.3773608999982,None,None,None,1032.8232534999988,None,,,,,,,,,225,F,19,2023_Mar_19_1632,RL,2021.2.3,60.10991699582852,
0,0.3,0.225,0,73,73,73,,,,,,,,,,,,,,,None,None,None,None,None,1034.768639300004,None,1034.768639300004,None,1034.768639300004,None,1034.768639300004,None,f,0.3856946000014432,1034.768639300004,None,1034.768639300004,None,1035.1944599999988,None,1035.1944599999988,None,1035.1944599999988,None,1035.1944599999988,None,1035.1944599999988,None,1035.1944599999988,None,1035.4839483000032,1036.6139550000007,1035.4839483000032,1036.6139550000007,1036.633761600002,None,1036.633761600002,None,1036.633761600002,None,1036.633761600002,None,1036.633761600002,None,1036.633761600002,None,1036.633761600002,None,1036.633761600002,None,1036.633761600002,None,49,46,29,48,46,74,None,None,None,None,None,None,None,None,None,None,None,None,49,1039.1537781000006,None,1039.1537781000006,None,1039.1537781000006,None,1039.1537781000006,None,1039.1537781000006,None,1039.1537781000006,None,1039.1537781000006,None,49,1039.1537781000006,None,0.03333333333333333,-0.2675925925925926,1,0,0,7.542123100000026,tijiao,0.01146963999781292,None,0.2,0,None,None,None,None,None,None,None,None,None,None,None,None,,None,None,None,None,None,None,5.916666666666666,4.72679309999512,1046.730287600003,None,1046.730287600003,None,1046.730287600003,None,1046.730287600003,None,None,None,1051.4720947000023,None,,,,,,,,,225,F,19,2023_Mar_19_1632,RL,2021.2.3,60.10991699582852,
1,-0.3,-0.225,0,74,74,74,,,,,,,,,,,,,,,None,None,None,None,None,1053.367871100003,None,1053.367871100003,None,1053.367871100003,None,1053.367871100003,None,f,0.2885560000067926,1053.367871100003,None,1053.367871100003,None,1053.6929573000016,None,1053.6929573000016,None,1053.6929573000016,None,1053.6929573000016,None,1053.6929573000016,None,1053.6929573000016,None,1053.9833253000033,1055.9609076999986,1053.9833253000033,1055.9609076999986,1055.9817199000026,None,1055.9817199000026,None,1055.9817199000026,None,1055.9817199000026,None,1055.9817199000026,None,1055.9817199000026,None,1055.9817199000026,None,1055.9817199000026,None,1055.9817199000026,None,49,47,29,40,47,39,1058.4900963000036,None,6.0,1.9722858000022825,1058.4900963000036,None,1058.4900963000036,None,1058.4900963000036,None,1058.4900963000036,None,,None,None,None,None,None,None,None,None,None,None,None,None,None,None,,None,None,,,,,,,,None,None,0.6,2,None,None,None,None,None,None,None,None,None,None,None,None,,None,None,None,None,None,None,None,None,None,None,None,None,None,None,None,None,None,None,1060.5138174000022,None,,,,,,,,,225,F,19,2023_Mar_19_1632,RL,2021.2.3,60.10991699582852,
0,0.3,0.225,0,75,75,75,,,,,,,,,,,,,,,1062.3599803000034,None,q,1062.3599803000034,None,1123.8586931000027,None,1123.8586931000027,None,1123.8586931000027,None,1123.8586931000027,None,j,1.2122319000045536,1123.8586931000027,None,1123.8586931000027,None,1125.1009218000036,None,1125.1009218000036,None,1125.1009218000036,None,1125.1009218000036,None,1125.1009218000036,None,1125.1009218000036,None,1125.3885494999995,1126.4355072000035,1125.3885494999995,1126.4355072000035,1126.4562613000016,None,1126.4562613000016,None,1126.4562613000016,None,1126.4562613000016,None,1126.4562613000016,None,1126.4562613000016,None,1126.4562613000016,None,1126.4562613000016,None,1126.4562613000016,None,41,37,29,55,55,66,None,None,None,None,None,None,None,None,None,None,None,None,,None,None,None,None,None,None,None,None,None,None,None,None,None,None,,None,None,,,,,,,,None,None,0.2,1,1128.989980899998,None,1128.989980899998,None,1128.989980899998,None,1128.989980899998,None,1128.989980899998,None,1128.989980899998,None,68,1128.989980899998,None,1128.989980899998,None,0.014060610010346863,None,6.962962962962964,2.3791743999972823,1135.093789700004,None,1135.093789700004,None,1135.093789700004,None,1135.093789700004,None,None,None,1137.4872620000024,None,0.020370370370370372,-0.21851851851851853,1,0,0,4.402592400001595,tijiao,61.46806690000085,225,F,19,2023_Mar_19_1632,RL,2021.2.3,60.10991699582852,
1,-0.3,-0.225,0,76,76,76,,,,,,,,,,,,,,,None,None,None,None,None,1139.3004082999978,None,1139.3004082999978,None,1139.3004082999978,None,1139.3004082999978,None,j,0.5219389999983832,1139.3004082999978,None,1139.3004082999978,None,1139.8606428999992,None,1139.8606428999992,None,1139.8606428999992,None,1139.8606428999992,None,1139.8606428999992,None,1139.8606428999992,None,1140.1481203000003,1142.0594060000003,1140.1481203000003,1142.0594060000003,1142.079992699997,None,1142.079992699997,None,1142.079992699997,None,1142.079992699997,None,1142.079992699997,None,1142.079992699997,None,1142.079992699997,None,1142.079992699997,None,1142.079992699997,None,39,48,33,48,48,68,None,None,None,None,None,None,None,None,None,None,None,None,78,1144.6038743000026,None,1144.6038743000026,None,1144.6038743000026,None,1144.6038743000026,None,1144.6038743000026,None,1144.6038743000026,None,1144.6038743000026,None,78,1144.6038743000026,None,0.026851851851851852,-0.20462962962962963,1,0,0,4.03070960000332,tijiao,0.0075725399947259575,None,0.2,0,None,None,None,None,None,None,None,None,None,None,None,None,,None,None,None,None,None,None,8.944444444444445,4.214728099999775,1156.6777415000033,None,1156.6777415000033,None,1156.6777415000033,None,1156.6777415000033,None,None,None,1160.9066869000017,None,,,,,,,,,225,F,19,2023_Mar_19_1632,RL,2021.2.3,60.10991699582852,
0,0.3,0.225,0,77,77,77,,,,,,,,,,,,,,,None,None,None,None,None,1162.8522411000013,None,1162.8522411000013,None,1162.8522411000013,None,1162.8522411000013,None,j,0.41123510000034,1162.8522411000013,None,1162.8522411000013,None,1163.2952087000012,None,1163.2952087000012,None,1163.2952087000012,None,1163.2952087000012,None,1163.2952087000012,None,1163.2952087000012,None,1163.584192299997,None,1163.584192299997,None,1165.2974321000002,None,1165.2974321000002,None,1165.2974321000002,None,1165.2974321000002,None,1165.2974321000002,None,1165.2974321000002,None,1165.2974321000002,None,1165.2974321000002,None,1165.2974321000002,None,44,35,28,58,58,29,1167.8101661999972,None,5.0,2.0523704000006546,1167.8101661999972,None,1167.8101661999972,None,1167.8101661999972,None,1167.8101661999972,None,,None,None,None,None,None,None,None,None,None,None,None,None,None,None,,None,None,,,,,,,,None,None,0.2,3,None,None,None,None,None,None,None,None,None,None,None,None,,None,None,None,None,None,None,None,None,None,None,None,None,None,None,None,None,None,None,1169.9112692999988,None,,,,,,,,,225,F,19,2023_Mar_19_1632,RL,2021.2.3,60.10991699582852,
1,-0.3,-0.225,0,78,78,78,,,,,,,,,,,,,,,None,None,None,None,None,1171.6451923999994,None,1171.6451923999994,None,1171.6451923999994,None,1171.6451923999994,None,j,0.5785687999959919,1171.6451923999994,None,1171.6451923999994,None,1172.2534731999986,None,1172.2534731999986,None,1172.2534731999986,None,1172.2534731999986,None,1172.2534731999986,None,1172.2534731999986,None,1172.5426322999992,None,1172.5426322999992,None,1174.1089667999986,None,1174.1089667999986,None,1174.1089667999986,None,1174.1089667999986,None,1174.1089667999986,None,1174.1089667999986,None,1174.1089667999986,None,1174.1089667999986,None,1174.1089667999986,None,45,32,36,52,52,74,None,None,None,None,None,None,None,None,None,None,None,None,30,1176.630190900003,None,1176.630190900003,None,1176.630190900003,None,1176.630190900003,None,1176.630190900003,None,1176.630190900003,None,1176.630190900003,None,30,1176.630190900003,None,0.058333333333333334,-0.31203703703703706,1,0,0,3.8998360999976285,tijiao,0.009642339995480143,None,0.6,0,None,None,None,None,None,None,None,None,None,None,None,None,,None,None,None,None,None,None,4.046296296296296,3.4992163999995682,1180.5636623000028,None,1180.5636623000028,None,1180.5636623000028,None,1180.5636623000028,None,None,None,1184.0766678,None,,,,,,,,,225,F,19,2023_Mar_19_1632,RL,2021.2.3,60.10991699582852,
