bandit0,black_x_pos_random,black_y_pos_random,trials.thisRepN,trials.thisTrialN,trials.thisN,trials.thisIndex,instru_img1.started,instru_resp.started,instru_resp.keys,instru_resp.rt,instru_img2.started,instru_resp2.started,instru_resp2.keys,instru_resp2.rt,fixbefore_2.started,rest_response.keys,red.started,green.started,yellow.started,blue.started,choose_bandit.started,Fixation.started,choose_bandit.keys,choose_bandit.rt,black.started,red_2.started,green_2.started,yellow_2.started,blue_2.started,fixation_2.started,docs.started,wait_playerB.started,docs.stopped,wait_playerB.stopped,black.stopped,red_2.stopped,green_2.stopped,yellow_2.stopped,blue_2.stopped,fixation_2.stopped,black_com.started,reward_sub.started,palyerb.started,reward__sub.started,compare.started,red_compare.started,green_com.started,yellow_com.started,blue_com.started,image_3.started,slider.started,text.started,image_4.started,image_5.started,rewardyellow,rewardred,rewardblue,rewardgreen,subchoose,playerb,slider.response,slider.rt,value_expect_self,expectself.text,tijiao_click.x,tijiao_click.y,tijiao_click.leftButton,tijiao_click.midButton,tijiao_click.rightButton,tijiao_click.time,tijiao_click.clicked_name,random_whicharm,whether_ask,expect_random_3.text,tijiao_random.x,tijiao_random.y,tijiao_random.leftButton,tijiao_random.midButton,tijiao_random.rightButton,tijiao_random.time,tijiao_random.clicked_name,slider_2.response,slider_2.rt,intertrialfix.started,intertrialfix.stopped,expect_self_black.started,expect_self.started,expect_self_red.started,expect_self_green.started,expect_self_yellow.started,expect_self_blue.started,tijiao.started,expectself.started,tijiao_click.started,slider_2.started,image_7.started,confi.started,notconfi.started,jiantou_random.started,expect_red.started,expect_green.started,expect_yellow.started,expect_blue.started,expect_random_2.started,expect_random_3.started,tijiao_random_2.started,tijiao_random.started,bigx.started,bigx.stopped,rest_image.started,rest_response.started,rest_response.rt,participant,Gender,Age,date,expName,psychopyVersion,frameRate,
,,,,,,,66.26510119999875,66.26510119999875,space,19.246007199995802,,,,,,,,,,,,,,,,,,,,,,,,,,,,,,,,,,,,,,,,,,,,,,,,,,,,,,,,,,,,,,,,,,,,,,,,,,,,,,,,,,,,,,,,,,,,,,,,,,,,,,,227,f,18,2023-03-19_17h54.59.053,RL,2022.2.4,60.02440592236418,
,,,,,,,,,,,85.54243180000049,85.54243180000049,s,25.44135919999826,,,,,,,,,,,,,,,,,,,,,,,,,,,,,,,,,,,,,,,,,,,,,,,,,,,,,,,,,,,,,,,,,,,,,,,,,,,,,,,,,,,,,,,,,,,,,,,,,,,227,f,18,2023-03-19_17h54.59.053,RL,2022.2.4,60.02440592236418,
1,-0.3,-0.225,0,0,0,0,,,,,,,,,111.01438719999715,None,112.04463779999787,112.04463779999787,112.04463779999787,112.04463779999787,112.04463779999787,112.04463779999787,f,0.837869299997692,112.9344643000004,112.9344643000004,112.9344643000004,112.9344643000004,112.9344643000004,112.9344643000004,113.20965850000357,113.20965850000357,114.75493060000008,114.75493060000008,114.77443479999783,114.77443479999783,114.77443479999783,114.77443479999783,114.77443479999783,114.77443479999783,114.77443479999783,114.77443479999783,114.77443479999783,114.77443479999783,114.77443479999783,114.77443479999783,114.77443479999783,114.77443479999783,114.77443479999783,117.28122129999974,117.28122129999974,117.28122129999974,117.28122129999974,117.28122129999974,47,42,71,37,42,53,3.0,2.857969700002286,,,[],[],[],[],[],[],[],0.2,2,,[],[],[],[],[],[],[],None,None,120.33048319999943,121.90167140000267,,,,,,,,,,,,,,,,,,,,,,,,,,,,227,f,18,2023-03-19_17h54.59.053,RL,2022.2.4,60.02440592236418,
0,0.3,0.225,0,1,1,1,,,,,,,,,,None,121.90167140000267,121.90167140000267,121.90167140000267,121.90167140000267,121.90167140000267,121.90167140000267,i,0.5783111000055214,122.50697519999812,122.50697519999812,122.50697519999812,122.50697519999812,122.50697519999812,122.50697519999812,122.79969320000237,122.79969320000237,123.64857399999892,123.64857399999892,123.64857399999892,123.64857399999892,123.64857399999892,123.64857399999892,123.64857399999892,123.64857399999892,123.64857399999892,123.64857399999892,123.64857399999892,123.64857399999892,123.64857399999892,123.64857399999892,123.64857399999892,123.64857399999892,123.64857399999892,,,,,,60,41,65,45,65,49,None,None,56,56,[-0.012037037037037037],[-0.28425925925925927],[1],[0],[0],[5.264704699999129],['tijiao'],-0.2,0,,[],[],[],[],[],[],[],2.925925925925926,5.884152399994491,137.35885009999765,138.95552540000062,126.1787323000026,126.1787323000026,126.1787323000026,126.1787323000026,126.1787323000026,126.1787323000026,126.1787323000026,126.1787323000026,0.0053883000000496395,131.46336310000333,131.46336310000333,131.46336310000333,131.46336310000333,,,,,,,,,,,,,,,227,f,18,2023-03-19_17h54.59.053,RL,2022.2.4,60.02440592236418,
1,-0.3,-0.225,0,2,2,2,,,,,,,,,,None,138.95552540000062,138.95552540000062,138.95552540000062,138.95552540000062,138.95552540000062,138.95552540000062,i,0.7485218000001623,139.73688160000165,139.73688160000165,139.73688160000165,139.73688160000165,139.73688160000165,139.73688160000165,140.03613649999897,140.03613649999897,141.39907400000084,141.39907400000084,141.39907400000084,141.39907400000084,141.39907400000084,141.39907400000084,141.39907400000084,141.39907400000084,141.39907400000084,141.39907400000084,141.39907400000084,141.39907400000084,141.39907400000084,141.39907400000084,141.39907400000084,141.39907400000084,141.39907400000084,,,,,,52,38,81,46,81,42,None,None,88,88,[-0.09814814814814815],[-0.28425925925925927],[1],[0],[0],[6.339135600006557],['tijiao'],-0.6,0,,[],[],[],[],[],[],[],2.009259259259259,2.4947679999968386,152.78322389999812,154.52962660000048,143.9098234999983,143.9098234999983,143.9098234999983,143.9098234999983,143.9098234999983,143.9098234999983,143.9098234999983,143.9098234999983,0.006879799999296665,150.27040670000133,150.27040670000133,150.27040670000133,150.27040670000133,,,,,,,,,,,,,,,227,f,18,2023-03-19_17h54.59.053,RL,2022.2.4,60.02440592236418,
0,0.3,0.225,0,3,3,3,,,,,,,,,,None,154.52962660000048,154.52962660000048,154.52962660000048,154.52962660000048,154.52962660000048,154.52962660000048,r,0.780488599993987,155.33493050000106,155.33493050000106,155.33493050000106,155.33493050000106,155.33493050000106,155.33493050000106,155.6270153000005,155.6270153000005,156.93957260000025,156.93957260000025,156.93957260000025,156.93957260000025,156.93957260000025,156.93957260000025,156.93957260000025,156.93957260000025,156.93957260000025,156.93957260000025,156.93957260000025,156.93957260000025,156.93957260000025,156.93957260000025,156.93957260000025,156.93957260000025,156.93957260000025,159.44875389999652,159.44875389999652,159.44875389999652,159.44875389999652,159.44875389999652,55,35,74,44,55,68,4.0,1.4113581999990856,,,[],[],[],[],[],[],[],0.2,2,,[],[],[],[],[],[],[],None,None,160.88889490000292,162.7738931999993,,,,,,,,,,,,,,,,,,,,,,,,,,,,227,f,18,2023-03-19_17h54.59.053,RL,2022.2.4,60.02440592236418,
1,-0.3,-0.225,0,4,4,4,,,,,,,,,,None,162.7738931999993,162.7738931999993,162.7738931999993,162.7738931999993,162.7738931999993,162.7738931999993,j,0.4794830000028014,163.27784399999655,163.27784399999655,163.27784399999655,163.27784399999655,163.27784399999655,163.27784399999655,163.57188689999748,163.57188689999748,164.41904169999907,164.41904169999907,164.41904169999907,164.41904169999907,164.41904169999907,164.41904169999907,164.41904169999907,164.41904169999907,164.41904169999907,164.41904169999907,164.41904169999907,164.41904169999907,164.41904169999907,164.41904169999907,164.41904169999907,164.41904169999907,164.41904169999907,,,,,,56,43,67,36,36,69,None,None,,,[],[],[],[],[],[],[],0.6,1,78,[0.09166666666666666],[-0.2861111111111111],[1],[0],[0],[4.718096399999922],['tijiao'],1.0925925925925926,2.303059999998368,173.99219620000076,175.62203130000125,,,,,,,,,,171.67196870000043,171.67196870000043,171.67196870000043,171.67196870000043,166.9411626000001,166.9411626000001,166.9411626000001,166.9411626000001,166.9411626000001,166.9411626000001,166.9411626000001,166.9411626000001,0.006386399996699765,,,,,,227,f,18,2023-03-19_17h54.59.053,RL,2022.2.4,60.02440592236418,
0,0.3,0.225,0,5,5,5,,,,,,,,,,None,175.62203130000125,175.62203130000125,175.62203130000125,175.62203130000125,175.62203130000125,175.62203130000125,r,0.3653727999990224,176.0215836999996,176.0215836999996,176.0215836999996,176.0215836999996,176.0215836999996,176.0215836999996,176.32045230000222,176.32045230000222,177.94942959999753,177.94942959999753,177.94942959999753,177.94942959999753,177.94942959999753,177.94942959999753,177.94942959999753,177.94942959999753,177.94942959999753,177.94942959999753,177.94942959999753,177.94942959999753,177.94942959999753,177.94942959999753,177.94942959999753,177.94942959999753,177.94942959999753,,,,,,56,40,66,38,56,54,None,None,34,34,[0.05185185185185185],[-0.29444444444444445],[1],[0],[0],[7.088197500001115],['tijiao'],-0.2,0,,[],[],[],[],[],[],[],1.5648148148148147,1.9791294000024209,189.56628430000274,191.3624334999986,180.45978430000105,180.45978430000105,180.45978430000105,180.45978430000105,180.45978430000105,180.45978430000105,180.45978430000105,180.45978430000105,0.005630899999232497,187.5688031000027,187.5688031000027,187.5688031000027,187.5688031000027,,,,,,,,,,,,,,,227,f,18,2023-03-19_17h54.59.053,RL,2022.2.4,60.02440592236418,
1,-0.3,-0.225,0,6,6,6,,,,,,,,,,None,191.3624334999986,191.3624334999986,191.3624334999986,191.3624334999986,191.3624334999986,191.3624334999986,r,0.6259887000051094,192.01134820000152,192.01134820000152,192.01134820000152,192.01134820000152,192.01134820000152,192.01134820000152,192.30999639999936,192.30999639999936,194.23803690000204,194.23803690000204,194.23803690000204,194.23803690000204,194.23803690000204,194.23803690000204,194.23803690000204,194.23803690000204,194.23803690000204,194.23803690000204,194.23803690000204,194.23803690000204,194.23803690000204,194.23803690000204,194.23803690000204,194.23803690000204,194.23803690000204,196.74712269999873,196.74712269999873,196.74712269999873,196.74712269999873,196.74712269999873,72,35,68,51,72,33,4.0,2.6921233999964898,,,[],[],[],[],[],[],[],-0.6,2,,[],[],[],[],[],[],[],None,None,199.46400469999935,201.13561990000017,,,,,,,,,,,,,,,,,,,,,,,,,,,,227,f,18,2023-03-19_17h54.59.053,RL,2022.2.4,60.02440592236418,
0,0.3,0.225,0,7,7,7,,,,,,,,,,None,201.13561990000017,201.13561990000017,201.13561990000017,201.13561990000017,201.13561990000017,201.13561990000017,f,0.6175421000007191,201.78589929999725,201.78589929999725,201.78589929999725,201.78589929999725,201.78589929999725,201.78589929999725,202.0833724999975,202.0833724999975,203.56265700000222,203.56265700000222,203.56265700000222,203.56265700000222,203.56265700000222,203.56265700000222,203.56265700000222,203.56265700000222,203.56265700000222,203.56265700000222,203.56265700000222,203.56265700000222,203.56265700000222,203.56265700000222,203.56265700000222,203.56265700000222,203.56265700000222,206.07179000000178,206.07179000000178,206.07179000000178,206.07179000000178,206.07179000000178,56,34,72,51,34,68,4.0,3.8558713999955216,,,[],[],[],[],[],[],[],0.2,3,,[],[],[],[],[],[],[],None,None,209.95308970000042,211.8562832000025,,,,,,,,,,,,,,,,,,,,,,,,,,,,227,f,18,2023-03-19_17h54.59.053,RL,2022.2.4,60.02440592236418,
1,-0.3,-0.225,0,8,8,8,,,,,,,,,,None,211.8562832000025,211.8562832000025,211.8562832000025,211.8562832000025,211.8562832000025,211.8562832000025,i,0.3434971000024234,212.22222960000363,212.22222960000363,212.22222960000363,212.22222960000363,212.22222960000363,212.22222960000363,212.52159460000257,212.52159460000257,214.28316389999964,214.28316389999964,214.28316389999964,214.28316389999964,214.28316389999964,214.28316389999964,214.28316389999964,214.28316389999964,214.28316389999964,214.28316389999964,214.28316389999964,214.28316389999964,214.28316389999964,214.28316389999964,214.28316389999964,214.28316389999964,214.28316389999964,,,,,,68,35,70,44,70,71,None,None,88,88,[0.01574074074074074],[-0.2833333333333333],[1],[0],[0],[4.094075000000885],['tijiao'],0.2,0,,[],[],[],[],[],[],[],2.9074074074074074,3.621256700003869,224.5539948000005,226.54933899999742,216.79482740000094,216.79482740000094,216.79482740000094,216.79482740000094,216.79482740000094,216.79482740000094,216.79482740000094,216.79482740000094,0.007102399998984765,220.9198299999989,220.9198299999989,220.9198299999989,220.9198299999989,,,,,,,,,,,,,,,227,f,18,2023-03-19_17h54.59.053,RL,2022.2.4,60.02440592236418,
0,0.3,0.225,0,9,9,9,,,,,,,,,,None,226.54933899999742,226.54933899999742,226.54933899999742,226.54933899999742,226.54933899999742,226.54933899999742,j,0.5365979000052903,227.1149532999989,227.1149532999989,227.1149532999989,227.1149532999989,227.1149532999989,227.1149532999989,227.41385029999947,227.41385029999947,228.94319440000254,228.94319440000254,228.96000929999718,228.96000929999718,228.96000929999718,228.96000929999718,228.96000929999718,228.96000929999718,228.96000929999718,228.96000929999718,228.96000929999718,228.96000929999718,228.96000929999718,228.96000929999718,228.96000929999718,228.96000929999718,228.96000929999718,231.46910280000156,231.46910280000156,231.46910280000156,231.46910280000156,231.46910280000156,69,32,69,35,35,31,4.0,2.442223899997771,,,[],[],[],[],[],[],[],-0.6,2,,[],[],[],[],[],[],[],None,None,233.93893730000127,235.65816359999735,,,,,,,,,,,,,,,,,,,,,,,,,,,,227,f,18,2023-03-19_17h54.59.053,RL,2022.2.4,60.02440592236418,
1,-0.3,-0.225,0,10,10,10,,,,,,,,,,None,235.65816359999735,235.65816359999735,235.65816359999735,235.65816359999735,235.65816359999735,235.65816359999735,i,0.9045289999994566,236.58962800000154,236.58962800000154,236.58962800000154,236.58962800000154,236.58962800000154,236.58962800000154,236.888057199998,236.888057199998,238.3672712999978,238.3672712999978,238.3672712999978,238.3672712999978,238.3672712999978,238.3672712999978,238.3672712999978,238.3672712999978,238.3672712999978,238.3672712999978,238.3672712999978,238.3672712999978,238.3672712999978,238.3672712999978,238.3672712999978,238.3672712999978,238.3672712999978,,,,,,71,35,73,43,73,66,None,None,,,[],[],[],[],[],[],[],0.6,1,68,[0.037037037037037035],[-0.30925925925925923],[1],[0],[0],[4.751795299998776],['tijiao'],3.9907407407407405,2.601582800001779,248.27311180000106,250.06879749999644,,,,,,,,,,245.65355190000264,245.65355190000264,245.65355190000264,245.65355190000264,240.8864512,240.8864512,240.8864512,240.8864512,240.8864512,240.8864512,240.8864512,240.8864512,0.005607399994914886,,,,,,227,f,18,2023-03-19_17h54.59.053,RL,2022.2.4,60.02440592236418,
0,0.3,0.225,0,11,11,11,,,,,,,,,,None,250.06879749999644,250.06879749999644,250.06879749999644,250.06879749999644,250.06879749999644,250.06879749999644,r,0.435915499998373,250.53483979999874,250.53483979999874,250.53483979999874,250.53483979999874,250.53483979999874,250.53483979999874,250.8332941999979,250.8332941999979,251.64764319999813,251.64764319999813,251.64764319999813,251.64764319999813,251.64764319999813,251.64764319999813,251.64764319999813,251.64764319999813,251.64764319999813,251.64764319999813,251.64764319999813,251.64764319999813,251.64764319999813,251.64764319999813,251.64764319999813,251.64764319999813,251.64764319999813,,,,,,74,33,70,47,74,73,None,None,,,[],[],[],[],[],[],[],-0.2,1,68,[-0.012962962962962963],[-0.2740740740740741],[1],[0],[0],[6.366313199992874],['tijiao'],2.1203703703703702,2.95223889999761,263.51460219999717,265.2107470999981,,,,,,,,,,260.54416219999985,260.54416219999985,260.54416219999985,260.54416219999985,254.16482130000077,254.16482130000077,254.16482130000077,254.16482130000077,254.16482130000077,254.16482130000077,254.16482130000077,254.16482130000077,0.00593010000011418,,,,,,227,f,18,2023-03-19_17h54.59.053,RL,2022.2.4,60.02440592236418,
1,-0.3,-0.225,0,12,12,12,,,,,,,,,,None,265.2107470999981,265.2107470999981,265.2107470999981,265.2107470999981,265.2107470999981,265.2107470999981,f,0.8598147000011522,266.0931531000024,266.0931531000024,266.0931531000024,266.0931531000024,266.0931531000024,266.0931531000024,266.39116099999956,266.39116099999956,267.35480010000174,267.35480010000174,267.35480010000174,267.35480010000174,267.35480010000174,267.35480010000174,267.35480010000174,267.35480010000174,267.35480010000174,267.35480010000174,267.35480010000174,267.35480010000174,267.35480010000174,267.35480010000174,267.35480010000174,267.35480010000174,267.35480010000174,269.86404900000343,269.86404900000343,269.86404900000343,269.86404900000343,269.86404900000343,77,32,71,49,32,75,3.0,2.0939626000035787,,,[],[],[],[],[],[],[],0.2,2,,[],[],[],[],[],[],[],None,None,271.984859199998,273.58796489999804,,,,,,,,,,,,,,,,,,,,,,,,,,,,227,f,18,2023-03-19_17h54.59.053,RL,2022.2.4,60.02440592236418,
0,0.3,0.225,0,13,13,13,,,,,,,,,,None,273.58796489999804,273.58796489999804,273.58796489999804,273.58796489999804,273.58796489999804,273.58796489999804,f,0.8646952999988571,274.4860860999979,274.4860860999979,274.4860860999979,274.4860860999979,274.4860860999979,274.4860860999979,274.7846178000036,274.7846178000036,276.0314234000034,276.0314234000034,276.0314234000034,276.0314234000034,276.0314234000034,276.0314234000034,276.0314234000034,276.0314234000034,276.0314234000034,276.0314234000034,276.0314234000034,276.0314234000034,276.0314234000034,276.0314234000034,276.0314234000034,276.0314234000034,276.0314234000034,278.540302100002,278.540302100002,278.540302100002,278.540302100002,278.540302100002,74,26,69,53,26,72,3.0,2.110211999999592,,,[],[],[],[],[],[],[],0.2,2,,[],[],[],[],[],[],[],None,None,280.67781890000333,282.5967098999972,,,,,,,,,,,,,,,,,,,,,,,,,,,,227,f,18,2023-03-19_17h54.59.053,RL,2022.2.4,60.02440592236418,
1,-0.3,-0.225,0,14,14,14,,,,,,,,,,None,282.5967098999972,282.5967098999972,282.5967098999972,282.5967098999972,282.5967098999972,282.5967098999972,r,0.7528860000020359,283.3781799999997,283.3781799999997,283.3781799999997,283.3781799999997,283.3781799999997,283.3781799999997,283.67722499999945,283.67722499999945,284.92384380000294,284.92384380000294,284.92384380000294,284.92384380000294,284.92384380000294,284.92384380000294,284.92384380000294,284.92384380000294,284.92384380000294,284.92384380000294,284.92384380000294,284.92384380000294,284.92384380000294,284.92384380000294,284.92384380000294,284.92384380000294,284.92384380000294,,,,,,70,26,71,50,70,77,None,None,,,[],[],[],[],[],[],[],0.6,1,77,[-0.026851851851851852],[-0.29259259259259257],[1],[0],[0],[3.9066105999954743],['tijiao'],2.0648148148148144,3.083527499999036,294.4629769000021,296.3254583000016,,,,,,,,,,291.3619294000018,291.3619294000018,291.3619294000018,291.3619294000018,287.44070459999784,287.44070459999784,287.44070459999784,287.44070459999784,287.44070459999784,287.44070459999784,287.44070459999784,287.44070459999784,0.005713300000934396,,,,,,227,f,18,2023-03-19_17h54.59.053,RL,2022.2.4,60.02440592236418,
0,0.3,0.225,0,15,15,15,,,,,,,,,,None,296.3254583000016,296.3254583000016,296.3254583000016,296.3254583000016,296.3254583000016,296.3254583000016,i,0.6564261999956216,297.0077706000011,297.0077706000011,297.0077706000011,297.0077706000011,297.0077706000011,297.0077706000011,297.30637469999783,297.30637469999783,298.7194671000034,298.7194671000034,298.7194671000034,298.7194671000034,298.7194671000034,298.7194671000034,298.7194671000034,298.7194671000034,298.7194671000034,298.7194671000034,298.7194671000034,298.7194671000034,298.7194671000034,298.7194671000034,298.7194671000034,298.7194671000034,298.7194671000034,301.2284795000014,301.2284795000014,301.2284795000014,301.2284795000014,301.2284795000014,71,27,63,56,63,78,2.0,3.2408380000051693,,,[],[],[],[],[],[],[],0.6,3,,[],[],[],[],[],[],[],None,None,304.4960587000023,306.41489900000306,,,,,,,,,,,,,,,,,,,,,,,,,,,,227,f,18,2023-03-19_17h54.59.053,RL,2022.2.4,60.02440592236418,
1,-0.3,-0.225,0,16,16,16,,,,,,,,,,None,306.41489900000306,306.41489900000306,306.41489900000306,306.41489900000306,306.41489900000306,306.41489900000306,f,0.9232364999988931,307.3629112999988,307.3629112999988,307.3629112999988,307.3629112999988,307.3629112999988,307.3629112999988,307.66186860000016,307.66186860000016,308.47600260000036,308.47600260000036,308.47600260000036,308.47600260000036,308.47600260000036,308.47600260000036,308.47600260000036,308.47600260000036,308.47600260000036,308.47600260000036,308.47600260000036,308.47600260000036,308.47600260000036,308.47600260000036,308.47600260000036,308.47600260000036,308.47600260000036,,,,,,73,26,64,45,26,87,None,None,78,78,[-0.06666666666666667],[-0.287962962962963],[1],[0],[0],[4.794689300004393],['tijiao'],0.2,0,,[],[],[],[],[],[],[],1.7870370370370372,2.0807579000029364,317.8991266000012,319.57865350000066,310.98679029999766,310.98679029999766,310.98679029999766,310.98679029999766,310.98679029999766,310.98679029999766,310.98679029999766,310.98679029999766,0.00525999999808846,315.800782600003,315.800782600003,315.800782600003,315.800782600003,,,,,,,,,,,,,,,227,f,18,2023-03-19_17h54.59.053,RL,2022.2.4,60.02440592236418,
0,0.3,0.225,0,17,17,17,,,,,,,,,,None,319.57865350000066,319.57865350000066,319.57865350000066,319.57865350000066,319.57865350000066,319.57865350000066,i,0.4470541000046069,320.0451957999976,320.0451957999976,320.0451957999976,320.0451957999976,320.0451957999976,320.0451957999976,320.3434765999991,320.3434765999991,321.30753299999924,321.30753299999924,321.30753299999924,321.30753299999924,321.30753299999924,321.30753299999924,321.30753299999924,321.30753299999924,321.30753299999924,321.30753299999924,321.30753299999924,321.30753299999924,321.30753299999924,321.30753299999924,321.30753299999924,321.30753299999924,321.30753299999924,,,,,,69,26,54,53,54,74,None,None,34,34,[0.04351851851851852],[-0.2861111111111111],[1],[0],[0],[3.8293994999985443],['tijiao'],0.2,0,,[],[],[],[],[],[],[],1.9351851851851851,2.7608589000010397,330.44822730000305,332.4273153000031,323.818346,323.818346,323.818346,323.818346,323.818346,323.818346,323.818346,323.818346,0.006929800001671538,327.6690021000031,327.6690021000031,327.6690021000031,327.6690021000031,,,,,,,,,,,,,,,227,f,18,2023-03-19_17h54.59.053,RL,2022.2.4,60.02440592236418,
1,-0.3,-0.225,0,18,18,18,,,,,,,,,,None,332.4273153000031,332.4273153000031,332.4273153000031,332.4273153000031,332.4273153000031,332.4273153000031,j,0.7468867999996291,333.19281500000216,333.19281500000216,333.19281500000216,333.19281500000216,333.19281500000216,333.19281500000216,333.49127939999744,333.49127939999744,334.4885773999995,334.4885773999995,334.4885773999995,334.4885773999995,334.4885773999995,334.4885773999995,334.4885773999995,334.4885773999995,334.4885773999995,334.4885773999995,334.4885773999995,334.4885773999995,334.4885773999995,334.4885773999995,334.4885773999995,334.4885773999995,334.4885773999995,336.9971796000027,336.9971796000027,336.9971796000027,336.9971796000027,336.9971796000027,67,20,55,46,46,24,4.0,2.9746254999990924,,,[],[],[],[],[],[],[],-0.6,3,,[],[],[],[],[],[],[],None,None,339.9991074999998,341.9347764999984,,,,,,,,,,,,,,,,,,,,,,,,,,,,227,f,18,2023-03-19_17h54.59.053,RL,2022.2.4,60.02440592236418,
0,0.3,0.225,0,19,19,19,,,,,,,,,,None,341.9347764999984,341.9347764999984,341.9347764999984,341.9347764999984,341.9347764999984,341.9347764999984,r,0.8565244999990682,342.8179719999971,342.8179719999971,342.8179719999971,342.8179719999971,342.8179719999971,342.8179719999971,343.1149766000017,343.1149766000017,344.644266299998,344.644266299998,344.644266299998,344.644266299998,344.644266299998,344.644266299998,344.644266299998,344.644266299998,344.644266299998,344.644266299998,344.644266299998,344.644266299998,344.644266299998,344.644266299998,344.644266299998,344.644266299998,344.644266299998,347.1533782999977,347.1533782999977,347.1533782999977,347.1533782999977,347.1533782999977,65,14,59,58,65,83,4.0,2.6085537999970256,,,[],[],[],[],[],[],[],0.2,2,,[],[],[],[],[],[],[],None,None,349.78645849999884,351.7075001999983,,,,,,,,,,,,,,,,,,,,,,,,,,,,227,f,18,2023-03-19_17h54.59.053,RL,2022.2.4,60.02440592236418,
1,-0.3,-0.225,0,20,20,20,,,,,,,,,,None,351.7075001999983,351.7075001999983,351.7075001999983,351.7075001999983,351.7075001999983,351.7075001999983,j,1.4088693999947282,353.13925480000034,353.13925480000034,353.13925480000034,353.13925480000034,353.13925480000034,353.13925480000034,353.436520700001,353.436520700001,354.65021539999725,354.65021539999725,354.65021539999725,354.65021539999725,354.65021539999725,354.65021539999725,354.65021539999725,354.65021539999725,354.65021539999725,354.65021539999725,354.65021539999725,354.65021539999725,354.65021539999725,354.65021539999725,354.65021539999725,354.65021539999725,354.65021539999725,,,,,,69,23,50,63,63,62,None,None,89,89,[0.006481481481481481],[-0.28888888888888886],[1],[0],[0],[4.310901000004378],['tijiao'],-0.2,0,,[],[],[],[],[],[],[],1.9629629629629628,2.6296879000001354,364.1399778999985,365.73628389999794,357.1620425000001,357.1620425000001,357.1620425000001,357.1620425000001,357.1620425000001,357.1620425000001,357.1620425000001,357.1620425000001,0.007357000002230052,361.4924619000012,361.4924619000012,361.4924619000012,361.4924619000012,,,,,,,,,,,,,,,227,f,18,2023-03-19_17h54.59.053,RL,2022.2.4,60.02440592236418,
0,0.3,0.225,0,21,21,21,,,,,,,,,,None,365.73628389999794,365.73628389999794,365.73628389999794,365.73628389999794,365.73628389999794,365.73628389999794,None,,,,,,,,,,,,,,,,,,,,,,,,,,,,,,,,65,27,50,56,0,**,None,None,,,[],[],[],[],[],[],[],-0.6,0,,[],[],[],[],[],[],[],None,None,371.7859107999975,373.3319945999974,,,,,,,,,,,,,,,,,,,,,,,367.27220099999977,371.7859107999975,,,,227,f,18,2023-03-19_17h54.59.053,RL,2022.2.4,60.02440592236418,
1,-0.3,-0.225,0,22,22,22,,,,,,,,,,None,373.3319945999974,373.3319945999974,373.3319945999974,373.3319945999974,373.3319945999974,373.3319945999974,f,0.4657636000047205,373.8145168999981,373.8145168999981,373.8145168999981,373.8145168999981,373.8145168999981,373.8145168999981,374.1134050000037,374.1134050000037,374.94479709999723,374.94479709999723,374.94479709999723,374.94479709999723,374.94479709999723,374.94479709999723,374.94479709999723,374.94479709999723,374.94479709999723,374.94479709999723,374.94479709999723,374.94479709999723,374.94479709999723,374.94479709999723,374.94479709999723,374.94479709999723,374.94479709999723,,,,,,67,15,61,53,15,74,None,None,,,[],[],[],[],[],[],[],-0.6,1,67,[-0.006481481481481481],[-0.2916666666666667],[1],[0],[0],[6.249936699998216],['tijiao'],5.083333333333333,3.16788689999521,386.9107116000014,388.5572345999972,,,,,,,,,,383.72474279999733,383.72474279999733,383.72474279999733,383.72474279999733,377.46162560000084,377.46162560000084,377.46162560000084,377.46162560000084,377.46162560000084,377.46162560000084,377.46162560000084,377.46162560000084,0.005855499999597669,,,,,,227,f,18,2023-03-19_17h54.59.053,RL,2022.2.4,60.02440592236418,
0,0.3,0.225,0,23,23,23,,,,,,,,,,None,388.5572345999972,388.5572345999972,388.5572345999972,388.5572345999972,388.5572345999972,388.5572345999972,j,0.44109320000279695,389.0237935999976,389.0237935999976,389.0237935999976,389.0237935999976,389.0237935999976,389.0237935999976,389.3222095000019,389.3222095000019,391.1506350999989,391.1506350999989,391.1506350999989,391.1506350999989,391.1506350999989,391.1506350999989,391.1506350999989,391.1506350999989,391.1506350999989,391.1506350999989,391.1506350999989,391.1506350999989,391.1506350999989,391.1506350999989,391.1506350999989,391.1506350999989,391.1506350999989,,,,,,70,18,64,64,64,88,None,None,,,[],[],[],[],[],[],[],0.2,1,88,[0.024074074074074074],[-0.28888888888888886],[1],[0],[0],[5.2016777000026195],['tijiao'],3.046296296296296,2.2533170000024256,401.155136399997,402.66878980000183,,,,,,,,,,398.88380779999716,398.88380779999716,398.88380779999716,398.88380779999716,393.66896010000346,393.66896010000346,393.66896010000346,393.66896010000346,393.66896010000346,393.66896010000346,393.66896010000346,393.66896010000346,0.005431400000816211,,,,,,227,f,18,2023-03-19_17h54.59.053,RL,2022.2.4,60.02440592236418,
1,-0.3,-0.225,0,24,24,24,,,,,,,,,,None,402.66878980000183,402.66878980000183,402.66878980000183,402.66878980000183,402.66878980000183,402.66878980000183,j,0.6515313000054448,403.3517959000019,403.3517959000019,403.3517959000019,403.3517959000019,403.3517959000019,403.3517959000019,403.6496188000019,403.6496188000019,405.2951677000019,405.2951677000019,405.2951677000019,405.2951677000019,405.2951677000019,405.2951677000019,405.2951677000019,405.2951677000019,405.2951677000019,405.2951677000019,405.2951677000019,405.2951677000019,405.2951677000019,405.2951677000019,405.2951677000019,405.2951677000019,405.2951677000019,407.80391090000194,407.80391090000194,407.80391090000194,407.80391090000194,407.80391090000194,79,12,57,52,52,89,3.0,2.3922162000017124,,,[],[],[],[],[],[],[],-0.2,3,,[],[],[],[],[],[],[],None,None,410.2249029000013,411.77734939999937,,,,,,,,,,,,,,,,,,,,,,,,,,,,227,f,18,2023-03-19_17h54.59.053,RL,2022.2.4,60.02440592236418,
0,0.3,0.225,0,25,25,25,,,,,,,,,,None,411.77734939999937,411.77734939999937,411.77734939999937,411.77734939999937,411.77734939999937,411.77734939999937,j,0.9341113999980735,412.74155410000094,412.74155410000094,412.74155410000094,412.74155410000094,412.74155410000094,412.74155410000094,413.0408013999986,413.0408013999986,414.73608409999724,414.73608409999724,414.75274999999965,414.75274999999965,414.75274999999965,414.75274999999965,414.75274999999965,414.75274999999965,414.75274999999965,414.75274999999965,414.75274999999965,414.75274999999965,414.75274999999965,414.75274999999965,414.75274999999965,414.75274999999965,414.75274999999965,417.26184659999853,417.26184659999853,417.26184659999853,417.26184659999853,417.26184659999853,77,20,61,50,50,89,3.0,2.1598668000006,,,[],[],[],[],[],[],[],-0.2,3,,[],[],[],[],[],[],[],None,None,419.4469652999978,421.1352140000017,,,,,,,,,,,,,,,,,,,,,,,,,,,,227,f,18,2023-03-19_17h54.59.053,RL,2022.2.4,60.02440592236418,
1,-0.3,-0.225,0,26,26,26,,,,,,,,,,None,421.1352140000017,421.1352140000017,421.1352140000017,421.1352140000017,421.1352140000017,421.1352140000017,r,0.8579458999956842,422.01672050000343,422.01672050000343,422.01672050000343,422.01672050000343,422.01672050000343,422.01672050000343,422.31518309999956,422.31518309999956,423.3291708999968,423.3291708999968,423.3291708999968,423.3291708999968,423.3291708999968,423.3291708999968,423.3291708999968,423.3291708999968,423.3291708999968,423.3291708999968,423.3291708999968,423.3291708999968,423.3291708999968,423.3291708999968,423.3291708999968,423.3291708999968,423.3291708999968,425.83850189999794,425.83850189999794,425.83850189999794,425.83850189999794,425.83850189999794,75,19,60,54,75,68,4.0,3.023536399996374,,,[],[],[],[],[],[],[],0.6,2,,[],[],[],[],[],[],[],None,None,428.88714759999857,430.6589445999998,,,,,,,,,,,,,,,,,,,,,,,,,,,,227,f,18,2023-03-19_17h54.59.053,RL,2022.2.4,60.02440592236418,
0,0.3,0.225,0,27,27,27,,,,,,,,,,None,430.6589445999998,430.6589445999998,430.6589445999998,430.6589445999998,430.6589445999998,430.6589445999998,f,0.5612571999954525,431.2410000000018,431.2410000000018,431.2410000000018,431.2410000000018,431.2410000000018,431.2410000000018,431.54024729999946,431.54024729999946,433.1190429999988,433.1190429999988,433.1190429999988,433.1190429999988,433.1190429999988,433.1190429999988,433.1190429999988,433.1190429999988,433.1190429999988,433.1190429999988,433.1190429999988,433.1190429999988,433.1190429999988,433.1190429999988,433.1190429999988,433.1190429999988,433.1190429999988,,,,,,81,19,59,54,19,81,None,None,45,45,[-0.001851851851851852],[-0.2861111111111111],[1],[0],[0],[5.788615400000708],['tijiao'],0.6,0,,[],[],[],[],[],[],[],2.009259259259259,2.1937544999964302,443.6558619999996,445.2192849999992,435.6320874000012,435.6320874000012,435.6320874000012,435.6320874000012,435.6320874000012,435.6320874000012,435.6320874000012,435.6320874000012,0.008475700000417419,441.44338340000104,441.44338340000104,441.44338340000104,441.44338340000104,,,,,,,,,,,,,,,227,f,18,2023-03-19_17h54.59.053,RL,2022.2.4,60.02440592236418,
1,-0.3,-0.225,0,28,28,28,,,,,,,,,,None,445.2192849999992,445.2192849999992,445.2192849999992,445.2192849999992,445.2192849999992,445.2192849999992,j,0.48836779999692226,445.736044199999,445.736044199999,445.736044199999,445.736044199999,445.736044199999,445.736044199999,446.0337548000025,446.0337548000025,447.76263689999905,447.76263689999905,447.76263689999905,447.76263689999905,447.76263689999905,447.76263689999905,447.76263689999905,447.76263689999905,447.76263689999905,447.76263689999905,447.76263689999905,447.76263689999905,447.76263689999905,447.76263689999905,447.76263689999905,447.76263689999905,447.76263689999905,450.27168289999827,450.27168289999827,450.27168289999827,450.27168289999827,450.27168289999827,78,18,61,57,57,82,4.0,2.891384900001867,,,[],[],[],[],[],[],[],-0.2,2,,[],[],[],[],[],[],[],None,None,453.18787480000174,454.79320590000134,,,,,,,,,,,,,,,,,,,,,,,,,,,,227,f,18,2023-03-19_17h54.59.053,RL,2022.2.4,60.02440592236418,
0,0.3,0.225,0,29,29,29,,,,,,,,,,None,454.79320590000134,454.79320590000134,454.79320590000134,454.79320590000134,454.79320590000134,454.79320590000134,i,1.1983256000021356,456.0247690999968,456.0247690999968,456.0247690999968,456.0247690999968,456.0247690999968,456.0247690999968,456.3222883999988,456.3222883999988,457.7852391999986,457.7852391999986,457.7852391999986,457.7852391999986,457.7852391999986,457.7852391999986,457.7852391999986,457.7852391999986,457.7852391999986,457.7852391999986,457.7852391999986,457.7852391999986,457.7852391999986,457.7852391999986,457.7852391999986,457.7852391999986,457.7852391999986,,,,,,83,26,58,57,58,70,None,None,,,[],[],[],[],[],[],[],-0.2,1,90,"[-0.021296296296296296, -0.026851851851851852]","[-0.24814814814814815, -0.3074074074074074]","[1, 1]","[0, 0]","[0, 0]","[4.235884699999588, 5.050880499999039]",['tijiao'],1.9166666666666667,1.9217643000010867,467.30782290000207,469.3034581000029,,,,,,,,,,465.36833679999836,465.36833679999836,465.36833679999836,465.36833679999836,460.30422869999893,460.30422869999893,460.30422869999893,460.30422869999893,460.30422869999893,460.30422869999893,460.30422869999893,460.30422869999893,0.005432500001916196,,,,,,227,f,18,2023-03-19_17h54.59.053,RL,2022.2.4,60.02440592236418,
1,-0.3,-0.225,0,30,30,30,,,,,,,,,,None,469.3034581000029,469.3034581000029,469.3034581000029,469.3034581000029,469.3034581000029,469.3034581000029,j,0.354951200002688,469.68658790000336,469.68658790000336,469.68658790000336,469.68658790000336,469.68658790000336,469.68658790000336,469.98495959999855,469.98495959999855,471.2149661000003,471.2149661000003,471.2149661000003,471.2149661000003,471.2149661000003,471.2149661000003,471.2149661000003,471.2149661000003,471.2149661000003,471.2149661000003,471.2149661000003,471.2149661000003,471.2149661000003,471.2149661000003,471.2149661000003,471.2149661000003,471.2149661000003,,,,,,85,26,55,57,57,91,None,None,,,[],[],[],[],[],[],[],0.6,1,32,[-0.1712962962962963],[-0.29074074074074074],[1],[0],[0],[7.645083999996132],['tijiao'],3.0277777777777777,2.703643799999554,484.11235999999917,486.0912396999993,,,,,,,,,,481.3902663999979,481.3902663999979,481.3902663999979,481.3902663999979,473.7319881000003,473.7319881000003,473.7319881000003,473.7319881000003,473.7319881000003,473.7319881000003,473.7319881000003,473.7319881000003,0.005892399996810127,,,,,,227,f,18,2023-03-19_17h54.59.053,RL,2022.2.4,60.02440592236418,
0,0.3,0.225,0,31,31,31,,,,,,,,,,None,486.0912396999993,486.0912396999993,486.0912396999993,486.0912396999993,486.0912396999993,486.0912396999993,j,0.5209307999975863,486.641034100001,486.641034100001,486.641034100001,486.641034100001,486.641034100001,486.641034100001,486.9386721999981,486.9386721999981,488.76733570000215,488.76733570000215,488.76733570000215,488.76733570000215,488.76733570000215,488.76733570000215,488.76733570000215,488.76733570000215,488.76733570000215,488.76733570000215,488.76733570000215,488.76733570000215,488.76733570000215,488.76733570000215,488.76733570000215,488.76733570000215,488.76733570000215,491.2762960999971,491.2762960999971,491.2762960999971,491.2762960999971,491.2762960999971,82,18,51,58,58,38,4.0,3.157462900002429,,,[],[],[],[],[],[],[],-0.2,3,,[],[],[],[],[],[],[],None,None,494.46040699999867,496.39631879999797,,,,,,,,,,,,,,,,,,,,,,,,,,,,227,f,18,2023-03-19_17h54.59.053,RL,2022.2.4,60.02440592236418,
1,-0.3,-0.225,0,32,32,32,,,,,,,,,,None,496.39631879999797,496.39631879999797,496.39631879999797,496.39631879999797,496.39631879999797,496.39631879999797,j,1.4297944999998435,497.8593886000017,497.8593886000017,497.8593886000017,497.8593886000017,497.8593886000017,497.8593886000017,498.15802480000275,498.15802480000275,499.0725351000001,499.0725351000001,499.0725351000001,499.0725351000001,499.0725351000001,499.0725351000001,499.0725351000001,499.0725351000001,499.0725351000001,499.0725351000001,499.0725351000001,499.0725351000001,499.0725351000001,499.0725351000001,499.0725351000001,499.0725351000001,499.0725351000001,,,,,,86,24,53,55,55,87,None,None,35,35,"[0.046296296296296294, 0.05092592592592592]","[-0.2490740740740741, -0.32314814814814813]","[1, 1]","[0, 0]","[0, 0]","[4.110662799997954, 4.909631900001841]",['tijiao'],-0.6,0,,[],[],[],[],[],[],[],3.1388888888888893,1.7121607000008225,508.2465618999995,510.0755996000007,501.58451259999856,501.58451259999856,501.58451259999856,501.58451259999856,501.58451259999856,501.58451259999856,501.58451259999856,501.58451259999856,0.007588799999211915,506.51590900000156,506.51590900000156,506.51590900000156,506.51590900000156,,,,,,,,,,,,,,,227,f,18,2023-03-19_17h54.59.053,RL,2022.2.4,60.02440592236418,
0,0.3,0.225,0,33,33,33,,,,,,,,,,None,510.0755996000007,510.0755996000007,510.0755996000007,510.0755996000007,510.0755996000007,510.0755996000007,r,0.6552632999955676,510.75776290000067,510.75776290000067,510.75776290000067,510.75776290000067,510.75776290000067,510.75776290000067,511.0562301000027,511.0562301000027,512.7518282000019,512.7518282000019,512.7518282000019,512.7518282000019,512.7518282000019,512.7518282000019,512.7518282000019,512.7518282000019,512.7518282000019,512.7518282000019,512.7518282000019,512.7518282000019,512.7518282000019,512.7518282000019,512.7518282000019,512.7518282000019,512.7518282000019,,,,,,94,25,58,48,94,86,None,None,94,94,[0.05925925925925926],[-0.28425925925925927],[1],[0],[0],[5.7558732999968925],['tijiao'],-0.2,0,,[],[],[],[],[],[],[],2.009259259259259,3.0769052999967244,524.1361830000023,526.098631300003,515.2639334999985,515.2639334999985,515.2639334999985,515.2639334999985,515.2639334999985,515.2639334999985,515.2639334999985,515.2639334999985,0.007745899994915817,521.0407118000003,521.0407118000003,521.0407118000003,521.0407118000003,,,,,,,,,,,,,,,227,f,18,2023-03-19_17h54.59.053,RL,2022.2.4,60.02440592236418,
1,-0.3,-0.225,0,34,34,34,,,,,,,,,,None,526.098631300003,526.098631300003,526.098631300003,526.098631300003,526.098631300003,526.098631300003,r,0.8359339999951771,526.9631290999969,526.9631290999969,526.9631290999969,526.9631290999969,526.9631290999969,526.9631290999969,527.2621224000031,527.2621224000031,528.6251898999981,528.6251898999981,528.6251898999981,528.6251898999981,528.6251898999981,528.6251898999981,528.6251898999981,528.6251898999981,528.6251898999981,528.6251898999981,528.6251898999981,528.6251898999981,528.6251898999981,528.6251898999981,528.6251898999981,528.6251898999981,528.6251898999981,531.1339634999968,531.1339634999968,531.1339634999968,531.1339634999968,531.1339634999968,92,21,48,55,92,91,5.0,2.426155799999833,,,[],[],[],[],[],[],[],0.2,3,,[],[],[],[],[],[],[],None,None,533.5876750000025,535.5062686000019,,,,,,,,,,,,,,,,,,,,,,,,,,,,227,f,18,2023-03-19_17h54.59.053,RL,2022.2.4,60.02440592236418,
0,0.3,0.225,0,35,35,35,,,,,,,,,,None,535.5062686000019,535.5062686000019,535.5062686000019,535.5062686000019,535.5062686000019,535.5062686000019,f,0.7947456999972928,536.3209959000014,536.3209959000014,536.3209959000014,536.3209959000014,536.3209959000014,536.3209959000014,536.6200800000006,536.6200800000006,537.7166859999998,537.7166859999998,537.7166859999998,537.7166859999998,537.7166859999998,537.7166859999998,537.7166859999998,537.7166859999998,537.7166859999998,537.7166859999998,537.7166859999998,537.7166859999998,537.7166859999998,537.7166859999998,537.7166859999998,537.7166859999998,537.7166859999998,540.2261221000008,540.2261221000008,540.2261221000008,540.2261221000008,540.2261221000008,92,18,54,49,18,80,3.0,2.7418092000007164,,,[],[],[],[],[],[],[],-0.2,2,,[],[],[],[],[],[],[],None,None,542.9929581000033,544.9304913000014,,,,,,,,,,,,,,,,,,,,,,,,,,,,227,f,18,2023-03-19_17h54.59.053,RL,2022.2.4,60.02440592236418,
1,-0.3,-0.225,0,36,36,36,,,,,,,,,,None,544.9304913000014,544.9304913000014,544.9304913000014,544.9304913000014,544.9304913000014,544.9304913000014,j,0.6975403000033111,545.6454337999967,545.6454337999967,545.6454337999967,545.6454337999967,545.6454337999967,545.6454337999967,545.9445243000009,545.9445243000009,546.7757636000024,546.7757636000024,546.7757636000024,546.7757636000024,546.7757636000024,546.7757636000024,546.7757636000024,546.7757636000024,546.7757636000024,546.7757636000024,546.7757636000024,546.7757636000024,546.7757636000024,546.7757636000024,546.7757636000024,546.7757636000024,546.7757636000024,,,,,,75,28,55,56,56,6,None,None,,,[],[],[],[],[],[],[],0.6,1,98,[0.058333333333333334],[-0.3101851851851852],[1],[0],[0],[5.152456700001494],['tijiao'],6.055555555555555,4.628465699999651,559.1072847000032,560.9365913000001,,,,,,,,,,554.4614443000028,554.4614443000028,554.4614443000028,554.4614443000028,549.293737699998,549.293737699998,549.293737699998,549.293737699998,549.293737699998,549.293737699998,549.293737699998,549.293737699998,0.005800899998575915,,,,,,227,f,18,2023-03-19_17h54.59.053,RL,2022.2.4,60.02440592236418,
0,0.3,0.225,0,37,37,37,,,,,,,,,,None,560.9365913000001,560.9365913000001,560.9365913000001,560.9365913000001,560.9365913000001,560.9365913000001,j,0.6304249000022537,561.5864046999995,561.5864046999995,561.5864046999995,561.5864046999995,561.5864046999995,561.5864046999995,561.8844276000018,561.8844276000018,563.5297021000006,563.5297021000006,563.5297021000006,563.5297021000006,563.5297021000006,563.5297021000006,563.5297021000006,563.5297021000006,563.5297021000006,563.5297021000006,563.5297021000006,563.5297021000006,563.5297021000006,563.5297021000006,563.5297021000006,563.5297021000006,563.5297021000006,566.0387413999997,566.0387413999997,566.0387413999997,566.0387413999997,566.0387413999997,82,24,55,55,55,85,4.0,4.203415299998596,,,[],[],[],[],[],[],[],-0.6,3,,[],[],[],[],[],[],[],None,None,570.2682695999974,571.9563514999973,,,,,,,,,,,,,,,,,,,,,,,,,,,,227,f,18,2023-03-19_17h54.59.053,RL,2022.2.4,60.02440592236418,
1,-0.3,-0.225,0,38,38,38,,,,,,,,,,None,571.9563514999973,571.9563514999973,571.9563514999973,571.9563514999973,571.9563514999973,571.9563514999973,f,1.0452975000007427,573.0205207000035,573.0205207000035,573.0205207000035,573.0205207000035,573.0205207000035,573.0205207000035,573.319590500003,573.319590500003,574.8485451000015,574.8485451000015,574.8485451000015,574.8485451000015,574.8485451000015,574.8485451000015,574.8485451000015,574.8485451000015,574.8485451000015,574.8485451000015,574.8485451000015,574.8485451000015,574.8485451000015,574.8485451000015,574.8485451000015,574.8485451000015,574.8485451000015,,,,,,75,19,57,49,19,82,None,None,89,89,[-0.004629629629629629],[-0.28425925925925927],[1],[0],[0],[3.4311185000042315],['tijiao'],-0.6,0,,[],[],[],[],[],[],[],1.925925925925926,1.7452014999944367,582.576592999998,584.5721114999978,577.3595493999965,577.3595493999965,577.3595493999965,577.3595493999965,577.3595493999965,577.3595493999965,577.3595493999965,577.3595493999965,0.006099199999880511,580.8129734999966,580.8129734999966,580.8129734999966,580.8129734999966,,,,,,,,,,,,,,,227,f,18,2023-03-19_17h54.59.053,RL,2022.2.4,60.02440592236418,
0,0.3,0.225,0,39,39,39,,,,,,,,,,None,584.5721114999978,584.5721114999978,584.5721114999978,584.5721114999978,584.5721114999978,584.5721114999978,r,0.34847159999480937,584.9400305000017,584.9400305000017,584.9400305000017,584.9400305000017,584.9400305000017,584.9400305000017,585.2373882000029,585.2373882000029,587.2315864999982,587.2315864999982,587.2481461999996,587.2481461999996,587.2481461999996,587.2481461999996,587.2481461999996,587.2481461999996,587.2481461999996,587.2481461999996,587.2481461999996,587.2481461999996,587.2481461999996,587.2481461999996,587.2481461999996,587.2481461999996,587.2481461999996,589.7570431999993,589.7570431999993,589.7570431999993,589.7570431999993,589.7570431999993,92,12,58,53,92,82,5.0,1.8609421999935876,,,[],[],[],[],[],[],[],0.2,3,,[],[],[],[],[],[],[],None,None,591.6447521000009,593.5642405000035,,,,,,,,,,,,,,,,,,,,,,,,,,,,227,f,18,2023-03-19_17h54.59.053,RL,2022.2.4,60.02440592236418,
1,-0.3,-0.225,0,40,40,40,,,,,,,,,,None,593.5642405000035,593.5642405000035,593.5642405000035,593.5642405000035,593.5642405000035,593.5642405000035,f,0.9776089000006323,594.561876300002,594.561876300002,594.561876300002,594.561876300002,594.561876300002,594.561876300002,594.8609326000005,594.8609326000005,596.4565432000018,596.4565432000018,596.4565432000018,596.4565432000018,596.4565432000018,596.4565432000018,596.4565432000018,596.4565432000018,596.4565432000018,596.4565432000018,596.4565432000018,596.4565432000018,596.4565432000018,596.4565432000018,596.4565432000018,596.4565432000018,596.4565432000018,,,,,,85,18,56,54,18,60,None,None,79,79,[-0.03518518518518519],[-0.3074074074074074],[1],[0],[0],[5.706883300001209],['tijiao'],0.6,0,,[],[],[],[],[],[],[],1.833333333333333,2.1939179000037257,606.9103456000012,608.7727008000002,598.9678913000025,598.9678913000025,598.9678913000025,598.9678913000025,598.9678913000025,598.9678913000025,598.9678913000025,598.9678913000025,0.007363999997323845,604.6979235000035,604.6979235000035,604.6979235000035,604.6979235000035,,,,,,,,,,,,,,,227,f,18,2023-03-19_17h54.59.053,RL,2022.2.4,60.02440592236418,
0,0.3,0.225,0,41,41,41,,,,,,,,,,None,608.7727008000002,608.7727008000002,608.7727008000002,608.7727008000002,608.7727008000002,608.7727008000002,j,0.8150885000068229,609.6209705000001,609.6209705000001,609.6209705000001,609.6209705000001,609.6209705000001,609.6209705000001,609.920045400002,609.920045400002,610.850583200001,610.850583200001,610.850583200001,610.850583200001,610.850583200001,610.850583200001,610.850583200001,610.850583200001,610.850583200001,610.850583200001,610.850583200001,610.850583200001,610.850583200001,610.850583200001,610.850583200001,610.850583200001,610.850583200001,,,,,,91,23,59,45,45,74,None,None,76,76,[-0.003703703703703704],[-0.29907407407407405],[1],[0],[0],[4.129325900001277],['tijiao'],0.6,0,,[],[],[],[],[],[],[],1.1574074074074072,2.6757265999985975,620.2071074999985,621.7208099999989,613.3607154999991,613.3607154999991,613.3607154999991,613.3607154999991,613.3607154999991,613.3607154999991,613.3607154999991,613.3607154999991,0.005599099997198209,617.5129671000032,617.5129671000032,617.5129671000032,617.5129671000032,,,,,,,,,,,,,,,227,f,18,2023-03-19_17h54.59.053,RL,2022.2.4,60.02440592236418,
1,-0.3,-0.225,0,42,42,42,,,,,,,,,,None,621.7208099999989,621.7208099999989,621.7208099999989,621.7208099999989,621.7208099999989,621.7208099999989,j,0.7053788000048371,622.4524394999971,622.4524394999971,622.4524394999971,622.4524394999971,622.4524394999971,622.4524394999971,622.7517890000017,622.7517890000017,624.1477868000002,624.1477868000002,624.1477868000002,624.1477868000002,624.1477868000002,624.1477868000002,624.1477868000002,624.1477868000002,624.1477868000002,624.1477868000002,624.1477868000002,624.1477868000002,624.1477868000002,624.1477868000002,624.1477868000002,624.1477868000002,624.1477868000002,,,,,,87,12,57,39,39,91,None,None,79,79,[0.013888888888888888],[-0.287962962962963],[1],[0],[0],[4.260861700000532],['tijiao'],0.6,0,,[],[],[],[],[],[],[],1,1.8137777999945683,632.7733760999981,634.3693585000001,626.6583765000032,626.6583765000032,626.6583765000032,626.6583765000032,626.6583765000032,626.6583765000032,626.6583765000032,626.6583765000032,0.00710840000101598,630.940434199998,630.940434199998,630.940434199998,630.940434199998,,,,,,,,,,,,,,,227,f,18,2023-03-19_17h54.59.053,RL,2022.2.4,60.02440592236418,
0,0.3,0.225,0,43,43,43,,,,,,,,,,None,634.3693585000001,634.3693585000001,634.3693585000001,634.3693585000001,634.3693585000001,634.3693585000001,i,0.28318929999659304,634.6861237999983,634.6861237999983,634.6861237999983,634.6861237999983,634.6861237999983,634.6861237999983,634.9848322000034,634.9848322000034,636.9127864999973,636.9127864999973,636.9127864999973,636.9127864999973,636.9127864999973,636.9127864999973,636.9127864999973,636.9127864999973,636.9127864999973,636.9127864999973,636.9127864999973,636.9127864999973,636.9127864999973,636.9127864999973,636.9127864999973,636.9127864999973,636.9127864999973,639.4221192999976,639.4221192999976,639.4221192999976,639.4221192999976,639.4221192999976,90,13,44,45,44,77,3.0,2.5261160000009113,,,[],[],[],[],[],[],[],0.2,2,,[],[],[],[],[],[],[],None,None,641.9746863000037,643.5444583999997,,,,,,,,,,,,,,,,,,,,,,,,,,,,227,f,18,2023-03-19_17h54.59.053,RL,2022.2.4,60.02440592236418,
1,-0.3,-0.225,0,44,44,44,,,,,,,,,,None,643.5444583999997,643.5444583999997,643.5444583999997,643.5444583999997,643.5444583999997,643.5444583999997,None,,,,,,,,,,,,,,,,,,,,,,,,,,,,,,,,96,21,42,41,0,**,None,None,,,[],[],[],[],[],[],[],-0.2,3,,[],[],[],[],[],[],[],None,None,649.5771853999977,651.505817600002,,,,,,,,,,,,,,,,,,,,,,,645.0752653000018,649.5771853999977,,,,227,f,18,2023-03-19_17h54.59.053,RL,2022.2.4,60.02440592236418,
0,0.3,0.225,0,45,45,45,,,,,,,,,,None,651.505817600002,651.505817600002,651.505817600002,651.505817600002,651.505817600002,651.505817600002,j,0.4501966000025277,651.9885858999987,651.9885858999987,651.9885858999987,651.9885858999987,651.9885858999987,651.9885858999987,652.2872844000012,652.2872844000012,654.066024599997,654.066024599997,654.066024599997,654.066024599997,654.066024599997,654.066024599997,654.066024599997,654.066024599997,654.066024599997,654.066024599997,654.066024599997,654.066024599997,654.066024599997,654.066024599997,654.066024599997,654.066024599997,654.066024599997,656.5752818999972,656.5752818999972,656.5752818999972,656.5752818999972,656.5752818999972,87,15,43,44,44,65,3.0,2.276150500001677,,,[],[],[],[],[],[],[],-0.2,3,,[],[],[],[],[],[],[],None,None,658.8767656999989,660.6478608000034,,,,,,,,,,,,,,,,,,,,,,,,,,,,227,f,18,2023-03-19_17h54.59.053,RL,2022.2.4,60.02440592236418,
1,-0.3,-0.225,0,46,46,46,,,,,,,,,,None,660.6478608000034,660.6478608000034,660.6478608000034,660.6478608000034,660.6478608000034,660.6478608000034,r,0.8855465000015101,661.5641997999992,661.5641997999992,661.5641997999992,661.5641997999992,661.5641997999992,661.5641997999992,661.8611100999988,661.8611100999988,663.0581926000013,663.0581926000013,663.0581926000013,663.0581926000013,663.0581926000013,663.0581926000013,663.0581926000013,663.0581926000013,663.0581926000013,663.0581926000013,663.0581926000013,663.0581926000013,663.0581926000013,663.0581926000013,663.0581926000013,663.0581926000013,663.0581926000013,665.5672268999988,665.5672268999988,665.5672268999988,665.5672268999988,665.5672268999988,94,18,50,36,94,73,5.0,3.772488599999633,,,[],[],[],[],[],[],[],-0.2,2,,[],[],[],[],[],[],[],None,None,669.3645125999974,671.0356956999967,,,,,,,,,,,,,,,,,,,,,,,,,,,,227,f,18,2023-03-19_17h54.59.053,RL,2022.2.4,60.02440592236418,
0,0.3,0.225,0,47,47,47,,,,,,,,,,None,671.0356956999967,671.0356956999967,671.0356956999967,671.0356956999967,671.0356956999967,671.0356956999967,j,0.4779789999956847,671.5351863000033,671.5351863000033,671.5351863000033,671.5351863000033,671.5351863000033,671.5351863000033,671.8339001999993,671.8339001999993,673.7956373999987,673.7956373999987,673.7956373999987,673.7956373999987,673.7956373999987,673.7956373999987,673.7956373999987,673.7956373999987,673.7956373999987,673.7956373999987,673.7956373999987,673.7956373999987,673.7956373999987,673.7956373999987,673.7956373999987,673.7956373999987,673.7956373999987,676.3044809999992,676.3044809999992,676.3044809999992,676.3044809999992,676.3044809999992,91,19,50,45,45,81,3.0,1.944333599996753,,,[],[],[],[],[],[],[],0.6,2,,[],[],[],[],[],[],[],None,None,678.2761898000026,680.2110543000017,,,,,,,,,,,,,,,,,,,,,,,,,,,,227,f,18,2023-03-19_17h54.59.053,RL,2022.2.4,60.02440592236418,
1,-0.3,-0.225,0,48,48,48,,,,,,,,,,None,680.2110543000017,680.2110543000017,680.2110543000017,680.2110543000017,680.2110543000017,680.2110543000017,r,1.1417308000018238,681.375108100001,681.375108100001,681.375108100001,681.375108100001,681.375108100001,681.375108100001,681.6740314999988,681.6740314999988,683.6684191000022,683.6684191000022,683.6684191000022,683.6684191000022,683.6684191000022,683.6684191000022,683.6684191000022,683.6684191000022,683.6684191000022,683.6684191000022,683.6684191000022,683.6684191000022,683.6684191000022,683.6684191000022,683.6684191000022,683.6684191000022,683.6684191000022,,,,,,97,24,59,56,97,70,None,None,98,98,[-0.04722222222222222],[-0.2861111111111111],[1],[0],[0],[4.160990999997011],['tijiao'],-0.6,0,,[],[],[],[],[],[],[],1.8703703703703702,2.380471199998283,692.7590051000006,694.6051405000035,686.1800134000005,686.1800134000005,686.1800134000005,686.1800134000005,686.1800134000005,686.1800134000005,686.1800134000005,686.1800134000005,0.007567799999378622,690.3605086000025,690.3605086000025,690.3605086000025,690.3605086000025,,,,,,,,,,,,,,,227,f,18,2023-03-19_17h54.59.053,RL,2022.2.4,60.02440592236418,
0,0.3,0.225,0,49,49,49,,,,,,,,,,None,694.6051405000035,694.6051405000035,694.6051405000035,694.6051405000035,694.6051405000035,694.6051405000035,f,0.47988659999828087,695.1040128000022,695.1040128000022,695.1040128000022,695.1040128000022,695.1040128000022,695.1040128000022,695.40337,695.40337,696.267243000002,696.267243000002,696.267243000002,696.267243000002,696.267243000002,696.267243000002,696.267243000002,696.267243000002,696.267243000002,696.267243000002,696.267243000002,696.267243000002,696.267243000002,696.267243000002,696.267243000002,696.267243000002,696.267243000002,,,,,,88,20,48,60,20,50,None,None,98,98,[0.03796296296296296],[-0.2777777777777778],[1],[0],[0],[3.997317400004249],['tijiao'],0.6,0,,[],[],[],[],[],[],[],1.9629629629629628,3.2427799999932176,706.0561048000018,707.6027439000027,698.7776795000027,698.7776795000027,698.7776795000027,698.7776795000027,698.7776795000027,698.7776795000027,698.7776795000027,698.7776795000027,0.00522159999673022,702.7955342999994,702.7955342999994,702.7955342999994,702.7955342999994,,,,,,,,,,,,,,,227,f,18,2023-03-19_17h54.59.053,RL,2022.2.4,60.02440592236418,
1,-0.3,-0.225,0,50,50,50,,,,,,,,,,None,707.6027439000027,707.6027439000027,707.6027439000027,707.6027439000027,707.6027439000027,707.6027439000027,f,0.833551499999885,708.4696875000009,708.4696875000009,708.4696875000009,708.4696875000009,708.4696875000009,708.4696875000009,708.7666853999981,708.7666853999981,710.7279038999986,710.7279038999986,710.7444832999972,710.7444832999972,710.7444832999972,710.7444832999972,710.7444832999972,710.7444832999972,710.7444832999972,710.7444832999972,710.7444832999972,710.7444832999972,710.7444832999972,710.7444832999972,710.7444832999972,710.7444832999972,710.7444832999972,,,,,,91,22,49,52,22,76,None,None,,,[],[],[],[],[],[],[],-0.2,1,78,[-0.06851851851851852],[-0.31203703703703706],[1],[0],[0],[5.616322599998966],['tijiao'],1.0277777777777777,2.3536734000008437,721.2645800000028,722.7948975999971,,,,,,,,,,718.8942019000024,718.8942019000024,718.8942019000024,718.8942019000024,713.263268499999,713.263268499999,713.263268499999,713.263268499999,713.263268499999,713.263268499999,713.263268499999,713.263268499999,0.005562800004554447,,,,,,227,f,18,2023-03-19_17h54.59.053,RL,2022.2.4,60.02440592236418,
0,0.3,0.225,0,51,51,51,,,,,,,,,,None,722.7948975999971,722.7948975999971,722.7948975999971,722.7948975999971,722.7948975999971,722.7948975999971,j,1.3410182000006898,724.1580094000019,724.1580094000019,724.1580094000019,724.1580094000019,724.1580094000019,724.1580094000019,724.4568616000033,724.4568616000033,725.5540038000036,725.5540038000036,725.5540038000036,725.5540038000036,725.5540038000036,725.5540038000036,725.5540038000036,725.5540038000036,725.5540038000036,725.5540038000036,725.5540038000036,725.5540038000036,725.5540038000036,725.5540038000036,725.5540038000036,725.5540038000036,725.5540038000036,,,,,,92,20,49,56,56,24,None,None,,,[],[],[],[],[],[],[],-0.2,1,98,[0.004629629629629629],[-0.3],[1],[0],[0],[5.798428199996124],['tijiao'],1.0648148148148149,1.7551546999966376,735.6587151999993,737.6206686000005,,,,,,,,,,733.8863517999998,733.8863517999998,733.8863517999998,733.8863517999998,728.0733538999993,728.0733538999993,728.0733538999993,728.0733538999993,728.0733538999993,728.0733538999993,728.0733538999993,728.0733538999993,0.00594969999656314,,,,,,227,f,18,2023-03-19_17h54.59.053,RL,2022.2.4,60.02440592236418,
1,-0.3,-0.225,0,52,52,52,,,,,,,,,,None,737.6206686000005,737.6206686000005,737.6206686000005,737.6206686000005,737.6206686000005,737.6206686000005,f,0.3866120000020601,738.0371421000018,738.0371421000018,738.0371421000018,738.0371421000018,738.0371421000018,738.0371421000018,738.3356308000002,738.3356308000002,740.3137770999965,740.3137770999965,740.3137770999965,740.3137770999965,740.3137770999965,740.3137770999965,740.3137770999965,740.3137770999965,740.3137770999965,740.3137770999965,740.3137770999965,740.3137770999965,740.3137770999965,740.3137770999965,740.3137770999965,740.3137770999965,740.3137770999965,,,,,,86,24,46,57,24,47,None,None,98,98,[0.10462962962962963],[-0.3055555555555556],[1],[0],[0],[4.327902500001073],['tijiao'],0.6,0,,[],[],[],[],[],[],[],1.0740740740740742,1.3993658999970648,748.5901895999996,750.2032954000024,742.8239303000009,742.8239303000009,742.8239303000009,742.8239303000009,742.8239303000009,742.8239303000009,742.8239303000009,742.8239303000009,0.00594680000358494,747.1728433000026,747.1728433000026,747.1728433000026,747.1728433000026,,,,,,,,,,,,,,,227,f,18,2023-03-19_17h54.59.053,RL,2022.2.4,60.02440592236418,
0,0.3,0.225,0,53,53,53,,,,,,,,,,None,750.2032954000024,750.2032954000024,750.2032954000024,750.2032954000024,750.2032954000024,750.2032954000024,j,0.8708793999976479,751.1014428999988,751.1014428999988,751.1014428999988,751.1014428999988,751.1014428999988,751.1014428999988,751.3999757999991,751.3999757999991,752.3810382000011,752.3810382000011,752.3810382000011,752.3810382000011,752.3810382000011,752.3810382000011,752.3810382000011,752.3810382000011,752.3810382000011,752.3810382000011,752.3810382000011,752.3810382000011,752.3810382000011,752.3810382000011,752.3810382000011,752.3810382000011,752.3810382000011,754.8899505000009,754.8899505000009,754.8899505000009,754.8899505000009,754.8899505000009,98,18,50,49,49,66,3.0,2.6585584999993443,,,[],[],[],[],[],[],[],-0.6,3,,[],[],[],[],[],[],[],None,None,757.5761390999978,759.5445242999995,,,,,,,,,,,,,,,,,,,,,,,,,,,,227,f,18,2023-03-19_17h54.59.053,RL,2022.2.4,60.02440592236418,
1,-0.3,-0.225,0,54,54,54,,,,,,,,,,None,759.5445242999995,759.5445242999995,759.5445242999995,759.5445242999995,759.5445242999995,759.5445242999995,j,1.0549971000000369,760.625498100002,760.625498100002,760.625498100002,760.625498100002,760.625498100002,760.625498100002,760.9242051999972,760.9242051999972,761.7718127999979,761.7718127999979,761.7718127999979,761.7718127999979,761.7718127999979,761.7718127999979,761.7718127999979,761.7718127999979,761.7718127999979,761.7718127999979,761.7718127999979,761.7718127999979,761.7718127999979,761.7718127999979,761.7718127999979,761.7718127999979,761.7718127999979,,,,,,92,20,46,55,55,65,None,None,,,[],[],[],[],[],[],[],-0.2,1,98,[0.037037037037037035],[-0.32592592592592595],[1],[0],[0],[3.3234411000012187],['tijiao'],1,1.5550516999937827,769.2003871999987,771.0962075999996,,,,,,,,,,767.6277999000013,767.6277999000013,767.6277999000013,767.6277999000013,764.2894352000003,764.2894352000003,764.2894352000003,764.2894352000003,764.2894352000003,764.2894352000003,764.2894352000003,764.2894352000003,0.006181000004289672,,,,,,227,f,18,2023-03-19_17h54.59.053,RL,2022.2.4,60.02440592236418,
0,0.3,0.225,0,55,55,55,,,,,,,,,,None,771.0962075999996,771.0962075999996,771.0962075999996,771.0962075999996,771.0962075999996,771.0962075999996,f,0.7321725000001607,771.8613705000025,771.8613705000025,771.8613705000025,771.8613705000025,771.8613705000025,771.8613705000025,772.1601658,772.1601658,773.5066309000031,773.5066309000031,773.5066309000031,773.5066309000031,773.5066309000031,773.5066309000031,773.5066309000031,773.5066309000031,773.5066309000031,773.5066309000031,773.5066309000031,773.5066309000031,773.5066309000031,773.5066309000031,773.5066309000031,773.5066309000031,773.5066309000031,,,,,,88,18,32,56,18,56,None,None,,,[],[],[],[],[],[],[],0.2,1,54,[0.08611111111111111],[-0.3111111111111111],[1],[0],[0],[4.801527800002077],['tijiao'],1.0370370370370372,1.423345100003644,782.2814146000019,784.1938127999965,,,,,,,,,,780.8400527999984,780.8400527999984,780.8400527999984,780.8400527999984,776.0251019999996,776.0251019999996,776.0251019999996,776.0251019999996,776.0251019999996,776.0251019999996,776.0251019999996,776.0251019999996,0.005946400000539143,,,,,,227,f,18,2023-03-19_17h54.59.053,RL,2022.2.4,60.02440592236418,
1,-0.3,-0.225,0,56,56,56,,,,,,,,,,None,784.1938127999965,784.1938127999965,784.1938127999965,784.1938127999965,784.1938127999965,784.1938127999965,j,0.35285050000675255,784.5764268999992,784.5764268999992,784.5764268999992,784.5764268999992,784.5764268999992,784.5764268999992,784.8756582999995,784.8756582999995,785.8230904000011,785.8230904000011,785.8230904000011,785.8230904000011,785.8230904000011,785.8230904000011,785.8230904000011,785.8230904000011,785.8230904000011,785.8230904000011,785.8230904000011,785.8230904000011,785.8230904000011,785.8230904000011,785.8230904000011,785.8230904000011,785.8230904000011,788.3320374999967,788.3320374999967,788.3320374999967,788.3320374999967,788.3320374999967,88,22,37,63,63,69,2.0,3.0578963000007207,,,[],[],[],[],[],[],[],0.6,3,,[],[],[],[],[],[],[],None,None,791.4167117999968,793.0197919999991,,,,,,,,,,,,,,,,,,,,,,,,,,,,227,f,18,2023-03-19_17h54.59.053,RL,2022.2.4,60.02440592236418,
0,0.3,0.225,0,57,57,57,,,,,,,,,,None,793.0197919999991,793.0197919999991,793.0197919999991,793.0197919999991,793.0197919999991,793.0197919999991,i,0.9372471999959089,793.9843111000009,793.9843111000009,793.9843111000009,793.9843111000009,793.9843111000009,793.9843111000009,794.2831570999988,794.2831570999988,795.7790356999976,795.7790356999976,795.7790356999976,795.7790356999976,795.7790356999976,795.7790356999976,795.7790356999976,795.7790356999976,795.7790356999976,795.7790356999976,795.7790356999976,795.7790356999976,795.7790356999976,795.7790356999976,795.7790356999976,795.7790356999976,795.7790356999976,,,,,,85,19,48,64,48,64,None,None,,,[],[],[],[],[],[],[],-0.2,1,78,[-0.04537037037037037],[-0.28888888888888886],[1],[0],[0],[3.2743953999961377],['tijiao'],1.9629629629629628,1.373192700004438,802.9747799000033,804.7541125999996,,,,,,,,,,801.5833323999977,801.5833323999977,801.5833323999977,801.5833323999977,798.2963248000015,798.2963248000015,798.2963248000015,798.2963248000015,798.2963248000015,798.2963248000015,798.2963248000015,798.2963248000015,0.005839400000695605,,,,,,227,f,18,2023-03-19_17h54.59.053,RL,2022.2.4,60.02440592236418,
1,-0.3,-0.225,0,58,58,58,,,,,,,,,,None,804.7541125999996,804.7541125999996,804.7541125999996,804.7541125999996,804.7541125999996,804.7541125999996,f,0.7023678999976255,805.487437900003,805.487437900003,805.487437900003,805.487437900003,805.487437900003,805.487437900003,805.7853864999997,805.7853864999997,807.0982248,807.0982248,807.0982248,807.0982248,807.0982248,807.0982248,807.0982248,807.0982248,807.0982248,807.0982248,807.0982248,807.0982248,807.0982248,807.0982248,807.0982248,807.0982248,807.0982248,809.6073009000029,809.6073009000029,809.6073009000029,809.6073009000029,809.6073009000029,90,26,46,54,26,66,3.0,2.176779000001261,,,[],[],[],[],[],[],[],0.6,2,,[],[],[],[],[],[],[],None,None,811.8087794000021,813.5466344000015,,,,,,,,,,,,,,,,,,,,,,,,,,,,227,f,18,2023-03-19_17h54.59.053,RL,2022.2.4,60.02440592236418,
0,0.3,0.225,0,59,59,59,,,,,,,,,,None,813.5466344000015,813.5466344000015,813.5466344000015,813.5466344000015,813.5466344000015,813.5466344000015,i,0.49258430000190856,814.062691500003,814.062691500003,814.062691500003,814.062691500003,814.062691500003,814.062691500003,814.3617403000026,814.3617403000026,815.7416127000033,815.7416127000033,815.7416127000033,815.7416127000033,815.7416127000033,815.7416127000033,815.7416127000033,815.7416127000033,815.7416127000033,815.7416127000033,815.7416127000033,815.7416127000033,815.7416127000033,815.7416127000033,815.7416127000033,815.7416127000033,815.7416127000033,818.2503202000007,818.2503202000007,818.2503202000007,818.2503202000007,818.2503202000007,94,12,46,49,46,65,3.0,2.6085938999967766,,,[],[],[],[],[],[],[],0.2,2,,[],[],[],[],[],[],[],None,None,820.8861656000008,822.8715152000004,,,,,,,,,,,,,,,,,,,,,,,,,,,,227,f,18,2023-03-19_17h54.59.053,RL,2022.2.4,60.02440592236418,
1,-0.3,-0.225,0,60,60,60,,,,,,,,,,None,822.8715152000004,822.8715152000004,822.8715152000004,822.8715152000004,822.8715152000004,822.8715152000004,i,0.5168603999991319,823.420578899997,823.420578899997,823.420578899997,823.420578899997,823.420578899997,823.420578899997,823.7196276999966,823.7196276999966,824.6171135999975,824.6171135999975,824.6171135999975,824.6171135999975,824.6171135999975,824.6171135999975,824.6171135999975,824.6171135999975,824.6171135999975,824.6171135999975,824.6171135999975,824.6171135999975,824.6171135999975,824.6171135999975,824.6171135999975,824.6171135999975,824.6171135999975,827.1261687000006,827.1261687000006,827.1261687000006,827.1261687000006,827.1261687000006,89,14,41,54,41,64,3.0,2.4593144999962533,,,[],[],[],[],[],[],[],0.6,2,,[],[],[],[],[],[],[],None,None,829.6111651000028,831.6140287000017,,,,,,,,,,,,,,,,,,,,,,,,,,,,227,f,18,2023-03-19_17h54.59.053,RL,2022.2.4,60.02440592236418,
0,0.3,0.225,0,61,61,61,,,,,,,,,,None,831.6140287000017,831.6140287000017,831.6140287000017,831.6140287000017,831.6140287000017,831.6140287000017,r,0.899316800001543,832.5456210999982,832.5456210999982,832.5456210999982,832.5456210999982,832.5456210999982,832.5456210999982,832.8446161000029,832.8446161000029,834.4070534999992,834.4070534999992,834.4070534999992,834.4070534999992,834.4070534999992,834.4070534999992,834.4070534999992,834.4070534999992,834.4070534999992,834.4070534999992,834.4070534999992,834.4070534999992,834.4070534999992,834.4070534999992,834.4070534999992,834.4070534999992,834.4070534999992,,,,,,81,14,41,59,81,65,None,None,76,76,[-0.01574074074074074],[-0.25833333333333336],[1],[0],[0],[4.628607700004068],['tijiao'],0.6,0,,[],[],[],[],[],[],[],1.0462962962962965,1.6795032000009087,843.2652942999994,844.8281534999987,836.9170297000019,836.9170297000019,836.9170297000019,836.9170297000019,836.9170297000019,836.9170297000019,836.9170297000019,836.9170297000019,0.005594700000074226,841.5670928999971,841.5670928999971,841.5670928999971,841.5670928999971,,,,,,,,,,,,,,,227,f,18,2023-03-19_17h54.59.053,RL,2022.2.4,60.02440592236418,
1,-0.3,-0.225,0,62,62,62,,,,,,,,,,None,844.8281534999987,844.8281534999987,844.8281534999987,844.8281534999987,844.8281534999987,844.8281534999987,f,0.4471957999994629,845.2939404999997,845.2939404999997,845.2939404999997,845.2939404999997,845.2939404999997,845.2939404999997,845.5929294000016,845.5929294000016,847.6040844000017,847.6040844000017,847.6040844000017,847.6040844000017,847.6040844000017,847.6040844000017,847.6040844000017,847.6040844000017,847.6040844000017,847.6040844000017,847.6040844000017,847.6040844000017,847.6040844000017,847.6040844000017,847.6040844000017,847.6040844000017,847.6040844000017,850.1134356999974,850.1134356999974,850.1134356999974,850.1134356999974,850.1134356999974,79,12,39,58,12,67,3.0,3.074396700001671,,,[],[],[],[],[],[],[],0.2,3,,[],[],[],[],[],[],[],None,None,853.2128508000023,855.0171458999976,,,,,,,,,,,,,,,,,,,,,,,,,,,,227,f,18,2023-03-19_17h54.59.053,RL,2022.2.4,60.02440592236418,
0,0.3,0.225,0,63,63,63,,,,,,,,,,None,855.0171458999976,855.0171458999976,855.0171458999976,855.0171458999976,855.0171458999976,855.0171458999976,j,1.1017296999998507,856.1494276000012,856.1494276000012,856.1494276000012,856.1494276000012,856.1494276000012,856.1494276000012,856.4469785999972,856.4469785999972,857.5932652999982,857.5932652999982,857.5932652999982,857.5932652999982,857.5932652999982,857.5932652999982,857.5932652999982,857.5932652999982,857.5932652999982,857.5932652999982,857.5932652999982,857.5932652999982,857.5932652999982,857.5932652999982,857.5932652999982,857.5932652999982,857.5932652999982,860.1024570000009,860.1024570000009,860.1024570000009,860.1024570000009,860.1024570000009,71,14,37,64,64,60,4.0,3.7224516999995103,,,[],[],[],[],[],[],[],-0.6,2,,[],[],[],[],[],[],[],None,None,863.850148700003,865.8043424999996,,,,,,,,,,,,,,,,,,,,,,,,,,,,227,f,18,2023-03-19_17h54.59.053,RL,2022.2.4,60.02440592236418,
1,-0.3,-0.225,0,64,64,64,,,,,,,,,,None,865.8043424999996,865.8043424999996,865.8043424999996,865.8043424999996,865.8043424999996,865.8043424999996,j,0.7885170000008657,866.6200030000036,866.6200030000036,866.6200030000036,866.6200030000036,866.6200030000036,866.6200030000036,866.9179624000026,866.9179624000026,867.8489671999996,867.8489671999996,867.8489671999996,867.8489671999996,867.8489671999996,867.8489671999996,867.8489671999996,867.8489671999996,867.8489671999996,867.8489671999996,867.8489671999996,867.8489671999996,867.8489671999996,867.8489671999996,867.8489671999996,867.8489671999996,867.8489671999996,,,,,,83,14,39,66,66,64,None,None,66,66,[-0.03888888888888889],[-0.30925925925925923],[1],[0],[0],[4.493875499996648],['tijiao'],-0.2,0,,[],[],[],[],[],[],[],1.9999999999999998,6.00138579999475,880.8954324000006,882.8577376999965,870.3608310999989,870.3608310999989,870.3608310999989,870.3608310999989,870.3608310999989,870.3608310999989,870.3608310999989,870.3608310999989,0.00780030000169063,874.8762246999977,874.8762246999977,874.8762246999977,874.8762246999977,,,,,,,,,,,,,,,227,f,18,2023-03-19_17h54.59.053,RL,2022.2.4,60.02440592236418,
0,0.3,0.225,0,65,65,65,,,,,,,,,,None,882.8577376999965,882.8577376999965,882.8577376999965,882.8577376999965,882.8577376999965,882.8577376999965,f,0.7633497999995598,883.6395802999978,883.6395802999978,883.6395802999978,883.6395802999978,883.6395802999978,883.6395802999978,883.9385524000027,883.9385524000027,885.9162141999986,885.9162141999986,885.9162141999986,885.9162141999986,885.9162141999986,885.9162141999986,885.9162141999986,885.9162141999986,885.9162141999986,885.9162141999986,885.9162141999986,885.9162141999986,885.9162141999986,885.9162141999986,885.9162141999986,885.9162141999986,885.9162141999986,888.425056,888.425056,888.425056,888.425056,888.425056,84,1,41,61,1,47,2.0,2.027534699998796,,,[],[],[],[],[],[],[],-0.6,3,,[],[],[],[],[],[],[],None,None,890.4769958999968,892.3818482999995,,,,,,,,,,,,,,,,,,,,,,,,,,,,227,f,18,2023-03-19_17h54.59.053,RL,2022.2.4,60.02440592236418,
1,-0.3,-0.225,0,66,66,66,,,,,,,,,,None,892.3818482999995,892.3818482999995,892.3818482999995,892.3818482999995,892.3818482999995,892.3818482999995,r,0.6646055999954115,893.0635132000025,893.0635132000025,893.0635132000025,893.0635132000025,893.0635132000025,893.0635132000025,893.3624889999992,893.3624889999992,894.2599957999992,894.2599957999992,894.2599957999992,894.2599957999992,894.2599957999992,894.2599957999992,894.2599957999992,894.2599957999992,894.2599957999992,894.2599957999992,894.2599957999992,894.2599957999992,894.2599957999992,894.2599957999992,894.2599957999992,894.2599957999992,894.2599957999992,896.7690941999972,896.7690941999972,896.7690941999972,896.7690941999972,896.7690941999972,75,8,42,66,75,49,4.0,4.486686999996891,,,[],[],[],[],[],[],[],0.6,3,,[],[],[],[],[],[],[],None,None,901.2826417000033,903.2023167000007,,,,,,,,,,,,,,,,,,,,,,,,,,,,227,f,18,2023-03-19_17h54.59.053,RL,2022.2.4,60.02440592236418,
0,0.3,0.225,0,67,67,67,,,,,,,,,,None,903.2023167000007,903.2023167000007,903.2023167000007,903.2023167000007,903.2023167000007,903.2023167000007,f,0.7449362000043038,903.9674350999994,903.9674350999994,903.9674350999994,903.9674350999994,903.9674350999994,903.9674350999994,904.2661750999978,904.2661750999978,906.1944322999989,906.1944322999989,906.1944322999989,906.1944322999989,906.1944322999989,906.1944322999989,906.1944322999989,906.1944322999989,906.1944322999989,906.1944322999989,906.1944322999989,906.1944322999989,906.1944322999989,906.1944322999989,906.1944322999989,906.1944322999989,906.1944322999989,,,,,,85,11,41,68,11,62,None,None,88,88,[0.046296296296296294],[-0.2675925925925926],[1],[0],[0],[5.625658199998725],['tijiao'],-0.2,0,,[],[],[],[],[],[],[],8.12037037037037,2.162520300000324,916.531519199998,918.4769786999968,908.7044441000035,908.7044441000035,908.7044441000035,908.7044441000035,908.7044441000035,908.7044441000035,908.7044441000035,908.7044441000035,0.005713899998227134,914.3502242000031,914.3502242000031,914.3502242000031,914.3502242000031,,,,,,,,,,,,,,,227,f,18,2023-03-19_17h54.59.053,RL,2022.2.4,60.02440592236418,
1,-0.3,-0.225,0,68,68,68,,,,,,,,,,None,918.4769786999968,918.4769786999968,918.4769786999968,918.4769786999968,918.4769786999968,918.4769786999968,f,0.7280742999937502,919.2258969999966,919.2258969999966,919.2258969999966,919.2258969999966,919.2258969999966,919.2258969999966,919.5247202000028,919.5247202000028,920.521903300003,920.521903300003,920.521903300003,920.521903300003,920.521903300003,920.521903300003,920.521903300003,920.521903300003,920.521903300003,920.521903300003,920.521903300003,920.521903300003,920.521903300003,920.521903300003,920.521903300003,920.521903300003,920.521903300003,,,,,,80,15,47,67,15,53,None,None,88,88,[-0.003703703703703704],[-0.28425925925925927],[1],[0],[0],[3.365715600004478],['tijiao'],0.2,0,,[],[],[],[],[],[],[],5.027777777777778,3.3600798999977997,929.7953826000012,931.724378699997,923.0319055,923.0319055,923.0319055,923.0319055,923.0319055,923.0319055,923.0319055,923.0319055,0.0051595999975688756,926.4168425000025,926.4168425000025,926.4168425000025,926.4168425000025,,,,,,,,,,,,,,,227,f,18,2023-03-19_17h54.59.053,RL,2022.2.4,60.02440592236418,
0,0.3,0.225,0,69,69,69,,,,,,,,,,None,931.724378699997,931.724378699997,931.724378699997,931.724378699997,931.724378699997,931.724378699997,j,0.837249600001087,932.5889805999977,932.5889805999977,932.5889805999977,932.5889805999977,932.5889805999977,932.5889805999977,932.8880805000008,932.8880805000008,933.9016082000016,933.9016082000016,933.9016082000016,933.9016082000016,933.9016082000016,933.9016082000016,933.9016082000016,933.9016082000016,933.9016082000016,933.9016082000016,933.9016082000016,933.9016082000016,933.9016082000016,933.9016082000016,933.9016082000016,933.9016082000016,933.9016082000016,,,,,,80,32,37,76,76,64,None,None,,,[],[],[],[],[],[],[],0.2,1,67,[-0.06111111111111111],[-0.30185185185185187],[1],[0],[0],[4.952926499994646],['tijiao'],5.953703703703703,2.8194326000011642,944.2227446000034,945.9024419999987,,,,,,,,,,941.3853145999965,941.3853145999965,941.3853145999965,941.3853145999965,936.4193757999965,936.4193757999965,936.4193757999965,936.4193757999965,936.4193757999965,936.4193757999965,936.4193757999965,936.4193757999965,0.006090899994887877,,,,,,227,f,18,2023-03-19_17h54.59.053,RL,2022.2.4,60.02440592236418,
1,-0.3,-0.225,0,70,70,70,,,,,,,,,,None,945.9024419999987,945.9024419999987,945.9024419999987,945.9024419999987,945.9024419999987,945.9024419999987,f,0.6559221999996225,946.5859560000026,946.5859560000026,946.5859560000026,946.5859560000026,946.5859560000026,946.5859560000026,946.8834004000018,946.8834004000018,948.5288136000017,948.5288136000017,948.5288136000017,948.5288136000017,948.5288136000017,948.5288136000017,948.5288136000017,948.5288136000017,948.5288136000017,948.5288136000017,948.5288136000017,948.5288136000017,948.5288136000017,948.5288136000017,948.5288136000017,948.5288136000017,948.5288136000017,951.0380106000011,951.0380106000011,951.0380106000011,951.0380106000011,951.0380106000011,67,25,37,81,25,70,3.0,2.675409800001944,,,[],[],[],[],[],[],[],-0.6,3,,[],[],[],[],[],[],[],None,None,953.7393219000005,955.5093940000006,,,,,,,,,,,,,,,,,,,,,,,,,,,,227,f,18,2023-03-19_17h54.59.053,RL,2022.2.4,60.02440592236418,
0,0.3,0.225,0,71,71,71,,,,,,,,,,None,955.5093940000006,955.5093940000006,955.5093940000006,955.5093940000006,955.5093940000006,955.5093940000006,f,0.928494599997066,956.4571055999986,956.4571055999986,956.4571055999986,956.4571055999986,956.4571055999986,956.4571055999986,956.7563298000023,956.7563298000023,957.8696901000003,957.8696901000003,957.8696901000003,957.8696901000003,957.8696901000003,957.8696901000003,957.8696901000003,957.8696901000003,957.8696901000003,957.8696901000003,957.8696901000003,957.8696901000003,957.8696901000003,957.8696901000003,957.8696901000003,957.8696901000003,957.8696901000003,,,,,,86,23,33,74,23,26,None,None,88,88,[0.028703703703703703],[-0.2935185185185185],[1],[0],[0],[3.1641821000011987],['tijiao'],-0.2,0,,[],[],[],[],[],[],[],3.962962962962963,1.5787283000026946,965.1654691000003,966.9782235000021,960.3819214999967,960.3819214999967,960.3819214999967,960.3819214999967,960.3819214999967,960.3819214999967,960.3819214999967,960.3819214999967,0.007889599997724872,963.5686274000036,963.5686274000036,963.5686274000036,963.5686274000036,,,,,,,,,,,,,,,227,f,18,2023-03-19_17h54.59.053,RL,2022.2.4,60.02440592236418,
1,-0.3,-0.225,0,72,72,72,,,,,,,,,,None,966.9782235000021,966.9782235000021,966.9782235000021,966.9782235000021,966.9782235000021,966.9782235000021,i,0.6133113000032608,967.6100842000014,967.6100842000014,967.6100842000014,967.6100842000014,967.6100842000014,967.6100842000014,967.9090982999987,967.9090982999987,969.3053244999974,969.3053244999974,969.3053244999974,969.3053244999974,969.3053244999974,969.3053244999974,969.3053244999974,969.3053244999974,969.3053244999974,969.3053244999974,969.3053244999974,969.3053244999974,969.3053244999974,969.3053244999974,969.3053244999974,969.3053244999974,969.3053244999974,,,,,,80,22,31,78,31,60,None,None,,,[],[],[],[],[],[],[],-0.2,1,76,[0.04537037037037037],[-0.30185185185185187],[1],[0],[0],[3.656390999996802],['tijiao'],1.1018518518518519,1.3882493999990402,976.8999951000005,978.8623282999979,,,,,,,,,,975.4942031000028,975.4942031000028,975.4942031000028,975.4942031000028,971.822272999998,971.822272999998,971.822272999998,971.822272999998,971.822272999998,971.822272999998,971.822272999998,971.822272999998,0.0068212999976822175,,,,,,227,f,18,2023-03-19_17h54.59.053,RL,2022.2.4,60.02440592236418,
0,0.3,0.225,0,73,73,73,,,,,,,,,,None,978.8623282999979,978.8623282999979,978.8623282999979,978.8623282999979,978.8623282999979,978.8623282999979,r,0.8672613999951864,979.7605184999993,979.7605184999993,979.7605184999993,979.7605184999993,979.7605184999993,979.7605184999993,980.0589483000003,980.0589483000003,981.056314100002,981.056314100002,981.056314100002,981.056314100002,981.056314100002,981.056314100002,981.056314100002,981.056314100002,981.056314100002,981.056314100002,981.056314100002,981.056314100002,981.056314100002,981.056314100002,981.056314100002,981.056314100002,981.056314100002,983.5652967999995,983.5652967999995,983.5652967999995,983.5652967999995,983.5652967999995,86,27,31,81,86,72,4.0,3.755941300005361,,,[],[],[],[],[],[],[],0.2,2,,[],[],[],[],[],[],[],None,None,987.3472579000008,988.9845961000028,,,,,,,,,,,,,,,,,,,,,,,,,,,,227,f,18,2023-03-19_17h54.59.053,RL,2022.2.4,60.02440592236418,
1,-0.3,-0.225,0,74,74,74,,,,,,,,,,None,988.9845961000028,988.9845961000028,988.9845961000028,988.9845961000028,988.9845961000028,988.9845961000028,j,0.8955264000032912,989.8993391999975,989.8993391999975,989.8993391999975,989.8993391999975,989.8993391999975,989.8993391999975,990.1983508999983,990.1983508999983,991.8932860999994,991.8932860999994,991.8932860999994,991.8932860999994,991.8932860999994,991.8932860999994,991.8932860999994,991.8932860999994,991.8932860999994,991.8932860999994,991.8932860999994,991.8932860999994,991.8932860999994,991.8932860999994,991.8932860999994,991.8932860999994,991.8932860999994,,,,,,80,24,33,69,69,55,None,None,89,89,[0.0824074074074074],[-0.30185185185185187],[1],[0],[0],[3.5139701000007335],['tijiao'],0.2,0,,[],[],[],[],[],[],[],1,4.488276700001734,1002.4472833000036,1004.3424000000014,994.4036672000002,994.4036672000002,994.4036672000002,994.4036672000002,994.4036672000002,994.4036672000002,994.4036672000002,994.4036672000002,0.006138700002338737,997.9423135999969,997.9423135999969,997.9423135999969,997.9423135999969,,,,,,,,,,,,,,,227,f,18,2023-03-19_17h54.59.053,RL,2022.2.4,60.02440592236418,
0,0.3,0.225,0,75,75,75,,,,,,,,,,q,1042.606325599998,1042.606325599998,1042.606325599998,1042.606325599998,1042.606325599998,1042.606325599998,None,,,,,,,,,,,,,,,,,,,,,,,,,,,,,,,,82,26,39,74,0,**,None,None,,,[],[],[],[],[],[],[],-0.2,0,,[],[],[],[],[],[],[],None,None,1048.6379872000034,1050.5165256999971,,,,,,,,,,,,,,,,,,,,,,,1044.1371813000005,1048.6379872000034,1004.3424000000014,1004.3424000000014,38.2407222000038,227,f,18,2023-03-19_17h54.59.053,RL,2022.2.4,60.02440592236418,
1,-0.3,-0.225,0,76,76,76,,,,,,,,,,None,1050.5165256999971,1050.5165256999971,1050.5165256999971,1050.5165256999971,1050.5165256999971,1050.5165256999971,j,0.31388589999551186,1050.8494137000016,1050.8494137000016,1050.8494137000016,1050.8494137000016,1050.8494137000016,1050.8494137000016,1051.148702999999,1051.148702999999,1052.1455005000025,1052.1455005000025,1052.1455005000025,1052.1455005000025,1052.1455005000025,1052.1455005000025,1052.1455005000025,1052.1455005000025,1052.1455005000025,1052.1455005000025,1052.1455005000025,1052.1455005000025,1052.1455005000025,1052.1455005000025,1052.1455005000025,1052.1455005000025,1052.1455005000025,,,,,,82,33,37,83,83,71,None,None,87,87,[-0.08981481481481482],[-0.2675925925925926],[1],[0],[0],[3.6973843999949167],['tijiao'],-0.6,0,,[],[],[],[],[],[],[],1.9166666666666667,1.8308413999984623,1060.2226109999974,1061.8855987999996,1054.656049199999,1054.656049199999,1054.656049199999,1054.656049199999,1054.656049199999,1054.656049199999,1054.656049199999,1054.656049199999,0.0057623999964562245,1058.374063299998,1058.374063299998,1058.374063299998,1058.374063299998,,,,,,,,,,,,,,,227,f,18,2023-03-19_17h54.59.053,RL,2022.2.4,60.02440592236418,
0,0.3,0.225,0,77,77,77,,,,,,,,,,None,1061.8855987999996,1061.8855987999996,1061.8855987999996,1061.8855987999996,1061.8855987999996,1061.8855987999996,j,0.5077430000019376,1062.4180078999998,1062.4180078999998,1062.4180078999998,1062.4180078999998,1062.4180078999998,1062.4180078999998,1062.7168278000026,1062.7168278000026,1064.379016400002,1064.379016400002,1064.379016400002,1064.379016400002,1064.379016400002,1064.379016400002,1064.379016400002,1064.379016400002,1064.379016400002,1064.379016400002,1064.379016400002,1064.379016400002,1064.379016400002,1064.379016400002,1064.379016400002,1064.379016400002,1064.379016400002,,,,,,85,39,28,83,83,60,None,None,89,89,[0.026851851851851852],[-0.30648148148148147],[1],[0],[0],[3.2464820000022883],['tijiao'],0.6,0,,[],[],[],[],[],[],[],1,2.496498700005759,1072.672273199998,1074.3349826999984,1066.890734200002,1066.890734200002,1066.890734200002,1066.890734200002,1066.890734200002,1066.890734200002,1066.890734200002,1066.890734200002,0.007671100000152364,1070.1573983999988,1070.1573983999988,1070.1573983999988,1070.1573983999988,,,,,,,,,,,,,,,227,f,18,2023-03-19_17h54.59.053,RL,2022.2.4,60.02440592236418,
1,-0.3,-0.225,0,78,78,78,,,,,,,,,,None,1074.3349826999984,1074.3349826999984,1074.3349826999984,1074.3349826999984,1074.3349826999984,1074.3349826999984,r,0.4362293000012869,1074.8009987999976,1074.8009987999976,1074.8009987999976,1074.8009987999976,1074.8009987999976,1074.8009987999976,1075.0995792999965,1075.0995792999965,1076.6788366999972,1076.6788366999972,1076.6954294000025,1076.6954294000025,1076.6954294000025,1076.6954294000025,1076.6954294000025,1076.6954294000025,1076.6954294000025,1076.6954294000025,1076.6954294000025,1076.6954294000025,1076.6954294000025,1076.6954294000025,1076.6954294000025,1076.6954294000025,1076.6954294000025,1079.2043603999991,1079.2043603999991,1079.2043603999991,1079.2043603999991,1079.2043603999991,93,35,35,74,93,38,6.0,2.359267899999395,,,[],[],[],[],[],[],[],0.6,3,,[],[],[],[],[],[],[],None,None,1081.5897773999968,1083.1941695999994,,,,,,,,,,,,,,,,,,,,,,,,,,,,227,f,18,2023-03-19_17h54.59.053,RL,2022.2.4,60.02440592236418,
0,0.3,0.225,0,79,79,79,,,,,,,,,,None,1083.1941695999994,1083.1941695999994,1083.1941695999994,1083.1941695999994,1083.1941695999994,1083.1941695999994,j,0.6326112000024295,1083.8596082000004,1083.8596082000004,1083.8596082000004,1083.8596082000004,1083.8596082000004,1083.8596082000004,1084.1585141999967,1084.1585141999967,1085.654299599999,1085.654299599999,1085.654299599999,1085.654299599999,1085.654299599999,1085.654299599999,1085.654299599999,1085.654299599999,1085.654299599999,1085.654299599999,1085.654299599999,1085.654299599999,1085.654299599999,1085.654299599999,1085.654299599999,1085.654299599999,1085.654299599999,1088.1632566999979,1088.1632566999979,1088.1632566999979,1088.1632566999979,1088.1632566999979,88,32,39,83,83,68,5.0,2.6425410000010743,,,[],[],[],[],[],[],[],-0.6,3,,[],[],[],[],[],[],[],None,None,1090.8313651999997,1092.3524170000019,,,,,,,,,,,,,,,,,,,,,,,,,,,,227,f,18,2023-03-19_17h54.59.053,RL,2022.2.4,60.02440592236418,
1,-0.3,-0.225,0,80,80,80,,,,,,,,,,None,1092.3524170000019,1092.3524170000019,1092.3524170000019,1092.3524170000019,1092.3524170000019,1092.3524170000019,j,0.6257554999974673,1093.0026371999993,1093.0026371999993,1093.0026371999993,1093.0026371999993,1093.0026371999993,1093.0026371999993,1093.3000354999967,1093.3000354999967,1094.5466595000034,1094.5466595000034,1094.5466595000034,1094.5466595000034,1094.5466595000034,1094.5466595000034,1094.5466595000034,1094.5466595000034,1094.5466595000034,1094.5466595000034,1094.5466595000034,1094.5466595000034,1094.5466595000034,1094.5466595000034,1094.5466595000034,1094.5466595000034,1094.5466595000034,,,,,,93,29,36,71,71,62,None,None,,,[],[],[],[],[],[],[],-0.2,1,88,[-0.06388888888888888],[-0.2638888888888889],[1],[0],[0],[5.798660500004189],['tijiao'],1.0370370370370372,2.204012000001967,1105.0999601000003,1107.0790055000034,,,,,,,,,,1102.8774577000004,1102.8774577000004,1102.8774577000004,1102.8774577000004,1097.0663084999978,1097.0663084999978,1097.0663084999978,1097.0663084999978,1097.0663084999978,1097.0663084999978,1097.0663084999978,1097.0663084999978,0.005767700000433251,,,,,,227,f,18,2023-03-19_17h54.59.053,RL,2022.2.4,60.02440592236418,
0,0.3,0.225,0,81,81,81,,,,,,,,,,None,1107.0790055000034,1107.0790055000034,1107.0790055000034,1107.0790055000034,1107.0790055000034,1107.0790055000034,f,0.4448878000039258,1107.5445954000024,1107.5445954000024,1107.5445954000024,1107.5445954000024,1107.5445954000024,1107.5445954000024,1107.8436998999969,1107.8436998999969,1109.1234906000027,1109.1234906000027,1109.1234906000027,1109.1234906000027,1109.1234906000027,1109.1234906000027,1109.1234906000027,1109.1234906000027,1109.1234906000027,1109.1234906000027,1109.1234906000027,1109.1234906000027,1109.1234906000027,1109.1234906000027,1109.1234906000027,1109.1234906000027,1109.1234906000027,,,,,,94,20,33,67,20,62,None,None,,,[],[],[],[],[],[],[],0.6,1,56,[0.07962962962962963],[-0.31203703703703706],[1],[0],[0],[6.263833999997587],['tijiao'],1.0648148148148149,3.034677299998293,1120.9732172000004,1122.8192180999977,,,,,,,,,,1117.9212626000008,1117.9212626000008,1117.9212626000008,1117.9212626000008,1111.6423609999983,1111.6423609999983,1111.6423609999983,1111.6423609999983,1111.6423609999983,1111.6423609999983,1111.6423609999983,1111.6423609999983,0.005884999998670537,,,,,,227,f,18,2023-03-19_17h54.59.053,RL,2022.2.4,60.02440592236418,
1,-0.3,-0.225,0,82,82,82,,,,,,,,,,None,1122.8192180999977,1122.8192180999977,1122.8192180999977,1122.8192180999977,1122.8192180999977,1122.8192180999977,r,0.4679147999995621,1123.3199442999976,1123.3199442999976,1123.3199442999976,1123.3199442999976,1123.3199442999976,1123.3199442999976,1123.617345300001,1123.617345300001,1125.2795744000032,1125.2795744000032,1125.2795744000032,1125.2795744000032,1125.2795744000032,1125.2795744000032,1125.2795744000032,1125.2795744000032,1125.2795744000032,1125.2795744000032,1125.2795744000032,1125.2795744000032,1125.2795744000032,1125.2795744000032,1125.2795744000032,1125.2795744000032,1125.2795744000032,1127.7886151999992,1127.7886151999992,1127.7886151999992,1127.7886151999992,1127.7886151999992,89,22,26,66,89,35,5.0,2.1267709999956423,,,[],[],[],[],[],[],[],0.6,3,,[],[],[],[],[],[],[],None,None,1129.9425948999997,1131.8779937,,,,,,,,,,,,,,,,,,,,,,,,,,,,227,f,18,2023-03-19_17h54.59.053,RL,2022.2.4,60.02440592236418,
0,0.3,0.225,0,83,83,83,,,,,,,,,,None,1131.8779937,1131.8779937,1131.8779937,1131.8779937,1131.8779937,1131.8779937,None,,,,,,,,,,,,,,,,,,,,,,,,,,,,,,,,96,24,32,65,0,**,None,None,,,[],[],[],[],[],[],[],0.2,3,,[],[],[],[],[],[],[],None,None,1137.9105752999967,1139.5070406000013,,,,,,,,,,,,,,,,,,,,,,,1133.407661199999,1137.9105752999967,,,,227,f,18,2023-03-19_17h54.59.053,RL,2022.2.4,60.02440592236418,
1,-0.3,-0.225,0,84,84,84,,,,,,,,,,None,1139.5070406000013,1139.5070406000013,1139.5070406000013,1139.5070406000013,1139.5070406000013,1139.5070406000013,j,0.43406449999747565,1139.973086500002,1139.973086500002,1139.973086500002,1139.973086500002,1139.973086500002,1139.973086500002,1140.2719762999986,1140.2719762999986,1141.418896199997,1141.418896199997,1141.418896199997,1141.418896199997,1141.418896199997,1141.418896199997,1141.418896199997,1141.418896199997,1141.418896199997,1141.418896199997,1141.418896199997,1141.418896199997,1141.418896199997,1141.418896199997,1141.418896199997,1141.418896199997,1141.418896199997,1143.9277261000025,1143.9277261000025,1143.9277261000025,1143.9277261000025,1143.9277261000025,95,15,37,65,65,82,4.0,2.1105209999950603,,,[],[],[],[],[],[],[],0.2,2,,[],[],[],[],[],[],[],None,None,1146.0633992000003,1147.8673176000011,,,,,,,,,,,,,,,,,,,,,,,,,,,,227,f,18,2023-03-19_17h54.59.053,RL,2022.2.4,60.02440592236418,
0,0.3,0.225,0,85,85,85,,,,,,,,,,None,1147.8673176000011,1147.8673176000011,1147.8673176000011,1147.8673176000011,1147.8673176000011,1147.8673176000011,j,0.5556036999987555,1148.4515508999975,1148.4515508999975,1148.4515508999975,1148.4515508999975,1148.4515508999975,1148.4515508999975,1148.748635099997,1148.748635099997,1150.1782531999997,1150.1782531999997,1150.1782531999997,1150.1782531999997,1150.1782531999997,1150.1782531999997,1150.1782531999997,1150.1782531999997,1150.1782531999997,1150.1782531999997,1150.1782531999997,1150.1782531999997,1150.1782531999997,1150.1782531999997,1150.1782531999997,1150.1782531999997,1150.1782531999997,,,,,,92,18,35,64,64,72,None,None,72,72,[-0.005555555555555556],[-0.28703703703703703],[1],[0],[0],[4.611854800001311],['tijiao'],-0.6,0,,[],[],[],[],[],[],[],1.0462962962962965,2.4934442000012496,1159.8340188000002,1161.5969009999972,1152.688507400002,1152.688507400002,1152.688507400002,1152.688507400002,1152.688507400002,1152.688507400002,1152.688507400002,1152.688507400002,0.0055885999972815625,1157.3227800000022,1157.3227800000022,1157.3227800000022,1157.3227800000022,,,,,,,,,,,,,,,227,f,18,2023-03-19_17h54.59.053,RL,2022.2.4,60.02440592236418,
1,-0.3,-0.225,0,86,86,86,,,,,,,,,,None,1161.5969009999972,1161.5969009999972,1161.5969009999972,1161.5969009999972,1161.5969009999972,1161.5969009999972,r,0.5674341999983881,1162.1955966000023,1162.1955966000023,1162.1955966000023,1162.1955966000023,1162.1955966000023,1162.1955966000023,1162.4942486,1162.4942486,1163.3920227999988,1163.3920227999988,1163.3920227999988,1163.3920227999988,1163.3920227999988,1163.3920227999988,1163.3920227999988,1163.3920227999988,1163.3920227999988,1163.3920227999988,1163.3920227999988,1163.3920227999988,1163.3920227999988,1163.3920227999988,1163.3920227999988,1163.3920227999988,1163.3920227999988,,,,,,95,32,37,67,95,69,None,None,,,[],[],[],[],[],[],[],-0.6,1,69,[-0.007407407407407408],[-0.28703703703703703],[1],[0],[0],[3.9056744999979855],['tijiao'],1.0925925925925926,1.8227479999986826,1171.6685015999974,1173.5972668000031,,,,,,,,,,1169.8273390000031,1169.8273390000031,1169.8273390000031,1169.8273390000031,1165.9091652999996,1165.9091652999996,1165.9091652999996,1165.9091652999996,1165.9091652999996,1165.9091652999996,1165.9091652999996,1165.9091652999996,0.0059555999978329055,,,,,,227,f,18,2023-03-19_17h54.59.053,RL,2022.2.4,60.02440592236418,
0,0.3,0.225,0,87,87,87,,,,,,,,,,None,1173.5972668000031,1173.5972668000031,1173.5972668000031,1173.5972668000031,1173.5972668000031,1173.5972668000031,r,0.4274319000032847,1174.0465836000003,1174.0465836000003,1174.0465836000003,1174.0465836000003,1174.0465836000003,1174.0465836000003,1174.3455649000025,1174.3455649000025,1176.3232703999965,1176.3232703999965,1176.3232703999965,1176.3232703999965,1176.3232703999965,1176.3232703999965,1176.3232703999965,1176.3232703999965,1176.3232703999965,1176.3232703999965,1176.3232703999965,1176.3232703999965,1176.3232703999965,1176.3232703999965,1176.3232703999965,1176.3232703999965,1176.3232703999965,1178.8323881999968,1178.8323881999968,1178.8323881999968,1178.8323881999968,1178.8323881999968,92,30,28,72,92,72,5.0,2.8083168000011938,,,[],[],[],[],[],[],[],0.2,3,,[],[],[],[],[],[],[],None,None,1181.668700299997,1183.620082100002,,,,,,,,,,,,,,,,,,,,,,,,,,,,227,f,18,2023-03-19_17h54.59.053,RL,2022.2.4,60.02440592236418,
1,-0.3,-0.225,0,88,88,88,,,,,,,,,,None,1183.620082100002,1183.620082100002,1183.620082100002,1183.620082100002,1183.620082100002,1183.620082100002,f,1.2077812000061385,1184.8525329999975,1184.8525329999975,1184.8525329999975,1184.8525329999975,1184.8525329999975,1184.8525329999975,1185.1495116000006,1185.1495116000006,1186.0635390000025,1186.0635390000025,1186.0635390000025,1186.0635390000025,1186.0635390000025,1186.0635390000025,1186.0635390000025,1186.0635390000025,1186.0635390000025,1186.0635390000025,1186.0635390000025,1186.0635390000025,1186.0635390000025,1186.0635390000025,1186.0635390000025,1186.0635390000025,1186.0635390000025,1188.572555300001,1188.572555300001,1188.572555300001,1188.572555300001,1188.572555300001,82,35,33,75,35,66,4.0,2.110449600004358,,,[],[],[],[],[],[],[],0.2,2,,[],[],[],[],[],[],[],None,None,1190.7071731000033,1192.379065699999,,,,,,,,,,,,,,,,,,,,,,,,,,,,227,f,18,2023-03-19_17h54.59.053,RL,2022.2.4,60.02440592236418,
0,0.3,0.225,0,89,89,89,,,,,,,,,,None,1192.379065699999,1192.379065699999,1192.379065699999,1192.379065699999,1192.379065699999,1192.379065699999,f,0.6946833000038168,1193.0947235999993,1193.0947235999993,1193.0947235999993,1193.0947235999993,1193.0947235999993,1193.0947235999993,1193.3935528000002,1193.3935528000002,1195.2715849000015,1195.2715849000015,1195.2715849000015,1195.2715849000015,1195.2715849000015,1195.2715849000015,1195.2715849000015,1195.2715849000015,1195.2715849000015,1195.2715849000015,1195.2715849000015,1195.2715849000015,1195.2715849000015,1195.2715849000015,1195.2715849000015,1195.2715849000015,1195.2715849000015,,,,,,92,39,41,75,39,69,None,None,,,[],[],[],[],[],[],[],-0.2,1,69,[-0.000925925925925926],[-0.2861111111111111],[1],[0],[0],[4.23795479999535],['tijiao'],1,1.3565018000008422,1203.4148763999983,1205.2774391999992,,,,,,,,,,1202.0405836999998,1202.0405836999998,1202.0405836999998,1202.0405836999998,1197.7886975000001,1197.7886975000001,1197.7886975000001,1197.7886975000001,1197.7886975000001,1197.7886975000001,1197.7886975000001,1197.7886975000001,0.005609599997114856,,,,,,227,f,18,2023-03-19_17h54.59.053,RL,2022.2.4,60.02440592236418,
1,-0.3,-0.225,0,90,90,90,,,,,,,,,,None,1205.2774391999992,1205.2774391999992,1205.2774391999992,1205.2774391999992,1205.2774391999992,1205.2774391999992,f,0.44848080000519985,1205.7432071000003,1205.7432071000003,1205.7432071000003,1205.7432071000003,1205.7432071000003,1205.7432071000003,1206.0424834000005,1206.0424834000005,1207.5715176000012,1207.5715176000012,1207.5715176000012,1207.5715176000012,1207.5715176000012,1207.5715176000012,1207.5715176000012,1207.5715176000012,1207.5715176000012,1207.5715176000012,1207.5715176000012,1207.5715176000012,1207.5715176000012,1207.5715176000012,1207.5715176000012,1207.5715176000012,1207.5715176000012,1210.0803712999987,1210.0803712999987,1210.0803712999987,1210.0803712999987,1210.0803712999987,92,40,29,69,40,66,4.0,2.2103017999979784,,,[],[],[],[],[],[],[],0.2,3,,[],[],[],[],[],[],[],None,None,1212.317993800003,1213.8873203999974,,,,,,,,,,,,,,,,,,,,,,,,,,,,227,f,18,2023-03-19_17h54.59.053,RL,2022.2.4,60.02440592236418,
0,0.3,0.225,0,91,91,91,,,,,,,,,,None,1213.8873203999974,1213.8873203999974,1213.8873203999974,1213.8873203999974,1213.8873203999974,1213.8873203999974,i,0.7194144999957643,1214.6355804999985,1214.6355804999985,1214.6355804999985,1214.6355804999985,1214.6355804999985,1214.6355804999985,1214.9348479000037,1214.9348479000037,1216.214224299998,1216.214224299998,1216.214224299998,1216.214224299998,1216.214224299998,1216.214224299998,1216.214224299998,1216.214224299998,1216.214224299998,1216.214224299998,1216.214224299998,1216.214224299998,1216.214224299998,1216.214224299998,1216.214224299998,1216.214224299998,1216.214224299998,,,,,,94,40,31,70,31,38,None,None,,,[],[],[],[],[],[],[],0.2,1,98,[-0.007407407407407408],[-0.2638888888888889],[1],[0],[0],[7.0955042999994475],['tijiao'],1,2.053895299999567,1227.914571399997,1229.9103334000029,,,,,,,,,,1225.8426488999976,1225.8426488999976,1225.8426488999976,1225.8426488999976,1218.7328003000002,1218.7328003000002,1218.7328003000002,1218.7328003000002,1218.7328003000002,1218.7328003000002,1218.7328003000002,1218.7328003000002,0.005872499998076819,,,,,,227,f,18,2023-03-19_17h54.59.053,RL,2022.2.4,60.02440592236418,
1,-0.3,-0.225,0,92,92,92,,,,,,,,,,None,1229.9103334000029,1229.9103334000029,1229.9103334000029,1229.9103334000029,1229.9103334000029,1229.9103334000029,i,0.7210264000023017,1230.6589985000028,1230.6589985000028,1230.6589985000028,1230.6589985000028,1230.6589985000028,1230.6589985000028,1230.9577254999967,1230.9577254999967,1232.7026748999997,1232.7026748999997,1232.7026748999997,1232.7026748999997,1232.7026748999997,1232.7026748999997,1232.7026748999997,1232.7026748999997,1232.7026748999997,1232.7026748999997,1232.7026748999997,1232.7026748999997,1232.7026748999997,1232.7026748999997,1232.7026748999997,1232.7026748999997,1232.7026748999997,1235.2120114999998,1235.2120114999998,1235.2120114999998,1235.2120114999998,1235.2120114999998,92,35,44,71,44,10,4.0,2.476496200004476,,,[],[],[],[],[],[],[],0.6,2,,[],[],[],[],[],[],[],None,None,1237.7133527999977,1239.4008496000024,,,,,,,,,,,,,,,,,,,,,,,,,,,,227,f,18,2023-03-19_17h54.59.053,RL,2022.2.4,60.02440592236418,
