bandit0,black_x_pos_random,black_y_pos_random,trials.thisRepN,trials.thisTrialN,trials.thisN,trials.thisIndex,instru_img1.started,instru_img1.stopped,instru_resp.keys,instru_resp.rt,instru_resp.started,instru_resp.stopped,instru_img2.started,instru_img2.stopped,instru_resp2.keys,instru_resp2.rt,instru_resp2.started,instru_resp2.stopped,fixbefore_2.started,fixbefore_2.stopped,rest_image.started,rest_image.stopped,rest_response.keys,rest_response.started,rest_response.stopped,red.started,red.stopped,green.started,green.stopped,yellow.started,yellow.stopped,blue.started,blue.stopped,choose_bandit.keys,choose_bandit.rt,choose_bandit.started,choose_bandit.stopped,Fixation.started,Fixation.stopped,black.started,black.stopped,red_2.started,red_2.stopped,green_2.started,green_2.stopped,yellow_2.started,yellow_2.stopped,blue_2.started,blue_2.stopped,fixation_2.started,fixation_2.stopped,docs.started,docs.stopped,wait_playerB.started,wait_playerB.stopped,black_com.started,black_com.stopped,reward_sub.started,reward_sub.stopped,palyerb.started,palyerb.stopped,reward__sub.started,reward__sub.stopped,compare.started,compare.stopped,red_compare.started,red_compare.stopped,green_com.started,green_com.stopped,yellow_com.started,yellow_com.stopped,blue_com.started,blue_com.stopped,rewardyellow,rewardred,rewardblue,rewardgreen,subchoose,playerb,image_3.started,image_3.stopped,slider.response,slider.rt,slider.started,slider.stopped,text.started,text.stopped,image_4.started,image_4.stopped,image_5.started,image_5.stopped,value_expect_self,expect_self_black.started,expect_self_black.stopped,expect_self.started,expect_self.stopped,expect_self_red.started,expect_self_red.stopped,expect_self_green.started,expect_self_green.stopped,expect_self_yellow.started,expect_self_yellow.stopped,expect_self_blue.started,expect_self_blue.stopped,tijiao.started,tijiao.stopped,expectself.text,expectself.started,expectself.stopped,tijiao_click.x,tijiao_click.y,tijiao_click.leftButton,tijiao_click.midButton,tijiao_click.rightButton,tijiao_click.time,tijiao_click.clicked_name,tijiao_click.started,tijiao_click.stopped,random_whicharm,whether_ask,jiantou_random.started,jiantou_random.stopped,expect_red.started,expect_red.stopped,expect_green.started,expect_green.stopped,expect_yellow.started,expect_yellow.stopped,expect_blue.started,expect_blue.stopped,expect_random_2.started,expect_random_2.stopped,expect_random_3.text,expect_random_3.started,expect_random_3.stopped,tijiao_random_2.started,tijiao_random_2.stopped,tijiao_random.started,tijiao_random.stopped,slider_2.response,slider_2.rt,slider_2.started,slider_2.stopped,image_7.started,image_7.stopped,confi.started,confi.stopped,notconfi.started,notconfi.stopped,bigx.started,bigx.stopped,intertrialfix.started,intertrialfix.stopped,tijiao_random.x,tijiao_random.y,tijiao_random.leftButton,tijiao_random.midButton,tijiao_random.rightButton,tijiao_random.time,tijiao_random.clicked_name,rest_response.rt,participant,Gender,Age,date,expName,psychopyVersion,frameRate,
,,,,,,,22.706148500030395,None,space,6.521062699961476,22.706148500030395,None,,,,,,,,,,,,,,,,,,,,,,,,,,,,,,,,,,,,,,,,,,,,,,,,,,,,,,,,,,,,,,,,,,,,,,,,,,,,,,,,,,,,,,,,,,,,,,,,,,,,,,,,,,,,,,,,,,,,,,,,,,,,,,,,,,,,,,,,,,,,,,,,,,,,,,228,f,23,2023_Mar_19_1755,RL,2021.2.3,60.013130875210166,
,,,,,,,,,,,,,29.260373299999628,None,s,25.537179100036155,29.260373299999628,None,,,,,,,,,,,,,,,,,,,,,,,,,,,,,,,,,,,,,,,,,,,,,,,,,,,,,,,,,,,,,,,,,,,,,,,,,,,,,,,,,,,,,,,,,,,,,,,,,,,,,,,,,,,,,,,,,,,,,,,,,,,,,,,,,,,,,,,,,,,,,,,,228,f,23,2023_Mar_19_1755,RL,2021.2.3,60.013130875210166,
1,-0.3,-0.225,0,0,0,0,,,,,,,,,,,,,54.82639629999176,None,None,None,None,None,None,55.91152670001611,None,55.91152670001611,None,55.91152670001611,None,55.91152670001611,None,i,0.21563639998203143,55.91152670001611,None,55.91152670001611,None,56.24395680002635,None,56.24395680002635,None,56.24395680002635,None,56.24395680002635,None,56.24395680002635,None,56.24395680002635,None,56.53323280002223,58.351170799985994,56.53323280002223,58.351170799985994,58.44246530003147,None,58.44246530003147,None,58.44246530003147,None,58.44246530003147,None,58.44246530003147,None,58.44246530003147,None,58.44246530003147,None,58.44246530003147,None,58.44246530003147,None,72,51,39,29,39,46,None,None,None,None,None,None,None,None,None,None,None,None,67,61.19922900001984,None,61.19922900001984,None,61.19922900001984,None,61.19922900001984,None,61.19922900001984,None,61.19922900001984,None,61.19922900001984,None,67,61.19922900001984,None,-0.013020833333333334,-0.3138020833333333,1,0,0,9.547855800017715,tijiao,0.006531949911732227,None,0.2,0,None,None,None,None,None,None,None,None,None,None,None,None,,None,None,None,None,None,None,5.0234375,2.2066128000151366,71.10158289998071,None,71.10158289998071,None,71.10158289998071,None,71.10158289998071,None,None,None,73.40784629998961,None,,,,,,,,,228,f,23,2023_Mar_19_1755,RL,2021.2.3,60.013130875210166,
0,0.3,0.225,0,1,1,1,,,,,,,,,,,,,,,None,None,None,None,None,74.9827757999883,None,74.9827757999883,None,74.9827757999883,None,74.9827757999883,None,f,0.3144259999971837,74.9827757999883,None,74.9827757999883,None,75.3531327000237,None,75.3531327000237,None,75.3531327000237,None,75.3531327000237,None,75.3531327000237,None,75.3531327000237,None,75.62983749998966,77.5980415000231,75.62983749998966,77.5980415000231,77.6339452000102,None,77.6339452000102,None,77.6339452000102,None,77.6339452000102,None,77.6339452000102,None,77.6339452000102,None,77.6339452000102,None,77.6339452000102,None,77.6339452000102,None,77,52,41,38,52,30,None,None,None,None,None,None,None,None,None,None,None,None,,None,None,None,None,None,None,None,None,None,None,None,None,None,None,,None,None,,,,,,,,None,None,-0.2,1,80.24572840001201,None,80.24572840001201,None,80.24572840001201,None,80.24572840001201,None,80.24572840001201,None,80.24572840001201,None,56,80.24572840001201,None,80.24572840001201,None,0.01339317997917533,None,6.0390625,2.0189771999721415,84.43868830002612,None,84.43868830002612,None,84.43868830002612,None,84.43868830002612,None,None,None,86.48613480001222,None,-0.0078125,-0.2994791666666667,1,0,0,4.133932999975514,tijiao,,228,f,23,2023_Mar_19_1755,RL,2021.2.3,60.013130875210166,
1,-0.3,-0.225,0,2,2,2,,,,,,,,,,,,,,,None,None,None,None,None,88.41004460002296,None,88.41004460002296,None,88.41004460002296,None,88.41004460002296,None,f,0.2673058999935165,88.41004460002296,None,88.41004460002296,None,88.72753029997693,None,88.72753029997693,None,88.72753029997693,None,88.72753029997693,None,88.72753029997693,None,88.72753029997693,None,89.02254079998238,None,89.02254079998238,None,89.958606900007,None,89.958606900007,None,89.958606900007,None,89.958606900007,None,89.958606900007,None,89.958606900007,None,89.958606900007,None,89.958606900007,None,89.958606900007,None,72,40,45,40,40,75,92.47711929999059,None,3.0,3.5203472999855876,92.47711929999059,None,92.47711929999059,None,92.47711929999059,None,92.47711929999059,None,,None,None,None,None,None,None,None,None,None,None,None,None,None,None,,None,None,,,,,,,,None,None,0.2,2,None,None,None,None,None,None,None,None,None,None,None,None,,None,None,None,None,None,None,None,None,None,None,None,None,None,None,None,None,None,None,96.08980439999141,None,,,,,,,,,228,f,23,2023_Mar_19_1755,RL,2021.2.3,60.013130875210166,
0,0.3,0.225,0,3,3,3,,,,,,,,,,,,,,,None,None,None,None,None,97.83260359999258,None,97.83260359999258,None,97.83260359999258,None,97.83260359999258,None,i,0.284857299993746,97.83260359999258,None,97.83260359999258,None,98.16639660001965,None,98.16639660001965,None,98.16639660001965,None,98.16639660001965,None,98.16639660001965,None,98.16639660001965,None,98.46238590002758,None,98.46238590002758,None,99.67709970002761,None,99.67709970002761,None,99.67709970002761,None,99.67709970002761,None,99.67709970002761,None,99.67709970002761,None,99.67709970002761,None,99.67709970002761,None,99.67709970002761,None,72,47,44,38,44,55,102.19724469998619,None,3.0,2.2221992000122555,102.19724469998619,None,102.19724469998619,None,102.19724469998619,None,102.19724469998619,None,,None,None,None,None,None,None,None,None,None,None,None,None,None,None,,None,None,,,,,,,,None,None,0.2,3,None,None,None,None,None,None,None,None,None,None,None,None,,None,None,None,None,None,None,None,None,None,None,None,None,None,None,None,None,None,None,104.47043190000113,None,,,,,,,,,228,f,23,2023_Mar_19_1755,RL,2021.2.3,60.013130875210166,
1,-0.3,-0.225,0,4,4,4,,,,,,,,,,,,,,,None,None,None,None,None,106.23822840000503,None,106.23822840000503,None,106.23822840000503,None,106.23822840000503,None,j,0.2992742999922484,106.23822840000503,None,106.23822840000503,None,106.58190019999165,None,106.58190019999165,None,106.58190019999165,None,106.58190019999165,None,106.58190019999165,None,106.58190019999165,None,106.86829549999675,108.43601080001099,106.86829549999675,108.43601080001099,108.47413909999887,None,108.47413909999887,None,108.47413909999887,None,108.47413909999887,None,108.47413909999887,None,108.47413909999887,None,108.47413909999887,None,108.47413909999887,None,108.47413909999887,None,77,46,46,39,39,41,None,None,None,None,None,None,None,None,None,None,None,None,67,111.00092199997744,None,111.00092199997744,None,111.00092199997744,None,111.00092199997744,None,111.00092199997744,None,111.00092199997744,None,111.00092199997744,None,67,111.00092199997744,None,-0.03515625,-0.3059895833333333,1,0,0,5.41619499999797,tijiao,0.012168929970357567,None,0.6,0,None,None,None,None,None,None,None,None,None,None,None,None,,None,None,None,None,None,None,4.0859375,1.7087465999647975,116.47101069998462,None,116.47101069998462,None,116.47101069998462,None,116.47101069998462,None,None,None,118.20993589999853,None,,,,,,,,,228,f,23,2023_Mar_19_1755,RL,2021.2.3,60.013130875210166,
0,0.3,0.225,0,5,5,5,,,,,,,,,,,,,,,None,None,None,None,None,120.03141529997811,None,120.03141529997811,None,120.03141529997811,None,120.03141529997811,None,r,0.25715580000542104,120.03141529997811,None,120.03141529997811,None,120.33775559999049,None,120.33775559999049,None,120.33775559999049,None,120.33775559999049,None,120.33775559999049,None,120.33775559999049,None,120.62755199999083,122.22886059997836,120.62755199999083,122.22886059997836,122.26205570000457,None,122.26205570000457,None,122.26205570000457,None,122.26205570000457,None,122.26205570000457,None,122.26205570000457,None,122.26205570000457,None,122.26205570000457,None,122.26205570000457,None,63,45,48,46,63,52,124.78619389998494,None,5.0,3.8004514999920502,124.78619389998494,None,124.78619389998494,None,124.78619389998494,None,124.78619389998494,None,,None,None,None,None,None,None,None,None,None,None,None,None,None,None,,None,None,,,,,,,,None,None,0.2,2,None,None,None,None,None,None,None,None,None,None,None,None,,None,None,None,None,None,None,None,None,None,None,None,None,None,None,None,None,None,None,128.63797739997972,None,,,,,,,,,228,f,23,2023_Mar_19_1755,RL,2021.2.3,60.013130875210166,
1,-0.3,-0.225,0,6,6,6,,,,,,,,,,,,,,,None,None,None,None,None,130.1888112000306,None,130.1888112000306,None,130.1888112000306,None,130.1888112000306,None,f,0.369972400018014,130.1888112000306,None,130.1888112000306,None,130.60591669997666,None,130.60591669997666,None,130.60591669997666,None,130.60591669997666,None,130.60591669997666,None,130.60591669997666,None,130.90157639997778,None,130.90157639997778,None,132.81814069999382,None,132.81814069999382,None,132.81814069999382,None,132.81814069999382,None,132.81814069999382,None,132.81814069999382,None,132.81814069999382,None,132.81814069999382,None,132.81814069999382,None,75,52,54,40,52,27,None,None,None,None,None,None,None,None,None,None,None,None,56,135.35237450001296,None,135.35237450001296,None,135.35237450001296,None,135.35237450001296,None,135.35237450001296,None,135.35237450001296,None,135.35237450001296,None,56,135.35237450001296,None,0.0390625,-0.28515625,1,0,0,3.3970407999586314,tijiao,0.00989143003243953,None,0.6,0,None,None,None,None,None,None,None,None,None,None,None,None,,None,None,None,None,None,None,7.9921875,2.6160723999491893,138.79381830000784,None,138.79381830000784,None,138.79381830000784,None,138.79381830000784,None,None,None,141.42484160000458,None,,,,,,,,,228,f,23,2023_Mar_19_1755,RL,2021.2.3,60.013130875210166,
0,0.3,0.225,0,7,7,7,,,,,,,,,,,,,,,None,None,None,None,None,142.9800917999819,None,142.9800917999819,None,142.9800917999819,None,142.9800917999819,None,f,0.20888019999256358,142.9800917999819,None,142.9800917999819,None,143.23457849997794,None,143.23457849997794,None,143.23457849997794,None,143.23457849997794,None,143.23457849997794,None,143.23457849997794,None,143.5269427000312,144.89456659997813,143.5269427000312,144.89456659997813,144.92928540002322,None,144.92928540002322,None,144.92928540002322,None,144.92928540002322,None,144.92928540002322,None,144.92928540002322,None,144.92928540002322,None,144.92928540002322,None,144.92928540002322,None,64,37,55,50,37,72,None,None,None,None,None,None,None,None,None,None,None,None,,None,None,None,None,None,None,None,None,None,None,None,None,None,None,,None,None,,,,,,,,None,None,0.6,1,147.46929430001182,None,147.46929430001182,None,147.46929430001182,None,147.46929430001182,None,147.46929430001182,None,147.46929430001182,None,89,147.46929430001182,None,147.46929430001182,None,0.0016530299908481538,None,3.838541666666666,2.9208183000446297,152.15569200000027,None,152.15569200000027,None,152.15569200000027,None,152.15569200000027,None,None,None,155.10018150001997,None,0.02734375,-0.2734375,1,0,0,4.655598499986809,tijiao,,228,f,23,2023_Mar_19_1755,RL,2021.2.3,60.013130875210166,
1,-0.3,-0.225,0,8,8,8,,,,,,,,,,,,,,,None,None,None,None,None,156.739869299985,None,156.739869299985,None,156.739869299985,None,156.739869299985,None,j,0.2092174999997951,156.739869299985,None,156.739869299985,None,156.9929814999923,None,156.9929814999923,None,156.9929814999923,None,156.9929814999923,None,156.9929814999923,None,156.9929814999923,None,157.28649020002922,None,157.28649020002922,None,158.49946299998555,None,158.49946299998555,None,158.49946299998555,None,158.49946299998555,None,158.49946299998555,None,158.49946299998555,None,158.49946299998555,None,158.49946299998555,None,158.49946299998555,None,62,49,49,42,42,71,161.01956859999336,None,2.0,2.539012899971567,161.01956859999336,None,161.01956859999336,None,161.01956859999336,None,161.01956859999336,None,,None,None,None,None,None,None,None,None,None,None,None,None,None,None,,None,None,,,,,,,,None,None,0.6,3,None,None,None,None,None,None,None,None,None,None,None,None,,None,None,None,None,None,None,None,None,None,None,None,None,None,None,None,None,None,None,163.61136189999525,None,,,,,,,,,228,f,23,2023_Mar_19_1755,RL,2021.2.3,60.013130875210166,
0,0.3,0.225,0,9,9,9,,,,,,,,,,,,,,,None,None,None,None,None,165.51256619999185,None,165.51256619999185,None,165.51256619999185,None,165.51256619999185,None,r,0.26640070002758875,165.51256619999185,None,165.51256619999185,None,165.83183879998978,None,165.83183879998978,None,165.83183879998978,None,165.83183879998978,None,165.83183879998978,None,165.83183879998978,None,166.12604340002872,167.11004699999467,166.12604340002872,167.11004699999467,167.14247999998042,None,167.14247999998042,None,167.14247999998042,None,167.14247999998042,None,167.14247999998042,None,167.14247999998042,None,167.14247999998042,None,167.14247999998042,None,167.14247999998042,None,52,52,48,42,52,29,None,None,None,None,None,None,None,None,None,None,None,None,45,169.67840440000873,None,169.67840440000873,None,169.67840440000873,None,169.67840440000873,None,169.67840440000873,None,169.67840440000873,None,169.67840440000873,None,45,169.67840440000873,None,-0.010416666666666666,-0.296875,1,0,0,3.5114667000016198,tijiao,0.008631229982711375,None,0.2,0,None,None,None,None,None,None,None,None,None,None,None,None,,None,None,None,None,None,None,7.106770833333334,2.376256800023839,173.24169250001432,None,173.24169250001432,None,173.24169250001432,None,173.24169250001432,None,None,None,175.63209939998342,None,,,,,,,,,228,f,23,2023_Mar_19_1755,RL,2021.2.3,60.013130875210166,
1,-0.3,-0.225,0,10,10,10,,,,,,,,,,,,,,,None,None,None,None,None,177.22118709998904,None,177.22118709998904,None,177.22118709998904,None,177.22118709998904,None,r,0.2782213999889791,177.22118709998904,None,177.22118709998904,None,177.54000680003082,None,177.54000680003082,None,177.54000680003082,None,177.54000680003082,None,177.54000680003082,None,177.54000680003082,None,177.83429530001013,None,177.83429530001013,None,179.6697096999851,None,179.6697096999851,None,179.6697096999851,None,179.6697096999851,None,179.6697096999851,None,179.6697096999851,None,179.6697096999851,None,179.6697096999851,None,179.6697096999851,None,60,51,50,40,60,76,None,None,None,None,None,None,None,None,None,None,None,None,,182.2038546000258,None,182.2038546000258,None,182.2038546000258,None,182.2038546000258,None,182.2038546000258,None,182.2038546000258,None,182.2038546000258,None,,182.2038546000258,None,0.013020833333333334,-0.3098958333333333,1,0,0,1.2434304999769665,tijiao,0.008611030003521591,None,0.6,0,None,None,None,None,None,None,None,None,None,None,None,None,,None,None,None,None,None,None,3.8515625,3.2168387999990955,183.4923585000215,None,183.4923585000215,None,183.4923585000215,None,183.4923585000215,None,None,None,186.73362610000186,None,,,,,,,,,228,f,23,2023_Mar_19_1755,RL,2021.2.3,60.013130875210166,
0,0.3,0.225,0,11,11,11,,,,,,,,,,,,,,,None,None,None,None,None,188.57910949998768,None,188.57910949998768,None,188.57910949998768,None,188.57910949998768,None,f,0.4500096999690868,188.57910949998768,None,188.57910949998768,None,189.08326520002447,None,189.08326520002447,None,189.08326520002447,None,189.08326520002447,None,189.08326520002447,None,189.08326520002447,None,189.37542140000733,190.82641239999793,189.37542140000733,190.82641239999793,190.85655939998105,None,190.85655939998105,None,190.85655939998105,None,190.85655939998105,None,190.85655939998105,None,190.85655939998105,None,190.85655939998105,None,190.85655939998105,None,190.85655939998105,None,60,49,45,49,49,52,193.37923780002166,None,3.0,2.737662600004114,193.37923780002166,None,193.37923780002166,None,193.37923780002166,None,193.37923780002166,None,,None,None,None,None,None,None,None,None,None,None,None,None,None,None,,None,None,,,,,,,,None,None,-0.2,2,None,None,None,None,None,None,None,None,None,None,None,None,,None,None,None,None,None,None,None,None,None,None,None,None,None,None,None,None,None,None,196.16930050001247,None,,,,,,,,,228,f,23,2023_Mar_19_1755,RL,2021.2.3,60.013130875210166,
1,-0.3,-0.225,0,12,12,12,,,,,,,,,,,,,,,None,None,None,None,None,197.85210720001487,None,197.85210720001487,None,197.85210720001487,None,197.85210720001487,None,r,0.3670399999828078,197.85210720001487,None,197.85210720001487,None,198.27301619999344,None,198.27301619999344,None,198.27301619999344,None,198.27301619999344,None,198.27301619999344,None,198.27301619999344,None,198.56510740000522,199.99944440001855,198.56510740000522,199.99944440001855,200.03082500002347,None,200.03082500002347,None,200.03082500002347,None,200.03082500002347,None,200.03082500002347,None,200.03082500002347,None,200.03082500002347,None,200.03082500002347,None,200.03082500002347,None,66,52,42,48,66,67,None,None,None,None,None,None,None,None,None,None,None,None,66,202.55999159999192,None,202.55999159999192,None,202.55999159999192,None,202.55999159999192,None,202.55999159999192,None,202.55999159999192,None,202.55999159999192,None,66,202.55999159999192,None,-0.057291666666666664,-0.2903645833333333,1,0,0,3.4189445999800228,tijiao,0.016018629947211593,None,-0.2,0,None,None,None,None,None,None,None,None,None,None,None,None,,None,None,None,None,None,None,3.994791666666666,1.9164805000182241,206.02518170000985,None,206.02518170000985,None,206.02518170000985,None,206.02518170000985,None,None,None,207.95446899998933,None,,,,,,,,,228,f,23,2023_Mar_19_1755,RL,2021.2.3,60.013130875210166,
0,0.3,0.225,0,13,13,13,,,,,,,,,,,,,,,None,None,None,None,None,209.91073609999148,None,209.91073609999148,None,209.91073609999148,None,209.91073609999148,None,r,0.2584567999583669,209.91073609999148,None,209.91073609999148,None,210.2135830000043,None,210.2135830000043,None,210.2135830000043,None,210.2135830000043,None,210.2135830000043,None,210.2135830000043,None,210.5067946999916,None,210.5067946999916,None,211.57641680003144,None,211.57641680003144,None,211.57641680003144,None,211.57641680003144,None,211.57641680003144,None,211.57641680003144,None,211.57641680003144,None,211.57641680003144,None,211.57641680003144,None,63,54,46,45,63,48,None,None,None,None,None,None,None,None,None,None,None,None,55,214.10540350002702,None,214.10540350002702,None,214.10540350002702,None,214.10540350002702,None,214.10540350002702,None,214.10540350002702,None,214.10540350002702,None,55,214.10540350002702,None,-0.09244791666666667,-0.3020833333333333,1,0,0,3.2325863000005484,tijiao,0.012836229987442493,None,0.6,0,None,None,None,None,None,None,None,None,None,None,None,None,,None,None,None,None,None,None,5.986979166666667,3.6381533999810927,217.38947719999123,None,217.38947719999123,None,217.38947719999123,None,217.38947719999123,None,None,None,221.04603510000743,None,,,,,,,,,228,f,23,2023_Mar_19_1755,RL,2021.2.3,60.013130875210166,
1,-0.3,-0.225,0,14,14,14,,,,,,,,,,,,,,,None,None,None,None,None,222.76906120002968,None,222.76906120002968,None,222.76906120002968,None,222.76906120002968,None,r,0.25023679999867454,222.76906120002968,None,222.76906120002968,None,223.07138610002585,None,223.07138610002585,None,223.07138610002585,None,223.07138610002585,None,223.07138610002585,None,223.07138610002585,None,223.3657068000175,None,223.3657068000175,None,224.9472231999971,None,224.9472231999971,None,224.9472231999971,None,224.9472231999971,None,224.9472231999971,None,224.9472231999971,None,224.9472231999971,None,224.9472231999971,None,224.9472231999971,None,64,52,45,41,64,61,None,None,None,None,None,None,None,None,None,None,None,None,,None,None,None,None,None,None,None,None,None,None,None,None,None,None,,None,None,,,,,,,,None,None,-0.2,1,227.50009270000737,None,227.50009270000737,None,227.50009270000737,None,227.50009270000737,None,227.50009270000737,None,227.50009270000737,None,45,227.50009270000737,None,227.50009270000737,None,0.009712740022223443,None,5.1015625,2.9158609000151046,231.44476990000112,None,231.44476990000112,None,231.44476990000112,None,231.44476990000112,None,None,None,234.37487990001682,None,0.013020833333333334,-0.2786458333333333,1,0,0,3.9135008999728598,tijiao,,228,f,23,2023_Mar_19_1755,RL,2021.2.3,60.013130875210166,
0,0.3,0.225,0,15,15,15,,,,,,,,,,,,,,,None,None,None,None,None,236.02817360003246,None,236.02817360003246,None,236.02817360003246,None,236.02817360003246,None,r,0.3415570000070147,236.02817360003246,None,236.02817360003246,None,236.41523669997696,None,236.41523669997696,None,236.41523669997696,None,236.41523669997696,None,236.41523669997696,None,236.41523669997696,None,236.7085492000333,237.75922060001176,236.7085492000333,237.75922060001176,237.7902948000119,None,237.7902948000119,None,237.7902948000119,None,237.7902948000119,None,237.7902948000119,None,237.7902948000119,None,237.7902948000119,None,237.7902948000119,None,237.7902948000119,None,67,55,45,41,67,39,None,None,None,None,None,None,None,None,None,None,None,None,,None,None,None,None,None,None,None,None,None,None,None,None,None,None,,None,None,,,,,,,,None,None,-0.2,1,240.35492060001707,None,240.35492060001707,None,240.35492060001707,None,240.35492060001707,None,240.35492060001707,None,240.35492060001707,None,67,240.35492060001707,None,240.35492060001707,None,0.013695449975784868,None,6.989583333333334,2.1904747000080533,243.45221930003027,None,243.45221930003027,None,243.45221930003027,None,243.45221930003027,None,None,None,245.6638597000274,None,-0.015625,-0.2890625,1,0,0,3.066537900012918,tijiao,,228,f,23,2023_Mar_19_1755,RL,2021.2.3,60.013130875210166,
1,-0.3,-0.225,0,16,16,16,,,,,,,,,,,,,,,None,None,None,None,None,247.45311709999805,None,247.45311709999805,None,247.45311709999805,None,247.45311709999805,None,r,0.2764631000463851,247.45311709999805,None,247.45311709999805,None,247.77060490002623,None,247.77060490002623,None,247.77060490002623,None,247.77060490002623,None,247.77060490002623,None,247.77060490002623,None,248.06592279998586,249.80085430003237,248.06592279998586,249.80085430003237,249.8325627000304,None,249.8325627000304,None,249.8325627000304,None,249.8325627000304,None,249.8325627000304,None,249.8325627000304,None,249.8325627000304,None,249.8325627000304,None,249.8325627000304,None,67,50,31,41,67,44,None,None,None,None,None,None,None,None,None,None,None,None,,None,None,None,None,None,None,None,None,None,None,None,None,None,None,,None,None,,,,,,,,None,None,-0.6,1,252.37558619998163,None,252.37558619998163,None,252.37558619998163,None,252.37558619998163,None,252.37558619998163,None,252.37558619998163,None,44,252.37558619998163,None,252.37558619998163,None,0.0012462299782782793,None,7.106770833333334,2.060789900016971,256.0812511999975,None,256.0812511999975,None,256.0812511999975,None,256.0812511999975,None,None,None,258.15605739998864,None,-0.016927083333333332,-0.2786458333333333,1,0,0,3.6719254999770783,tijiao,,228,f,23,2023_Mar_19_1755,RL,2021.2.3,60.013130875210166,
0,0.3,0.225,0,17,17,17,,,,,,,,,,,,,,,None,None,None,None,None,259.7276792000048,None,259.7276792000048,None,259.7276792000048,None,259.7276792000048,None,r,0.2718287000316195,259.7276792000048,None,259.7276792000048,None,260.0529109000345,None,260.0529109000345,None,260.0529109000345,None,260.0529109000345,None,260.0529109000345,None,260.0529109000345,None,260.3413874999969,261.37552070000675,260.3413874999969,261.37552070000675,261.4060976000037,None,261.4060976000037,None,261.4060976000037,None,261.4060976000037,None,261.4060976000037,None,261.4060976000037,None,261.4060976000037,None,261.4060976000037,None,261.4060976000037,None,70,43,35,45,70,57,None,None,None,None,None,None,None,None,None,None,None,None,,None,None,None,None,None,None,None,None,None,None,None,None,None,None,,None,None,,,,,,,,None,None,0.6,1,263.94000150001375,None,263.94000150001375,None,263.94000150001375,None,263.94000150001375,None,263.94000150001375,None,263.94000150001375,None,56,263.94000150001375,None,263.94000150001375,None,0.010328929987736046,None,4.020833333333334,2.7812660000054166,268.976764800027,None,268.976764800027,None,268.976764800027,None,268.976764800027,None,None,None,271.7812566999928,None,-0.005208333333333333,-0.2942708333333333,1,0,0,4.999123600020539,tijiao,,228,f,23,2023_Mar_19_1755,RL,2021.2.3,60.013130875210166,
1,-0.3,-0.225,0,18,18,18,,,,,,,,,,,,,,,None,None,None,None,None,273.55434899998363,None,273.55434899998363,None,273.55434899998363,None,273.55434899998363,None,r,0.2754809999605641,273.55434899998363,None,273.55434899998363,None,273.873311000003,None,273.873311000003,None,273.873311000003,None,273.873311000003,None,273.873311000003,None,273.873311000003,None,274.1676273000194,275.15157049999107,274.1676273000194,275.15157049999107,275.18500499997754,None,275.18500499997754,None,275.18500499997754,None,275.18500499997754,None,275.18500499997754,None,275.18500499997754,None,275.18500499997754,None,275.18500499997754,None,275.18500499997754,None,76,48,42,42,76,38,None,None,None,None,None,None,None,None,None,None,None,None,,None,None,None,None,None,None,None,None,None,None,None,None,None,None,,None,None,,,,,,,,None,None,0.6,1,277.72534900001483,None,277.72534900001483,None,277.72534900001483,None,277.72534900001483,None,277.72534900001483,None,277.72534900001483,None,45,277.72534900001483,None,277.72534900001483,None,0.0022269299952313304,None,7.080729166666666,2.512457499979064,281.2315264000208,None,281.2315264000208,None,281.2315264000208,None,281.2315264000208,None,None,None,283.7574847000069,None,-0.06901041666666667,-0.2838541666666667,1,0,0,3.4720842000097036,tijiao,,228,f,23,2023_Mar_19_1755,RL,2021.2.3,60.013130875210166,
0,0.3,0.225,0,19,19,19,,,,,,,,,,,,,,,None,None,None,None,None,285.67971629998647,None,285.67971629998647,None,285.67971629998647,None,285.67971629998647,None,r,0.25999940000474453,285.67971629998647,None,285.67971629998647,None,285.98141790000955,None,285.98141790000955,None,285.98141790000955,None,285.98141790000955,None,285.98141790000955,None,285.98141790000955,None,286.27612990001217,287.44357060000766,286.27612990001217,287.44357060000766,287.4793319000164,None,287.4793319000164,None,287.4793319000164,None,287.4793319000164,None,287.4793319000164,None,287.4793319000164,None,287.4793319000164,None,287.4793319000164,None,287.4793319000164,None,63,44,39,41,63,54,None,None,None,None,None,None,None,None,None,None,None,None,,None,None,None,None,None,None,None,None,None,None,None,None,None,None,,None,None,,,,,,,,None,None,0.6,1,290.0224916000152,None,290.0224916000152,None,290.0224916000152,None,290.0224916000152,None,290.0224916000152,None,290.0224916000152,None,63,290.0224916000152,None,290.0224916000152,None,0.014186740037985146,None,4.880208333333333,1.974209499952849,293.65599599998677,None,293.65599599998677,None,293.65599599998677,None,293.65599599998677,None,None,None,295.64869270002237,None,0.0703125,-0.2799479166666667,1,0,0,3.6011951999971643,tijiao,,228,f,23,2023_Mar_19_1755,RL,2021.2.3,60.013130875210166,
1,-0.3,-0.225,0,20,20,20,,,,,,,,,,,,,,,None,None,None,None,None,297.32117000001017,None,297.32117000001017,None,297.32117000001017,None,297.32117000001017,None,r,0.2996403999859467,297.32117000001017,None,297.32117000001017,None,297.6731096000294,None,297.6731096000294,None,297.6731096000294,None,297.6731096000294,None,297.6731096000294,None,297.6731096000294,None,297.96769710001536,299.56866659998195,297.96769710001536,299.56866659998195,299.6001555999974,None,299.6001555999974,None,299.6001555999974,None,299.6001555999974,None,299.6001555999974,None,299.6001555999974,None,299.6001555999974,None,299.6001555999974,None,299.6001555999974,None,63,45,42,42,63,63,None,None,None,None,None,None,None,None,None,None,None,None,,None,None,None,None,None,None,None,None,None,None,None,None,None,None,,None,None,,,,,,,,None,None,-0.6,1,302.1518560000113,None,302.1518560000113,None,302.1518560000113,None,302.1518560000113,None,302.1518560000113,None,302.1518560000113,None,54,302.1518560000113,None,302.1518560000113,None,0.009703440067823976,None,3.96875,1.8302425000001676,304.8961688000127,None,304.8961688000127,None,304.8961688000127,None,304.8961688000127,None,None,None,306.7398375000339,None,-0.016927083333333332,-0.3059895833333333,1,0,0,2.7125600000144914,tijiao,,228,f,23,2023_Mar_19_1755,RL,2021.2.3,60.013130875210166,
0,0.3,0.225,0,21,21,21,,,,,,,,,,,,,,,None,None,None,None,None,308.4449924000073,None,308.4449924000073,None,308.4449924000073,None,308.4449924000073,None,r,0.32609629997750744,308.4449924000073,None,308.4449924000073,None,308.81525320000947,None,308.81525320000947,None,308.81525320000947,None,308.81525320000947,None,308.81525320000947,None,308.81525320000947,None,309.1087933999952,None,309.1087933999952,None,310.84036780003225,None,310.84036780003225,None,310.84036780003225,None,310.84036780003225,None,310.84036780003225,None,310.84036780003225,None,310.84036780003225,None,310.84036780003225,None,310.84036780003225,None,61,43,40,46,61,65,None,None,None,None,None,None,None,None,None,None,None,None,63,313.36957620002795,None,313.36957620002795,None,313.36957620002795,None,313.36957620002795,None,313.36957620002795,None,313.36957620002795,None,313.36957620002795,None,63,313.36957620002795,None,-0.07161458333333333,-0.2981770833333333,1,0,0,3.42026329995133,tijiao,0.000585219997446984,None,0.2,0,None,None,None,None,None,None,None,None,None,None,None,None,,None,None,None,None,None,None,4.0859375,1.8315090000396594,316.83723699999973,None,316.83723699999973,None,316.83723699999973,None,316.83723699999973,None,None,None,318.6812554000062,None,,,,,,,,,228,f,23,2023_Mar_19_1755,RL,2021.2.3,60.013130875210166,
1,-0.3,-0.225,0,22,22,22,,,,,,,,,,,,,,,None,None,None,None,None,320.27035389997764,None,320.27035389997764,None,320.27035389997764,None,320.27035389997764,None,r,0.4105796999647282,320.27035389997764,None,320.27035389997764,None,320.72362659999635,None,320.72362659999635,None,320.72362659999635,None,320.72362659999635,None,320.72362659999635,None,320.72362659999635,None,321.0170300999889,322.85163039999316,321.0170300999889,322.85163039999316,322.88212130003376,None,322.88212130003376,None,322.88212130003376,None,322.88212130003376,None,322.88212130003376,None,322.88212130003376,None,322.88212130003376,None,322.88212130003376,None,322.88212130003376,None,70,36,37,48,70,49,None,None,None,None,None,None,None,None,None,None,None,None,,None,None,None,None,None,None,None,None,None,None,None,None,None,None,,None,None,,,,,,,,None,None,-0.6,1,325.42889949999517,None,325.42889949999517,None,325.42889949999517,None,325.42889949999517,None,325.42889949999517,None,325.42889949999517,None,70,325.42889949999517,None,325.42889949999517,None,0.016043239971622825,None,6.0,3.8997031999751925,328.69686470000306,None,328.69686470000306,None,328.69686470000306,None,328.69686470000306,None,None,None,332.6235771999927,None,-0.0013020833333333333,-0.2877604166666667,1,0,0,3.2352614999981597,tijiao,,228,f,23,2023_Mar_19_1755,RL,2021.2.3,60.013130875210166,
0,0.3,0.225,0,23,23,23,,,,,,,,,,,,,,,None,None,None,None,None,334.5635687999893,None,334.5635687999893,None,334.5635687999893,None,334.5635687999893,None,r,0.2675005999626592,334.5635687999893,None,334.5635687999893,None,334.8806843999773,None,334.8806843999773,None,334.8806843999773,None,334.8806843999773,None,334.8806843999773,None,334.8806843999773,None,335.17689469998004,None,335.17689469998004,None,336.95710950001376,None,336.95710950001376,None,336.95710950001376,None,336.95710950001376,None,336.95710950001376,None,336.95710950001376,None,336.95710950001376,None,336.95710950001376,None,336.95710950001376,None,65,42,41,58,65,62,339.47719240002334,None,3.0,1.838610599981621,339.47719240002334,None,339.47719240002334,None,339.47719240002334,None,339.47719240002334,None,,None,None,None,None,None,None,None,None,None,None,None,None,None,None,,None,None,,,,,,,,None,None,0.6,2,None,None,None,None,None,None,None,None,None,None,None,None,,None,None,None,None,None,None,None,None,None,None,None,None,None,None,None,None,None,None,341.3659881000058,None,,,,,,,,,228,f,23,2023_Mar_19_1755,RL,2021.2.3,60.013130875210166,
1,-0.3,-0.225,0,24,24,24,,,,,,,,,,,,,,,None,None,None,None,None,343.33718179998687,None,343.33718179998687,None,343.33718179998687,None,343.33718179998687,None,f,0.283934099948965,343.33718179998687,None,343.33718179998687,None,343.66987929999596,None,343.66987929999596,None,343.66987929999596,None,343.66987929999596,None,343.66987929999596,None,343.66987929999596,None,343.96637919999193,None,343.96637919999193,None,345.18245890003163,None,345.18245890003163,None,345.18245890003163,None,345.18245890003163,None,345.18245890003163,None,345.18245890003163,None,345.18245890003163,None,345.18245890003163,None,345.18245890003163,None,64,34,42,62,34,58,None,None,None,None,None,None,None,None,None,None,None,None,,None,None,None,None,None,None,None,None,None,None,None,None,None,None,,None,None,,,,,,,,None,None,-0.2,1,347.7314866000088,None,347.7314866000088,None,347.7314866000088,None,347.7314866000088,None,347.7314866000088,None,347.7314866000088,None,43,347.7314866000088,None,347.7314866000088,None,0.012623539951164275,None,3.864583333333334,1.7537943000206724,351.4437512999866,None,351.4437512999866,None,351.4437512999866,None,351.4437512999866,None,None,None,353.2259325000341,None,0.036458333333333336,-0.2877604166666667,1,0,0,3.6822579000145197,tijiao,,228,f,23,2023_Mar_19_1755,RL,2021.2.3,60.013130875210166,
0,0.3,0.225,0,25,25,25,,,,,,,,,,,,,,,None,None,None,None,None,354.84410460002255,None,354.84410460002255,None,354.84410460002255,None,354.84410460002255,None,r,0.2870448000030592,354.84410460002255,None,354.84410460002255,None,355.17886749998434,None,355.17886749998434,None,355.17886749998434,None,355.17886749998434,None,355.17886749998434,None,355.17886749998434,None,355.47411070001544,None,355.47411070001544,None,356.5222201999859,None,356.5222201999859,None,356.5222201999859,None,356.5222201999859,None,356.5222201999859,None,356.5222201999859,None,356.5222201999859,None,356.5222201999859,None,356.5222201999859,None,61,36,36,46,61,54,None,None,None,None,None,None,None,None,None,None,None,None,61,359.0577132999897,None,359.0577132999897,None,359.0577132999897,None,359.0577132999897,None,359.0577132999897,None,359.0577132999897,None,359.0577132999897,None,61,359.0577132999897,None,0.009114583333333334,-0.2916666666666667,1,0,0,3.013508500007447,tijiao,0.009881130012217909,None,-0.6,0,None,None,None,None,None,None,None,None,None,None,None,None,,None,None,None,None,None,None,7.028645833333334,3.981772900035139,362.1179424999864,None,362.1179424999864,None,362.1179424999864,None,362.1179424999864,None,None,None,366.11436800000956,None,,,,,,,,,228,f,23,2023_Mar_19_1755,RL,2021.2.3,60.013130875210166,
1,-0.3,-0.225,0,26,26,26,,,,,,,,,,,,,,,None,None,None,None,None,367.7031892000232,None,367.7031892000232,None,367.7031892000232,None,367.7031892000232,None,r,0.3080595000064932,367.7031892000232,None,367.7031892000232,None,368.0600744999829,None,368.0600744999829,None,368.0600744999829,None,368.0600744999829,None,368.0600744999829,None,368.0600744999829,None,368.3497511000023,369.25027800002135,368.3497511000023,369.25027800002135,369.2841628000024,None,369.2841628000024,None,369.2841628000024,None,369.2841628000024,None,369.2841628000024,None,369.2841628000024,None,369.2841628000024,None,369.2841628000024,None,369.2841628000024,None,54,39,34,63,54,43,371.8001882000244,None,3.0,1.7389984999899752,371.8001882000244,None,371.8001882000244,None,371.8001882000244,None,371.8001882000244,None,,None,None,None,None,None,None,None,None,None,None,None,None,None,None,,None,None,,,,,,,,None,None,0.2,2,None,None,None,None,None,None,None,None,None,None,None,None,,None,None,None,None,None,None,None,None,None,None,None,None,None,None,None,None,None,None,373.6036898000166,None,,,,,,,,,228,f,23,2023_Mar_19_1755,RL,2021.2.3,60.013130875210166,
0,0.3,0.225,0,27,27,27,,,,,,,,,,,,,,,None,None,None,None,None,375.49214649997884,None,375.49214649997884,None,375.49214649997884,None,375.49214649997884,None,r,0.009094899985939264,375.49214649997884,None,375.49214649997884,None,375.55960400000913,None,375.55960400000913,None,375.55960400000913,None,375.55960400000913,None,375.55960400000913,None,375.55960400000913,None,375.8548774999799,None,375.8548774999799,None,377.81040780001786,None,377.81040780001786,None,377.81040780001786,None,377.81040780001786,None,377.81040780001786,None,377.81040780001786,None,377.81040780001786,None,377.81040780001786,None,377.81040780001786,None,55,41,36,59,55,59,None,None,None,None,None,None,None,None,None,None,None,None,55,380.34298090002267,None,380.34298090002267,None,380.34298090002267,None,380.34298090002267,None,380.34298090002267,None,380.34298090002267,None,380.34298090002267,None,55,380.34298090002267,None,-0.01171875,-0.2669270833333333,1,0,0,2.6447901999927126,tijiao,0.008199429954402149,None,-0.2,0,None,None,None,None,None,None,None,None,None,None,None,None,,None,None,None,None,None,None,4.125,1.751603199983947,383.02807350002695,None,383.02807350002695,None,383.02807350002695,None,383.02807350002695,None,None,None,384.8096392999869,None,,,,,,,,,228,f,23,2023_Mar_19_1755,RL,2021.2.3,60.013130875210166,
1,-0.3,-0.225,0,28,28,28,,,,,,,,,,,,,,,None,None,None,None,None,386.4993880999973,None,386.4993880999973,None,386.4993880999973,None,386.4993880999973,None,r,0.3922881000326015,386.4993880999973,None,386.4993880999973,None,386.9359132000245,None,386.9359132000245,None,386.9359132000245,None,386.9359132000245,None,386.9359132000245,None,386.9359132000245,None,387.2293920000084,388.5304324000026,387.2293920000084,388.5304324000026,388.5626652999781,None,388.5626652999781,None,388.5626652999781,None,388.5626652999781,None,388.5626652999781,None,388.5626652999781,None,388.5626652999781,None,388.5626652999781,None,388.5626652999781,None,62,37,43,49,62,32,None,None,None,None,None,None,None,None,None,None,None,None,56,391.09546699997736,None,391.09546699997736,None,391.09546699997736,None,391.09546699997736,None,391.09546699997736,None,391.09546699997736,None,391.09546699997736,None,56,391.09546699997736,None,-0.041666666666666664,-0.3072916666666667,1,0,0,2.8826128999935463,tijiao,0.012313030019868165,None,0.6,0,None,None,None,None,None,None,None,None,None,None,None,None,,None,None,None,None,None,None,7.041666666666666,2.7018536000396125,394.0232822999824,None,394.0232822999824,None,394.0232822999824,None,394.0232822999824,None,None,None,396.75250330002746,None,,,,,,,,,228,f,23,2023_Mar_19_1755,RL,2021.2.3,60.013130875210166,
0,0.3,0.225,0,29,29,29,,,,,,,,,,,,,,,None,None,None,None,None,398.57508690003306,None,398.57508690003306,None,398.57508690003306,None,398.57508690003306,None,r,0.2868637000210583,398.57508690003306,None,398.57508690003306,None,398.9085227000178,None,398.9085227000178,None,398.9085227000178,None,398.9085227000178,None,398.9085227000178,None,398.9085227000178,None,399.20446949999314,None,399.20446949999314,None,401.2018393999897,None,401.2018393999897,None,401.2018393999897,None,401.2018393999897,None,401.2018393999897,None,401.2018393999897,None,401.2018393999897,None,401.2018393999897,None,401.2018393999897,None,59,35,41,50,59,64,403.7223152000224,None,3.0,1.9712426000041887,403.7223152000224,None,403.7223152000224,None,403.7223152000224,None,403.7223152000224,None,,None,None,None,None,None,None,None,None,None,None,None,None,None,None,,None,None,,,,,,,,None,None,0.2,2,None,None,None,None,None,None,None,None,None,None,None,None,,None,None,None,None,None,None,None,None,None,None,None,None,None,None,None,None,None,None,405.7778319999925,None,,,,,,,,,228,f,23,2023_Mar_19_1755,RL,2021.2.3,60.013130875210166,
1,-0.3,-0.225,0,30,30,30,,,,,,,,,,,,,,,None,None,None,None,None,407.7651341999881,None,407.7651341999881,None,407.7651341999881,None,407.7651341999881,None,r,0.29630960000213236,407.7651341999881,None,407.7651341999881,None,408.100940000033,None,408.100940000033,None,408.100940000033,None,408.100940000033,None,408.100940000033,None,408.100940000033,None,408.3942493000068,None,408.3942493000068,None,409.3256433000206,None,409.3256433000206,None,409.3256433000206,None,409.3256433000206,None,409.3256433000206,None,409.3256433000206,None,409.3256433000206,None,409.3256433000206,None,409.3256433000206,None,60,39,45,52,60,48,411.84880929999053,None,5.0,3.0190403000451624,411.84880929999053,None,411.84880929999053,None,411.84880929999053,None,411.84880929999053,None,,None,None,None,None,None,None,None,None,None,None,None,None,None,None,,None,None,,,,,,,,None,None,-0.2,2,None,None,None,None,None,None,None,None,None,None,None,None,,None,None,None,None,None,None,None,None,None,None,None,None,None,None,None,None,None,None,414.9268342999858,None,,,,,,,,,228,f,23,2023_Mar_19_1755,RL,2021.2.3,60.013130875210166,
0,0.3,0.225,0,31,31,31,,,,,,,,,,,,,,,None,None,None,None,None,416.4538298000116,None,416.4538298000116,None,416.4538298000116,None,416.4538298000116,None,f,1.057833299972117,416.4538298000116,None,416.4538298000116,None,417.5582897000131,None,417.5582897000131,None,417.5582897000131,None,417.5582897000131,None,417.5582897000131,None,417.5582897000131,None,417.8507675000001,None,417.8507675000001,None,419.2204666000325,None,419.2204666000325,None,419.2204666000325,None,419.2204666000325,None,419.2204666000325,None,419.2204666000325,None,419.2204666000325,None,419.2204666000325,None,419.2204666000325,None,63,42,40,53,42,68,421.7430772000225,None,1.0,1.548506599967368,421.7430772000225,None,421.7430772000225,None,421.7430772000225,None,421.7430772000225,None,,None,None,None,None,None,None,None,None,None,None,None,None,None,None,,None,None,,,,,,,,None,None,-0.6,3,None,None,None,None,None,None,None,None,None,None,None,None,,None,None,None,None,None,None,None,None,None,None,None,None,None,None,None,None,None,None,423.3374368000077,None,,,,,,,,,228,f,23,2023_Mar_19_1755,RL,2021.2.3,60.013130875210166,
1,-0.3,-0.225,0,32,32,32,,,,,,,,,,,,,,,None,None,None,None,None,425.14374720002525,None,425.14374720002525,None,425.14374720002525,None,425.14374720002525,None,r,0.3479568000184372,425.14374720002525,None,425.14374720002525,None,425.5434135000105,None,425.5434135000105,None,425.5434135000105,None,425.5434135000105,None,425.5434135000105,None,425.5434135000105,None,425.83984670002246,None,425.83984670002246,None,427.0192551999935,None,427.0192551999935,None,427.0192551999935,None,427.0192551999935,None,427.0192551999935,None,427.0192551999935,None,427.0192551999935,None,427.0192551999935,None,427.0192551999935,None,62,41,35,60,62,63,None,None,None,None,None,None,None,None,None,None,None,None,34,429.5491828999948,None,429.5491828999948,None,429.5491828999948,None,429.5491828999948,None,429.5491828999948,None,429.5491828999948,None,429.5491828999948,None,34,429.5491828999948,None,-0.07682291666666667,-0.2838541666666667,1,0,0,3.154133800009731,tijiao,0.000829520053230226,None,-0.6,0,None,None,None,None,None,None,None,None,None,None,None,None,,None,None,None,None,None,None,3.057291666666667,1.7488421999732964,432.7469418999972,None,432.7469418999972,None,432.7469418999972,None,432.7469418999972,None,None,None,434.52774619997945,None,,,,,,,,,228,f,23,2023_Mar_19_1755,RL,2021.2.3,60.013130875210166,
0,0.3,0.225,0,33,33,33,,,,,,,,,,,,,,,None,None,None,None,None,436.36716249998426,None,436.36716249998426,None,436.36716249998426,None,436.36716249998426,None,r,0.32464349997462705,436.36716249998426,None,436.36716249998426,None,436.7378771000076,None,436.7378771000076,None,436.7378771000076,None,436.7378771000076,None,436.7378771000076,None,436.7378771000076,None,437.03076970000984,None,437.03076970000984,None,438.6623991000233,None,438.6623991000233,None,438.6623991000233,None,438.6623991000233,None,438.6623991000233,None,438.6623991000233,None,438.6623991000233,None,438.6623991000233,None,438.6623991000233,None,67,38,51,43,67,76,None,None,None,None,None,None,None,None,None,None,None,None,56,441.192217600008,None,441.192217600008,None,441.192217600008,None,441.192217600008,None,441.192217600008,None,441.192217600008,None,441.192217600008,None,56,441.192217600008,None,0.005208333333333333,-0.29296875,1,0,0,4.204155700048432,tijiao,0.0001346200588159263,None,0.2,0,None,None,None,None,None,None,None,None,None,None,None,None,,None,None,None,None,None,None,3.981770833333334,2.0170261000166647,445.44430670002475,None,445.44430670002475,None,445.44430670002475,None,445.44430670002475,None,None,None,447.48650699999416,None,,,,,,,,,228,f,23,2023_Mar_19_1755,RL,2021.2.3,60.013130875210166,
1,-0.3,-0.225,0,34,34,34,,,,,,,,,,,,,,,None,None,None,None,None,449.2769189000246,None,449.2769189000246,None,449.2769189000246,None,449.2769189000246,None,r,0.23590829997556284,449.2769189000246,None,449.2769189000246,None,449.5614757000003,None,449.5614757000003,None,449.5614757000003,None,449.5614757000003,None,449.5614757000003,None,449.5614757000003,None,449.85656099999323,None,449.85656099999323,None,451.6401617000229,None,451.6401617000229,None,451.6401617000229,None,451.6401617000229,None,451.6401617000229,None,451.6401617000229,None,451.6401617000229,None,451.6401617000229,None,451.6401617000229,None,65,38,39,50,65,72,None,None,None,None,None,None,None,None,None,None,None,None,54,454.1679438999854,None,454.1679438999854,None,454.1679438999854,None,454.1679438999854,None,454.1679438999854,None,454.1679438999854,None,454.1679438999854,None,54,454.1679438999854,None,-0.006510416666666667,-0.3059895833333333,1,0,0,2.9026538000325672,tijiao,0.0001462200889363885,None,-0.2,0,None,None,None,None,None,None,None,None,None,None,None,None,,None,None,None,None,None,None,4.958333333333333,1.8971064000506885,457.11771180003416,None,457.11771180003416,None,457.11771180003416,None,457.11771180003416,None,None,None,459.02845280000474,None,,,,,,,,,228,f,23,2023_Mar_19_1755,RL,2021.2.3,60.013130875210166,
0,0.3,0.225,0,35,35,35,,,,,,,,,,,,,,,None,None,None,None,None,460.86755369999446,None,460.86755369999446,None,460.86755369999446,None,460.86755369999446,None,r,0.2557344000088051,460.86755369999446,None,460.86755369999446,None,461.1733443000121,None,461.1733443000121,None,461.1733443000121,None,461.1733443000121,None,461.1733443000121,None,461.1733443000121,None,461.46438199997647,None,461.46438199997647,None,463.16719010000816,None,463.16719010000816,None,463.16719010000816,None,463.16719010000816,None,463.16719010000816,None,463.16719010000816,None,463.16719010000816,None,463.16719010000816,None,463.16719010000816,None,73,40,37,52,73,73,None,None,None,None,None,None,None,None,None,None,None,None,,None,None,None,None,None,None,None,None,None,None,None,None,None,None,,None,None,,,,,,,,None,None,-0.6,1,465.7140238999855,None,465.7140238999855,None,465.7140238999855,None,465.7140238999855,None,465.7140238999855,None,465.7140238999855,None,74,465.7140238999855,None,465.7140238999855,None,0.010517039976548404,None,2.953125,3.626197499979753,468.83108189998893,None,468.83108189998893,None,468.83108189998893,None,468.83108189998893,None,None,None,472.47118779999437,None,0.032552083333333336,-0.28515625,1,0,0,3.080532799998764,tijiao,,228,f,23,2023_Mar_19_1755,RL,2021.2.3,60.013130875210166,
1,-0.3,-0.225,0,36,36,36,,,,,,,,,,,,,,,None,None,None,None,None,474.17699250002624,None,474.17699250002624,None,474.17699250002624,None,474.17699250002624,None,r,0.3265485999872908,474.17699250002624,None,474.17699250002624,None,474.54831669997657,None,474.54831669997657,None,474.54831669997657,None,474.54831669997657,None,474.54831669997657,None,474.54831669997657,None,474.8235031000222,476.57482270000037,474.8235031000222,476.57482270000037,476.60677860002033,None,476.60677860002033,None,476.60677860002033,None,476.60677860002033,None,476.60677860002033,None,476.60677860002033,None,476.60677860002033,None,476.60677860002033,None,476.60677860002033,None,71,35,35,48,71,65,479.1279078000225,None,4.0,2.9043627999490127,479.1279078000225,None,479.1279078000225,None,479.1279078000225,None,479.1279078000225,None,,None,None,None,None,None,None,None,None,None,None,None,None,None,None,,None,None,,,,,,,,None,None,-0.6,3,None,None,None,None,None,None,None,None,None,None,None,None,,None,None,None,None,None,None,None,None,None,None,None,None,None,None,None,None,None,None,482.097955300007,None,,,,,,,,,228,f,23,2023_Mar_19_1755,RL,2021.2.3,60.013130875210166,
0,0.3,0.225,0,37,37,37,,,,,,,,,,,,,,,None,None,None,None,None,483.8183303999831,None,483.8183303999831,None,483.8183303999831,None,483.8183303999831,None,r,0.30472130002453923,483.8183303999831,None,483.8183303999831,None,484.16884100000607,None,484.16884100000607,None,484.16884100000607,None,484.16884100000607,None,484.16884100000607,None,484.16884100000607,None,484.46355079999194,None,484.46355079999194,None,485.32930029998533,None,485.32930029998533,None,485.32930029998533,None,485.32930029998533,None,485.32930029998533,None,485.32930029998533,None,485.32930029998533,None,485.32930029998533,None,485.32930029998533,None,64,32,45,44,64,29,None,None,None,None,None,None,None,None,None,None,None,None,,None,None,None,None,None,None,None,None,None,None,None,None,None,None,,None,None,,,,,,,,None,None,-0.6,1,487.8694123000023,None,487.8694123000023,None,487.8694123000023,None,487.8694123000023,None,487.8694123000023,None,487.8694123000023,None,54,487.8694123000023,None,487.8694123000023,None,0.0049950299435295165,None,4.098958333333334,2.3296506999759004,491.0425209000241,None,491.0425209000241,None,491.0425209000241,None,491.0425209000241,None,None,None,493.4032392000081,None,0.08984375,-0.31640625,1,0,0,3.141147499962244,tijiao,,228,f,23,2023_Mar_19_1755,RL,2021.2.3,60.013130875210166,
1,-0.3,-0.225,0,38,38,38,,,,,,,,,,,,,,,None,None,None,None,None,494.9249062000308,None,494.9249062000308,None,494.9249062000308,None,494.9249062000308,None,r,0.2882112999795936,494.9249062000308,None,494.9249062000308,None,495.26215740002226,None,495.26215740002226,None,495.26215740002226,None,495.26215740002226,None,495.26215740002226,None,495.26215740002226,None,495.5382760000066,496.60540780000156,495.5382760000066,496.60540780000156,496.654142400017,None,496.654142400017,None,496.654142400017,None,496.654142400017,None,496.654142400017,None,496.654142400017,None,496.654142400017,None,496.654142400017,None,496.654142400017,None,49,36,40,40,49,70,None,None,None,None,None,None,None,None,None,None,None,None,,None,None,None,None,None,None,None,None,None,None,None,None,None,None,,None,None,,,,,,,,None,None,0.2,1,499.20521149999695,None,499.20521149999695,None,499.20521149999695,None,499.20521149999695,None,499.20521149999695,None,499.20521149999695,None,70,499.20521149999695,None,499.20521149999695,None,0.010203740035649389,None,2.979166666666667,2.8241661999491043,502.2380640000338,None,502.2380640000338,None,502.2380640000338,None,502.2380640000338,None,None,None,505.0772855000105,None,-0.06901041666666667,-0.2643229166666667,1,0,0,2.9964178999653086,tijiao,,228,f,23,2023_Mar_19_1755,RL,2021.2.3,60.013130875210166,
0,0.3,0.225,0,39,39,39,,,,,,,,,,,,,,,None,None,None,None,None,506.6497304000077,None,506.6497304000077,None,506.6497304000077,None,506.6497304000077,None,f,0.7536322000087239,506.6497304000077,None,506.6497304000077,None,507.45237660000566,None,507.45237660000566,None,507.45237660000566,None,507.45237660000566,None,507.45237660000566,None,507.45237660000566,None,507.7468119999976,None,507.7468119999976,None,509.56967380002607,None,509.56967380002607,None,509.56967380002607,None,509.56967380002607,None,509.56967380002607,None,509.56967380002607,None,509.56967380002607,None,509.56967380002607,None,509.56967380002607,None,60,29,39,45,29,71,512.0878551999922,None,3.0,3.434836600034032,512.0878551999922,None,512.0878551999922,None,512.0878551999922,None,512.0878551999922,None,,None,None,None,None,None,None,None,None,None,None,None,None,None,None,,None,None,,,,,,,,None,None,0.2,2,None,None,None,None,None,None,None,None,None,None,None,None,,None,None,None,None,None,None,None,None,None,None,None,None,None,None,None,None,None,None,515.5831388999941,None,,,,,,,,,228,f,23,2023_Mar_19_1755,RL,2021.2.3,60.013130875210166,
1,-0.3,-0.225,0,40,40,40,,,,,,,,,,,,,,,None,None,None,None,None,517.1408434000332,None,517.1408434000332,None,517.1408434000332,None,517.1408434000332,None,f,0.27260039997054264,517.1408434000332,None,517.1408434000332,None,517.4584441999905,None,517.4584441999905,None,517.4584441999905,None,517.4584441999905,None,517.4584441999905,None,517.4584441999905,None,517.753787100024,None,517.753787100024,None,518.9365281999926,None,518.9365281999926,None,518.9365281999926,None,518.9365281999926,None,518.9365281999926,None,518.9365281999926,None,518.9365281999926,None,518.9365281999926,None,518.9365281999926,None,53,36,35,53,36,38,None,None,None,None,None,None,None,None,None,None,None,None,67,521.4636176999775,None,521.4636176999775,None,521.4636176999775,None,521.4636176999775,None,521.4636176999775,None,521.4636176999775,None,521.4636176999775,None,67,521.4636176999775,None,-0.006510416666666667,-0.2734375,1,0,0,2.9869233000208624,tijiao,0.0005867200088687241,None,-0.2,0,None,None,None,None,None,None,None,None,None,None,None,None,,None,None,None,None,None,None,4.9453125,1.882333200017456,524.4978340999805,None,524.4978340999805,None,524.4978340999805,None,524.4978340999805,None,None,None,526.3922511999845,None,,,,,,,,,228,f,23,2023_Mar_19_1755,RL,2021.2.3,60.013130875210166,
0,0.3,0.225,0,41,41,41,,,,,,,,,,,,,,,None,None,None,None,None,528.1314226000104,None,528.1314226000104,None,528.1314226000104,None,528.1314226000104,None,f,0.29200900002615526,528.1314226000104,None,528.1314226000104,None,528.4677955000079,None,528.4677955000079,None,528.4677955000079,None,528.4677955000079,None,528.4677955000079,None,528.4677955000079,None,528.7611940000206,None,528.7611940000206,None,530.2250959000085,None,530.2250959000085,None,530.2250959000085,None,530.2250959000085,None,530.2250959000085,None,530.2250959000085,None,530.2250959000085,None,530.2250959000085,None,530.2250959000085,None,68,35,25,42,35,63,None,None,None,None,None,None,None,None,None,None,None,None,,None,None,None,None,None,None,None,None,None,None,None,None,None,None,,None,None,,,,,,,,None,None,-0.2,1,532.7781921999995,None,532.7781921999995,None,532.7781921999995,None,532.7781921999995,None,532.7781921999995,None,532.7781921999995,None,34,532.7781921999995,None,532.7781921999995,None,0.010362440021708608,None,2.979166666666667,2.7967820999911055,535.7893562000245,None,535.7893562000245,None,535.7893562000245,None,535.7893562000245,None,None,None,538.6006189000327,None,0.018229166666666668,-0.2604166666666667,1,0,0,2.9797109000501223,tijiao,,228,f,23,2023_Mar_19_1755,RL,2021.2.3,60.013130875210166,
1,-0.3,-0.225,0,42,42,42,,,,,,,,,,,,,,,None,None,None,None,None,540.2896326000337,None,540.2896326000337,None,540.2896326000337,None,540.2896326000337,None,r,0.24388520000502467,540.2896326000337,None,540.2896326000337,None,540.5757101000054,None,540.5757101000054,None,540.5757101000054,None,540.5757101000054,None,540.5757101000054,None,540.5757101000054,None,540.8694737000042,None,540.8694737000042,None,541.883837500005,None,541.883837500005,None,541.883837500005,None,541.883837500005,None,541.883837500005,None,541.883837500005,None,541.883837500005,None,541.883837500005,None,541.883837500005,None,49,34,31,44,49,65,544.4021364999935,None,3.0,2.0390845999936573,544.4021364999935,None,544.4021364999935,None,544.4021364999935,None,544.4021364999935,None,,None,None,None,None,None,None,None,None,None,None,None,None,None,None,,None,None,,,,,,,,None,None,0.6,3,None,None,None,None,None,None,None,None,None,None,None,None,,None,None,None,None,None,None,None,None,None,None,None,None,None,None,None,None,None,None,546.4929251000285,None,,,,,,,,,228,f,23,2023_Mar_19_1755,RL,2021.2.3,60.013130875210166,
0,0.3,0.225,0,43,43,43,,,,,,,,,,,,,,,None,None,None,None,None,548.295334000024,None,548.295334000024,None,548.295334000024,None,548.295334000024,None,r,0.28866359998937696,548.295334000024,None,548.295334000024,None,548.6303574999911,None,548.6303574999911,None,548.6303574999911,None,548.6303574999911,None,548.6303574999911,None,548.6303574999911,None,548.9251538999961,None,548.9251538999961,None,549.9061870999867,None,549.9061870999867,None,549.9061870999867,None,549.9061870999867,None,549.9061870999867,None,549.9061870999867,None,549.9061870999867,None,549.9061870999867,None,549.9061870999867,None,43,28,40,51,43,64,552.4256882999907,None,3.0,0.5729662000085227,552.4256882999907,None,552.4256882999907,None,552.4256882999907,None,552.4256882999907,None,,None,None,None,None,None,None,None,None,None,None,None,None,None,None,,None,None,,,,,,,,None,None,-0.6,2,None,None,None,None,None,None,None,None,None,None,None,None,,None,None,None,None,None,None,None,None,None,None,None,None,None,None,None,None,None,None,553.0580616000225,None,,,,,,,,,228,f,23,2023_Mar_19_1755,RL,2021.2.3,60.013130875210166,
1,-0.3,-0.225,0,44,44,44,,,,,,,,,,,,,,,None,None,None,None,None,555.0657543999841,None,555.0657543999841,None,555.0657543999841,None,555.0657543999841,None,r,0.23784830002114177,555.0657543999841,None,555.0657543999841,None,555.3498957999982,None,555.3498957999982,None,555.3498957999982,None,555.3498957999982,None,555.3498957999982,None,555.3498957999982,None,555.6463371000136,None,555.6463371000136,None,557.077535999997,None,557.077535999997,None,557.077535999997,None,557.077535999997,None,557.077535999997,None,557.077535999997,None,557.077535999997,None,557.077535999997,None,557.077535999997,None,43,29,42,46,43,76,None,None,None,None,None,None,None,None,None,None,None,None,67,559.6160149999778,None,559.6160149999778,None,559.6160149999778,None,559.6160149999778,None,559.6160149999778,None,559.6160149999778,None,559.6160149999778,None,67,559.6160149999778,None,-0.052083333333333336,-0.2838541666666667,1,0,0,3.1447887999820523,tijiao,0.00850892998278141,None,0.2,0,None,None,None,None,None,None,None,None,None,None,None,None,,None,None,None,None,None,None,4.984375,1.6312282999861054,562.8072618999868,None,562.8072618999868,None,562.8072618999868,None,562.8072618999868,None,None,None,564.4519856999977,None,,,,,,,,,228,f,23,2023_Mar_19_1755,RL,2021.2.3,60.013130875210166,
0,0.3,0.225,0,45,45,45,,,,,,,,,,,,,,,None,None,None,None,None,566.2578004000243,None,566.2578004000243,None,566.2578004000243,None,566.2578004000243,None,r,0.3658272000029683,566.2578004000243,None,566.2578004000243,None,566.6756593000027,None,566.6756593000027,None,566.6756593000027,None,566.6756593000027,None,566.6756593000027,None,566.6756593000027,None,566.9712458000286,None,566.9712458000286,None,568.5190116000012,None,568.5190116000012,None,568.5190116000012,None,568.5190116000012,None,568.5190116000012,None,568.5190116000012,None,568.5190116000012,None,568.5190116000012,None,568.5190116000012,None,49,35,32,55,49,53,571.0382805999834,None,4.0,2.5069116999511607,571.0382805999834,None,571.0382805999834,None,571.0382805999834,None,571.0382805999834,None,,None,None,None,None,None,None,None,None,None,None,None,None,None,None,,None,None,,,,,,,,None,None,0.6,3,None,None,None,None,None,None,None,None,None,None,None,None,,None,None,None,None,None,None,None,None,None,None,None,None,None,None,None,None,None,None,573.5996912000119,None,,,,,,,,,228,f,23,2023_Mar_19_1755,RL,2021.2.3,60.013130875210166,
1,-0.3,-0.225,0,46,46,46,,,,,,,,,,,,,,,None,None,None,None,None,575.2809844000149,None,575.2809844000149,None,575.2809844000149,None,575.2809844000149,None,r,0.4326806999742985,575.2809844000149,None,575.2809844000149,None,575.7625972999958,None,575.7625972999958,None,575.7625972999958,None,575.7625972999958,None,575.7625972999958,None,575.7625972999958,None,576.0609585000202,None,576.0609585000202,None,577.3058728000033,None,577.3058728000033,None,577.3058728000033,None,577.3058728000033,None,577.3058728000033,None,577.3058728000033,None,577.3058728000033,None,577.3058728000033,None,577.3058728000033,None,48,32,37,59,48,63,579.8327913000248,None,4.0,1.0677783999708481,579.8327913000248,None,579.8327913000248,None,579.8327913000248,None,579.8327913000248,None,,None,None,None,None,None,None,None,None,None,None,None,None,None,None,,None,None,,,,,,,,None,None,0.2,3,None,None,None,None,None,None,None,None,None,None,None,None,,None,None,None,None,None,None,None,None,None,None,None,None,None,None,None,None,None,None,580.9488199999905,None,,,,,,,,,228,f,23,2023_Mar_19_1755,RL,2021.2.3,60.013130875210166,
0,0.3,0.225,0,47,47,47,,,,,,,,,,,,,,,None,None,None,None,None,582.4688818000141,None,582.4688818000141,None,582.4688818000141,None,582.4688818000141,None,r,0.314843500033021,582.4688818000141,None,582.4688818000141,None,582.8212280999869,None,582.8212280999869,None,582.8212280999869,None,582.8212280999869,None,582.8212280999869,None,582.8212280999869,None,583.1154730999842,584.0829414000036,583.1154730999842,584.0829414000036,584.1176506000338,None,584.1176506000338,None,584.1176506000338,None,584.1176506000338,None,584.1176506000338,None,584.1176506000338,None,584.1176506000338,None,584.1176506000338,None,584.1176506000338,None,48,41,31,48,48,66,None,None,None,None,None,None,None,None,None,None,None,None,55,586.6447384000057,None,586.6447384000057,None,586.6447384000057,None,586.6447384000057,None,586.6447384000057,None,586.6447384000057,None,586.6447384000057,None,55,586.6447384000057,None,0.0013020833333333333,-0.2877604166666667,1,0,0,2.618069900025148,tijiao,0.01554952992592007,None,0.2,0,None,None,None,None,None,None,None,None,None,None,None,None,,None,None,None,None,None,None,3.942708333333334,1.9221176999853924,589.3060240999912,None,589.3060240999912,None,589.3060240999912,None,589.3060240999912,None,None,None,591.2545508000185,None,,,,,,,,,228,f,23,2023_Mar_19_1755,RL,2021.2.3,60.013130875210166,
1,-0.3,-0.225,0,48,48,48,,,,,,,,,,,,,,,None,None,None,None,None,592.9930368000059,None,592.9930368000059,None,592.9930368000059,None,592.9930368000059,None,f,0.200989099976141,592.9930368000059,None,592.9930368000059,None,593.2461121000233,None,593.2461121000233,None,593.2461121000233,None,593.2461121000233,None,593.2461121000233,None,593.2461121000233,None,593.539362200012,None,593.539362200012,None,594.8215887999977,None,594.8215887999977,None,594.8215887999977,None,594.8215887999977,None,594.8215887999977,None,594.8215887999977,None,594.8215887999977,None,594.8215887999977,None,594.8215887999977,None,48,31,36,55,31,54,None,None,None,None,None,None,None,None,None,None,None,None,,None,None,None,None,None,None,None,None,None,None,None,None,None,None,,None,None,,,,,,,,None,None,0.2,1,597.3640884999768,None,597.3640884999768,None,597.3640884999768,None,597.3640884999768,None,597.3640884999768,None,597.3640884999768,None,54,597.3640884999768,None,597.3640884999768,None,0.002654729993082583,None,5.075520833333333,2.0802064000163227,600.9674978000112,None,600.9674978000112,None,600.9674978000112,None,600.9674978000112,None,None,None,603.0619404999889,None,0.028645833333333332,-0.30078125,1,0,0,3.572504400042817,tijiao,,228,f,23,2023_Mar_19_1755,RL,2021.2.3,60.013130875210166,
0,0.3,0.225,0,49,49,49,,,,,,,,,,,,,,,None,None,None,None,None,604.8847548000049,None,604.8847548000049,None,604.8847548000049,None,604.8847548000049,None,j,0.3301568000460975,604.8847548000049,None,604.8847548000049,None,605.2534615999903,None,605.2534615999903,None,605.2534615999903,None,605.2534615999903,None,605.2534615999903,None,605.2534615999903,None,605.5477295999881,607.2154568000115,605.5477295999881,607.2154568000115,607.2472922999877,None,607.2472922999877,None,607.2472922999877,None,607.2472922999877,None,607.2472922999877,None,607.2472922999877,None,607.2472922999877,None,607.2472922999877,None,607.2472922999877,None,46,29,39,58,58,49,None,None,None,None,None,None,None,None,None,None,None,None,,None,None,None,None,None,None,None,None,None,None,None,None,None,None,,None,None,,,,,,,,None,None,-0.6,1,609.8022764000343,None,609.8022764000343,None,609.8022764000343,None,609.8022764000343,None,609.8022764000343,None,609.8022764000343,None,78,609.8022764000343,None,609.8022764000343,None,0.0056740400032140315,None,3.9296875,2.4916953000356443,612.8639156999998,None,612.8639156999998,None,612.8639156999998,None,612.8639156999998,None,None,None,615.3707457000273,None,0.018229166666666668,-0.265625,1,0,0,3.0252551999874413,tijiao,,228,f,23,2023_Mar_19_1755,RL,2021.2.3,60.013130875210166,
1,-0.3,-0.225,0,50,50,50,,,,,,,,,,,,,,,None,None,None,None,None,617.1768567999825,None,617.1768567999825,None,617.1768567999825,None,617.1768567999825,None,i,0.22859089996200055,617.1768567999825,None,617.1768567999825,None,617.4462846000097,None,617.4462846000097,None,617.4462846000097,None,617.4462846000097,None,617.4462846000097,None,617.4462846000097,None,617.7396282000118,None,617.7396282000118,None,619.3374917000183,None,619.3374917000183,None,619.3374917000183,None,619.3374917000183,None,619.3374917000183,None,619.3374917000183,None,619.3374917000183,None,619.3374917000183,None,619.3374917000183,None,56,25,47,54,47,67,None,None,None,None,None,None,None,None,None,None,None,None,67,621.8706349999993,None,621.8706349999993,None,621.8706349999993,None,621.8706349999993,None,621.8706349999993,None,621.8706349999993,None,621.8706349999993,None,67,621.8706349999993,None,-0.048177083333333336,-0.2721354166666667,1,0,0,2.7169812999782152,tijiao,0.014529929962009192,None,-0.6,0,None,None,None,None,None,None,None,None,None,None,None,None,,None,None,None,None,None,None,3.9296875,1.929310199979227,624.6374001000077,None,624.6374001000077,None,624.6374001000077,None,624.6374001000077,None,None,None,626.5943478000117,None,,,,,,,,,228,f,23,2023_Mar_19_1755,RL,2021.2.3,60.013130875210166,
0,0.3,0.225,0,51,51,51,,,,,,,,,,,,,,,None,None,None,None,None,628.2511163000017,None,628.2511163000017,None,628.2511163000017,None,628.2511163000017,None,j,0.3341403999947943,628.2511163000017,None,628.2511163000017,None,628.6353415999911,None,628.6353415999911,None,628.6353415999911,None,628.6353415999911,None,628.6353415999911,None,628.6353415999911,None,628.9306667000055,None,628.9306667000055,None,630.0942596999812,None,630.0942596999812,None,630.0942596999812,None,630.0942596999812,None,630.0942596999812,None,630.0942596999812,None,630.0942596999812,None,630.0942596999812,None,630.0942596999812,None,58,26,36,51,51,55,None,None,None,None,None,None,None,None,None,None,None,None,,None,None,None,None,None,None,None,None,None,None,None,None,None,None,,None,None,,,,,,,,None,None,0.6,1,632.6450870999834,None,632.6450870999834,None,632.6450870999834,None,632.6450870999834,None,632.6450870999834,None,632.6450870999834,None,53,632.6450870999834,None,632.6450870999834,None,0.012349840020760894,None,3.955729166666666,1.7760993000119925,636.8783164999913,None,636.8783164999913,None,636.8783164999913,None,636.8783164999913,None,None,None,638.6703031000216,None,0.018229166666666668,-0.3138020833333333,1,0,0,4.199704899976496,tijiao,,228,f,23,2023_Mar_19_1755,RL,2021.2.3,60.013130875210166,
1,-0.3,-0.225,0,52,52,52,,,,,,,,,,,,,,,None,None,None,None,None,640.2755201000255,None,640.2755201000255,None,640.2755201000255,None,640.2755201000255,None,j,0.24976460001198575,640.2755201000255,None,640.2755201000255,None,640.5769628999988,None,640.5769628999988,None,640.5769628999988,None,640.5769628999988,None,640.5769628999988,None,640.5769628999988,None,640.8723020000034,None,640.8723020000034,None,641.8739544000127,None,641.8739544000127,None,641.8739544000127,None,641.8739544000127,None,641.8739544000127,None,641.8739544000127,None,641.8739544000127,None,641.8739544000127,None,641.8739544000127,None,56,25,38,58,58,53,None,None,None,None,None,None,None,None,None,None,None,None,67,644.4078655000194,None,644.4078655000194,None,644.4078655000194,None,644.4078655000194,None,644.4078655000194,None,644.4078655000194,None,644.4078655000194,None,67,644.4078655000194,None,-0.078125,-0.3229166666666667,1,0,0,4.579952500003856,tijiao,0.009060730051714927,None,-0.2,0,None,None,None,None,None,None,None,None,None,None,None,None,,None,None,None,None,None,None,5.947916666666667,2.3115906000020914,649.0388926999876,None,649.0388926999876,None,649.0388926999876,None,649.0388926999876,None,None,None,651.378049299994,None,,,,,,,,,228,f,23,2023_Mar_19_1755,RL,2021.2.3,60.013130875210166,
0,0.3,0.225,0,53,53,53,,,,,,,,,,,,,,,None,None,None,None,None,653.1016585000325,None,653.1016585000325,None,653.1016585000325,None,653.1016585000325,None,j,0.25372540001990274,653.1016585000325,None,653.1016585000325,None,653.4018786000088,None,653.4018786000088,None,653.4018786000088,None,653.4018786000088,None,653.4018786000088,None,653.4018786000088,None,653.6979469999787,None,653.6979469999787,None,654.8826179000316,None,654.8826179000316,None,654.8826179000316,None,654.8826179000316,None,654.8826179000316,None,654.8826179000316,None,654.8826179000316,None,654.8826179000316,None,654.8826179000316,None,53,13,36,42,42,62,None,None,None,None,None,None,None,None,None,None,None,None,32,657.4108402000275,None,657.4108402000275,None,657.4108402000275,None,657.4108402000275,None,657.4108402000275,None,657.4108402000275,None,657.4108402000275,None,32,657.4108402000275,None,0.014322916666666666,-0.3020833333333333,1,0,0,3.2517559999832883,tijiao,0.014811029948759824,None,-0.6,0,None,None,None,None,None,None,None,None,None,None,None,None,,None,None,None,None,None,None,4.059895833333334,1.7702830000198446,660.7095553000108,None,660.7095553000108,None,660.7095553000108,None,660.7095553000108,None,None,None,662.502837100008,None,,,,,,,,,228,f,23,2023_Mar_19_1755,RL,2021.2.3,60.013130875210166,
1,-0.3,-0.225,0,54,54,54,,,,,,,,,,,,,,,None,None,None,None,None,664.3265725999954,None,664.3265725999954,None,664.3265725999954,None,664.3265725999954,None,j,0.2987098000012338,664.3265725999954,None,664.3265725999954,None,664.6748914999771,None,664.6748914999771,None,664.6748914999771,None,664.6748914999771,None,664.6748914999771,None,664.6748914999771,None,664.9723135000095,None,664.9723135000095,None,666.9750881000073,None,666.9750881000073,None,666.9750881000073,None,666.9750881000073,None,666.9750881000073,None,666.9750881000073,None,666.9750881000073,None,666.9750881000073,None,666.9750881000073,None,44,12,37,51,51,25,None,None,None,None,None,None,None,None,None,None,None,None,34,669.5071344000171,None,669.5071344000171,None,669.5071344000171,None,669.5071344000171,None,669.5071344000171,None,669.5071344000171,None,669.5071344000171,None,34,669.5071344000171,None,-0.009114583333333334,-0.2890625,1,0,0,3.413938899990171,tijiao,0.010439029952976853,None,0.2,0,None,None,None,None,None,None,None,None,None,None,None,None,,None,None,None,None,None,None,5.21875,1.9587669000029564,672.9726843999815,None,672.9726843999815,None,672.9726843999815,None,672.9726843999815,None,None,None,674.945235399995,None,,,,,,,,,228,f,23,2023_Mar_19_1755,RL,2021.2.3,60.013130875210166,
0,0.3,0.225,0,55,55,55,,,,,,,,,,,,,,,None,None,None,None,None,676.9012885999982,None,676.9012885999982,None,676.9012885999982,None,676.9012885999982,None,j,0.27420740004163235,676.9012885999982,None,676.9012885999982,None,677.2203903000336,None,677.2203903000336,None,677.2203903000336,None,677.2203903000336,None,677.2203903000336,None,677.2203903000336,None,677.5143700999906,678.8486572999973,677.5143700999906,678.8486572999973,678.879150599998,None,678.879150599998,None,678.879150599998,None,678.879150599998,None,678.879150599998,None,678.879150599998,None,678.879150599998,None,678.879150599998,None,678.879150599998,None,46,25,34,58,58,54,None,None,None,None,None,None,None,None,None,None,None,None,51,681.4166368999868,None,681.4166368999868,None,681.4166368999868,None,681.4166368999868,None,681.4166368999868,None,681.4166368999868,None,681.4166368999868,None,51,681.4166368999868,None,0.020833333333333332,-0.27734375,1,0,0,4.06221290002577,tijiao,0.009088629973120987,None,-0.6,0,None,None,None,None,None,None,None,None,None,None,None,None,,None,None,None,None,None,None,5.205729166666667,3.28480749996379,685.5234079000074,None,685.5234079000074,None,685.5234079000074,None,685.5234079000074,None,None,None,688.8214096000302,None,,,,,,,,,228,f,23,2023_Mar_19_1755,RL,2021.2.3,60.013130875210166,
1,-0.3,-0.225,0,56,56,56,,,,,,,,,,,,,,,None,None,None,None,None,690.5269019000116,None,690.5269019000116,None,690.5269019000116,None,690.5269019000116,None,j,0.2292202000389807,690.5269019000116,None,690.5269019000116,None,690.7976633000071,None,690.7976633000071,None,690.7976633000071,None,690.7976633000071,None,690.7976633000071,None,690.7976633000071,None,691.0906299999915,None,691.0906299999915,None,692.7887616999797,None,692.7887616999797,None,692.7887616999797,None,692.7887616999797,None,692.7887616999797,None,692.7887616999797,None,692.7887616999797,None,692.7887616999797,None,692.7887616999797,None,46,26,44,52,52,28,695.3073954000138,None,5.0,2.037856599956285,695.3073954000138,None,695.3073954000138,None,695.3073954000138,None,695.3073954000138,None,,None,None,None,None,None,None,None,None,None,None,None,None,None,None,,None,None,,,,,,,,None,None,-0.6,2,None,None,None,None,None,None,None,None,None,None,None,None,,None,None,None,None,None,None,None,None,None,None,None,None,None,None,None,None,None,None,697.4131735999836,None,,,,,,,,,228,f,23,2023_Mar_19_1755,RL,2021.2.3,60.013130875210166,
0,0.3,0.225,0,57,57,57,,,,,,,,,,,,,,,None,None,None,None,None,699.2330310000107,None,699.2330310000107,None,699.2330310000107,None,699.2330310000107,None,j,0.5625067000510171,699.2330310000107,None,699.2330310000107,None,699.8365306000342,None,699.8365306000342,None,699.8365306000342,None,699.8365306000342,None,699.8365306000342,None,699.8365306000342,None,700.1301666999934,None,700.1301666999934,None,701.7624786000233,None,701.7624786000233,None,701.7624786000233,None,701.7624786000233,None,701.7624786000233,None,701.7624786000233,None,701.7624786000233,None,701.7624786000233,None,701.7624786000233,None,46,22,31,53,53,58,704.2791339000105,None,3.0,2.8424358000047505,704.2791339000105,None,704.2791339000105,None,704.2791339000105,None,704.2791339000105,None,,None,None,None,None,None,None,None,None,None,None,None,None,None,None,,None,None,,,,,,,,None,None,0.2,3,None,None,None,None,None,None,None,None,None,None,None,None,,None,None,None,None,None,None,None,None,None,None,None,None,None,None,None,None,None,None,707.1788966000313,None,,,,,,,,,228,f,23,2023_Mar_19_1755,RL,2021.2.3,60.013130875210166,
1,-0.3,-0.225,0,58,58,58,,,,,,,,,,,,,,,None,None,None,None,None,708.9902501000324,None,708.9902501000324,None,708.9902501000324,None,708.9902501000324,None,j,0.31532459997106344,708.9902501000324,None,708.9902501000324,None,709.356090300018,None,709.356090300018,None,709.356090300018,None,709.356090300018,None,709.356090300018,None,709.356090300018,None,709.6533171000192,None,709.6533171000192,None,711.3495995000121,None,711.3495995000121,None,711.3495995000121,None,711.3495995000121,None,711.3495995000121,None,711.3495995000121,None,711.3495995000121,None,711.3495995000121,None,711.3495995000121,None,47,27,37,48,48,60,713.8735478000017,None,2.0,2.3197135999798775,713.8735478000017,None,713.8735478000017,None,713.8735478000017,None,713.8735478000017,None,,None,None,None,None,None,None,None,None,None,None,None,None,None,None,,None,None,,,,,,,,None,None,-0.6,2,None,None,None,None,None,None,None,None,None,None,None,None,,None,None,None,None,None,None,None,None,None,None,None,None,None,None,None,None,None,None,716.2442217000062,None,,,,,,,,,228,f,23,2023_Mar_19_1755,RL,2021.2.3,60.013130875210166,
0,0.3,0.225,0,59,59,59,,,,,,,,,,,,,,,None,None,None,None,None,718.1965070000151,None,718.1965070000151,None,718.1965070000151,None,718.1965070000151,None,f,0.22933300002478063,718.1965070000151,None,718.1965070000151,None,718.46621709998,None,718.46621709998,None,718.46621709998,None,718.46621709998,None,718.46621709998,None,718.46621709998,None,718.7596072999877,None,718.7596072999877,None,720.3137575000292,None,720.3137575000292,None,720.3137575000292,None,720.3137575000292,None,720.3137575000292,None,720.3137575000292,None,720.3137575000292,None,720.3137575000292,None,720.3137575000292,None,53,29,35,57,29,60,None,None,None,None,None,None,None,None,None,None,None,None,,None,None,None,None,None,None,None,None,None,None,None,None,None,None,,None,None,,,,,,,,None,None,0.2,1,722.85138800001,None,722.85138800001,None,722.85138800001,None,722.85138800001,None,722.85138800001,None,722.85138800001,None,34,722.85138800001,None,722.85138800001,None,0.0036961299483664334,None,4.9453125,2.7106759999878705,725.8390508000157,None,725.8390508000157,None,725.8390508000157,None,725.8390508000157,None,None,None,728.5736397000146,None,-0.0026041666666666665,-0.2786458333333333,1,0,0,2.9563210000051185,tijiao,,228,f,23,2023_Mar_19_1755,RL,2021.2.3,60.013130875210166,
1,-0.3,-0.225,0,60,60,60,,,,,,,,,,,,,,,None,None,None,None,None,730.2383935999824,None,730.2383935999824,None,730.2383935999824,None,730.2383935999824,None,r,0.21734419994754717,730.2383935999824,None,730.2383935999824,None,730.5069337000023,None,730.5069337000023,None,730.5069337000023,None,730.5069337000023,None,730.5069337000023,None,730.5069337000023,None,730.801375799987,None,730.801375799987,None,732.5382634000271,None,732.5382634000271,None,732.5382634000271,None,732.5382634000271,None,732.5382634000271,None,732.5382634000271,None,732.5382634000271,None,732.5382634000271,None,732.5382634000271,None,51,26,31,58,51,36,None,None,None,None,None,None,None,None,None,None,None,None,,None,None,None,None,None,None,None,None,None,None,None,None,None,None,,None,None,,,,,,,,None,None,-0.6,1,735.0796508999774,None,735.0796508999774,None,735.0796508999774,None,735.0796508999774,None,735.0796508999774,None,735.0796508999774,None,90,735.0796508999774,None,735.0796508999774,None,0.016224240011069924,None,3.955729166666666,1.7116685999790207,738.5817399999942,None,738.5817399999942,None,738.5817399999942,None,738.5817399999942,None,None,None,740.3076414000243,None,-0.045572916666666664,-0.2825520833333333,1,0,0,3.4691577999619767,tijiao,,228,f,23,2023_Mar_19_1755,RL,2021.2.3,60.013130875210166,
0,0.3,0.225,0,61,61,61,,,,,,,,,,,,,,,None,None,None,None,None,742.2961995999794,None,742.2961995999794,None,742.2961995999794,None,742.2961995999794,None,r,0.3096358999609947,742.2961995999794,None,742.2961995999794,None,742.6507345000282,None,742.6507345000282,None,742.6507345000282,None,742.6507345000282,None,742.6507345000282,None,742.6507345000282,None,742.9428365000058,None,742.9428365000058,None,744.3580572999781,None,744.3580572999781,None,744.3580572999781,None,744.3580572999781,None,744.3580572999781,None,744.3580572999781,None,744.3580572999781,None,744.3580572999781,None,744.3580572999781,None,55,37,42,58,55,53,None,None,None,None,None,None,None,None,None,None,None,None,,None,None,None,None,None,None,None,None,None,None,None,None,None,None,,None,None,,,,,,,,None,None,-0.2,1,746.9019720000215,None,746.9019720000215,None,746.9019720000215,None,746.9019720000215,None,746.9019720000215,None,746.9019720000215,None,80,746.9019720000215,None,746.9019720000215,None,0.0015370299806818366,None,5.986979166666667,2.61214270000346,750.1277627000236,None,750.1277627000236,None,750.1277627000236,None,750.1277627000236,None,None,None,752.7488596999901,None,-0.08203125,-0.2682291666666667,1,0,0,3.170985999982804,tijiao,,228,f,23,2023_Mar_19_1755,RL,2021.2.3,60.013130875210166,
1,-0.3,-0.225,0,62,62,62,,,,,,,,,,,,,,,None,None,None,None,None,754.7222069000127,None,754.7222069000127,None,754.7222069000127,None,754.7222069000127,None,r,0.2549962000339292,754.7222069000127,None,754.7222069000127,None,755.0296314000152,None,755.0296314000152,None,755.0296314000152,None,755.0296314000152,None,755.0296314000152,None,755.0296314000152,None,755.3184009999968,None,755.3184009999968,None,756.2509165999945,None,756.2509165999945,None,756.2509165999945,None,756.2509165999945,None,756.2509165999945,None,756.2509165999945,None,756.2509165999945,None,756.2509165999945,None,756.2509165999945,None,39,25,48,32,39,38,None,None,None,None,None,None,None,None,None,None,None,None,,None,None,None,None,None,None,None,None,None,None,None,None,None,None,,None,None,,,,,,,,None,None,0.6,1,758.792730599991,None,758.792730599991,None,758.792730599991,None,758.792730599991,None,758.792730599991,None,758.792730599991,None,90,758.792730599991,None,758.792730599991,None,0.002417029987554997,None,6.0,1.843550999998115,761.921775099996,None,761.921775099996,None,761.921775099996,None,761.921775099996,None,None,None,763.7895435999963,None,0.037760416666666664,-0.2799479166666667,1,0,0,3.0880844999919645,tijiao,,228,f,23,2023_Mar_19_1755,RL,2021.2.3,60.013130875210166,
0,0.3,0.225,0,63,63,63,,,,,,,,,,,,,,,None,None,None,None,None,765.5294387000031,None,765.5294387000031,None,765.5294387000031,None,765.5294387000031,None,r,0.2875937999924645,765.5294387000031,None,765.5294387000031,None,765.865690400009,None,765.865690400009,None,765.865690400009,None,765.865690400009,None,765.865690400009,None,765.865690400009,None,766.159315500001,None,766.159315500001,None,767.3388602000196,None,767.3388602000196,None,767.3388602000196,None,767.3388602000196,None,767.3388602000196,None,767.3388602000196,None,767.3388602000196,None,767.3388602000196,None,767.3388602000196,None,48,35,42,51,48,47,None,None,None,None,None,None,None,None,None,None,None,None,,None,None,None,None,None,None,None,None,None,None,None,None,None,None,,None,None,,,,,,,,None,None,-0.2,1,769.8842566999956,None,769.8842566999956,None,769.8842566999956,None,769.8842566999956,None,769.8842566999956,None,769.8842566999956,None,89,769.8842566999956,None,769.8842566999956,None,0.0019723299774341285,None,6.026041666666666,1.9339266999741085,773.7368336999789,None,773.7368336999789,None,773.7368336999789,None,773.7368336999789,None,None,None,775.697966000007,None,-0.04296875,-0.2825520833333333,1,0,0,3.8219189000083134,tijiao,,228,f,23,2023_Mar_19_1755,RL,2021.2.3,60.013130875210166,
1,-0.3,-0.225,0,64,64,64,,,,,,,,,,,,,,,None,None,None,None,None,777.3875600000028,None,777.3875600000028,None,777.3875600000028,None,777.3875600000028,None,r,0.2495158000383526,777.3875600000028,None,777.3875600000028,None,777.6898122000275,None,777.6898122000275,None,777.6898122000275,None,777.6898122000275,None,777.6898122000275,None,777.6898122000275,None,777.9842102000257,779.8855057000183,777.9842102000257,779.8855057000183,779.9161029999959,None,779.9161029999959,None,779.9161029999959,None,779.9161029999959,None,779.9161029999959,None,779.9161029999959,None,779.9161029999959,None,779.9161029999959,None,779.9161029999959,None,55,32,45,55,55,30,None,None,None,None,None,None,None,None,None,None,None,None,,None,None,None,None,None,None,None,None,None,None,None,None,None,None,,None,None,,,,,,,,None,None,-0.6,1,782.4645407000207,None,782.4645407000207,None,782.4645407000207,None,782.4645407000207,None,782.4645407000207,None,782.4645407000207,None,78,782.4645407000207,None,782.4645407000207,None,0.013894940027967095,None,5.036458333333333,1.8140353000489995,785.9632088000071,None,785.9632088000071,None,785.9632088000071,None,785.9632088000071,None,None,None,787.8003895999864,None,-0.040364583333333336,-0.2955729166666667,1,0,0,3.4665372999734245,tijiao,,228,f,23,2023_Mar_19_1755,RL,2021.2.3,60.013130875210166,
0,0.3,0.225,0,65,65,65,,,,,,,,,,,,,,,None,None,None,None,None,789.6126195000252,None,789.6126195000252,None,789.6126195000252,None,789.6126195000252,None,r,0.2946204000036232,789.6126195000252,None,789.6126195000252,None,789.9499279999873,None,789.9499279999873,None,789.9499279999873,None,789.9499279999873,None,789.9499279999873,None,789.9499279999873,None,790.2259742000024,791.4100810000091,790.2259742000024,791.4100810000091,791.459609100013,None,791.459609100013,None,791.459609100013,None,791.459609100013,None,791.459609100013,None,791.459609100013,None,791.459609100013,None,791.459609100013,None,791.459609100013,None,52,32,42,55,52,33,793.9797586000059,None,5.0,2.00215479999315,793.9797586000059,None,793.9797586000059,None,793.9797586000059,None,793.9797586000059,None,,None,None,None,None,None,None,None,None,None,None,None,None,None,None,,None,None,,,,,,,,None,None,0.6,2,None,None,None,None,None,None,None,None,None,None,None,None,,None,None,None,None,None,None,None,None,None,None,None,None,None,None,None,None,None,None,796.0585819000262,None,,,,,,,,,228,f,23,2023_Mar_19_1755,RL,2021.2.3,60.013130875210166,
1,-0.3,-0.225,0,66,66,66,,,,,,,,,,,,,,,None,None,None,None,None,797.9188829999766,None,797.9188829999766,None,797.9188829999766,None,797.9188829999766,None,r,0.38840549997985363,797.9188829999766,None,797.9188829999766,None,798.3549191000056,None,798.3549191000056,None,798.3549191000056,None,798.3549191000056,None,798.3549191000056,None,798.3549191000056,None,798.6487248999765,799.9160195000004,798.6487248999765,799.9160195000004,799.9503224000218,None,799.9503224000218,None,799.9503224000218,None,799.9503224000218,None,799.9503224000218,None,799.9503224000218,None,799.9503224000218,None,799.9503224000218,None,799.9503224000218,None,48,26,46,53,48,59,None,None,None,None,None,None,None,None,None,None,None,None,67,802.4766149999923,None,802.4766149999923,None,802.4766149999923,None,802.4766149999923,None,802.4766149999923,None,802.4766149999923,None,802.4766149999923,None,67,802.4766149999923,None,0.0078125,-0.28125,1,0,0,3.437284699990414,tijiao,7.012003334239125e-05,None,0.6,0,None,None,None,None,None,None,None,None,None,None,None,None,,None,None,None,None,None,None,5.075520833333333,2.9331923999707215,805.9571219999925,None,805.9571219999925,None,805.9571219999925,None,805.9571219999925,None,None,None,808.9049526000163,None,,,,,,,,,228,f,23,2023_Mar_19_1755,RL,2021.2.3,60.013130875210166,
0,0.3,0.225,0,67,67,67,,,,,,,,,,,,,,,None,None,None,None,None,810.6105087000178,None,810.6105087000178,None,810.6105087000178,None,810.6105087000178,None,r,0.2770768000045791,810.6105087000178,None,810.6105087000178,None,810.9326343000284,None,810.9326343000284,None,810.9326343000284,None,810.9326343000284,None,810.9326343000284,None,810.9326343000284,None,811.2240330000059,None,811.2240330000059,None,812.8208820000291,None,812.8208820000291,None,812.8208820000291,None,812.8208820000291,None,812.8208820000291,None,812.8208820000291,None,812.8208820000291,None,812.8208820000291,None,812.8208820000291,None,51,21,43,55,51,25,815.3422423999873,None,5.0,2.0030255999881774,815.3422423999873,None,815.3422423999873,None,815.3422423999873,None,815.3422423999873,None,,None,None,None,None,None,None,None,None,None,None,None,None,None,None,,None,None,,,,,,,,None,None,-0.6,2,None,None,None,None,None,None,None,None,None,None,None,None,,None,None,None,None,None,None,None,None,None,None,None,None,None,None,None,None,None,None,817.3972939000232,None,,,,,,,,,228,f,23,2023_Mar_19_1755,RL,2021.2.3,60.013130875210166,
1,-0.3,-0.225,0,68,68,68,,,,,,,,,,,,,,,None,None,None,None,None,819.066754999978,None,819.066754999978,None,819.066754999978,None,819.066754999978,None,r,0.2607380999834277,819.066754999978,None,819.066754999978,None,819.37425480003,None,819.37425480003,None,819.37425480003,None,819.37425480003,None,819.37425480003,None,819.37425480003,None,819.6631625000155,820.6309907999821,819.6631625000155,820.6309907999821,820.6651544999913,None,820.6651544999913,None,820.6651544999913,None,820.6651544999913,None,820.6651544999913,None,820.6651544999913,None,820.6651544999913,None,820.6651544999913,None,820.6651544999913,None,56,20,50,60,56,47,823.1804423999856,None,5.0,1.6035601999610662,823.1804423999856,None,823.1804423999856,None,823.1804423999856,None,823.1804423999856,None,,None,None,None,None,None,None,None,None,None,None,None,None,None,None,,None,None,,,,,,,,None,None,-0.2,2,None,None,None,None,None,None,None,None,None,None,None,None,,None,None,None,None,None,None,None,None,None,None,None,None,None,None,None,None,None,None,824.837724299985,None,,,,,,,,,228,f,23,2023_Mar_19_1755,RL,2021.2.3,60.013130875210166,
0,0.3,0.225,0,69,69,69,,,,,,,,,,,,,,,None,None,None,None,None,826.4549052999937,None,826.4549052999937,None,826.4549052999937,None,826.4549052999937,None,f,0.3826984000043012,826.4549052999937,None,826.4549052999937,None,826.8909648000263,None,826.8909648000263,None,826.8909648000263,None,826.8909648000263,None,826.8909648000263,None,826.8909648000263,None,827.1852849000134,None,827.1852849000134,None,829.0018672000151,None,829.0018672000151,None,829.0018672000151,None,829.0018672000151,None,829.0018672000151,None,829.0018672000151,None,829.0018672000151,None,829.0018672000151,None,829.0018672000151,None,45,23,56,56,23,40,None,None,None,None,None,None,None,None,None,None,None,None,,None,None,None,None,None,None,None,None,None,None,None,None,None,None,,None,None,,,,,,,,None,None,-0.6,1,831.55182350002,None,831.55182350002,None,831.55182350002,None,831.55182350002,None,831.55182350002,None,831.55182350002,None,50,831.55182350002,None,831.55182350002,None,0.011447139957454056,None,4.854166666666667,2.1059552000369877,835.6690174000105,None,835.6690174000105,None,835.6690174000105,None,835.6690174000105,None,None,None,837.8020389000303,None,0.0546875,-0.28515625,1,0,0,4.081621200020891,tijiao,,228,f,23,2023_Mar_19_1755,RL,2021.2.3,60.013130875210166,
1,-0.3,-0.225,0,70,70,70,,,,,,,,,,,,,,,None,None,None,None,None,839.6652588000288,None,839.6652588000288,None,839.6652588000288,None,839.6652588000288,None,r,0.25221180001972243,839.6652588000288,None,839.6652588000288,None,839.9658345999778,None,839.9658345999778,None,839.9658345999778,None,839.9658345999778,None,839.9658345999778,None,839.9658345999778,None,840.2607394999941,None,840.2607394999941,None,841.0897048999905,None,841.0897048999905,None,841.0897048999905,None,841.0897048999905,None,841.0897048999905,None,841.0897048999905,None,841.0897048999905,None,841.0897048999905,None,841.0897048999905,None,40,20,48,62,40,50,843.6173567000078,None,3.0,1.73372030002065,843.6173567000078,None,843.6173567000078,None,843.6173567000078,None,843.6173567000078,None,,None,None,None,None,None,None,None,None,None,None,None,None,None,None,,None,None,,,,,,,,None,None,-0.6,3,None,None,None,None,None,None,None,None,None,None,None,None,,None,None,None,None,None,None,None,None,None,None,None,None,None,None,None,None,None,None,845.4121799999848,None,,,,,,,,,228,f,23,2023_Mar_19_1755,RL,2021.2.3,60.013130875210166,
0,0.3,0.225,0,71,71,71,,,,,,,,,,,,,,,None,None,None,None,None,847.1024834000273,None,847.1024834000273,None,847.1024834000273,None,847.1024834000273,None,r,0.6349967999849468,847.1024834000273,None,847.1024834000273,None,847.7891140999855,None,847.7891140999855,None,847.7891140999855,None,847.7891140999855,None,847.7891140999855,None,847.7891140999855,None,848.0827942999895,848.8999503999949,848.0827942999895,848.8999503999949,848.9311671000323,None,848.9311671000323,None,848.9311671000323,None,848.9311671000323,None,848.9311671000323,None,848.9311671000323,None,848.9311671000323,None,848.9311671000323,None,848.9311671000323,None,54,22,41,59,54,52,851.4482269000146,None,3.0,1.806408999953419,851.4482269000146,None,851.4482269000146,None,851.4482269000146,None,851.4482269000146,None,,None,None,None,None,None,None,None,None,None,None,None,None,None,None,,None,None,,,,,,,,None,None,0.2,2,None,None,None,None,None,None,None,None,None,None,None,None,,None,None,None,None,None,None,None,None,None,None,None,None,None,None,None,None,None,None,853.3178303000168,None,,,,,,,,,228,f,23,2023_Mar_19_1755,RL,2021.2.3,60.013130875210166,
1,-0.3,-0.225,0,72,72,72,,,,,,,,,,,,,,,None,None,None,None,None,854.924697200011,None,854.924697200011,None,854.924697200011,None,854.924697200011,None,r,0.2829456000472419,854.924697200011,None,854.924697200011,None,855.2593029999989,None,855.2593029999989,None,855.2593029999989,None,855.2593029999989,None,855.2593029999989,None,855.2593029999989,None,855.5548823000281,None,855.5548823000281,None,856.7031328000012,None,856.7031328000012,None,856.7031328000012,None,856.7031328000012,None,856.7031328000012,None,856.7031328000012,None,856.7031328000012,None,856.7031328000012,None,856.7031328000012,None,42,24,46,56,42,45,859.2234783000313,None,3.0,1.0370815999922343,859.2234783000313,None,859.2234783000313,None,859.2234783000313,None,859.2234783000313,None,,None,None,None,None,None,None,None,None,None,None,None,None,None,None,,None,None,,,,,,,,None,None,0.6,2,None,None,None,None,None,None,None,None,None,None,None,None,,None,None,None,None,None,None,None,None,None,None,None,None,None,None,None,None,None,None,860.3212805999792,None,,,,,,,,,228,f,23,2023_Mar_19_1755,RL,2021.2.3,60.013130875210166,
0,0.3,0.225,0,73,73,73,,,,,,,,,,,,,,,None,None,None,None,None,861.84614899999,None,861.84614899999,None,861.84614899999,None,861.84614899999,None,r,0.2814926000428386,861.84614899999,None,861.84614899999,None,862.1646175999776,None,862.1646175999776,None,862.1646175999776,None,862.1646175999776,None,862.1646175999776,None,862.1646175999776,None,862.4595575000276,None,862.4595575000276,None,863.4966909000068,None,863.4966909000068,None,863.4966909000068,None,863.4966909000068,None,863.4966909000068,None,863.4966909000068,None,863.4966909000068,None,863.4966909000068,None,863.4966909000068,None,51,29,41,56,51,46,None,None,None,None,None,None,None,None,None,None,None,None,,None,None,None,None,None,None,None,None,None,None,None,None,None,None,,None,None,,,,,,,,None,None,0.6,1,866.0372597000096,None,866.0372597000096,None,866.0372597000096,None,866.0372597000096,None,866.0372597000096,None,866.0372597000096,None,89,866.0372597000096,None,866.0372597000096,None,0.01655043999198824,None,6.15625,2.411216000036802,870.3570451000123,None,870.3570451000123,None,870.3570451000123,None,870.3570451000123,None,None,None,872.7831186000258,None,-0.07942708333333333,-0.2838541666666667,1,0,0,4.287779000005685,tijiao,,228,f,23,2023_Mar_19_1755,RL,2021.2.3,60.013130875210166,
1,-0.3,-0.225,0,74,74,74,,,,,,,,,,,,,,,None,None,None,None,None,874.7885803999961,None,874.7885803999961,None,874.7885803999961,None,874.7885803999961,None,r,0.22916909999912605,874.7885803999961,None,874.7885803999961,None,875.0632981000235,None,875.0632981000235,None,875.0632981000235,None,875.0632981000235,None,875.0632981000235,None,875.0632981000235,None,875.3516206999775,876.7528072000132,875.3516206999775,876.7528072000132,876.7856878000312,None,876.7856878000312,None,876.7856878000312,None,876.7856878000312,None,876.7856878000312,None,876.7856878000312,None,876.7856878000312,None,876.7856878000312,None,876.7856878000312,None,57,26,39,60,57,27,None,None,None,None,None,None,None,None,None,None,None,None,79,879.314366400009,None,879.314366400009,None,879.314366400009,None,879.314366400009,None,879.314366400009,None,879.314366400009,None,879.314366400009,None,79,879.314366400009,None,-0.0013020833333333333,-0.2825520833333333,1,0,0,4.102282300009392,tijiao,0.015784229966811836,None,-0.6,0,None,None,None,None,None,None,None,None,None,None,None,None,,None,None,None,None,None,None,4.90625,1.7490488999756053,883.4624743000022,None,883.4624743000022,None,883.4624743000022,None,883.4624743000022,None,None,None,885.240759200009,None,,,,,,,,,228,f,23,2023_Mar_19_1755,RL,2021.2.3,60.013130875210166,
0,0.3,0.225,0,75,75,75,,,,,,,,,,,,,,,886.9598880999838,None,q,886.9598880999838,None,986.2149998000241,None,986.2149998000241,None,986.2149998000241,None,986.2149998000241,None,f,0.6375629000249319,986.2149998000241,None,986.2149998000241,None,986.9067476000055,None,986.9067476000055,None,986.9067476000055,None,986.9067476000055,None,986.9067476000055,None,986.9067476000055,None,987.1961222999962,988.8636441000272,987.1961222999962,988.8636441000272,988.8959147999994,None,988.8959147999994,None,988.8959147999994,None,988.8959147999994,None,988.8959147999994,None,988.8959147999994,None,988.8959147999994,None,988.8959147999994,None,988.8959147999994,None,57,34,48,62,34,47,991.4164022000041,None,3.0,1.8359562999685295,991.4164022000041,None,991.4164022000041,None,991.4164022000041,None,991.4164022000041,None,,None,None,None,None,None,None,None,None,None,None,None,None,None,None,,None,None,,,,,,,,None,None,-0.2,2,None,None,None,None,None,None,None,None,None,None,None,None,,None,None,None,None,None,None,None,None,None,None,None,None,None,None,None,None,None,None,993.3013193000224,None,,,,,,,,99.1862928000046,228,f,23,2023_Mar_19_1755,RL,2021.2.3,60.013130875210166,
1,-0.3,-0.225,0,76,76,76,,,,,,,,,,,,,,,None,None,None,None,None,995.089472200023,None,995.089472200023,None,995.089472200023,None,995.089472200023,None,f,0.3531541000120342,995.089472200023,None,995.089472200023,None,995.4913170000073,None,995.4913170000073,None,995.4913170000073,None,995.4913170000073,None,995.4913170000073,None,995.4913170000073,None,995.7855278999778,None,995.7855278999778,None,997.034234300023,None,997.034234300023,None,997.034234300023,None,997.034234300023,None,997.034234300023,None,997.034234300023,None,997.034234300023,None,997.034234300023,None,997.034234300023,None,55,28,52,67,28,45,999.559634300007,None,3.0,1.2822918000165373,999.559634300007,None,999.559634300007,None,999.559634300007,None,999.559634300007,None,,None,None,None,None,None,None,None,None,None,None,None,None,None,None,,None,None,,,,,,,,None,None,0.6,3,None,None,None,None,None,None,None,None,None,None,None,None,,None,None,None,None,None,None,None,None,None,None,None,None,None,None,None,None,None,None,1000.8925729999901,None,,,,,,,,,228,f,23,2023_Mar_19_1755,RL,2021.2.3,60.013130875210166,
