bandit0,black_x_pos_random,black_y_pos_random,trials.thisRepN,trials.thisTrialN,trials.thisN,trials.thisIndex,instru_img1.started,instru_resp.started,instru_resp.keys,instru_resp.rt,instru_img2.started,instru_resp2.started,instru_resp2.keys,instru_resp2.rt,fixbefore_2.started,rest_response.keys,red.started,green.started,yellow.started,blue.started,choose_bandit.started,Fixation.started,choose_bandit.keys,choose_bandit.rt,black.started,red_2.started,green_2.started,yellow_2.started,blue_2.started,fixation_2.started,docs.started,wait_playerB.started,docs.stopped,wait_playerB.stopped,black.stopped,red_2.stopped,green_2.stopped,yellow_2.stopped,blue_2.stopped,fixation_2.stopped,black_com.started,reward_sub.started,palyerb.started,reward__sub.started,compare.started,red_compare.started,green_com.started,yellow_com.started,blue_com.started,image_3.started,slider.started,text.started,image_4.started,image_5.started,rewardyellow,rewardred,rewardblue,rewardgreen,subchoose,playerb,slider.response,slider.rt,value_expect_self,expectself.text,tijiao_click.x,tijiao_click.y,tijiao_click.leftButton,tijiao_click.midButton,tijiao_click.rightButton,tijiao_click.time,tijiao_click.clicked_name,random_whicharm,whether_ask,expect_random_3.text,tijiao_random.x,tijiao_random.y,tijiao_random.leftButton,tijiao_random.midButton,tijiao_random.rightButton,tijiao_random.time,tijiao_random.clicked_name,slider_2.response,slider_2.rt,intertrialfix.started,intertrialfix.stopped,expect_self_black.started,expect_self.started,expect_self_red.started,expect_self_green.started,expect_self_yellow.started,expect_self_blue.started,tijiao.started,expectself.started,tijiao_click.started,slider_2.started,image_7.started,confi.started,notconfi.started,jiantou_random.started,expect_red.started,expect_green.started,expect_yellow.started,expect_blue.started,expect_random_2.started,expect_random_3.started,tijiao_random_2.started,tijiao_random.started,bigx.started,bigx.stopped,rest_image.started,rest_response.started,rest_response.rt,participant,Gender,Age,date,expName,psychopyVersion,frameRate,
,,,,,,,103.03444450000825,103.03444450000825,space,6.0240919000061695,,,,,,,,,,,,,,,,,,,,,,,,,,,,,,,,,,,,,,,,,,,,,,,,,,,,,,,,,,,,,,,,,,,,,,,,,,,,,,,,,,,,,,,,,,,,,,,,,,,,,,,229,f,25,2023-03-20_10h17.34.687,RL,2022.2.4,60.18407902450306,
,,,,,,,,,,,109.08863740001107,109.08863740001107,s,44.78575310000451,,,,,,,,,,,,,,,,,,,,,,,,,,,,,,,,,,,,,,,,,,,,,,,,,,,,,,,,,,,,,,,,,,,,,,,,,,,,,,,,,,,,,,,,,,,,,,,,,,,229,f,25,2023-03-20_10h17.34.687,RL,2022.2.4,60.18407902450306,
1,-0.3,-0.225,0,0,0,0,,,,,,,,,153.89312260001316,None,154.93022710000514,154.93022710000514,154.93022710000514,154.93022710000514,154.93022710000514,154.93022710000514,f,0.7523755000001984,155.7295398000133,155.7295398000133,155.7295398000133,155.7295398000133,155.7295398000133,155.7295398000133,156.0033814000053,156.0033814000053,156.99995360001049,156.99995360001049,157.03551190000144,157.03551190000144,157.03551190000144,157.03551190000144,157.03551190000144,157.03551190000144,157.03551190000144,157.03551190000144,157.03551190000144,157.03551190000144,157.03551190000144,157.03551190000144,157.03551190000144,157.03551190000144,157.03551190000144,159.5431799000071,159.5431799000071,159.5431799000071,159.5431799000071,159.5431799000071,47,57,50,70,57,60,5.0,3.0074089000117965,,,[],[],[],[],[],[],[],-0.6,3,,[],[],[],[],[],[],[],None,None,162.7357636000088,164.44619390000298,,,,,,,,,,,,,,,,,,,,,,,,,,,,229,f,25,2023-03-20_10h17.34.687,RL,2022.2.4,60.18407902450306,
0,0.3,0.225,0,1,1,1,,,,,,,,,,None,164.44619390000298,164.44619390000298,164.44619390000298,164.44619390000298,164.44619390000298,164.44619390000298,r,0.4623535999999149,164.9340505,164.9340505,164.9340505,164.9340505,164.9340505,164.9340505,165.22817020000366,165.22817020000366,167.05626790001406,167.05626790001406,167.07291960000293,167.07291960000293,167.07291960000293,167.07291960000293,167.07291960000293,167.07291960000293,167.07291960000293,167.07291960000293,167.07291960000293,167.07291960000293,167.07291960000293,167.07291960000293,167.07291960000293,167.07291960000293,167.07291960000293,169.5819729000068,169.5819729000068,169.5819729000068,169.5819729000068,169.5819729000068,53,48,40,68,53,46,6.0,2.60866939999687,,,[],[],[],[],[],[],[],0.6,2,,[],[],[],[],[],[],[],None,None,172.21593730000313,174.20313830001396,,,,,,,,,,,,,,,,,,,,,,,,,,,,229,f,25,2023-03-20_10h17.34.687,RL,2022.2.4,60.18407902450306,
1,-0.3,-0.225,0,2,2,2,,,,,,,,,,None,174.20313830001396,174.20313830001396,174.20313830001396,174.20313830001396,174.20313830001396,174.20313830001396,i,0.6104884999949718,174.84286060000886,174.84286060000886,174.84286060000886,174.84286060000886,174.84286060000886,174.84286060000886,175.13443490001373,175.13443490001373,176.68005410001206,176.68005410001206,176.69661579999956,176.69661579999956,176.69661579999956,176.69661579999956,176.69661579999956,176.69661579999956,176.69661579999956,176.69661579999956,176.69661579999956,176.69661579999956,176.69661579999956,176.69661579999956,176.69661579999956,176.69661579999956,176.69661579999956,,,,,,46,49,46,64,46,58,None,None,50,50,[-0.012037037037037037],[-0.2740740740740741],[1],[0],[0],[5.911886300003971],['tijiao'],0.6,0,,[],[],[],[],[],[],[],3.935185185185185,4.622175700002117,189.79315280000446,191.67206860000442,179.22842900000978,179.22842900000978,179.22842900000978,179.22842900000978,179.22842900000978,179.22842900000978,179.22842900000978,179.22842900000978,0.005568900000071153,185.15862720001314,185.15862720001314,185.15862720001314,185.15862720001314,,,,,,,,,,,,,,,229,f,25,2023-03-20_10h17.34.687,RL,2022.2.4,60.18407902450306,
0,0.3,0.225,0,3,3,3,,,,,,,,,,None,191.67206860000442,191.67206860000442,191.67206860000442,191.67206860000442,191.67206860000442,191.67206860000442,j,0.5285367000033148,192.22658930000034,192.22658930000034,192.22658930000034,192.22658930000034,192.22658930000034,192.22658930000034,192.52026880001358,192.52026880001358,193.38448250001238,193.38448250001238,193.38448250001238,193.38448250001238,193.38448250001238,193.38448250001238,193.38448250001238,193.38448250001238,193.38448250001238,193.38448250001238,193.38448250001238,193.38448250001238,193.38448250001238,193.38448250001238,193.38448250001238,193.38448250001238,193.38448250001238,,,,,,49,55,40,77,77,64,None,None,,,[],[],[],[],[],[],[],-0.6,1,45,[-0.08611111111111111],[-0.30925925925925923],[1],[0],[0],[8.691093300003558],['tijiao'],2.935185185185185,3.268421100001433,207.89343730000837,209.80607480001345,,,,,,,,,,204.60621900000842,204.60621900000842,204.60621900000842,204.60621900000842,195.90546780001023,195.90546780001023,195.90546780001023,195.90546780001023,195.90546780001023,195.90546780001023,195.90546780001023,195.90546780001023,0.007634900000994094,,,,,,229,f,25,2023-03-20_10h17.34.687,RL,2022.2.4,60.18407902450306,
1,-0.3,-0.225,0,4,4,4,,,,,,,,,,None,209.80607480001345,209.80607480001345,209.80607480001345,209.80607480001345,209.80607480001345,209.80607480001345,j,0.6375708999985363,210.47169200000644,210.47169200000644,210.47169200000644,210.47169200000644,210.47169200000644,210.47169200000644,210.77040160000615,210.77040160000615,211.58467590001237,211.58467590001237,211.58467590001237,211.58467590001237,211.58467590001237,211.58467590001237,211.58467590001237,211.58467590001237,211.58467590001237,211.58467590001237,211.58467590001237,211.58467590001237,211.58467590001237,211.58467590001237,211.58467590001237,211.58467590001237,211.58467590001237,,,,,,52,44,40,66,66,42,None,None,,,[],[],[],[],[],[],[],-0.2,1,50,[-0.10925925925925926],[-0.30462962962962964],[1],[0],[0],[6.0650103999942075],['tijiao'],4.962962962962964,6.026890299996012,226.22675080000772,227.77375659999961,,,,,,,,,,220.18099090000032,220.18099090000032,220.18099090000032,220.18099090000032,214.10347739999997,214.10347739999997,214.10347739999997,214.10347739999997,214.10347739999997,214.10347739999997,214.10347739999997,214.10347739999997,0.007687499994062819,,,,,,229,f,25,2023-03-20_10h17.34.687,RL,2022.2.4,60.18407902450306,
0,0.3,0.225,0,5,5,5,,,,,,,,,,None,227.77375659999961,227.77375659999961,227.77375659999961,227.77375659999961,227.77375659999961,227.77375659999961,j,0.8991391000017757,228.70468640000036,228.70468640000036,228.70468640000036,228.70468640000036,228.70468640000036,228.70468640000036,229.00398560000758,229.00398560000758,230.06773860000249,230.06773860000249,230.06773860000249,230.06773860000249,230.06773860000249,230.06773860000249,230.06773860000249,230.06773860000249,230.06773860000249,230.06773860000249,230.06773860000249,230.06773860000249,230.06773860000249,230.06773860000249,230.06773860000249,230.06773860000249,230.06773860000249,,,,,,49,46,48,73,73,45,None,None,75,75,[-0.037037037037037035],[-0.3],[1],[0],[0],[6.672665300007793],['tijiao'],0.2,0,,[],[],[],[],[],[],[],8.981481481481481,3.837372099995264,243.13074080001388,245.12635870001395,232.57794420000573,232.57794420000573,232.57794420000573,232.57794420000573,232.57794420000573,232.57794420000573,232.57794420000573,232.57794420000573,0.0054835000046296045,239.27495060001092,239.27495060001092,239.27495060001092,239.27495060001092,,,,,,,,,,,,,,,229,f,25,2023-03-20_10h17.34.687,RL,2022.2.4,60.18407902450306,
1,-0.3,-0.225,0,6,6,6,,,,,,,,,,None,245.12635870001395,245.12635870001395,245.12635870001395,245.12635870001395,245.12635870001395,245.12635870001395,j,0.6441382000048179,245.79208980000112,245.79208980000112,245.79208980000112,245.79208980000112,245.79208980000112,245.79208980000112,246.09029130000272,246.09029130000272,247.15428590000374,247.15428590000374,247.15428590000374,247.15428590000374,247.15428590000374,247.15428590000374,247.15428590000374,247.15428590000374,247.15428590000374,247.15428590000374,247.15428590000374,247.15428590000374,247.15428590000374,247.15428590000374,247.15428590000374,247.15428590000374,247.15428590000374,249.66323340000235,249.66323340000235,249.66323340000235,249.66323340000235,249.66323340000235,46,46,55,78,78,42,6.0,3.8054179000027943,,,[],[],[],[],[],[],[],-0.2,3,,[],[],[],[],[],[],[],None,None,253.49647460000415,255.11571340000955,,,,,,,,,,,,,,,,,,,,,,,,,,,,229,f,25,2023-03-20_10h17.34.687,RL,2022.2.4,60.18407902450306,
0,0.3,0.225,0,7,7,7,,,,,,,,,,None,255.11571340000955,255.11571340000955,255.11571340000955,255.11571340000955,255.11571340000955,255.11571340000955,j,1.1789147000090452,256.31272510001145,256.31272510001145,256.31272510001145,256.31272510001145,256.31272510001145,256.31272510001145,256.6118928000069,256.6118928000069,257.5592003000056,257.5592003000056,257.5592003000056,257.5592003000056,257.5592003000056,257.5592003000056,257.5592003000056,257.5592003000056,257.5592003000056,257.5592003000056,257.5592003000056,257.5592003000056,257.5592003000056,257.5592003000056,257.5592003000056,257.5592003000056,257.5592003000056,,,,,,53,48,40,75,75,64,None,None,75,75,[0.02962962962962963],[-0.30185185185185187],[1],[0],[0],[5.525520000010147],['tijiao'],0.2,0,,[],[],[],[],[],[],[],10.027777777777779,1.8307071000017459,267.4642036000005,269.2269840000081,260.0696479000035,260.0696479000035,260.0696479000035,260.0696479000035,260.0696479000035,260.0696479000035,260.0696479000035,260.0696479000035,0.005087599987746216,265.61490590000176,265.61490590000176,265.61490590000176,265.61490590000176,,,,,,,,,,,,,,,229,f,25,2023-03-20_10h17.34.687,RL,2022.2.4,60.18407902450306,
1,-0.3,-0.225,0,8,8,8,,,,,,,,,,None,269.2269840000081,269.2269840000081,269.2269840000081,269.2269840000081,269.2269840000081,269.2269840000081,j,0.5485765000048559,269.7925370000012,269.7925370000012,269.7925370000012,269.7925370000012,269.7925370000012,269.7925370000012,270.0917616000079,270.0917616000079,271.62076340000203,271.62076340000203,271.62076340000203,271.62076340000203,271.62076340000203,271.62076340000203,271.62076340000203,271.62076340000203,271.62076340000203,271.62076340000203,271.62076340000203,271.62076340000203,271.62076340000203,271.62076340000203,271.62076340000203,271.62076340000203,271.62076340000203,,,,,,60,48,52,66,66,38,None,None,65,65,[-0.125],[-0.27685185185185185],[1],[0],[0],[6.955431900001713],['tijiao'],-0.6,0,,[],[],[],[],[],[],[],7.0092592592592595,2.7613448000047356,283.8861969999998,285.7985989000008,274.13077210000483,274.13077210000483,274.13077210000483,274.13077210000483,274.13077210000483,274.13077210000483,274.13077210000483,274.13077210000483,0.007511400006478652,281.1058309000073,281.1058309000073,281.1058309000073,281.1058309000073,,,,,,,,,,,,,,,229,f,25,2023-03-20_10h17.34.687,RL,2022.2.4,60.18407902450306,
0,0.3,0.225,0,9,9,9,,,,,,,,,,None,285.7985989000008,285.7985989000008,285.7985989000008,285.7985989000008,285.7985989000008,285.7985989000008,j,0.6459060000051977,286.4639726000023,286.4639726000023,286.4639726000023,286.4639726000023,286.4639726000023,286.4639726000023,286.76284640000085,286.76284640000085,288.0759313000017,288.0759313000017,288.0759313000017,288.0759313000017,288.0759313000017,288.0759313000017,288.0759313000017,288.0759313000017,288.0759313000017,288.0759313000017,288.0759313000017,288.0759313000017,288.0759313000017,288.0759313000017,288.0759313000017,288.0759313000017,288.0759313000017,,,,,,70,53,48,74,74,58,None,None,,,[],[],[],[],[],[],[],0.2,1,60,[-0.005555555555555556],[-0.27870370370370373],[1],[0],[0],[6.912523000006331],['tijiao'],2.8333333333333335,4.2147005000006175,301.7539230000111,303.66646140000375,,,,,,,,,,297.52065500000026,297.52065500000026,297.52065500000026,297.52065500000026,290.5948996000079,290.5948996000079,290.5948996000079,290.5948996000079,290.5948996000079,290.5948996000079,290.5948996000079,290.5948996000079,0.005922399999690242,,,,,,229,f,25,2023-03-20_10h17.34.687,RL,2022.2.4,60.18407902450306,
1,-0.3,-0.225,0,10,10,10,,,,,,,,,,None,303.66646140000375,303.66646140000375,303.66646140000375,303.66646140000375,303.66646140000375,303.66646140000375,i,0.7700691000063671,304.465173900011,304.465173900011,304.465173900011,304.465173900011,304.465173900011,304.465173900011,304.7637820000091,304.7637820000091,305.89367360000324,305.89367360000324,305.89367360000324,305.89367360000324,305.89367360000324,305.89367360000324,305.89367360000324,305.89367360000324,305.89367360000324,305.89367360000324,305.89367360000324,305.89367360000324,305.89367360000324,305.89367360000324,305.89367360000324,305.89367360000324,305.89367360000324,308.40309170000546,308.40309170000546,308.40309170000546,308.40309170000546,308.40309170000546,57,45,51,76,51,48,5.0,3.57276459998684,,,[],[],[],[],[],[],[],-0.2,2,,[],[],[],[],[],[],[],None,None,312.00138150001294,313.6557618000079,,,,,,,,,,,,,,,,,,,,,,,,,,,,229,f,25,2023-03-20_10h17.34.687,RL,2022.2.4,60.18407902450306,
0,0.3,0.225,0,11,11,11,,,,,,,,,,None,313.6557618000079,313.6557618000079,313.6557618000079,313.6557618000079,313.6557618000079,313.6557618000079,j,0.8259955000103218,314.5038687000051,314.5038687000051,314.5038687000051,314.5038687000051,314.5038687000051,314.5038687000051,314.80301670001063,314.80301670001063,316.7974625000061,316.7974625000061,316.7974625000061,316.7974625000061,316.7974625000061,316.7974625000061,316.7974625000061,316.7974625000061,316.7974625000061,316.7974625000061,316.7974625000061,316.7974625000061,316.7974625000061,316.7974625000061,316.7974625000061,316.7974625000061,316.7974625000061,319.3065801000048,319.3065801000048,319.3065801000048,319.3065801000048,319.3065801000048,64,53,48,66,66,48,6.0,3.1569752999930643,,,[],[],[],[],[],[],[],-0.6,3,,[],[],[],[],[],[],[],None,None,322.48919350000506,324.06044890001067,,,,,,,,,,,,,,,,,,,,,,,,,,,,229,f,25,2023-03-20_10h17.34.687,RL,2022.2.4,60.18407902450306,
1,-0.3,-0.225,0,12,12,12,,,,,,,,,,None,324.06044890001067,324.06044890001067,324.06044890001067,324.06044890001067,324.06044890001067,324.06044890001067,r,0.6097493999986909,324.6948837000091,324.6948837000091,324.6948837000091,324.6948837000091,324.6948837000091,324.6948837000091,324.9919697000005,324.9919697000005,326.387822100005,326.387822100005,326.387822100005,326.387822100005,326.387822100005,326.387822100005,326.387822100005,326.387822100005,326.387822100005,326.387822100005,326.387822100005,326.387822100005,326.387822100005,326.387822100005,326.387822100005,326.387822100005,326.387822100005,,,,,,49,45,47,67,49,49,None,None,,,[],[],[],[],[],[],[],0.2,1,53,[0.04351851851851852],[-0.2638888888888889],[1],[0],[0],[8.990976200002478],['tijiao'],3.046296296296296,1.9212742000090657,339.8502811000071,341.71213010000065,,,,,,,,,,337.91130430001067,337.91130430001067,337.91130430001067,337.91130430001067,328.90551250000135,328.90551250000135,328.90551250000135,328.90551250000135,328.90551250000135,328.90551250000135,328.90551250000135,328.90551250000135,0.006133700007922016,,,,,,229,f,25,2023-03-20_10h17.34.687,RL,2022.2.4,60.18407902450306,
0,0.3,0.225,0,13,13,13,,,,,,,,,,None,341.71213010000065,341.71213010000065,341.71213010000065,341.71213010000065,341.71213010000065,341.71213010000065,j,0.7331313999893609,342.47755330000655,342.47755330000655,342.47755330000655,342.47755330000655,342.47755330000655,342.47755330000655,342.7763350000023,342.7763350000023,343.97333260001324,343.97333260001324,343.97333260001324,343.97333260001324,343.97333260001324,343.97333260001324,343.97333260001324,343.97333260001324,343.97333260001324,343.97333260001324,343.97333260001324,343.97333260001324,343.97333260001324,343.97333260001324,343.97333260001324,343.97333260001324,343.97333260001324,,,,,,61,51,54,64,64,56,None,None,,,[],[],[],[],[],[],[],0.2,1,48,[0.046296296296296294],[-0.25092592592592594],[1],[0],[0],[8.875148499995703],['tijiao'],3.9722222222222223,2.3694516999967163,357.7675879000017,359.68023150000954,,,,,,,,,,355.3795012000046,355.3795012000046,355.3795012000046,355.3795012000046,346.49112500000047,346.49112500000047,346.49112500000047,346.49112500000047,346.49112500000047,346.49112500000047,346.49112500000047,346.49112500000047,0.006129100001999177,,,,,,229,f,25,2023-03-20_10h17.34.687,RL,2022.2.4,60.18407902450306,
1,-0.3,-0.225,0,14,14,14,,,,,,,,,,None,359.68023150000954,359.68023150000954,359.68023150000954,359.68023150000954,359.68023150000954,359.68023150000954,f,0.40223879998666234,360.112787200007,360.112787200007,360.112787200007,360.112787200007,360.112787200007,360.112787200007,360.4118388000061,360.4118388000061,361.5750340000086,361.5750340000086,361.5750340000086,361.5750340000086,361.5750340000086,361.5750340000086,361.5750340000086,361.5750340000086,361.5750340000086,361.5750340000086,361.5750340000086,361.5750340000086,361.5750340000086,361.5750340000086,361.5750340000086,361.5750340000086,361.5750340000086,364.0842835000076,364.0842835000076,364.0842835000076,364.0842835000076,364.0842835000076,61,47,56,65,47,40,5.0,3.622762300001341,,,[],[],[],[],[],[],[],-0.6,3,,[],[],[],[],[],[],[],None,None,367.73190710000927,369.4532547000126,,,,,,,,,,,,,,,,,,,,,,,,,,,,229,f,25,2023-03-20_10h17.34.687,RL,2022.2.4,60.18407902450306,
0,0.3,0.225,0,15,15,15,,,,,,,,,,None,369.4532547000126,369.4532547000126,369.4532547000126,369.4532547000126,369.4532547000126,369.4532547000126,j,0.9488073000102304,370.4347295000043,370.4347295000043,370.4347295000043,370.4347295000043,370.4347295000043,370.4347295000043,370.7335305000015,370.7335305000015,371.56460670000524,371.56460670000524,371.56460670000524,371.56460670000524,371.56460670000524,371.56460670000524,371.56460670000524,371.56460670000524,371.56460670000524,371.56460670000524,371.56460670000524,371.56460670000524,371.56460670000524,371.56460670000524,371.56460670000524,371.56460670000524,371.56460670000524,374.07384890000685,374.07384890000685,374.07384890000685,374.07384890000685,374.07384890000685,67,55,53,65,65,31,6.0,1.7945000999898184,,,[],[],[],[],[],[],[],-0.6,3,,[],[],[],[],[],[],[],None,None,375.8940411000076,377.7308500000072,,,,,,,,,,,,,,,,,,,,,,,,,,,,229,f,25,2023-03-20_10h17.34.687,RL,2022.2.4,60.18407902450306,
1,-0.3,-0.225,0,16,16,16,,,,,,,,,,None,377.7308500000072,377.7308500000072,377.7308500000072,377.7308500000072,377.7308500000072,377.7308500000072,j,0.4723680000024615,378.2317689000047,378.2317689000047,378.2317689000047,378.2317689000047,378.2317689000047,378.2317689000047,378.52894200000446,378.52894200000446,379.95816440001363,379.95816440001363,379.95816440001363,379.95816440001363,379.95816440001363,379.95816440001363,379.95816440001363,379.95816440001363,379.95816440001363,379.95816440001363,379.95816440001363,379.95816440001363,379.95816440001363,379.95816440001363,379.95816440001363,379.95816440001363,379.95816440001363,382.46714600000996,382.46714600000996,382.46714600000996,382.46714600000996,382.46714600000996,60,55,47,73,73,68,7.0,2.558985700001358,,,[],[],[],[],[],[],[],0.6,3,,[],[],[],[],[],[],[],None,None,385.0539051000087,386.7563940000109,,,,,,,,,,,,,,,,,,,,,,,,,,,,229,f,25,2023-03-20_10h17.34.687,RL,2022.2.4,60.18407902450306,
0,0.3,0.225,0,17,17,17,,,,,,,,,,None,386.7563940000109,386.7563940000109,386.7563940000109,386.7563940000109,386.7563940000109,386.7563940000109,j,0.7027473999914946,387.48774010001216,387.48774010001216,387.48774010001216,387.48774010001216,387.48774010001216,387.48774010001216,387.78669980000996,387.78669980000996,389.0003657000052,389.0003657000052,389.0003657000052,389.0003657000052,389.0003657000052,389.0003657000052,389.0003657000052,389.0003657000052,389.0003657000052,389.0003657000052,389.0003657000052,389.0003657000052,389.0003657000052,389.0003657000052,389.0003657000052,389.0003657000052,389.0003657000052,391.5092144000082,391.5092144000082,391.5092144000082,391.5092144000082,391.5092144000082,57,58,51,73,73,65,7.0,1.943646699990495,,,[],[],[],[],[],[],[],0.2,2,,[],[],[],[],[],[],[],None,None,393.478990100004,395.0669340000022,,,,,,,,,,,,,,,,,,,,,,,,,,,,229,f,25,2023-03-20_10h17.34.687,RL,2022.2.4,60.18407902450306,
1,-0.3,-0.225,0,18,18,18,,,,,,,,,,None,395.0669340000022,395.0669340000022,395.0669340000022,395.0669340000022,395.0669340000022,395.0669340000022,None,,,,,,,,,,,,,,,,,,,,,,,,,,,,,,,,63,44,49,67,0,**,None,None,,,[],[],[],[],[],[],[],-0.2,0,,[],[],[],[],[],[],[],None,None,401.09981750001316,402.61267170000065,,,,,,,,,,,,,,,,,,,,,,,396.5995268000115,401.09981750001316,,,,229,f,25,2023-03-20_10h17.34.687,RL,2022.2.4,60.18407902450306,
0,0.3,0.225,0,19,19,19,,,,,,,,,,None,402.61267170000065,402.61267170000065,402.61267170000065,402.61267170000065,402.61267170000065,402.61267170000065,j,0.5244048000022303,403.16224960000545,403.16224960000545,403.16224960000545,403.16224960000545,403.16224960000545,403.16224960000545,403.46067750001384,403.46067750001384,404.92337470001075,404.92337470001075,404.92337470001075,404.92337470001075,404.92337470001075,404.92337470001075,404.92337470001075,404.92337470001075,404.92337470001075,404.92337470001075,404.92337470001075,404.92337470001075,404.92337470001075,404.92337470001075,404.92337470001075,404.92337470001075,404.92337470001075,,,,,,56,53,50,65,65,47,None,None,,,[],[],[],[],[],[],[],-0.2,1,40,[0.05462962962962963],[-0.2638888888888889],[1],[0],[0],[5.816119299997808],['tijiao'],4.0,3.002482899988536,416.2913977000135,418.1206011000031,,,,,,,,,,413.2699919000006,413.2699919000006,413.2699919000006,413.2699919000006,407.44147930000327,407.44147930000327,407.44147930000327,407.44147930000327,407.44147930000327,407.44147930000327,407.44147930000327,407.44147930000327,0.005767599999671802,,,,,,229,f,25,2023-03-20_10h17.34.687,RL,2022.2.4,60.18407902450306,
1,-0.3,-0.225,0,20,20,20,,,,,,,,,,None,418.1206011000031,418.1206011000031,418.1206011000031,418.1206011000031,418.1206011000031,418.1206011000031,j,0.48967690000426956,418.6371002000087,418.6371002000087,418.6371002000087,418.6371002000087,418.6371002000087,418.6371002000087,418.93536970000423,418.93536970000423,419.79969410000194,419.79969410000194,419.79969410000194,419.79969410000194,419.79969410000194,419.79969410000194,419.79969410000194,419.79969410000194,419.79969410000194,419.79969410000194,419.79969410000194,419.79969410000194,419.79969410000194,419.79969410000194,419.79969410000194,419.79969410000194,419.79969410000194,,,,,,56,46,50,59,59,75,None,None,60,60,[-0.041666666666666664],[-0.275],[1],[0],[0],[6.52148219999799],['tijiao'],0.6,0,,[],[],[],[],[],[],[],4.027777777777779,3.658940100009204,432.5303688000131,434.0934479999996,422.3109972000093,422.3109972000093,422.3109972000093,422.3109972000093,422.3109972000093,422.3109972000093,422.3109972000093,422.3109972000093,0.006770100007997826,428.85344970000733,428.85344970000733,428.85344970000733,428.85344970000733,,,,,,,,,,,,,,,229,f,25,2023-03-20_10h17.34.687,RL,2022.2.4,60.18407902450306,
0,0.3,0.225,0,21,21,21,,,,,,,,,,None,434.0934479999996,434.0934479999996,434.0934479999996,434.0934479999996,434.0934479999996,434.0934479999996,j,0.6506511999905342,434.7753692000115,434.7753692000115,434.7753692000115,434.7753692000115,434.7753692000115,434.7753692000115,435.07453910000913,435.07453910000913,436.4374729000119,436.4374729000119,436.4543865000014,436.4543865000014,436.4543865000014,436.4543865000014,436.4543865000014,436.4543865000014,436.4543865000014,436.4543865000014,436.4543865000014,436.4543865000014,436.4543865000014,436.4543865000014,436.4543865000014,436.4543865000014,436.4543865000014,438.96338160001324,438.96338160001324,438.96338160001324,438.96338160001324,438.96338160001324,51,56,50,67,67,46,5.0,4.503675500003737,,,[],[],[],[],[],[],[],0.6,3,,[],[],[],[],[],[],[],None,None,443.4948684000119,445.4625197000132,,,,,,,,,,,,,,,,,,,,,,,,,,,,229,f,25,2023-03-20_10h17.34.687,RL,2022.2.4,60.18407902450306,
1,-0.3,-0.225,0,22,22,22,,,,,,,,,,None,445.4625197000132,445.4625197000132,445.4625197000132,445.4625197000132,445.4625197000132,445.4625197000132,i,0.7257571999944048,446.2108520000038,446.2108520000038,446.2108520000038,446.2108520000038,446.2108520000038,446.2108520000038,446.50999940000474,446.50999940000474,447.44066420001036,447.44066420001036,447.44066420001036,447.44066420001036,447.44066420001036,447.44066420001036,447.44066420001036,447.44066420001036,447.44066420001036,447.44066420001036,447.44066420001036,447.44066420001036,447.44066420001036,447.44066420001036,447.44066420001036,447.44066420001036,447.44066420001036,,,,,,60,40,49,70,49,68,None,None,48,48,[0.1398148148148148],[-0.2833333333333333],[1],[0],[0],[6.972111200011568],['tijiao'],-0.2,0,,[],[],[],[],[],[],[],7.092592592592593,2.8103464000014355,459.7723369000014,461.68507040000986,449.9507016999996,449.9507016999996,449.9507016999996,449.9507016999996,449.9507016999996,449.9507016999996,449.9507016999996,449.9507016999996,0.006242400006158277,456.94322540001303,456.94322540001303,456.94322540001303,456.94322540001303,,,,,,,,,,,,,,,229,f,25,2023-03-20_10h17.34.687,RL,2022.2.4,60.18407902450306,
0,0.3,0.225,0,23,23,23,,,,,,,,,,None,461.68507040000986,461.68507040000986,461.68507040000986,461.68507040000986,461.68507040000986,461.68507040000986,j,0.6408257999864873,462.3523436000105,462.3523436000105,462.3523436000105,462.3523436000105,462.3523436000105,462.3523436000105,462.64939630001027,462.64939630001027,464.2446600000112,464.2446600000112,464.2446600000112,464.2446600000112,464.2446600000112,464.2446600000112,464.2446600000112,464.2446600000112,464.2446600000112,464.2446600000112,464.2446600000112,464.2446600000112,464.2446600000112,464.2446600000112,464.2446600000112,464.2446600000112,464.2446600000112,466.7540305000002,466.7540305000002,466.7540305000002,466.7540305000002,466.7540305000002,48,58,48,76,76,40,7.0,2.82526610000059,,,[],[],[],[],[],[],[],-0.6,3,,[],[],[],[],[],[],[],None,None,469.6041224000073,471.2421486000094,,,,,,,,,,,,,,,,,,,,,,,,,,,,229,f,25,2023-03-20_10h17.34.687,RL,2022.2.4,60.18407902450306,
1,-0.3,-0.225,0,24,24,24,,,,,,,,,,None,471.2421486000094,471.2421486000094,471.2421486000094,471.2421486000094,471.2421486000094,471.2421486000094,j,0.3796466999920085,471.64165720000165,471.64165720000165,471.64165720000165,471.64165720000165,471.64165720000165,471.64165720000165,471.94059490000654,471.94059490000654,473.5696132000012,473.5696132000012,473.5696132000012,473.5696132000012,473.5696132000012,473.5696132000012,473.5696132000012,473.5696132000012,473.5696132000012,473.5696132000012,473.5696132000012,473.5696132000012,473.5696132000012,473.5696132000012,473.5696132000012,473.5696132000012,473.5696132000012,,,,,,48,42,58,69,69,68,None,None,,,[],[],[],[],[],[],[],-0.6,1,44,[-0.09907407407407408],[-0.29814814814814816],[1],[0],[0],[5.451655299999402],['tijiao'],10.953703703703704,1.9879098999954294,483.5574534000043,485.170821000007,,,,,,,,,,481.55100669999956,481.55100669999956,481.55100669999956,481.55100669999956,476.08652700000675,476.08652700000675,476.08652700000675,476.08652700000675,476.08652700000675,476.08652700000675,476.08652700000675,476.08652700000675,0.005598700008704327,,,,,,229,f,25,2023-03-20_10h17.34.687,RL,2022.2.4,60.18407902450306,
0,0.3,0.225,0,25,25,25,,,,,,,,,,None,485.170821000007,485.170821000007,485.170821000007,485.170821000007,485.170821000007,485.170821000007,None,,,,,,,,,,,,,,,,,,,,,,,,,,,,,,,,52,49,47,76,0,**,None,None,,,[],[],[],[],[],[],[],-0.6,0,,[],[],[],[],[],[],[],None,None,491.2201697000128,492.93320400000084,,,,,,,,,,,,,,,,,,,,,,,486.70578150000074,491.2201697000128,,,,229,f,25,2023-03-20_10h17.34.687,RL,2022.2.4,60.18407902450306,
1,-0.3,-0.225,0,26,26,26,,,,,,,,,,None,492.93320400000084,492.93320400000084,492.93320400000084,492.93320400000084,492.93320400000084,492.93320400000084,j,0.5406576999957906,493.49931570001354,493.49931570001354,493.49931570001354,493.49931570001354,493.49931570001354,493.49931570001354,493.7976672000077,493.7976672000077,495.11055890000716,495.11055890000716,495.11055890000716,495.11055890000716,495.11055890000716,495.11055890000716,495.11055890000716,495.11055890000716,495.11055890000716,495.11055890000716,495.11055890000716,495.11055890000716,495.11055890000716,495.11055890000716,495.11055890000716,495.11055890000716,495.11055890000716,497.6196370000107,497.6196370000107,497.6196370000107,497.6196370000107,497.6196370000107,50,39,50,76,76,43,7.0,2.1102454000065336,,,[],[],[],[],[],[],[],0.6,2,,[],[],[],[],[],[],[],None,None,499.7555936000135,501.5259256000136,,,,,,,,,,,,,,,,,,,,,,,,,,,,229,f,25,2023-03-20_10h17.34.687,RL,2022.2.4,60.18407902450306,
0,0.3,0.225,0,27,27,27,,,,,,,,,,None,501.5259256000136,501.5259256000136,501.5259256000136,501.5259256000136,501.5259256000136,501.5259256000136,j,0.4136466000054497,501.9586277000053,501.9586277000053,501.9586277000053,501.9586277000053,501.9586277000053,501.9586277000053,502.2578418000048,502.2578418000048,504.1693663000042,504.1693663000042,504.1693663000042,504.1693663000042,504.1693663000042,504.1693663000042,504.1693663000042,504.1693663000042,504.1693663000042,504.1693663000042,504.1693663000042,504.1693663000042,504.1693663000042,504.1693663000042,504.1693663000042,504.1693663000042,504.1693663000042,,,,,,52,40,44,76,76,51,None,None,75,75,[0.049074074074074076],[-0.2962962962962963],[1],[0],[0],[4.776036900002509],['tijiao'],0.2,0,,[],[],[],[],[],[],[],8.944444444444445,2.196278400006122,513.6920984000026,515.6710528000112,506.68037690001074,506.68037690001074,506.68037690001074,506.68037690001074,506.68037690001074,506.68037690001074,506.68037690001074,506.68037690001074,0.007493400000385009,511.4772883000114,511.4772883000114,511.4772883000114,511.4772883000114,,,,,,,,,,,,,,,229,f,25,2023-03-20_10h17.34.687,RL,2022.2.4,60.18407902450306,
1,-0.3,-0.225,0,28,28,28,,,,,,,,,,None,515.6710528000112,515.6710528000112,515.6710528000112,515.6710528000112,515.6710528000112,515.6710528000112,j,0.6285359999892535,516.319468200003,516.319468200003,516.319468200003,516.319468200003,516.319468200003,516.319468200003,516.6182628000097,516.6182628000097,517.549265300011,517.549265300011,517.5656143000087,517.5656143000087,517.5656143000087,517.5656143000087,517.5656143000087,517.5656143000087,517.5656143000087,517.5656143000087,517.5656143000087,517.5656143000087,517.5656143000087,517.5656143000087,517.5656143000087,517.5656143000087,517.5656143000087,520.0751447000075,520.0751447000075,520.0751447000075,520.0751447000075,520.0751447000075,51,47,47,74,74,58,5.0,1.9102741999959107,,,[],[],[],[],[],[],[],-0.2,3,,[],[],[],[],[],[],[],None,None,522.0107888000057,523.93153110001,,,,,,,,,,,,,,,,,,,,,,,,,,,,229,f,25,2023-03-20_10h17.34.687,RL,2022.2.4,60.18407902450306,
0,0.3,0.225,0,29,29,29,,,,,,,,,,None,523.93153110001,523.93153110001,523.93153110001,523.93153110001,523.93153110001,523.93153110001,j,0.5242214999889256,524.4805433000001,524.4805433000001,524.4805433000001,524.4805433000001,524.4805433000001,524.4805433000001,524.779763100014,524.779763100014,525.8433775000012,525.8433775000012,525.8433775000012,525.8433775000012,525.8433775000012,525.8433775000012,525.8433775000012,525.8433775000012,525.8433775000012,525.8433775000012,525.8433775000012,525.8433775000012,525.8433775000012,525.8433775000012,525.8433775000012,525.8433775000012,525.8433775000012,528.3523924000037,528.3523924000037,528.3523924000037,528.3523924000037,528.3523924000037,48,45,47,73,73,65,7.0,3.1408527000021422,,,[],[],[],[],[],[],[],0.2,3,,[],[],[],[],[],[],[],None,None,531.5193050000089,533.306037900009,,,,,,,,,,,,,,,,,,,,,,,,,,,,229,f,25,2023-03-20_10h17.34.687,RL,2022.2.4,60.18407902450306,
1,-0.3,-0.225,0,30,30,30,,,,,,,,,,None,533.306037900009,533.306037900009,533.306037900009,533.306037900009,533.306037900009,533.306037900009,j,0.7901531999959843,534.1214620000101,534.1214620000101,534.1214620000101,534.1214620000101,534.1214620000101,534.1214620000101,534.4201281000132,534.4201281000132,535.5834337000124,535.5834337000124,535.5834337000124,535.5834337000124,535.5834337000124,535.5834337000124,535.5834337000124,535.5834337000124,535.5834337000124,535.5834337000124,535.5834337000124,535.5834337000124,535.5834337000124,535.5834337000124,535.5834337000124,535.5834337000124,535.5834337000124,538.0926523000089,538.0926523000089,538.0926523000089,538.0926523000089,538.0926523000089,47,37,50,77,77,74,6.0,2.9413220999995247,,,[],[],[],[],[],[],[],-0.6,3,,[],[],[],[],[],[],[],None,None,541.0600095000118,542.7801775000116,,,,,,,,,,,,,,,,,,,,,,,,,,,,229,f,25,2023-03-20_10h17.34.687,RL,2022.2.4,60.18407902450306,
0,0.3,0.225,0,31,31,31,,,,,,,,,,None,542.7801775000116,542.7801775000116,542.7801775000116,542.7801775000116,542.7801775000116,542.7801775000116,j,0.34701420000055805,543.1462737000111,543.1462737000111,543.1462737000111,543.1462737000111,543.1462737000111,543.1462737000111,543.4453130000038,543.4453130000038,544.4591144000005,544.4591144000005,544.4591144000005,544.4591144000005,544.4591144000005,544.4591144000005,544.4591144000005,544.4591144000005,544.4591144000005,544.4591144000005,544.4591144000005,544.4591144000005,544.4591144000005,544.4591144000005,544.4591144000005,544.4591144000005,544.4591144000005,546.9681525000051,546.9681525000051,546.9681525000051,546.9681525000051,546.9681525000051,50,48,42,66,66,70,4.0,2.1100043000042206,,,[],[],[],[],[],[],[],0.6,2,,[],[],[],[],[],[],[],None,None,549.1049524000118,550.7751866000035,,,,,,,,,,,,,,,,,,,,,,,,,,,,229,f,25,2023-03-20_10h17.34.687,RL,2022.2.4,60.18407902450306,
1,-0.3,-0.225,0,32,32,32,,,,,,,,,,None,550.7751866000035,550.7751866000035,550.7751866000035,550.7751866000035,550.7751866000035,550.7751866000035,j,0.7368729000008898,551.5399061000062,551.5399061000062,551.5399061000062,551.5399061000062,551.5399061000062,551.5399061000062,551.8390967000014,551.8390967000014,552.9195390000095,552.9195390000095,552.9195390000095,552.9195390000095,552.9195390000095,552.9195390000095,552.9195390000095,552.9195390000095,552.9195390000095,552.9195390000095,552.9195390000095,552.9195390000095,552.9195390000095,552.9195390000095,552.9195390000095,552.9195390000095,552.9195390000095,,,,,,44,51,46,72,72,32,None,None,,,[],[],[],[],[],[],[],-0.2,1,55,[0.013888888888888888],[-0.26666666666666666],[1],[0],[0],[8.158120399995823],['tijiao'],3.935185185185185,4.580329800010077,568.2097894000035,570.0555262000125,,,,,,,,,,563.6120858000068,563.6120858000068,563.6120858000068,563.6120858000068,555.4392820000066,555.4392820000066,555.4392820000066,555.4392820000066,555.4392820000066,555.4392820000066,555.4392820000066,555.4392820000066,0.005987099997582845,,,,,,229,f,25,2023-03-20_10h17.34.687,RL,2022.2.4,60.18407902450306,
0,0.3,0.225,0,33,33,33,,,,,,,,,,None,570.0555262000125,570.0555262000125,570.0555262000125,570.0555262000125,570.0555262000125,570.0555262000125,j,0.49210329999914393,570.5713415000064,570.5713415000064,570.5713415000064,570.5713415000064,570.5713415000064,570.5713415000064,570.8705019000045,570.8705019000045,572.8650858000037,572.8650858000037,572.8650858000037,572.8650858000037,572.8650858000037,572.8650858000037,572.8650858000037,572.8650858000037,572.8650858000037,572.8650858000037,572.8650858000037,572.8650858000037,572.8650858000037,572.8650858000037,572.8650858000037,572.8650858000037,572.8650858000037,,,,,,43,38,44,72,72,75,None,None,,,[],[],[],[],[],[],[],-0.2,1,50,[-0.027777777777777776],[-0.2833333333333333],[1],[0],[0],[5.168493200006196],['tijiao'],2.925925925925926,3.1843077999947127,583.7673551000044,585.7130088000122,,,,,,,,,,580.5645161000139,580.5645161000139,580.5645161000139,580.5645161000139,575.3826541000017,575.3826541000017,575.3826541000017,575.3826541000017,575.3826541000017,575.3826541000017,575.3826541000017,575.3826541000017,0.0061486000049626455,,,,,,229,f,25,2023-03-20_10h17.34.687,RL,2022.2.4,60.18407902450306,
1,-0.3,-0.225,0,34,34,34,,,,,,,,,,None,585.7130088000122,585.7130088000122,585.7130088000122,585.7130088000122,585.7130088000122,585.7130088000122,j,0.3703185000049416,586.1122046000091,586.1122046000091,586.1122046000091,586.1122046000091,586.1122046000091,586.1122046000091,586.4111509000068,586.4111509000068,587.8905035000062,587.8905035000062,587.8905035000062,587.8905035000062,587.8905035000062,587.8905035000062,587.8905035000062,587.8905035000062,587.8905035000062,587.8905035000062,587.8905035000062,587.8905035000062,587.8905035000062,587.8905035000062,587.8905035000062,587.8905035000062,587.8905035000062,590.3997538000112,590.3997538000112,590.3997538000112,590.3997538000112,590.3997538000112,41,34,57,69,69,69,5.0,1.395244499988621,,,[],[],[],[],[],[],[],-0.2,2,,[],[],[],[],[],[],[],None,None,591.8211326000019,593.5750729000138,,,,,,,,,,,,,,,,,,,,,,,,,,,,229,f,25,2023-03-20_10h17.34.687,RL,2022.2.4,60.18407902450306,
0,0.3,0.225,0,35,35,35,,,,,,,,,,None,593.5750729000138,593.5750729000138,593.5750729000138,593.5750729000138,593.5750729000138,593.5750729000138,j,0.3587781000096584,593.9575516000041,593.9575516000041,593.9575516000041,593.9575516000041,593.9575516000041,593.9575516000041,594.2566005000117,594.2566005000117,596.0019917000027,596.0019917000027,596.0019917000027,596.0019917000027,596.0019917000027,596.0019917000027,596.0019917000027,596.0019917000027,596.0019917000027,596.0019917000027,596.0019917000027,596.0019917000027,596.0019917000027,596.0019917000027,596.0019917000027,596.0019917000027,596.0019917000027,598.5109484000131,598.5109484000131,598.5109484000131,598.5109484000131,598.5109484000131,36,54,60,67,67,68,4.0,1.29626279999502,,,[],[],[],[],[],[],[],-0.2,3,,[],[],[],[],[],[],[],None,None,599.8319588000013,601.68592850001,,,,,,,,,,,,,,,,,,,,,,,,,,,,229,f,25,2023-03-20_10h17.34.687,RL,2022.2.4,60.18407902450306,
1,-0.3,-0.225,0,36,36,36,,,,,,,,,,None,601.68592850001,601.68592850001,601.68592850001,601.68592850001,601.68592850001,601.68592850001,j,0.36527560000831727,602.0708714000066,602.0708714000066,602.0708714000066,602.0708714000066,602.0708714000066,602.0708714000066,602.367794100006,602.367794100006,603.4811782000033,603.4811782000033,603.4979847000068,603.4979847000068,603.4979847000068,603.4979847000068,603.4979847000068,603.4979847000068,603.4979847000068,603.4979847000068,603.4979847000068,603.4979847000068,603.4979847000068,603.4979847000068,603.4979847000068,603.4979847000068,603.4979847000068,606.0071950000129,606.0071950000129,606.0071950000129,606.0071950000129,606.0071950000129,36,41,47,61,61,79,3.0,2.1097126999957254,,,[],[],[],[],[],[],[],-0.2,3,,[],[],[],[],[],[],[],None,None,608.1430001000117,609.9800857000082,,,,,,,,,,,,,,,,,,,,,,,,,,,,229,f,25,2023-03-20_10h17.34.687,RL,2022.2.4,60.18407902450306,
0,0.3,0.225,0,37,37,37,,,,,,,,,,None,609.9800857000082,609.9800857000082,609.9800857000082,609.9800857000082,609.9800857000082,609.9800857000082,j,0.591448200008017,610.596159800014,610.596159800014,610.596159800014,610.596159800014,610.596159800014,610.596159800014,610.8945721000055,610.8945721000055,612.4401472000027,612.4401472000027,612.4401472000027,612.4401472000027,612.4401472000027,612.4401472000027,612.4401472000027,612.4401472000027,612.4401472000027,612.4401472000027,612.4401472000027,612.4401472000027,612.4401472000027,612.4401472000027,612.4401472000027,612.4401472000027,612.4401472000027,,,,,,39,51,49,65,65,73,None,None,,,[],[],[],[],[],[],[],0.6,1,70,[-0.012037037037037037],[-0.29907407407407405],[1],[0],[0],[6.047392199994647],['tijiao'],5.0092592592592595,3.999286000005668,625.0380738000094,626.6679719000094,,,,,,,,,,621.0202717000066,621.0202717000066,621.0202717000066,621.0202717000066,614.9596036000003,614.9596036000003,614.9596036000003,614.9596036000003,614.9596036000003,614.9596036000003,614.9596036000003,614.9596036000003,0.0060492999909911305,,,,,,229,f,25,2023-03-20_10h17.34.687,RL,2022.2.4,60.18407902450306,
1,-0.3,-0.225,0,38,38,38,,,,,,,,,,None,626.6679719000094,626.6679719000094,626.6679719000094,626.6679719000094,626.6679719000094,626.6679719000094,j,0.9601573999971151,627.6492822,627.6492822,627.6492822,627.6492822,627.6492822,627.6492822,627.9481153000088,627.9481153000088,629.0281510000059,629.0281510000059,629.0281510000059,629.0281510000059,629.0281510000059,629.0281510000059,629.0281510000059,629.0281510000059,629.0281510000059,629.0281510000059,629.0281510000059,629.0281510000059,629.0281510000059,629.0281510000059,629.0281510000059,629.0281510000059,629.0281510000059,631.5372283000033,631.5372283000033,631.5372283000033,631.5372283000033,631.5372283000033,34,41,46,61,61,60,5.0,2.8418836999917403,,,[],[],[],[],[],[],[],0.6,3,,[],[],[],[],[],[],[],None,None,634.4036693000089,636.0422924000013,,,,,,,,,,,,,,,,,,,,,,,,,,,,229,f,25,2023-03-20_10h17.34.687,RL,2022.2.4,60.18407902450306,
0,0.3,0.225,0,39,39,39,,,,,,,,,,None,636.0422924000013,636.0422924000013,636.0422924000013,636.0422924000013,636.0422924000013,636.0422924000013,j,0.5820702000055462,636.6579644000012,636.6579644000012,636.6579644000012,636.6579644000012,636.6579644000012,636.6579644000012,636.9567577000125,636.9567577000125,637.8377567000134,637.8377567000134,637.8377567000134,637.8377567000134,637.8377567000134,637.8377567000134,637.8377567000134,637.8377567000134,637.8377567000134,637.8377567000134,637.8377567000134,637.8377567000134,637.8377567000134,637.8377567000134,637.8377567000134,637.8377567000134,637.8377567000134,,,,,,29,35,50,60,60,59,None,None,65,65,[0.11388888888888889],[-0.2833333333333333],[1],[0],[0],[6.9052494000061415],['tijiao'],-0.2,0,,[],[],[],[],[],[],[],7.018518518518519,2.760654500001692,650.0530270000017,651.7493176000135,640.3479256000137,640.3479256000137,640.3479256000137,640.3479256000137,640.3479256000137,640.3479256000137,640.3479256000137,640.3479256000137,0.0057625999907031655,647.2738072000066,647.2738072000066,647.2738072000066,647.2738072000066,,,,,,,,,,,,,,,229,f,25,2023-03-20_10h17.34.687,RL,2022.2.4,60.18407902450306,
1,-0.3,-0.225,0,40,40,40,,,,,,,,,,None,651.7493176000135,651.7493176000135,651.7493176000135,651.7493176000135,651.7493176000135,651.7493176000135,j,0.4794312000012724,652.2483319000021,652.2483319000021,652.2483319000021,652.2483319000021,652.2483319000021,652.2483319000021,652.5475965000078,652.5475965000078,653.9436137000012,653.9436137000012,653.9436137000012,653.9436137000012,653.9436137000012,653.9436137000012,653.9436137000012,653.9436137000012,653.9436137000012,653.9436137000012,653.9436137000012,653.9436137000012,653.9436137000012,653.9436137000012,653.9436137000012,653.9436137000012,653.9436137000012,656.4528800000116,656.4528800000116,656.4528800000116,656.4528800000116,656.4528800000116,33,34,50,65,65,65,5.0,2.2597642000037013,,,[],[],[],[],[],[],[],0.6,3,,[],[],[],[],[],[],[],None,None,658.7397500000079,660.5753991000092,,,,,,,,,,,,,,,,,,,,,,,,,,,,229,f,25,2023-03-20_10h17.34.687,RL,2022.2.4,60.18407902450306,
0,0.3,0.225,0,41,41,41,,,,,,,,,,None,660.5753991000092,660.5753991000092,660.5753991000092,660.5753991000092,660.5753991000092,660.5753991000092,j,0.5487767000013264,661.157727200014,661.157727200014,661.157727200014,661.157727200014,661.157727200014,661.157727200014,661.456210400007,661.456210400007,663.1020177000028,663.1020177000028,663.1020177000028,663.1020177000028,663.1020177000028,663.1020177000028,663.1020177000028,663.1020177000028,663.1020177000028,663.1020177000028,663.1020177000028,663.1020177000028,663.1020177000028,663.1020177000028,663.1020177000028,663.1020177000028,663.1020177000028,665.6112376000092,665.6112376000092,665.6112376000092,665.6112376000092,665.6112376000092,38,31,42,58,58,26,5.0,4.337417799994,,,[],[],[],[],[],[],[],0.6,2,,[],[],[],[],[],[],[],None,None,669.9762461000064,671.8778842000029,,,,,,,,,,,,,,,,,,,,,,,,,,,,229,f,25,2023-03-20_10h17.34.687,RL,2022.2.4,60.18407902450306,
1,-0.3,-0.225,0,42,42,42,,,,,,,,,,None,671.8778842000029,671.8778842000029,671.8778842000029,671.8778842000029,671.8778842000029,671.8778842000029,f,0.5839412000059383,672.493071600009,672.493071600009,672.493071600009,672.493071600009,672.493071600009,672.493071600009,672.7922321000078,672.7922321000078,674.6702591000067,674.6702591000067,674.6702591000067,674.6702591000067,674.6702591000067,674.6702591000067,674.6702591000067,674.6702591000067,674.6702591000067,674.6702591000067,674.6702591000067,674.6702591000067,674.6702591000067,674.6702591000067,674.6702591000067,674.6702591000067,674.6702591000067,677.1793603000115,677.1793603000115,677.1793603000115,677.1793603000115,677.1793603000115,39,30,43,53,30,72,3.0,2.2267775000073016,,,[],[],[],[],[],[],[],0.2,3,,[],[],[],[],[],[],[],None,None,679.4336519000062,681.3519274000137,,,,,,,,,,,,,,,,,,,,,,,,,,,,229,f,25,2023-03-20_10h17.34.687,RL,2022.2.4,60.18407902450306,
0,0.3,0.225,0,43,43,43,,,,,,,,,,None,681.3519274000137,681.3519274000137,681.3519274000137,681.3519274000137,681.3519274000137,681.3519274000137,j,1.0605665000039153,682.4326935999998,682.4326935999998,682.4326935999998,682.4326935999998,682.4326935999998,682.4326935999998,682.7314290000068,682.7314290000068,683.712242300011,683.712242300011,683.712242300011,683.712242300011,683.712242300011,683.712242300011,683.712242300011,683.712242300011,683.712242300011,683.712242300011,683.712242300011,683.712242300011,683.712242300011,683.712242300011,683.712242300011,683.712242300011,683.712242300011,686.2215335000074,686.2215335000074,686.2215335000074,686.2215335000074,686.2215335000074,35,30,44,58,58,63,3.0,2.243176499992842,,,[],[],[],[],[],[],[],-0.2,3,,[],[],[],[],[],[],[],None,None,688.4904871000035,690.4438060000102,,,,,,,,,,,,,,,,,,,,,,,,,,,,229,f,25,2023-03-20_10h17.34.687,RL,2022.2.4,60.18407902450306,
1,-0.3,-0.225,0,44,44,44,,,,,,,,,,None,690.4438060000102,690.4438060000102,690.4438060000102,690.4438060000102,690.4438060000102,690.4438060000102,j,0.7895588999963365,691.260463300001,691.260463300001,691.260463300001,691.260463300001,691.260463300001,691.260463300001,691.5578139999998,691.5578139999998,693.2530151000101,693.2530151000101,693.2696725000133,693.2696725000133,693.2696725000133,693.2696725000133,693.2696725000133,693.2696725000133,693.2696725000133,693.2696725000133,693.2696725000133,693.2696725000133,693.2696725000133,693.2696725000133,693.2696725000133,693.2696725000133,693.2696725000133,695.7787554000097,695.7787554000097,695.7787554000097,695.7787554000097,695.7787554000097,43,31,37,44,44,61,3.0,2.45953149998968,,,[],[],[],[],[],[],[],0.6,3,,[],[],[],[],[],[],[],None,None,698.2656110000098,700.1838023000018,,,,,,,,,,,,,,,,,,,,,,,,,,,,229,f,25,2023-03-20_10h17.34.687,RL,2022.2.4,60.18407902450306,
0,0.3,0.225,0,45,45,45,,,,,,,,,,None,700.1838023000018,700.1838023000018,700.1838023000018,700.1838023000018,700.1838023000018,700.1838023000018,r,0.4244131000014022,700.6329461000132,700.6329461000132,700.6329461000132,700.6329461000132,700.6329461000132,700.6329461000132,700.9319144000037,700.9319144000037,702.7933888000116,702.7933888000116,702.7933888000116,702.7933888000116,702.7933888000116,702.7933888000116,702.7933888000116,702.7933888000116,702.7933888000116,702.7933888000116,702.7933888000116,702.7933888000116,702.7933888000116,702.7933888000116,702.7933888000116,702.7933888000116,702.7933888000116,705.3029016000073,705.3029016000073,705.3029016000073,705.3029016000073,705.3029016000073,38,32,40,40,38,55,3.0,3.705833900006837,,,[],[],[],[],[],[],[],0.2,3,,[],[],[],[],[],[],[],None,None,709.037159200001,710.7384178000066,,,,,,,,,,,,,,,,,,,,,,,,,,,,229,f,25,2023-03-20_10h17.34.687,RL,2022.2.4,60.18407902450306,
1,-0.3,-0.225,0,46,46,46,,,,,,,,,,None,710.7384178000066,710.7384178000066,710.7384178000066,710.7384178000066,710.7384178000066,710.7384178000066,i,0.5389846000034595,711.3044681000029,711.3044681000029,711.3044681000029,711.3044681000029,711.3044681000029,711.3044681000029,711.6028880000085,711.6028880000085,713.4312608000037,713.4312608000037,713.4312608000037,713.4312608000037,713.4312608000037,713.4312608000037,713.4312608000037,713.4312608000037,713.4312608000037,713.4312608000037,713.4312608000037,713.4312608000037,713.4312608000037,713.4312608000037,713.4312608000037,713.4312608000037,713.4312608000037,,,,,,45,28,43,41,43,64,None,None,45,45,[0.04722222222222222],[-0.2916666666666667],[1],[0],[0],[5.14340080000693],['tijiao'],0.6,0,,[],[],[],[],[],[],[],7.0,4.270064299998921,725.3972409000125,727.3597095000005,715.9416919000068,715.9416919000068,715.9416919000068,715.9416919000068,715.9416919000068,715.9416919000068,715.9416919000068,715.9416919000068,0.005768299990450032,721.1081055000104,721.1081055000104,721.1081055000104,721.1081055000104,,,,,,,,,,,,,,,229,f,25,2023-03-20_10h17.34.687,RL,2022.2.4,60.18407902450306,
0,0.3,0.225,0,47,47,47,,,,,,,,,,None,727.3597095000005,727.3597095000005,727.3597095000005,727.3597095000005,727.3597095000005,727.3597095000005,j,0.4059333000041079,727.7949246000062,727.7949246000062,727.7949246000062,727.7949246000062,727.7949246000062,727.7949246000062,728.0913632000011,728.0913632000011,729.3709631000092,729.3709631000092,729.3709631000092,729.3709631000092,729.3709631000092,729.3709631000092,729.3709631000092,729.3709631000092,729.3709631000092,729.3709631000092,729.3709631000092,729.3709631000092,729.3709631000092,729.3709631000092,729.3709631000092,729.3709631000092,729.3709631000092,,,,,,26,26,37,40,40,13,None,None,43,43,[0.07407407407407407],[-0.29444444444444445],[1],[0],[0],[7.236268199994811],['tijiao'],0.2,0,,[],[],[],[],[],[],[],3.953703703703704,6.432427699997788,745.5922871000075,747.471160000001,731.8818940000056,731.8818940000056,731.8818940000056,731.8818940000056,731.8818940000056,731.8818940000056,731.8818940000056,731.8818940000056,0.007224200002383441,739.1412421000132,739.1412421000132,739.1412421000132,739.1412421000132,,,,,,,,,,,,,,,229,f,25,2023-03-20_10h17.34.687,RL,2022.2.4,60.18407902450306,
1,-0.3,-0.225,0,48,48,48,,,,,,,,,,None,747.471160000001,747.471160000001,747.471160000001,747.471160000001,747.471160000001,747.471160000001,j,0.4551943999977084,747.9565068000084,747.9565068000084,747.9565068000084,747.9565068000084,747.9565068000084,747.9565068000084,748.2527136999997,748.2527136999997,749.2167497000046,749.2167497000046,749.2167497000046,749.2167497000046,749.2167497000046,749.2167497000046,749.2167497000046,749.2167497000046,749.2167497000046,749.2167497000046,749.2167497000046,749.2167497000046,749.2167497000046,749.2167497000046,749.2167497000046,749.2167497000046,749.2167497000046,751.7260662000044,751.7260662000044,751.7260662000044,751.7260662000044,751.7260662000044,35,24,31,41,41,62,4.0,4.103713800010155,,,[],[],[],[],[],[],[],-0.2,2,,[],[],[],[],[],[],[],None,None,755.8582623000111,757.3776314000133,,,,,,,,,,,,,,,,,,,,,,,,,,,,229,f,25,2023-03-20_10h17.34.687,RL,2022.2.4,60.18407902450306,
0,0.3,0.225,0,49,49,49,,,,,,,,,,None,757.3776314000133,757.3776314000133,757.3776314000133,757.3776314000133,757.3776314000133,757.3776314000133,j,0.43266120000043884,757.8435371000087,757.8435371000087,757.8435371000087,757.8435371000087,757.8435371000087,757.8435371000087,758.1426204000018,758.1426204000018,759.5553557000094,759.5553557000094,759.5553557000094,759.5553557000094,759.5553557000094,759.5553557000094,759.5553557000094,759.5553557000094,759.5553557000094,759.5553557000094,759.5553557000094,759.5553557000094,759.5553557000094,759.5553557000094,759.5553557000094,759.5553557000094,759.5553557000094,,,,,,33,24,34,39,39,27,None,None,,,[],[],[],[],[],[],[],0.6,1,40,[0.08796296296296297],[-0.30185185185185187],[1],[0],[0],[4.603131399999256],['tijiao'],4.953703703703704,5.561625699992874,772.2693049000081,774.0323324000055,,,,,,,,,,766.6891439000028,766.6891439000028,766.6891439000028,766.6891439000028,762.0730840000033,762.0730840000033,762.0730840000033,762.0730840000033,762.0730840000033,762.0730840000033,762.0730840000033,762.0730840000033,0.005821800004923716,,,,,,229,f,25,2023-03-20_10h17.34.687,RL,2022.2.4,60.18407902450306,
1,-0.3,-0.225,0,50,50,50,,,,,,,,,,None,774.0323324000055,774.0323324000055,774.0323324000055,774.0323324000055,774.0323324000055,774.0323324000055,r,0.6307010999880731,774.6812008000124,774.6812008000124,774.6812008000124,774.6812008000124,774.6812008000124,774.6812008000124,774.9796649000054,774.9796649000054,776.3092641000112,776.3092641000112,776.3092641000112,776.3092641000112,776.3092641000112,776.3092641000112,776.3092641000112,776.3092641000112,776.3092641000112,776.3092641000112,776.3092641000112,776.3092641000112,776.3092641000112,776.3092641000112,776.3092641000112,776.3092641000112,776.3092641000112,778.8185397000052,778.8185397000052,778.8185397000052,778.8185397000052,778.8185397000052,28,34,26,33,28,56,3.0,2.392647400003625,,,[],[],[],[],[],[],[],-0.6,3,,[],[],[],[],[],[],[],None,None,781.2360494000022,782.7583496000007,,,,,,,,,,,,,,,,,,,,,,,,,,,,229,f,25,2023-03-20_10h17.34.687,RL,2022.2.4,60.18407902450306,
0,0.3,0.225,0,51,51,51,,,,,,,,,,None,782.7583496000007,782.7583496000007,782.7583496000007,782.7583496000007,782.7583496000007,782.7583496000007,i,0.730597800007672,783.507929200001,783.507929200001,783.507929200001,783.507929200001,783.507929200001,783.507929200001,783.8057792000036,783.8057792000036,785.650847500001,785.650847500001,785.650847500001,785.650847500001,785.650847500001,785.650847500001,785.650847500001,785.650847500001,785.650847500001,785.650847500001,785.650847500001,785.650847500001,785.650847500001,785.650847500001,785.650847500001,785.650847500001,785.650847500001,,,,,,33,25,29,42,29,24,None,None,,,[],[],[],[],[],[],[],-0.6,1,25,[0.053703703703703705],[-0.2851851851851852],[1],[0],[0],[5.401002899990999],['tijiao'],7.0092592592592595,4.381883199996082,797.9825747000141,799.6623829000018,,,,,,,,,,793.5819604000135,793.5819604000135,793.5819604000135,793.5819604000135,788.168273400006,788.168273400006,788.168273400006,788.168273400006,788.168273400006,788.168273400006,788.168273400006,788.168273400006,0.0061150999972596765,,,,,,229,f,25,2023-03-20_10h17.34.687,RL,2022.2.4,60.18407902450306,
1,-0.3,-0.225,0,52,52,52,,,,,,,,,,None,799.6623829000018,799.6623829000018,799.6623829000018,799.6623829000018,799.6623829000018,799.6623829000018,j,0.3947439000039594,800.078110900009,800.078110900009,800.078110900009,800.078110900009,800.078110900009,800.078110900009,800.3773536000081,800.3773536000081,802.1558258000005,802.1558258000005,802.1558258000005,802.1558258000005,802.1558258000005,802.1558258000005,802.1558258000005,802.1558258000005,802.1558258000005,802.1558258000005,802.1558258000005,802.1558258000005,802.1558258000005,802.1558258000005,802.1558258000005,802.1558258000005,802.1558258000005,804.6649624000129,804.6649624000129,804.6649624000129,804.6649624000129,804.6649624000129,30,22,28,41,41,39,5.0,2.409104699996533,,,[],[],[],[],[],[],[],0.6,3,,[],[],[],[],[],[],[],None,None,807.1014006000041,808.9534989000094,,,,,,,,,,,,,,,,,,,,,,,,,,,,229,f,25,2023-03-20_10h17.34.687,RL,2022.2.4,60.18407902450306,
0,0.3,0.225,0,53,53,53,,,,,,,,,,None,808.9534989000094,808.9534989000094,808.9534989000094,808.9534989000094,808.9534989000094,808.9534989000094,j,0.798416300007375,809.7869981000113,809.7869981000113,809.7869981000113,809.7869981000113,809.7869981000113,809.7869981000113,810.0839296000049,810.0839296000049,811.9125924000109,811.9125924000109,811.9125924000109,811.9125924000109,811.9125924000109,811.9125924000109,811.9125924000109,811.9125924000109,811.9125924000109,811.9125924000109,811.9125924000109,811.9125924000109,811.9125924000109,811.9125924000109,811.9125924000109,811.9125924000109,811.9125924000109,,,,,,30,18,32,40,40,60,None,None,,,[],[],[],[],[],[],[],-0.6,1,35,[0.12037037037037036],[-0.2657407407407407],[1],[0],[0],[6.016335299995262],['tijiao'],3.8888888888888884,2.935354400004144,823.4129755000031,825.3754437000025,,,,,,,,,,820.4590171000018,820.4590171000018,820.4590171000018,820.4590171000018,814.4301253000012,814.4301253000012,814.4301253000012,814.4301253000012,814.4301253000012,814.4301253000012,814.4301253000012,814.4301253000012,0.00589610000315588,,,,,,229,f,25,2023-03-20_10h17.34.687,RL,2022.2.4,60.18407902450306,
1,-0.3,-0.225,0,54,54,54,,,,,,,,,,None,825.3754437000025,825.3754437000025,825.3754437000025,825.3754437000025,825.3754437000025,825.3754437000025,i,0.4160139000014169,825.8255174000078,825.8255174000078,825.8255174000078,825.8255174000078,825.8255174000078,825.8255174000078,826.1236147000018,826.1236147000018,828.0684084000095,828.0684084000095,828.0684084000095,828.0684084000095,828.0684084000095,828.0684084000095,828.0684084000095,828.0684084000095,828.0684084000095,828.0684084000095,828.0684084000095,828.0684084000095,828.0684084000095,828.0684084000095,828.0684084000095,828.0684084000095,828.0684084000095,,,,,,28,17,25,52,25,49,None,None,25,25,[-0.04351851851851852],[-0.2898148148148148],[1],[0],[0],[5.6900968000118155],['tijiao'],0.6,0,,[],[],[],[],[],[],[],7.972222222222221,3.3418670000100974,839.6523920000036,841.5978476000018,830.5799621000042,830.5799621000042,830.5799621000042,830.5799621000042,830.5799621000042,830.5799621000042,830.5799621000042,830.5799621000042,0.007473599995137192,836.2920529000112,836.2920529000112,836.2920529000112,836.2920529000112,,,,,,,,,,,,,,,229,f,25,2023-03-20_10h17.34.687,RL,2022.2.4,60.18407902450306,
0,0.3,0.225,0,55,55,55,,,,,,,,,,None,841.5978476000018,841.5978476000018,841.5978476000018,841.5978476000018,841.5978476000018,841.5978476000018,f,0.42144310000003316,842.0464215000102,842.0464215000102,842.0464215000102,842.0464215000102,842.0464215000102,842.0464215000102,842.3459751000046,842.3459751000046,844.0579156000022,844.0579156000022,844.0579156000022,844.0579156000022,844.0579156000022,844.0579156000022,844.0579156000022,844.0579156000022,844.0579156000022,844.0579156000022,844.0579156000022,844.0579156000022,844.0579156000022,844.0579156000022,844.0579156000022,844.0579156000022,844.0579156000022,846.5669064000103,846.5669064000103,846.5669064000103,846.5669064000103,846.5669064000103,29,16,41,41,16,46,2.0,4.520109100005357,,,[],[],[],[],[],[],[],-0.2,2,,[],[],[],[],[],[],[],None,None,851.1134231000033,852.9500310000003,,,,,,,,,,,,,,,,,,,,,,,,,,,,229,f,25,2023-03-20_10h17.34.687,RL,2022.2.4,60.18407902450306,
1,-0.3,-0.225,0,56,56,56,,,,,,,,,,None,852.9500310000003,852.9500310000003,852.9500310000003,852.9500310000003,852.9500310000003,852.9500310000003,j,0.33261379999748897,853.3179545000021,853.3179545000021,853.3179545000021,853.3179545000021,853.3179545000021,853.3179545000021,853.6150460000063,853.6150460000063,854.8618686000118,854.8618686000118,854.8618686000118,854.8618686000118,854.8618686000118,854.8618686000118,854.8618686000118,854.8618686000118,854.8618686000118,854.8618686000118,854.8618686000118,854.8618686000118,854.8618686000118,854.8618686000118,854.8618686000118,854.8618686000118,854.8618686000118,857.3710196000029,857.3710196000029,857.3710196000029,857.3710196000029,857.3710196000029,24,24,31,37,37,46,3.0,2.392855199999758,,,[],[],[],[],[],[],[],0.6,3,,[],[],[],[],[],[],[],None,None,859.7884013000003,861.3272208000126,,,,,,,,,,,,,,,,,,,,,,,,,,,,229,f,25,2023-03-20_10h17.34.687,RL,2022.2.4,60.18407902450306,
0,0.3,0.225,0,57,57,57,,,,,,,,,,None,861.3272208000126,861.3272208000126,861.3272208000126,861.3272208000126,861.3272208000126,861.3272208000126,j,0.4873480000096606,861.8432861000038,861.8432861000038,861.8432861000038,861.8432861000038,861.8432861000038,861.8432861000038,862.1416656000074,862.1416656000074,863.7209830000065,863.7209830000065,863.7209830000065,863.7209830000065,863.7209830000065,863.7209830000065,863.7209830000065,863.7209830000065,863.7209830000065,863.7209830000065,863.7209830000065,863.7209830000065,863.7209830000065,863.7209830000065,863.7209830000065,863.7209830000065,863.7209830000065,866.229949200002,866.229949200002,866.229949200002,866.229949200002,866.229949200002,23,34,30,41,41,48,6.0,3.506770600011805,,,[],[],[],[],[],[],[],0.6,2,,[],[],[],[],[],[],[],None,None,869.7622268000123,871.6821669000055,,,,,,,,,,,,,,,,,,,,,,,,,,,,229,f,25,2023-03-20_10h17.34.687,RL,2022.2.4,60.18407902450306,
1,-0.3,-0.225,0,58,58,58,,,,,,,,,,None,871.6821669000055,871.6821669000055,871.6821669000055,871.6821669000055,871.6821669000055,871.6821669000055,j,0.2910033000080148,871.9985444000049,871.9985444000049,871.9985444000049,871.9985444000049,871.9985444000049,871.9985444000049,872.2975010000082,872.2975010000082,874.0094076000096,874.0094076000096,874.0094076000096,874.0094076000096,874.0094076000096,874.0094076000096,874.0094076000096,874.0094076000096,874.0094076000096,874.0094076000096,874.0094076000096,874.0094076000096,874.0094076000096,874.0094076000096,874.0094076000096,874.0094076000096,874.0094076000096,876.5186501000135,876.5186501000135,876.5186501000135,876.5186501000135,876.5186501000135,21,23,39,37,37,60,4.0,3.789031899999827,,,[],[],[],[],[],[],[],-0.2,2,,[],[],[],[],[],[],[],None,None,880.3352223000111,881.98758120001,,,,,,,,,,,,,,,,,,,,,,,,,,,,229,f,25,2023-03-20_10h17.34.687,RL,2022.2.4,60.18407902450306,
0,0.3,0.225,0,59,59,59,,,,,,,,,,None,881.98758120001,881.98758120001,881.98758120001,881.98758120001,881.98758120001,881.98758120001,j,0.3945433999906527,882.403609800007,882.403609800007,882.403609800007,882.403609800007,882.403609800007,882.403609800007,882.7025419000129,882.7025419000129,883.9989754000126,883.9989754000126,883.9989754000126,883.9989754000126,883.9989754000126,883.9989754000126,883.9989754000126,883.9989754000126,883.9989754000126,883.9989754000126,883.9989754000126,883.9989754000126,883.9989754000126,883.9989754000126,883.9989754000126,883.9989754000126,883.9989754000126,,,,,,21,22,44,34,34,65,None,None,40,40,[0.1388888888888889],[-0.28055555555555556],[1],[0],[0],[5.573521500002244],['tijiao'],-0.6,0,,[],[],[],[],[],[],[],4.046296296296296,2.8581641999917338,894.9843784000113,896.8467228000081,886.5108304000023,886.5108304000023,886.5108304000023,886.5108304000023,886.5108304000023,886.5108304000023,886.5108304000023,886.5108304000023,0.007907599996542558,892.1076366000052,892.1076366000052,892.1076366000052,892.1076366000052,,,,,,,,,,,,,,,229,f,25,2023-03-20_10h17.34.687,RL,2022.2.4,60.18407902450306,
1,-0.3,-0.225,0,60,60,60,,,,,,,,,,None,896.8467228000081,896.8467228000081,896.8467228000081,896.8467228000081,896.8467228000081,896.8467228000081,j,0.4595827000011923,897.3303719000105,897.3303719000105,897.3303719000105,897.3303719000105,897.3303719000105,897.3303719000105,897.6285249000066,897.6285249000066,899.523233800006,899.523233800006,899.523233800006,899.523233800006,899.523233800006,899.523233800006,899.523233800006,899.523233800006,899.523233800006,899.523233800006,899.523233800006,899.523233800006,899.523233800006,899.523233800006,899.523233800006,899.523233800006,899.523233800006,,,,,,23,22,36,49,49,60,None,None,,,[],[],[],[],[],[],[],0.2,1,55,[-0.010185185185185186],[-0.3425925925925926],[1],[0],[0],[10.055143999998108],['tijiao'],5.962962962962963,2.869163800001843,914.9962777000037,916.709449300004,,,,,,,,,,912.1090155000129,912.1090155000129,912.1090155000129,912.1090155000129,902.0410771000024,902.0410771000024,902.0410771000024,902.0410771000024,902.0410771000024,902.0410771000024,902.0410771000024,902.0410771000024,0.005957300003501587,,,,,,229,f,25,2023-03-20_10h17.34.687,RL,2022.2.4,60.18407902450306,
0,0.3,0.225,0,61,61,61,,,,,,,,,,None,916.709449300004,916.709449300004,916.709449300004,916.709449300004,916.709449300004,916.709449300004,j,0.395619999995688,917.1253269000008,917.1253269000008,917.1253269000008,917.1253269000008,917.1253269000008,917.1253269000008,917.4245016000059,917.4245016000059,919.4188867000048,919.4188867000048,919.4188867000048,919.4188867000048,919.4188867000048,919.4188867000048,919.4188867000048,919.4188867000048,919.4188867000048,919.4188867000048,919.4188867000048,919.4188867000048,919.4188867000048,919.4188867000048,919.4188867000048,919.4188867000048,919.4188867000048,921.9278244000016,921.9278244000016,921.9278244000016,921.9278244000016,921.9278244000016,23,22,38,36,36,64,3.0,4.5534197999950266,,,[],[],[],[],[],[],[],0.6,2,,[],[],[],[],[],[],[],None,None,926.5092884000042,928.1777438999998,,,,,,,,,,,,,,,,,,,,,,,,,,,,229,f,25,2023-03-20_10h17.34.687,RL,2022.2.4,60.18407902450306,
1,-0.3,-0.225,0,62,62,62,,,,,,,,,,None,928.1777438999998,928.1777438999998,928.1777438999998,928.1777438999998,928.1777438999998,928.1777438999998,j,0.5510092999902554,928.7604485000047,928.7604485000047,928.7604485000047,928.7604485000047,928.7604485000047,928.7604485000047,929.0590618000133,929.0590618000133,930.039729600001,930.039729600001,930.039729600001,930.039729600001,930.039729600001,930.039729600001,930.039729600001,930.039729600001,930.039729600001,930.039729600001,930.039729600001,930.039729600001,930.039729600001,930.039729600001,930.039729600001,930.039729600001,930.039729600001,932.5490675000037,932.5490675000037,932.5490675000037,932.5490675000037,932.5490675000037,28,25,43,48,48,60,4.0,2.575488199989195,,,[],[],[],[],[],[],[],-0.6,2,,[],[],[],[],[],[],[],None,None,935.1509687000071,936.7047959000047,,,,,,,,,,,,,,,,,,,,,,,,,,,,229,f,25,2023-03-20_10h17.34.687,RL,2022.2.4,60.18407902450306,
0,0.3,0.225,0,63,63,63,,,,,,,,,,None,936.7047959000047,936.7047959000047,936.7047959000047,936.7047959000047,936.7047959000047,936.7047959000047,j,0.6690655999991577,937.4035007000057,937.4035007000057,937.4035007000057,937.4035007000057,937.4035007000057,937.4035007000057,937.7024545000022,937.7024545000022,939.3643393000093,939.3643393000093,939.3643393000093,939.3643393000093,939.3643393000093,939.3643393000093,939.3643393000093,939.3643393000093,939.3643393000093,939.3643393000093,939.3643393000093,939.3643393000093,939.3643393000093,939.3643393000093,939.3643393000093,939.3643393000093,939.3643393000093,941.8735158000054,941.8735158000054,941.8735158000054,941.8735158000054,941.8735158000054,40,21,48,45,45,23,6.0,2.2267197000037413,,,[],[],[],[],[],[],[],-0.6,3,,[],[],[],[],[],[],[],None,None,944.1263143000106,946.0459724000102,,,,,,,,,,,,,,,,,,,,,,,,,,,,229,f,25,2023-03-20_10h17.34.687,RL,2022.2.4,60.18407902450306,
1,-0.3,-0.225,0,64,64,64,,,,,,,,,,None,946.0459724000102,946.0459724000102,946.0459724000102,946.0459724000102,946.0459724000102,946.0459724000102,j,0.41339139999763574,946.478385600014,946.478385600014,946.478385600014,946.478385600014,946.478385600014,946.478385600014,946.7771758000017,946.7771758000017,948.6889957000094,948.6889957000094,948.6889957000094,948.6889957000094,948.6889957000094,948.6889957000094,948.6889957000094,948.6889957000094,948.6889957000094,948.6889957000094,948.6889957000094,948.6889957000094,948.6889957000094,948.6889957000094,948.6889957000094,948.6889957000094,948.6889957000094,951.1980066000106,951.1980066000106,951.1980066000106,951.1980066000106,951.1980066000106,36,17,43,37,37,50,5.0,4.786399300006451,,,[],[],[],[],[],[],[],0.2,3,,[],[],[],[],[],[],[],None,None,956.0099147000001,957.8467219000013,,,,,,,,,,,,,,,,,,,,,,,,,,,,229,f,25,2023-03-20_10h17.34.687,RL,2022.2.4,60.18407902450306,
0,0.3,0.225,0,65,65,65,,,,,,,,,,None,957.8467219000013,957.8467219000013,957.8467219000013,957.8467219000013,957.8467219000013,957.8467219000013,j,0.5212790000077803,958.3958942000027,958.3958942000027,958.3958942000027,958.3958942000027,958.3958942000027,958.3958942000027,958.6951620000036,958.6951620000036,959.7754450000066,959.7754450000066,959.7754450000066,959.7754450000066,959.7754450000066,959.7754450000066,959.7754450000066,959.7754450000066,959.7754450000066,959.7754450000066,959.7754450000066,959.7754450000066,959.7754450000066,959.7754450000066,959.7754450000066,959.7754450000066,959.7754450000066,,,,,,32,23,42,43,43,59,None,None,60,60,[0.05185185185185185],[-0.2675925925925926],[1],[0],[0],[6.457384699999238],['tijiao'],-0.2,0,,[],[],[],[],[],[],[],1.9166666666666667,6.731620599995949,975.514649100005,977.3440289000137,962.2859103000083,962.2859103000083,962.2859103000083,962.2859103000083,962.2859103000083,962.2859103000083,962.2859103000083,962.2859103000083,0.005621500007691793,968.7641432000091,968.7641432000091,968.7641432000091,968.7641432000091,,,,,,,,,,,,,,,229,f,25,2023-03-20_10h17.34.687,RL,2022.2.4,60.18407902450306,
1,-0.3,-0.225,0,66,66,66,,,,,,,,,,None,977.3440289000137,977.3440289000137,977.3440289000137,977.3440289000137,977.3440289000137,977.3440289000137,j,0.482385900002555,977.8595720000012,977.8595720000012,977.8595720000012,977.8595720000012,977.8595720000012,977.8595720000012,978.1583012000046,978.1583012000046,979.354891400013,979.354891400013,979.354891400013,979.354891400013,979.354891400013,979.354891400013,979.354891400013,979.354891400013,979.354891400013,979.354891400013,979.354891400013,979.354891400013,979.354891400013,979.354891400013,979.354891400013,979.354891400013,979.354891400013,981.8644043000095,981.8644043000095,981.8644043000095,981.8644043000095,981.8644043000095,36,37,38,47,47,44,4.0,2.8078224000055343,,,[],[],[],[],[],[],[],-0.2,2,,[],[],[],[],[],[],[],None,None,984.7006733000017,986.3525497000082,,,,,,,,,,,,,,,,,,,,,,,,,,,,229,f,25,2023-03-20_10h17.34.687,RL,2022.2.4,60.18407902450306,
0,0.3,0.225,0,67,67,67,,,,,,,,,,None,986.3525497000082,986.3525497000082,986.3525497000082,986.3525497000082,986.3525497000082,986.3525497000082,j,0.4547180999943521,986.8366224000056,986.8366224000056,986.8366224000056,986.8366224000056,986.8366224000056,986.8366224000056,987.1341293000005,987.1341293000005,988.0150428000052,988.0150428000052,988.0150428000052,988.0150428000052,988.0150428000052,988.0150428000052,988.0150428000052,988.0150428000052,988.0150428000052,988.0150428000052,988.0150428000052,988.0150428000052,988.0150428000052,988.0150428000052,988.0150428000052,988.0150428000052,988.0150428000052,,,,,,35,22,41,41,41,48,None,None,,,[],[],[],[],[],[],[],0.2,1,35,[-0.019444444444444445],[-0.29074074074074074],[1],[0],[0],[4.903077399998438],['tijiao'],5.101851851851852,4.9798689000017475,1000.4464405000035,1002.2423134000128,,,,,,,,,,995.44765680001,995.44765680001,995.44765680001,995.44765680001,990.5322577000043,990.5322577000043,990.5322577000043,990.5322577000043,990.5322577000043,990.5322577000043,990.5322577000043,990.5322577000043,0.006022300003678538,,,,,,229,f,25,2023-03-20_10h17.34.687,RL,2022.2.4,60.18407902450306,
1,-0.3,-0.225,0,68,68,68,,,,,,,,,,None,1002.2423134000128,1002.2423134000128,1002.2423134000128,1002.2423134000128,1002.2423134000128,1002.2423134000128,i,0.6980743000021903,1002.9593126000109,1002.9593126000109,1002.9593126000109,1002.9593126000109,1002.9593126000109,1002.9593126000109,1003.2568192000035,1003.2568192000035,1004.2043012000067,1004.2043012000067,1004.2043012000067,1004.2043012000067,1004.2043012000067,1004.2043012000067,1004.2043012000067,1004.2043012000067,1004.2043012000067,1004.2043012000067,1004.2043012000067,1004.2043012000067,1004.2043012000067,1004.2043012000067,1004.2043012000067,1004.2043012000067,1004.2043012000067,1006.7128936000081,1006.7128936000081,1006.7128936000081,1006.7128936000081,1006.7128936000081,35,21,41,36,41,64,4.0,3.123769399986486,,,[],[],[],[],[],[],[],-0.6,3,,[],[],[],[],[],[],[],None,None,1009.8623412000015,1011.7832934000035,,,,,,,,,,,,,,,,,,,,,,,,,,,,229,f,25,2023-03-20_10h17.34.687,RL,2022.2.4,60.18407902450306,
0,0.3,0.225,0,69,69,69,,,,,,,,,,None,1011.7832934000035,1011.7832934000035,1011.7832934000035,1011.7832934000035,1011.7832934000035,1011.7832934000035,f,1.476497499999823,1013.2805760000047,1013.2805760000047,1013.2805760000047,1013.2805760000047,1013.2805760000047,1013.2805760000047,1013.5785885000078,1013.5785885000078,1015.4067559000105,1015.4067559000105,1015.4067559000105,1015.4067559000105,1015.4067559000105,1015.4067559000105,1015.4067559000105,1015.4067559000105,1015.4067559000105,1015.4067559000105,1015.4067559000105,1015.4067559000105,1015.4067559000105,1015.4067559000105,1015.4067559000105,1015.4067559000105,1015.4067559000105,,,,,,37,24,47,31,24,46,None,None,,,[],[],[],[],[],[],[],0.2,1,30,[-0.009259259259259259],[-0.3138888888888889],[1],[0],[0],[7.096514899996691],['tijiao'],6.009259259259259,2.470112099996186,1027.5225850000134,1029.1191622000042,,,,,,,,,,1025.0335129000014,1025.0335129000014,1025.0335129000014,1025.0335129000014,1017.9241387000075,1017.9241387000075,1017.9241387000075,1017.9241387000075,1017.9241387000075,1017.9241387000075,1017.9241387000075,1017.9241387000075,0.0059779000002890825,,,,,,229,f,25,2023-03-20_10h17.34.687,RL,2022.2.4,60.18407902450306,
1,-0.3,-0.225,0,70,70,70,,,,,,,,,,None,1029.1191622000042,1029.1191622000042,1029.1191622000042,1029.1191622000042,1029.1191622000042,1029.1191622000042,r,0.48503289998916443,1029.6359154000093,1029.6359154000093,1029.6359154000093,1029.6359154000093,1029.6359154000093,1029.6359154000093,1029.9339265000017,1029.9339265000017,1031.3465443000023,1031.3465443000023,1031.3465443000023,1031.3465443000023,1031.3465443000023,1031.3465443000023,1031.3465443000023,1031.3465443000023,1031.3465443000023,1031.3465443000023,1031.3465443000023,1031.3465443000023,1031.3465443000023,1031.3465443000023,1031.3465443000023,1031.3465443000023,1031.3465443000023,,,,,,37,23,49,27,37,65,None,None,40,40,[-0.021296296296296296],[-0.30833333333333335],[1],[0],[0],[4.095856200001435],['tijiao'],-0.2,0,,[],[],[],[],[],[],[],7.0,2.9620068999938667,1040.9524145000032,1042.7151021000027,1033.8569515000127,1033.8569515000127,1033.8569515000127,1033.8569515000127,1033.8569515000127,1033.8569515000127,1033.8569515000127,1033.8569515000127,0.005884600002900697,1037.9731658000092,1037.9731658000092,1037.9731658000092,1037.9731658000092,,,,,,,,,,,,,,,229,f,25,2023-03-20_10h17.34.687,RL,2022.2.4,60.18407902450306,
0,0.3,0.225,0,71,71,71,,,,,,,,,,None,1042.7151021000027,1042.7151021000027,1042.7151021000027,1042.7151021000027,1042.7151021000027,1042.7151021000027,j,0.4330026999959955,1043.1829541000043,1043.1829541000043,1043.1829541000043,1043.1829541000043,1043.1829541000043,1043.1829541000043,1043.4803481000126,1043.4803481000126,1044.4444588000042,1044.4444588000042,1044.4444588000042,1044.4444588000042,1044.4444588000042,1044.4444588000042,1044.4444588000042,1044.4444588000042,1044.4444588000042,1044.4444588000042,1044.4444588000042,1044.4444588000042,1044.4444588000042,1044.4444588000042,1044.4444588000042,1044.4444588000042,1044.4444588000042,,,,,,22,14,48,32,32,62,None,None,,,[],[],[],[],[],[],[],-0.2,1,25,[0.014814814814814815],[-0.26851851851851855],[1],[0],[0],[5.850634100002935],['tijiao'],7.148148148148148,2.1207407000038074,1054.9643885000114,1056.7603709000105,,,,,,,,,,1052.8246420000069,1052.8246420000069,1052.8246420000069,1052.8246420000069,1046.960879300008,1046.960879300008,1046.960879300008,1046.960879300008,1046.960879300008,1046.960879300008,1046.960879300008,1046.960879300008,0.005828499997733161,,,,,,229,f,25,2023-03-20_10h17.34.687,RL,2022.2.4,60.18407902450306,
1,-0.3,-0.225,0,72,72,72,,,,,,,,,,None,1056.7603709000105,1056.7603709000105,1056.7603709000105,1056.7603709000105,1056.7603709000105,1056.7603709000105,j,0.5726009000063641,1057.360893200006,1057.360893200006,1057.360893200006,1057.360893200006,1057.360893200006,1057.360893200006,1057.6582065000111,1057.6582065000111,1059.6192922000046,1059.6192922000046,1059.6192922000046,1059.6192922000046,1059.6192922000046,1059.6192922000046,1059.6192922000046,1059.6192922000046,1059.6192922000046,1059.6192922000046,1059.6192922000046,1059.6192922000046,1059.6192922000046,1059.6192922000046,1059.6192922000046,1059.6192922000046,1059.6192922000046,,,,,,27,23,41,21,21,67,None,None,30,30,[-0.013888888888888888],[-0.26851851851851855],[1],[0],[0],[5.592700200009858],['tijiao'],0.2,0,,[],[],[],[],[],[],[],2.935185185185185,4.090499599988107,1071.851352200014,1073.6309395999997,1062.1294444000087,1062.1294444000087,1062.1294444000087,1062.1294444000087,1062.1294444000087,1062.1294444000087,1062.1294444000087,1062.1294444000087,0.005919599992921576,1067.7423888000048,1067.7423888000048,1067.7423888000048,1067.7423888000048,,,,,,,,,,,,,,,229,f,25,2023-03-20_10h17.34.687,RL,2022.2.4,60.18407902450306,
0,0.3,0.225,0,73,73,73,,,,,,,,,,None,1073.6309395999997,1073.6309395999997,1073.6309395999997,1073.6309395999997,1073.6309395999997,1073.6309395999997,j,0.4599807999911718,1074.1144220000133,1074.1144220000133,1074.1144220000133,1074.1144220000133,1074.1144220000133,1074.1144220000133,1074.4124303000135,1074.4124303000135,1075.4096828000038,1075.4096828000038,1075.4096828000038,1075.4096828000038,1075.4096828000038,1075.4096828000038,1075.4096828000038,1075.4096828000038,1075.4096828000038,1075.4096828000038,1075.4096828000038,1075.4096828000038,1075.4096828000038,1075.4096828000038,1075.4096828000038,1075.4096828000038,1075.4096828000038,,,,,,19,20,49,39,39,54,None,None,40,40,[-0.08981481481481482],[-0.2851851851851852],[1],[0],[0],[7.0724984999978915],['tijiao'],-0.2,0,,[],[],[],[],[],[],[],2.0185185185185186,4.306810099995346,1089.3371798000007,1091.2495231000066,1077.9195876000013,1077.9195876000013,1077.9195876000013,1077.9195876000013,1077.9195876000013,1077.9195876000013,1077.9195876000013,1077.9195876000013,0.005453700010548346,1085.0115084999998,1085.0115084999998,1085.0115084999998,1085.0115084999998,,,,,,,,,,,,,,,229,f,25,2023-03-20_10h17.34.687,RL,2022.2.4,60.18407902450306,
1,-0.3,-0.225,0,74,74,74,,,,,,,,,,None,1091.2495231000066,1091.2495231000066,1091.2495231000066,1091.2495231000066,1091.2495231000066,1091.2495231000066,j,0.42322799999965355,1091.6993678,1091.6993678,1091.6993678,1091.6993678,1091.6993678,1091.6993678,1091.9975902000006,1091.9975902000006,1093.1277947000053,1093.1277947000053,1093.1277947000053,1093.1277947000053,1093.1277947000053,1093.1277947000053,1093.1277947000053,1093.1277947000053,1093.1277947000053,1093.1277947000053,1093.1277947000053,1093.1277947000053,1093.1277947000053,1093.1277947000053,1093.1277947000053,1093.1277947000053,1093.1277947000053,,,,,,27,22,42,33,33,64,None,None,,,[],[],[],[],[],[],[],-0.6,1,33,[-0.10277777777777777],[-0.2777777777777778],[1],[0],[0],[7.194850599989877],['tijiao'],7.046296296296296,3.1837922999984585,1106.0581548000046,1108.0535076000087,,,,,,,,,,1102.856510100013,1102.856510100013,1102.856510100013,1102.856510100013,1095.6468984000094,1095.6468984000094,1095.6468984000094,1095.6468984000094,1095.6468984000094,1095.6468984000094,1095.6468984000094,1095.6468984000094,0.006152799993287772,,,,,,229,f,25,2023-03-20_10h17.34.687,RL,2022.2.4,60.18407902450306,
0,0.3,0.225,0,75,75,75,,,,,,,,,,q,1142.3777225000085,1142.3777225000085,1142.3777225000085,1142.3777225000085,1142.3777225000085,1142.3777225000085,j,0.7310341999982484,1143.1425959000044,1143.1425959000044,1143.1425959000044,1143.1425959000044,1143.1425959000044,1143.1425959000044,1143.4406904000061,1143.4406904000061,1145.0362741999998,1145.0362741999998,1145.0362741999998,1145.0362741999998,1145.0362741999998,1145.0362741999998,1145.0362741999998,1145.0362741999998,1145.0362741999998,1145.0362741999998,1145.0362741999998,1145.0362741999998,1145.0362741999998,1145.0362741999998,1145.0362741999998,1145.0362741999998,1145.0362741999998,1147.5454991000006,1147.5454991000006,1147.5454991000006,1147.5454991000006,1147.5454991000006,16,19,49,28,28,71,4.0,5.251414099999238,,,[],[],[],[],[],[],[],-0.6,3,,[],[],[],[],[],[],[],None,None,1152.824907400005,1154.3938520000083,,,,,,,,,,,,,,,,,,,,,,,,,1108.0535076000087,1108.0535076000087,34.29104579999694,229,f,25,2023-03-20_10h17.34.687,RL,2022.2.4,60.18407902450306,
1,-0.3,-0.225,0,76,76,76,,,,,,,,,,None,1154.3938520000083,1154.3938520000083,1154.3938520000083,1154.3938520000083,1154.3938520000083,1154.3938520000083,r,0.44242650001251604,1154.8615787000017,1154.8615787000017,1154.8615787000017,1154.8615787000017,1154.8615787000017,1154.8615787000017,1155.1587637000048,1155.1587637000048,1156.521444900005,1156.521444900005,1156.5382356000046,1156.5382356000046,1156.5382356000046,1156.5382356000046,1156.5382356000046,1156.5382356000046,1156.5382356000046,1156.5382356000046,1156.5382356000046,1156.5382356000046,1156.5382356000046,1156.5382356000046,1156.5382356000046,1156.5382356000046,1156.5382356000046,,,,,,12,29,49,26,12,74,None,None,,,[],[],[],[],[],[],[],0.2,1,40,[0.06296296296296296],[-0.262037037037037],[1],[0],[0],[4.552363399998285],['tijiao'],1.0462962962962965,2.0879416999960085,1165.728425600013,1167.724127700014,,,,,,,,,,1163.622331800012,1163.622331800012,1163.622331800012,1163.622331800012,1159.056991000005,1159.056991000005,1159.056991000005,1159.056991000005,1159.056991000005,1159.056991000005,1159.056991000005,1159.056991000005,0.005518100006156601,,,,,,229,f,25,2023-03-20_10h17.34.687,RL,2022.2.4,60.18407902450306,
0,0.3,0.225,0,77,77,77,,,,,,,,,,None,1167.724127700014,1167.724127700014,1167.724127700014,1167.724127700014,1167.724127700014,1167.724127700014,i,0.5177967999916291,1168.2730118000036,1168.2730118000036,1168.2730118000036,1168.2730118000036,1168.2730118000036,1168.2730118000036,1168.571798200006,1168.571798200006,1169.568737300011,1169.568737300011,1169.568737300011,1169.568737300011,1169.568737300011,1169.568737300011,1169.568737300011,1169.568737300011,1169.568737300011,1169.568737300011,1169.568737300011,1169.568737300011,1169.568737300011,1169.568737300011,1169.568737300011,1169.568737300011,1169.568737300011,,,,,,20,35,48,30,48,42,None,None,50,50,[-0.030555555555555555],[-0.2796296296296296],[1],[0],[0],[4.079534800010151],['tijiao'],0.2,0,,[],[],[],[],[],[],[],7.111111111111112,2.6939351000037277,1178.8930392000038,1180.8377297000116,1172.079461100002,1172.079461100002,1172.079461100002,1172.079461100002,1172.079461100002,1172.079461100002,1172.079461100002,1172.079461100002,0.005227499990724027,1176.179680000001,1176.179680000001,1176.179680000001,1176.179680000001,,,,,,,,,,,,,,,229,f,25,2023-03-20_10h17.34.687,RL,2022.2.4,60.18407902450306,
1,-0.3,-0.225,0,78,78,78,,,,,,,,,,None,1180.8377297000116,1180.8377297000116,1180.8377297000116,1180.8377297000116,1180.8377297000116,1180.8377297000116,f,0.40608980000251904,1181.2710203000024,1181.2710203000024,1181.2710203000024,1181.2710203000024,1181.2710203000024,1181.2710203000024,1181.5699179000076,1181.5699179000076,1182.6004570000077,1182.6004570000077,1182.6004570000077,1182.6004570000077,1182.6004570000077,1182.6004570000077,1182.6004570000077,1182.6004570000077,1182.6004570000077,1182.6004570000077,1182.6004570000077,1182.6004570000077,1182.6004570000077,1182.6004570000077,1182.6004570000077,1182.6004570000077,1182.6004570000077,,,,,,19,32,51,25,32,70,None,None,,,[],[],[],[],[],[],[],-0.6,1,20,[0.044444444444444446],[-0.2898148148148148],[1],[0],[0],[6.814075599992066],['tijiao'],3.9907407407407405,4.065217399998801,1196.0292498000053,1197.908221500009,,,,,,,,,,1191.945346700013,1191.945346700013,1191.945346700013,1191.945346700013,1185.1180267000018,1185.1180267000018,1185.1180267000018,1185.1180267000018,1185.1180267000018,1185.1180267000018,1185.1180267000018,1185.1180267000018,0.0062535999895771965,,,,,,229,f,25,2023-03-20_10h17.34.687,RL,2022.2.4,60.18407902450306,
0,0.3,0.225,0,79,79,79,,,,,,,,,,None,1197.908221500009,1197.908221500009,1197.908221500009,1197.908221500009,1197.908221500009,1197.908221500009,i,0.4426110000058543,1198.3739644000016,1198.3739644000016,1198.3739644000016,1198.3739644000016,1198.3739644000016,1198.3739644000016,1198.6731540000037,1198.6731540000037,1199.8196464000066,1199.8196464000066,1199.8196464000066,1199.8196464000066,1199.8196464000066,1199.8196464000066,1199.8196464000066,1199.8196464000066,1199.8196464000066,1199.8196464000066,1199.8196464000066,1199.8196464000066,1199.8196464000066,1199.8196464000066,1199.8196464000066,1199.8196464000066,1199.8196464000066,1202.3290885000024,1202.3290885000024,1202.3290885000024,1202.3290885000024,1202.3290885000024,30,22,39,15,39,51,4.0,3.5398511000094004,,,[],[],[],[],[],[],[],-0.2,3,,[],[],[],[],[],[],[],None,None,1205.894187900005,1207.6485162000026,,,,,,,,,,,,,,,,,,,,,,,,,,,,229,f,25,2023-03-20_10h17.34.687,RL,2022.2.4,60.18407902450306,
1,-0.3,-0.225,0,80,80,80,,,,,,,,,,None,1207.6485162000026,1207.6485162000026,1207.6485162000026,1207.6485162000026,1207.6485162000026,1207.6485162000026,i,0.5669937000056962,1208.248874300014,1208.248874300014,1208.248874300014,1208.248874300014,1208.248874300014,1208.248874300014,1208.5463106000097,1208.5463106000097,1210.1749802000122,1210.1749802000122,1210.1749802000122,1210.1749802000122,1210.1749802000122,1210.1749802000122,1210.1749802000122,1210.1749802000122,1210.1749802000122,1210.1749802000122,1210.1749802000122,1210.1749802000122,1210.1749802000122,1210.1749802000122,1210.1749802000122,1210.1749802000122,1210.1749802000122,1212.6842632000044,1212.6842632000044,1212.6842632000044,1212.6842632000044,1212.6842632000044,26,31,44,13,44,71,4.0,6.331990199993015,,,[],[],[],[],[],[],[],-0.6,2,,[],[],[],[],[],[],[],None,None,1219.041728000011,1220.563008000012,,,,,,,,,,,,,,,,,,,,,,,,,,,,229,f,25,2023-03-20_10h17.34.687,RL,2022.2.4,60.18407902450306,
0,0.3,0.225,0,81,81,81,,,,,,,,,,None,1220.563008000012,1220.563008000012,1220.563008000012,1220.563008000012,1220.563008000012,1220.563008000012,j,0.39694750000489876,1220.9798051000107,1220.9798051000107,1220.9798051000107,1220.9798051000107,1220.9798051000107,1220.9798051000107,1221.278168600009,1221.278168600009,1222.8570929000125,1222.8570929000125,1222.8570929000125,1222.8570929000125,1222.8570929000125,1222.8570929000125,1222.8570929000125,1222.8570929000125,1222.8570929000125,1222.8570929000125,1222.8570929000125,1222.8570929000125,1222.8570929000125,1222.8570929000125,1222.8570929000125,1222.8570929000125,1222.8570929000125,1225.3658785000007,1225.3658785000007,1225.3658785000007,1225.3658785000007,1225.3658785000007,30,34,48,26,26,71,3.0,2.5256981999991694,,,[],[],[],[],[],[],[],0.6,3,,[],[],[],[],[],[],[],None,None,1227.9191946000064,1229.7713736000005,,,,,,,,,,,,,,,,,,,,,,,,,,,,229,f,25,2023-03-20_10h17.34.687,RL,2022.2.4,60.18407902450306,
1,-0.3,-0.225,0,82,82,82,,,,,,,,,,None,1229.7713736000005,1229.7713736000005,1229.7713736000005,1229.7713736000005,1229.7713736000005,1229.7713736000005,i,0.6573225000029197,1230.4553352000075,1230.4553352000075,1230.4553352000075,1230.4553352000075,1230.4553352000075,1230.4553352000075,1230.7523676000128,1230.7523676000128,1232.0819224000006,1232.0819224000006,1232.0819224000006,1232.0819224000006,1232.0819224000006,1232.0819224000006,1232.0819224000006,1232.0819224000006,1232.0819224000006,1232.0819224000006,1232.0819224000006,1232.0819224000006,1232.0819224000006,1232.0819224000006,1232.0819224000006,1232.0819224000006,1232.0819224000006,1234.5909010000032,1234.5909010000032,1234.5909010000032,1234.5909010000032,1234.5909010000032,40,35,64,27,64,64,5.0,2.8248476999870036,,,[],[],[],[],[],[],[],-0.2,2,,[],[],[],[],[],[],[],None,None,1237.4416577000084,1239.212395200011,,,,,,,,,,,,,,,,,,,,,,,,,,,,229,f,25,2023-03-20_10h17.34.687,RL,2022.2.4,60.18407902450306,
0,0.3,0.225,0,83,83,83,,,,,,,,,,None,1239.212395200011,1239.212395200011,1239.212395200011,1239.212395200011,1239.212395200011,1239.212395200011,i,0.5504196999972919,1239.795197200001,1239.795197200001,1239.795197200001,1239.795197200001,1239.795197200001,1239.795197200001,1240.0935264,1240.0935264,1241.157000600011,1241.157000600011,1241.157000600011,1241.157000600011,1241.157000600011,1241.157000600011,1241.157000600011,1241.157000600011,1241.157000600011,1241.157000600011,1241.157000600011,1241.157000600011,1241.157000600011,1241.157000600011,1241.157000600011,1241.157000600011,1241.157000600011,1243.66620230001,1243.66620230001,1243.66620230001,1243.66620230001,1243.66620230001,32,42,52,39,52,58,5.0,1.0131908000039402,,,[],[],[],[],[],[],[],0.6,3,,[],[],[],[],[],[],[],None,None,1244.7047099000047,1246.342653700005,,,,,,,,,,,,,,,,,,,,,,,,,,,,229,f,25,2023-03-20_10h17.34.687,RL,2022.2.4,60.18407902450306,
1,-0.3,-0.225,0,84,84,84,,,,,,,,,,None,1246.342653700005,1246.342653700005,1246.342653700005,1246.342653700005,1246.342653700005,1246.342653700005,i,0.5676973000081489,1246.941771800004,1246.941771800004,1246.941771800004,1246.941771800004,1246.941771800004,1246.941771800004,1247.2405833000084,1247.2405833000084,1248.886040100013,1248.886040100013,1248.886040100013,1248.886040100013,1248.886040100013,1248.886040100013,1248.886040100013,1248.886040100013,1248.886040100013,1248.886040100013,1248.886040100013,1248.886040100013,1248.886040100013,1248.886040100013,1248.886040100013,1248.886040100013,1248.886040100013,1251.3952243000094,1251.3952243000094,1251.3952243000094,1251.3952243000094,1251.3952243000094,22,32,54,30,54,62,5.0,1.0301574000041,,,[],[],[],[],[],[],[],-0.6,2,,[],[],[],[],[],[],[],None,None,1252.450576800009,1254.021981400001,,,,,,,,,,,,,,,,,,,,,,,,,,,,229,f,25,2023-03-20_10h17.34.687,RL,2022.2.4,60.18407902450306,
0,0.3,0.225,0,85,85,85,,,,,,,,,,None,1254.021981400001,1254.021981400001,1254.021981400001,1254.021981400001,1254.021981400001,1254.021981400001,i,0.4853464000043459,1254.5373510000063,1254.5373510000063,1254.5373510000063,1254.5373510000063,1254.5373510000063,1254.5373510000063,1254.8365895000024,1254.8365895000024,1255.7837246000126,1255.7837246000126,1255.7837246000126,1255.7837246000126,1255.7837246000126,1255.7837246000126,1255.7837246000126,1255.7837246000126,1255.7837246000126,1255.7837246000126,1255.7837246000126,1255.7837246000126,1255.7837246000126,1255.7837246000126,1255.7837246000126,1255.7837246000126,1255.7837246000126,,,,,,27,43,57,34,57,61,None,None,60,60,[0.01574074074074074],[-0.2935185185185185],[1],[0],[0],[4.21197440000833],['tijiao'],-0.2,0,,[],[],[],[],[],[],[],8.074074074074073,2.5274194000085117,1265.0739683000138,1267.0363153000071,1258.2937916000083,1258.2937916000083,1258.2937916000083,1258.2937916000083,1258.2937916000083,1258.2937916000083,1258.2937916000083,1258.2937916000083,0.006234899992705323,1262.5280835000012,1262.5280835000012,1262.5280835000012,1262.5280835000012,,,,,,,,,,,,,,,229,f,25,2023-03-20_10h17.34.687,RL,2022.2.4,60.18407902450306,
1,-0.3,-0.225,0,86,86,86,,,,,,,,,,None,1267.0363153000071,1267.0363153000071,1267.0363153000071,1267.0363153000071,1267.0363153000071,1267.0363153000071,i,0.5076579000015045,1267.5711112999998,1267.5711112999998,1267.5711112999998,1267.5711112999998,1267.5711112999998,1267.5711112999998,1267.8676679000055,1267.8676679000055,1269.762181900005,1269.762181900005,1269.7788834000094,1269.7788834000094,1269.7788834000094,1269.7788834000094,1269.7788834000094,1269.7788834000094,1269.7788834000094,1269.7788834000094,1269.7788834000094,1269.7788834000094,1269.7788834000094,1269.7788834000094,1269.7788834000094,1269.7788834000094,1269.7788834000094,,,,,,27,46,46,36,46,31,None,None,65,65,[0.022222222222222223],[-0.2898148148148148],[1],[0],[0],[4.8757775999984005],['tijiao'],-0.6,0,,[],[],[],[],[],[],[],8.046296296296296,4.83904320000147,1282.044173000002,1283.8403402000113,1272.290837700013,1272.290837700013,1272.290837700013,1272.290837700013,1272.290837700013,1272.290837700013,1272.290837700013,1272.290837700013,0.007789499999489635,1277.1864917000057,1277.1864917000057,1277.1864917000057,1277.1864917000057,,,,,,,,,,,,,,,229,f,25,2023-03-20_10h17.34.687,RL,2022.2.4,60.18407902450306,
0,0.3,0.225,0,87,87,87,,,,,,,,,,None,1283.8403402000113,1283.8403402000113,1283.8403402000113,1283.8403402000113,1283.8403402000113,1283.8403402000113,i,0.3772558999917237,1284.242872200004,1284.242872200004,1284.242872200004,1284.242872200004,1284.242872200004,1284.242872200004,1284.5387260999996,1284.5387260999996,1286.0345992000075,1286.0345992000075,1286.0345992000075,1286.0345992000075,1286.0345992000075,1286.0345992000075,1286.0345992000075,1286.0345992000075,1286.0345992000075,1286.0345992000075,1286.0345992000075,1286.0345992000075,1286.0345992000075,1286.0345992000075,1286.0345992000075,1286.0345992000075,1286.0345992000075,,,,,,26,56,52,34,52,54,None,None,,,[],[],[],[],[],[],[],0.6,1,30,[0.09537037037037037],[-0.2833333333333333],[1],[0],[0],[5.099860399990575],['tijiao'],3.037037037037037,4.197434800007613,1297.8842121000052,1299.6469413000013,,,,,,,,,,1293.6690668000083,1293.6690668000083,1293.6690668000083,1293.6690668000083,1288.5552845000057,1288.5552845000057,1288.5552845000057,1288.5552845000057,1288.5552845000057,1288.5552845000057,1288.5552845000057,1288.5552845000057,0.0058825000014621764,,,,,,229,f,25,2023-03-20_10h17.34.687,RL,2022.2.4,60.18407902450306,
1,-0.3,-0.225,0,88,88,88,,,,,,,,,,None,1299.6469413000013,1299.6469413000013,1299.6469413000013,1299.6469413000013,1299.6469413000013,1299.6469413000013,i,0.4934132999915164,1300.1627915999998,1300.1627915999998,1300.1627915999998,1300.1627915999998,1300.1627915999998,1300.1627915999998,1300.4619967000035,1300.4619967000035,1301.4425236000097,1301.4425236000097,1301.4425236000097,1301.4425236000097,1301.4425236000097,1301.4425236000097,1301.4425236000097,1301.4425236000097,1301.4425236000097,1301.4425236000097,1301.4425236000097,1301.4425236000097,1301.4425236000097,1301.4425236000097,1301.4425236000097,1301.4425236000097,1301.4425236000097,,,,,,28,52,58,43,58,57,None,None,,,[],[],[],[],[],[],[],0.2,1,60,[-0.1111111111111111],[-0.2712962962962963],[1],[0],[0],[7.113767399991048],['tijiao'],7.083333333333334,3.8992773999925703,1315.0043623000092,1316.6178110000037,,,,,,,,,,1311.0863610000088,1311.0863610000088,1311.0863610000088,1311.0863610000088,1303.9591004000104,1303.9591004000104,1303.9591004000104,1303.9591004000104,1303.9591004000104,1303.9591004000104,1303.9591004000104,1303.9591004000104,0.006149199994979426,,,,,,229,f,25,2023-03-20_10h17.34.687,RL,2022.2.4,60.18407902450306,
0,0.3,0.225,0,89,89,89,,,,,,,,,,None,1316.6178110000037,1316.6178110000037,1316.6178110000037,1316.6178110000037,1316.6178110000037,1316.6178110000037,i,0.38517500000307336,1317.0334314000065,1317.0334314000065,1317.0334314000065,1317.0334314000065,1317.0334314000065,1317.0334314000065,1317.3324520000024,1317.3324520000024,1318.678893400007,1318.678893400007,1318.678893400007,1318.678893400007,1318.678893400007,1318.678893400007,1318.678893400007,1318.678893400007,1318.678893400007,1318.678893400007,1318.678893400007,1318.678893400007,1318.678893400007,1318.678893400007,1318.678893400007,1318.678893400007,1318.678893400007,,,,,,34,47,49,41,49,40,None,None,,,[],[],[],[],[],[],[],-0.6,1,25,[0.010185185185185186],[-0.2935185185185185],[1],[0],[0],[6.897094900006778],['tijiao'],7.944444444444445,3.168525699991733,1331.2932434000104,1333.2886956000002,,,,,,,,,,1328.1056436000072,1328.1056436000072,1328.1056436000072,1328.1056436000072,1321.1960080000135,1321.1960080000135,1321.1960080000135,1321.1960080000135,1321.1960080000135,1321.1960080000135,1321.1960080000135,1321.1960080000135,0.006043000001227483,,,,,,229,f,25,2023-03-20_10h17.34.687,RL,2022.2.4,60.18407902450306,
1,-0.3,-0.225,0,90,90,90,,,,,,,,,,None,1333.2886956000002,1333.2886956000002,1333.2886956000002,1333.2886956000002,1333.2886956000002,1333.2886956000002,j,0.4107644000032451,1333.7214980000135,1333.7214980000135,1333.7214980000135,1333.7214980000135,1333.7214980000135,1333.7214980000135,1334.020407700009,1334.020407700009,1335.0341929000133,1335.0341929000133,1335.0341929000133,1335.0341929000133,1335.0341929000133,1335.0341929000133,1335.0341929000133,1335.0341929000133,1335.0341929000133,1335.0341929000133,1335.0341929000133,1335.0341929000133,1335.0341929000133,1335.0341929000133,1335.0341929000133,1335.0341929000133,1335.0341929000133,1337.5432961000042,1337.5432961000042,1337.5432961000042,1337.5432961000042,1337.5432961000042,33,47,44,37,37,40,5.0,2.309713099995861,,,[],[],[],[],[],[],[],-0.6,3,,[],[],[],[],[],[],[],None,None,1339.8777449000045,1341.6161538000015,,,,,,,,,,,,,,,,,,,,,,,,,,,,229,f,25,2023-03-20_10h17.34.687,RL,2022.2.4,60.18407902450306,
0,0.3,0.225,0,91,91,91,,,,,,,,,,None,1341.6161538000015,1341.6161538000015,1341.6161538000015,1341.6161538000015,1341.6161538000015,1341.6161538000015,i,0.3546298000001116,1341.9989353000128,1341.9989353000128,1341.9989353000128,1341.9989353000128,1341.9989353000128,1341.9989353000128,1342.2978135000012,1342.2978135000012,1343.6439733000007,1343.6439733000007,1343.6439733000007,1343.6439733000007,1343.6439733000007,1343.6439733000007,1343.6439733000007,1343.6439733000007,1343.6439733000007,1343.6439733000007,1343.6439733000007,1343.6439733000007,1343.6439733000007,1343.6439733000007,1343.6439733000007,1343.6439733000007,1343.6439733000007,,,,,,26,51,46,45,46,46,None,None,50,50,[0.05462962962962963],[-0.27037037037037037],[1],[0],[0],[5.326647200010484],['tijiao'],-0.6,0,,[],[],[],[],[],[],[],9.185185185185185,3.093956700002309,1354.6126812000002,1356.6083010000002,1346.1544250000006,1346.1544250000006,1346.1544250000006,1346.1544250000006,1346.1544250000006,1346.1544250000006,1346.1544250000006,1346.1544250000006,0.0052580000046873465,1351.4998629000038,1351.4998629000038,1351.4998629000038,1351.4998629000038,,,,,,,,,,,,,,,229,f,25,2023-03-20_10h17.34.687,RL,2022.2.4,60.18407902450306,
1,-0.3,-0.225,0,92,92,92,,,,,,,,,,None,1356.6083010000002,1356.6083010000002,1356.6083010000002,1356.6083010000002,1356.6083010000002,1356.6083010000002,i,0.46664240000245627,1357.1083095000067,1357.1083095000067,1357.1083095000067,1357.1083095000067,1357.1083095000067,1357.1083095000067,1357.4064533000055,1357.4064533000055,1358.8857764000131,1358.8857764000131,1358.8857764000131,1358.8857764000131,1358.8857764000131,1358.8857764000131,1358.8857764000131,1358.8857764000131,1358.8857764000131,1358.8857764000131,1358.8857764000131,1358.8857764000131,1358.8857764000131,1358.8857764000131,1358.8857764000131,1358.8857764000131,1358.8857764000131,,,,,,27,44,46,41,46,60,None,None,50,50,[0.041666666666666664],[-0.2759259259259259],[1],[0],[0],[4.461743699997896],['tijiao'],-0.6,0,,[],[],[],[],[],[],[],6.972222222222222,3.076183099998161,1368.973548400012,1370.5038614000077,1361.396465400001,1361.396465400001,1361.396465400001,1361.396465400001,1361.396465400001,1361.396465400001,1361.396465400001,1361.396465400001,0.0069226999912643805,1365.8793458,1365.8793458,1365.8793458,1365.8793458,,,,,,,,,,,,,,,229,f,25,2023-03-20_10h17.34.687,RL,2022.2.4,60.18407902450306,
