bandit0,black_x_pos_random,black_y_pos_random,trials.thisRepN,trials.thisTrialN,trials.thisN,trials.thisIndex,instru_img1.started,instru_img1.stopped,instru_resp.keys,instru_resp.rt,instru_resp.started,instru_resp.stopped,instru_img2.started,instru_img2.stopped,instru_resp2.keys,instru_resp2.rt,instru_resp2.started,instru_resp2.stopped,fixbefore_2.started,fixbefore_2.stopped,rest_image.started,rest_image.stopped,rest_response.keys,rest_response.started,rest_response.stopped,red.started,red.stopped,green.started,green.stopped,yellow.started,yellow.stopped,blue.started,blue.stopped,choose_bandit.keys,choose_bandit.rt,choose_bandit.started,choose_bandit.stopped,Fixation.started,Fixation.stopped,black.started,black.stopped,red_2.started,red_2.stopped,green_2.started,green_2.stopped,yellow_2.started,yellow_2.stopped,blue_2.started,blue_2.stopped,fixation_2.started,fixation_2.stopped,docs.started,docs.stopped,wait_playerB.started,wait_playerB.stopped,black_com.started,black_com.stopped,reward_sub.started,reward_sub.stopped,palyerb.started,palyerb.stopped,reward__sub.started,reward__sub.stopped,compare.started,compare.stopped,red_compare.started,red_compare.stopped,green_com.started,green_com.stopped,yellow_com.started,yellow_com.stopped,blue_com.started,blue_com.stopped,rewardyellow,rewardred,rewardblue,rewardgreen,subchoose,playerb,image_3.started,image_3.stopped,slider.response,slider.rt,slider.started,slider.stopped,text.started,text.stopped,image_4.started,image_4.stopped,image_5.started,image_5.stopped,value_expect_self,expect_self_black.started,expect_self_black.stopped,expect_self.started,expect_self.stopped,expect_self_red.started,expect_self_red.stopped,expect_self_green.started,expect_self_green.stopped,expect_self_yellow.started,expect_self_yellow.stopped,expect_self_blue.started,expect_self_blue.stopped,tijiao.started,tijiao.stopped,expectself.text,expectself.started,expectself.stopped,tijiao_click.started,tijiao_click.stopped,random_whicharm,whether_ask,jiantou_random.started,jiantou_random.stopped,expect_red.started,expect_red.stopped,expect_green.started,expect_green.stopped,expect_yellow.started,expect_yellow.stopped,expect_blue.started,expect_blue.stopped,expect_random_2.started,expect_random_2.stopped,expect_random_3.text,expect_random_3.started,expect_random_3.stopped,tijiao_random_2.started,tijiao_random_2.stopped,tijiao_random.started,tijiao_random.stopped,slider_2.response,slider_2.rt,slider_2.started,slider_2.stopped,image_7.started,image_7.stopped,confi.started,confi.stopped,notconfi.started,notconfi.stopped,bigx.started,bigx.stopped,intertrialfix.started,intertrialfix.stopped,tijiao_click.x,tijiao_click.y,tijiao_click.leftButton,tijiao_click.midButton,tijiao_click.rightButton,tijiao_click.time,tijiao_click.clicked_name,tijiao_random.x,tijiao_random.y,tijiao_random.leftButton,tijiao_random.midButton,tijiao_random.rightButton,tijiao_random.time,tijiao_random.clicked_name,rest_response.rt,participant,Gender,Age,date,expName,psychopyVersion,frameRate,
,,,,,,,31.875017200014554,None,space,7.054829400032759,31.875017200014554,None,,,,,,,,,,,,,,,,,,,,,,,,,,,,,,,,,,,,,,,,,,,,,,,,,,,,,,,,,,,,,,,,,,,,,,,,,,,,,,,,,,,,,,,,,,,,,,,,,,,,,,,,,,,,,,,,,,,,,,,,,,,,,,,,,,,,,,,,,,,,,,,,,,,,,,230,f,21,2023_Mar_20_1017,RL,2021.2.3,60.25058217147471,
,,,,,,,,,,,,,38.96539250004571,None,s,44.41473680001218,38.96539250004571,None,,,,,,,,,,,,,,,,,,,,,,,,,,,,,,,,,,,,,,,,,,,,,,,,,,,,,,,,,,,,,,,,,,,,,,,,,,,,,,,,,,,,,,,,,,,,,,,,,,,,,,,,,,,,,,,,,,,,,,,,,,,,,,,,,,,,,,,,,,,,,,,,230,f,21,2023_Mar_20_1017,RL,2021.2.3,60.25058217147471,
1,-0.3,-0.225,0,0,0,0,,,,,,,,,,,,,83.4127205000259,None,None,None,None,None,None,84.4980870000436,None,84.4980870000436,None,84.4980870000436,None,84.4980870000436,None,j,0.9020194999757223,84.4980870000436,None,84.4980870000436,None,85.51231950003421,None,85.51231950003421,None,85.51231950003421,None,85.51231950003421,None,85.51231950003421,None,85.51231950003421,None,85.80299460003152,87.52060960000381,85.80299460003152,87.52060960000381,87.60773170000175,None,87.60773170000175,None,87.60773170000175,None,87.60773170000175,None,87.60773170000175,None,87.60773170000175,None,87.60773170000175,None,87.60773170000175,None,87.60773170000175,None,66,54,38,41,41,51,90.22945230000187,None,3.0,1.5372785000363365,90.22945230000187,None,90.22945230000187,None,90.22945230000187,None,90.22945230000187,None,,None,None,None,None,None,None,None,None,None,None,None,None,None,None,,None,None,None,None,-0.2,3,None,None,None,None,None,None,None,None,None,None,None,None,,None,None,None,None,None,None,None,None,None,None,None,None,None,None,None,None,None,None,92.31277640000917,None,,,,,,,,,,,,,,,,230,f,21,2023_Mar_20_1017,RL,2021.2.3,60.25058217147471,
0,0.3,0.225,0,1,1,1,,,,,,,,,,,,,,,None,None,None,None,None,94.04470080003375,None,94.04470080003375,None,94.04470080003375,None,94.04470080003375,None,None,,94.04470080003375,None,94.04470080003375,None,None,None,None,None,None,None,None,None,None,None,None,None,None,None,None,None,None,None,None,None,None,None,None,None,None,None,None,None,None,None,None,None,None,None,58,45,41,40,0,**,None,None,None,None,None,None,None,None,None,None,None,None,,None,None,None,None,None,None,None,None,None,None,None,None,None,None,,None,None,None,None,0.6,1,None,None,None,None,None,None,None,None,None,None,None,None,,None,None,None,None,None,None,None,None,None,None,None,None,None,None,None,None,95.84732420003274,None,101.84748320002109,None,,,,,,,,,,,,,,,,230,f,21,2023_Mar_20_1017,RL,2021.2.3,60.25058217147471,
1,-0.3,-0.225,0,2,2,2,,,,,,,,,,,,,,,None,None,None,None,None,103.40277010004502,None,103.40277010004502,None,103.40277010004502,None,103.40277010004502,None,j,0.5174152000108734,103.40277010004502,None,103.40277010004502,None,103.97212310001487,None,103.97212310001487,None,103.97212310001487,None,103.97212310001487,None,103.97212310001487,None,103.97212310001487,None,104.26566500001354,None,104.26566500001354,None,105.39921840000898,None,105.39921840000898,None,105.39921840000898,None,105.39921840000898,None,105.39921840000898,None,105.39921840000898,None,105.39921840000898,None,105.39921840000898,None,105.39921840000898,None,50,37,40,39,39,49,107.91448740003398,None,1.0,0.9913829999859445,107.91448740003398,None,107.91448740003398,None,107.91448740003398,None,107.91448740003398,None,,None,None,None,None,None,None,None,None,None,None,None,None,None,None,,None,None,None,None,-0.2,3,None,None,None,None,None,None,None,None,None,None,None,None,,None,None,None,None,None,None,None,None,None,None,None,None,None,None,None,None,None,None,108.96265380003024,None,,,,,,,,,,,,,,,,230,f,21,2023_Mar_20_1017,RL,2021.2.3,60.25058217147471,
0,0.3,0.225,0,3,3,3,,,,,,,,,,,,,,,None,None,None,None,None,110.65798740001628,None,110.65798740001628,None,110.65798740001628,None,110.65798740001628,None,f,0.9821749000111595,110.65798740001628,None,110.65798740001628,None,111.6944075000356,None,111.6944075000356,None,111.6944075000356,None,111.6944075000356,None,111.6944075000356,None,111.6944075000356,None,111.98787489999086,113.37232650001533,111.98787489999086,113.37232650001533,113.40642220003065,None,113.40642220003065,None,113.40642220003065,None,113.40642220003065,None,113.40642220003065,None,113.40642220003065,None,113.40642220003065,None,113.40642220003065,None,113.40642220003065,None,55,51,41,37,51,57,None,None,None,None,None,None,None,None,None,None,None,None,58,115.93420489999698,None,115.93420489999698,None,115.93420489999698,None,115.93420489999698,None,115.93420489999698,None,115.93420489999698,None,115.93420489999698,None,58,115.93420489999698,None,0.01606261997949332,None,-0.6,0,None,None,None,None,None,None,None,None,None,None,None,None,,None,None,None,None,None,None,4.984375,2.9443845999776386,124.39873680000892,None,124.39873680000892,None,124.39873680000892,None,124.39873680000892,None,None,None,127.36498589999974,None,0.078125,-0.2734375,1,0,0,8.38954930001637,tijiao,,,,,,,,,230,f,21,2023_Mar_20_1017,RL,2021.2.3,60.25058217147471,
1,-0.3,-0.225,0,4,4,4,,,,,,,,,,,,,,,None,None,None,None,None,129.23740230000112,None,129.23740230000112,None,129.23740230000112,None,129.23740230000112,None,i,0.9130188999697566,129.23740230000112,None,129.23740230000112,None,130.19446240004618,None,130.19446240004618,None,130.19446240004618,None,130.19446240004618,None,130.19446240004618,None,130.19446240004618,None,130.4840472000069,None,130.4840472000069,None,131.98321269999724,None,131.98321269999724,None,131.98321269999724,None,131.98321269999724,None,131.98321269999724,None,131.98321269999724,None,131.98321269999724,None,131.98321269999724,None,131.98321269999724,None,53,43,44,36,44,56,134.50758239999413,None,2.0,2.5674679999938235,134.50758239999413,None,134.50758239999413,None,134.50758239999413,None,134.50758239999413,None,,None,None,None,None,None,None,None,None,None,None,None,None,None,None,,None,None,None,None,0.2,2,None,None,None,None,None,None,None,None,None,None,None,None,,None,None,None,None,None,None,None,None,None,None,None,None,None,None,None,None,None,None,137.13461670000106,None,,,,,,,,,,,,,,,,230,f,21,2023_Mar_20_1017,RL,2021.2.3,60.25058217147471,
0,0.3,0.225,0,5,5,5,,,,,,,,,,,,,,,None,None,None,None,None,138.86110830004327,None,138.86110830004327,None,138.86110830004327,None,138.86110830004327,None,r,0.9203117999713868,138.86110830004327,None,138.86110830004327,None,139.82673289999366,None,139.82673289999366,None,139.82673289999366,None,139.82673289999366,None,139.82673289999366,None,139.82673289999366,None,140.1239620000124,None,140.1239620000124,None,141.25759380002273,None,141.25759380002273,None,141.25759380002273,None,141.25759380002273,None,141.25759380002273,None,141.25759380002273,None,141.25759380002273,None,141.25759380002273,None,141.25759380002273,None,54,36,37,34,54,52,143.77265699999407,None,4.0,1.5724638999672607,143.77265699999407,None,143.77265699999407,None,143.77265699999407,None,143.77265699999407,None,,None,None,None,None,None,None,None,None,None,None,None,None,None,None,,None,None,None,None,0.2,3,None,None,None,None,None,None,None,None,None,None,None,None,,None,None,None,None,None,None,None,None,None,None,None,None,None,None,None,None,None,None,145.4033836000017,None,,,,,,,,,,,,,,,,230,f,21,2023_Mar_20_1017,RL,2021.2.3,60.25058217147471,
1,-0.3,-0.225,0,6,6,6,,,,,,,,,,,,,,,None,None,None,None,None,146.98289650003426,None,146.98289650003426,None,146.98289650003426,None,146.98289650003426,None,r,0.5787434999947436,146.98289650003426,None,146.98289650003426,None,147.602285400033,None,147.602285400033,None,147.602285400033,None,147.602285400033,None,147.602285400033,None,147.602285400033,None,147.89618800004246,149.11378750001313,147.89618800004246,149.11378750001313,149.14585600001737,None,149.14585600001737,None,149.14585600001737,None,149.14585600001737,None,149.14585600001737,None,149.14585600001737,None,149.14585600001737,None,149.14585600001737,None,149.14585600001737,None,61,39,41,55,61,46,None,None,None,None,None,None,None,None,None,None,None,None,25,151.68352950003464,None,151.68352950003464,None,151.68352950003464,None,151.68352950003464,None,151.68352950003464,None,151.68352950003464,None,151.68352950003464,None,25,151.68352950003464,None,0.007326319930143654,None,0.2,0,None,None,None,None,None,None,None,None,None,None,None,None,,None,None,None,None,None,None,7.041666666666666,2.8266081999754533,155.70921729999827,None,155.70921729999827,None,155.70921729999827,None,155.70921729999827,None,None,None,158.5530402000295,None,0.10807291666666667,-0.28125,1,0,0,3.977421100018546,tijiao,,,,,,,,,230,f,21,2023_Mar_20_1017,RL,2021.2.3,60.25058217147471,
0,0.3,0.225,0,7,7,7,,,,,,,,,,,,,,,None,None,None,None,None,160.09234910004307,None,160.09234910004307,None,160.09234910004307,None,160.09234910004307,None,i,0.819113900011871,160.09234910004307,None,160.09234910004307,None,160.96986489999108,None,160.96986489999108,None,160.96986489999108,None,160.96986489999108,None,160.96986489999108,None,160.96986489999108,None,161.25535739999032,162.25604700000258,161.25535739999032,162.25604700000258,162.2938034000108,None,162.2938034000108,None,162.2938034000108,None,162.2938034000108,None,162.2938034000108,None,162.2938034000108,None,162.2938034000108,None,162.2938034000108,None,162.2938034000108,None,62,35,48,49,48,46,None,None,None,None,None,None,None,None,None,None,None,None,,None,None,None,None,None,None,None,None,None,None,None,None,None,None,,None,None,None,None,-0.6,1,164.84021900000516,None,164.84021900000516,None,164.84021900000516,None,164.84021900000516,None,164.84021900000516,None,164.84021900000516,None,82,164.84021900000516,None,164.84021900000516,None,0.009714059997349977,None,5.8828125,5.526830599992536,169.66157450003084,None,169.66157450003084,None,169.66157450003084,None,169.66157450003084,None,None,None,175.2159901999985,None,,,,,,,,-0.00390625,-0.3033854166666667,1,0,0,4.764752999995835,tijiao,,230,f,21,2023_Mar_20_1017,RL,2021.2.3,60.25058217147471,
1,-0.3,-0.225,0,8,8,8,,,,,,,,,,,,,,,None,None,None,None,None,177.0207636000123,None,177.0207636000123,None,177.0207636000123,None,177.0207636000123,None,j,0.8009047000086866,177.0207636000123,None,177.0207636000123,None,177.87171790003777,None,177.87171790003777,None,177.87171790003777,None,177.87171790003777,None,177.87171790003777,None,177.87171790003777,None,178.16735719999997,None,178.16735719999997,None,180.06821040000068,None,180.06821040000068,None,180.06821040000068,None,180.06821040000068,None,180.06821040000068,None,180.06821040000068,None,180.06821040000068,None,180.06821040000068,None,180.06821040000068,None,56,37,45,52,52,62,182.5858327000169,None,2.0,0.8878106999909505,182.5858327000169,None,182.5858327000169,None,182.5858327000169,None,182.5858327000169,None,,None,None,None,None,None,None,None,None,None,None,None,None,None,None,,None,None,None,None,-0.2,3,None,None,None,None,None,None,None,None,None,None,None,None,,None,None,None,None,None,None,None,None,None,None,None,None,None,None,None,None,None,None,183.52939100004733,None,,,,,,,,,,,,,,,,230,f,21,2023_Mar_20_1017,RL,2021.2.3,60.25058217147471,
0,0.3,0.225,0,9,9,9,,,,,,,,,,,,,,,None,None,None,None,None,185.4764422000153,None,185.4764422000153,None,185.4764422000153,None,185.4764422000153,None,f,0.9553638999932446,185.4764422000153,None,185.4764422000153,None,186.4840239000041,None,186.4840239000041,None,186.4840239000041,None,186.4840239000041,None,186.4840239000041,None,186.4840239000041,None,186.77314830000978,187.70722149999347,186.77314830000978,187.70722149999347,187.74226289999206,None,187.74226289999206,None,187.74226289999206,None,187.74226289999206,None,187.74226289999206,None,187.74226289999206,None,187.74226289999206,None,187.74226289999206,None,187.74226289999206,None,45,36,43,45,36,45,None,None,None,None,None,None,None,None,None,None,None,None,,None,None,None,None,None,None,None,None,None,None,None,None,None,None,,None,None,None,None,0.6,1,190.28355200000806,None,190.28355200000806,None,190.28355200000806,None,190.28355200000806,None,190.28355200000806,None,190.28355200000806,None,50,190.28355200000806,None,190.28355200000806,None,0.01661465992219746,None,4.9453125,4.045768600015435,195.67487630003598,None,195.67487630003598,None,195.67487630003598,None,195.67487630003598,None,None,None,199.74677640001755,None,,,,,,,,0.0703125,-0.2786458333333333,1,0,0,5.354694699984975,tijiao,,230,f,21,2023_Mar_20_1017,RL,2021.2.3,60.25058217147471,
1,-0.3,-0.225,0,10,10,10,,,,,,,,,,,,,,,None,None,None,None,None,201.5045325999963,None,201.5045325999963,None,201.5045325999963,None,201.5045325999963,None,i,0.4073153999634087,201.5045325999963,None,201.5045325999963,None,201.95424440002535,None,201.95424440002535,None,201.95424440002535,None,201.95424440002535,None,201.95424440002535,None,201.95424440002535,None,202.25052880001022,None,202.25052880001022,None,203.0836066000047,None,203.0836066000047,None,203.0836066000047,None,203.0836066000047,None,203.0836066000047,None,203.0836066000047,None,203.0836066000047,None,203.0836066000047,None,203.0836066000047,None,43,36,51,44,51,61,None,None,None,None,None,None,None,None,None,None,None,None,,None,None,None,None,None,None,None,None,None,None,None,None,None,None,,None,None,None,None,0.2,1,205.63335540000116,None,205.63335540000116,None,205.63335540000116,None,205.63335540000116,None,205.63335540000116,None,205.63335540000116,None,60,205.63335540000116,None,205.63335540000116,None,0.010931859957054257,None,3.9296875,2.259301599988248,212.74754890002077,None,212.74754890002077,None,212.74754890002077,None,212.74754890002077,None,None,None,215.02526790002594,None,,,,,,,,0.024739583333333332,-0.2864583333333333,1,0,0,7.083167999982834,tijiao,,230,f,21,2023_Mar_20_1017,RL,2021.2.3,60.25058217147471,
0,0.3,0.225,0,11,11,11,,,,,,,,,,,,,,,None,None,None,None,None,216.93175039999187,None,216.93175039999187,None,216.93175039999187,None,216.93175039999187,None,f,1.1003300999873318,216.93175039999187,None,216.93175039999187,None,218.08459889999358,None,218.08459889999358,None,218.08459889999358,None,218.08459889999358,None,218.08459889999358,None,218.08459889999358,None,218.3783301000367,None,218.3783301000367,None,219.90000210003927,None,219.90000210003927,None,219.90000210003927,None,219.90000210003927,None,219.90000210003927,None,219.90000210003927,None,219.90000210003927,None,219.90000210003927,None,219.90000210003927,None,37,32,34,50,32,60,222.43546569999307,None,1.0,1.131911999953445,222.43546569999307,None,222.43546569999307,None,222.43546569999307,None,222.43546569999307,None,,None,None,None,None,None,None,None,None,None,None,None,None,None,None,,None,None,None,None,-0.2,2,None,None,None,None,None,None,None,None,None,None,None,None,,None,None,None,None,None,None,None,None,None,None,None,None,None,None,None,None,None,None,223.62358559999848,None,,,,,,,,,,,,,,,,230,f,21,2023_Mar_20_1017,RL,2021.2.3,60.25058217147471,
1,-0.3,-0.225,0,12,12,12,,,,,,,,,,,,,,,None,None,None,None,None,225.4045512000448,None,225.4045512000448,None,225.4045512000448,None,225.4045512000448,None,r,1.1374013000167906,225.4045512000448,None,225.4045512000448,None,226.58927540003788,None,226.58927540003788,None,226.58927540003788,None,226.58927540003788,None,226.58927540003788,None,226.58927540003788,None,226.88419000001159,None,226.88419000001159,None,228.06677610002225,None,228.06677610002225,None,228.06677610002225,None,228.06677610002225,None,228.06677610002225,None,228.06677610002225,None,228.06677610002225,None,228.06677610002225,None,228.06677610002225,None,45,35,36,43,45,46,230.58471770002507,None,3.0,2.1213496000273153,230.58471770002507,None,230.58471770002507,None,230.58471770002507,None,230.58471770002507,None,,None,None,None,None,None,None,None,None,None,None,None,None,None,None,,None,None,None,None,-0.6,2,None,None,None,None,None,None,None,None,None,None,None,None,,None,None,None,None,None,None,None,None,None,None,None,None,None,None,None,None,None,None,232.76006669999333,None,,,,,,,,,,,,,,,,230,f,21,2023_Mar_20_1017,RL,2021.2.3,60.25058217147471,
0,0.3,0.225,0,13,13,13,,,,,,,,,,,,,,,None,None,None,None,None,234.72722619998967,None,234.72722619998967,None,234.72722619998967,None,234.72722619998967,None,j,1.175027700024657,234.72722619998967,None,234.72722619998967,None,235.94804899999872,None,235.94804899999872,None,235.94804899999872,None,235.94804899999872,None,235.94804899999872,None,235.94804899999872,None,236.2407874999917,None,236.2407874999917,None,237.30877699999837,None,237.30877699999837,None,237.30877699999837,None,237.30877699999837,None,237.30877699999837,None,237.30877699999837,None,237.30877699999837,None,237.30877699999837,None,237.30877699999837,None,46,37,38,50,50,47,None,None,None,None,None,None,None,None,None,None,None,None,,None,None,None,None,None,None,None,None,None,None,None,None,None,None,,None,None,None,None,-0.6,1,239.84840519999852,None,239.84840519999852,None,239.84840519999852,None,239.84840519999852,None,239.84840519999852,None,239.84840519999852,None,80,239.84840519999852,None,239.84840519999852,None,0.0037583199446089566,None,4.958333333333333,4.7063530999585055,245.81985160004115,None,245.81985160004115,None,245.81985160004115,None,245.81985160004115,None,None,None,250.55072860000655,None,,,,,,,,0.07552083333333333,-0.2916666666666667,1,0,0,5.925622900016606,tijiao,,230,f,21,2023_Mar_20_1017,RL,2021.2.3,60.25058217147471,
1,-0.3,-0.225,0,14,14,14,,,,,,,,,,,,,,,None,None,None,None,None,252.10633660003077,None,252.10633660003077,None,252.10633660003077,None,252.10633660003077,None,f,0.9958561999956146,252.10633660003077,None,252.10633660003077,None,253.13997190003283,None,253.13997190003283,None,253.13997190003283,None,253.13997190003283,None,253.13997190003283,None,253.13997190003283,None,253.43614320002962,None,253.43614320002962,None,254.28882650000742,None,254.28882650000742,None,254.28882650000742,None,254.28882650000742,None,254.28882650000742,None,254.28882650000742,None,254.28882650000742,None,254.28882650000742,None,254.28882650000742,None,45,32,29,48,32,38,256.8073149000411,None,3.0,1.6196439000195824,256.8073149000411,None,256.8073149000411,None,256.8073149000411,None,256.8073149000411,None,,None,None,None,None,None,None,None,None,None,None,None,None,None,None,,None,None,None,None,0.2,2,None,None,None,None,None,None,None,None,None,None,None,None,,None,None,None,None,None,None,None,None,None,None,None,None,None,None,None,None,None,None,258.4875591000309,None,,,,,,,,,,,,,,,,230,f,21,2023_Mar_20_1017,RL,2021.2.3,60.25058217147471,
0,0.3,0.225,0,15,15,15,,,,,,,,,,,,,,,None,None,None,None,None,260.2115191000048,None,260.2115191000048,None,260.2115191000048,None,260.2115191000048,None,r,1.0407350999885239,260.2115191000048,None,260.2115191000048,None,261.29766680003377,None,261.29766680003377,None,261.29766680003377,None,261.29766680003377,None,261.29766680003377,None,261.29766680003377,None,261.5919058000436,262.84258150000824,261.5919058000436,262.84258150000824,262.87377970002126,None,262.87377970002126,None,262.87377970002126,None,262.87377970002126,None,262.87377970002126,None,262.87377970002126,None,262.87377970002126,None,262.87377970002126,None,262.87377970002126,None,38,26,40,61,38,64,None,None,None,None,None,None,None,None,None,None,None,None,,None,None,None,None,None,None,None,None,None,None,None,None,None,None,,None,None,None,None,-0.2,1,265.4157506999909,None,265.4157506999909,None,265.4157506999909,None,265.4157506999909,None,265.4157506999909,None,265.4157506999909,None,63,265.4157506999909,None,265.4157506999909,None,0.0034888199297711253,None,3.864583333333334,3.491403099964373,271.6888787000207,None,271.6888787000207,None,271.6888787000207,None,271.6888787000207,None,None,None,275.2005269000074,None,,,,,,,,0.005208333333333333,-0.2877604166666667,1,0,0,6.241813500004355,tijiao,,230,f,21,2023_Mar_20_1017,RL,2021.2.3,60.25058217147471,
1,-0.3,-0.225,0,16,16,16,,,,,,,,,,,,,,,None,None,None,None,None,277.0895087000099,None,277.0895087000099,None,277.0895087000099,None,277.0895087000099,None,i,0.27296720002777874,277.0895087000099,None,277.0895087000099,None,277.40617180004483,None,277.40617180004483,None,277.40617180004483,None,277.40617180004483,None,277.40617180004483,None,277.40617180004483,None,277.7029252999928,None,277.7029252999928,None,278.78276570001617,None,278.78276570001617,None,278.78276570001617,None,278.78276570001617,None,278.78276570001617,None,278.78276570001617,None,278.78276570001617,None,278.78276570001617,None,278.78276570001617,None,41,29,36,59,36,35,281.3068205000018,None,4.0,1.4873082999838516,281.3068205000018,None,281.3068205000018,None,281.3068205000018,None,281.3068205000018,None,,None,None,None,None,None,None,None,None,None,None,None,None,None,None,,None,None,None,None,-0.6,2,None,None,None,None,None,None,None,None,None,None,None,None,,None,None,None,None,None,None,None,None,None,None,None,None,None,None,None,None,None,None,282.8470292999991,None,,,,,,,,,,,,,,,,230,f,21,2023_Mar_20_1017,RL,2021.2.3,60.25058217147471,
0,0.3,0.225,0,17,17,17,,,,,,,,,,,,,,,None,None,None,None,None,284.6453760000295,None,284.6453760000295,None,284.6453760000295,None,284.6453760000295,None,j,1.1270035000052303,284.6453760000295,None,284.6453760000295,None,285.814691400039,None,285.814691400039,None,285.814691400039,None,285.814691400039,None,285.814691400039,None,285.814691400039,None,286.1087874000077,None,286.1087874000077,None,287.2406192999915,None,287.2406192999915,None,287.2406192999915,None,287.2406192999915,None,287.2406192999915,None,287.2406192999915,None,287.2406192999915,None,287.2406192999915,None,287.2406192999915,None,41,30,37,64,64,46,289.75941100000637,None,5.0,1.4039083999814466,289.75941100000637,None,289.75941100000637,None,289.75941100000637,None,289.75941100000637,None,,None,None,None,None,None,None,None,None,None,None,None,None,None,None,,None,None,None,None,0.6,2,None,None,None,None,None,None,None,None,None,None,None,None,,None,None,None,None,None,None,None,None,None,None,None,None,None,None,None,None,None,None,291.21612689999165,None,,,,,,,,,,,,,,,,230,f,21,2023_Mar_20_1017,RL,2021.2.3,60.25058217147471,
1,-0.3,-0.225,0,18,18,18,,,,,,,,,,,,,,,None,None,None,None,None,293.0674179000198,None,293.0674179000198,None,293.0674179000198,None,293.0674179000198,None,j,1.1160392999881878,293.0674179000198,None,293.0674179000198,None,294.23653009999543,None,294.23653009999543,None,294.23653009999543,None,294.23653009999543,None,294.23653009999543,None,294.23653009999543,None,294.53128660004586,296.01552499999525,294.53128660004586,296.01552499999525,296.0519778000307,None,296.0519778000307,None,296.0519778000307,None,296.0519778000307,None,296.0519778000307,None,296.0519778000307,None,296.0519778000307,None,296.0519778000307,None,296.0519778000307,None,42,21,39,56,56,79,298.5643168000388,None,1.0,1.2062941000331193,298.5643168000388,None,298.5643168000388,None,298.5643168000388,None,298.5643168000388,None,,None,None,None,None,None,None,None,None,None,None,None,None,None,None,,None,None,None,None,0.6,3,None,None,None,None,None,None,None,None,None,None,None,None,,None,None,None,None,None,None,None,None,None,None,None,None,None,None,None,None,None,None,299.822010200005,None,,,,,,,,,,,,,,,,230,f,21,2023_Mar_20_1017,RL,2021.2.3,60.25058217147471,
0,0.3,0.225,0,19,19,19,,,,,,,,,,,,,,,None,None,None,None,None,301.7738798999926,None,301.7738798999926,None,301.7738798999926,None,301.7738798999926,None,None,,301.7738798999926,None,301.7738798999926,None,None,None,None,None,None,None,None,None,None,None,None,None,None,None,None,None,None,None,None,None,None,None,None,None,None,None,None,None,None,None,None,None,None,None,44,21,32,59,0,**,None,None,None,None,None,None,None,None,None,None,None,None,,None,None,None,None,None,None,None,None,None,None,None,None,None,None,,None,None,None,None,-0.6,0,None,None,None,None,None,None,None,None,None,None,None,None,,None,None,None,None,None,None,None,None,None,None,None,None,None,None,None,None,303.36232250003377,None,309.3748629000038,None,,,,,,,,,,,,,,,,230,f,21,2023_Mar_20_1017,RL,2021.2.3,60.25058217147471,
1,-0.3,-0.225,0,20,20,20,,,,,,,,,,,,,,,None,None,None,None,None,310.89579790004063,None,310.89579790004063,None,310.89579790004063,None,310.89579790004063,None,j,0.7477824999950826,310.89579790004063,None,310.89579790004063,None,311.688808100007,None,311.688808100007,None,311.688808100007,None,311.688808100007,None,311.688808100007,None,311.688808100007,None,311.9767490000231,312.91037610004423,311.9767490000231,312.91037610004423,312.9418663000106,None,312.9418663000106,None,312.9418663000106,None,312.9418663000106,None,312.9418663000106,None,312.9418663000106,None,312.9418663000106,None,312.9418663000106,None,312.9418663000106,None,45,30,31,55,55,51,None,None,None,None,None,None,None,None,None,None,None,None,,None,None,None,None,None,None,None,None,None,None,None,None,None,None,,None,None,None,None,0.6,1,315.49009070004104,None,315.49009070004104,None,315.49009070004104,None,315.49009070004104,None,315.49009070004104,None,315.49009070004104,None,55,315.49009070004104,None,315.49009070004104,None,0.014196559961419553,None,10.895833333333332,1.7805377999902703,320.62149019999197,None,320.62149019999197,None,320.62149019999197,None,320.62149019999197,None,None,None,322.416801400017,None,,,,,,,,0.055989583333333336,-0.296875,1,0,0,5.101540000003297,tijiao,,230,f,21,2023_Mar_20_1017,RL,2021.2.3,60.25058217147471,
0,0.3,0.225,0,21,21,21,,,,,,,,,,,,,,,None,None,None,None,None,324.13942720001796,None,324.13942720001796,None,324.13942720001796,None,324.13942720001796,None,j,0.8941645000013523,324.13942720001796,None,324.13942720001796,None,325.0767238000408,None,325.0767238000408,None,325.0767238000408,None,325.0767238000408,None,325.0767238000408,None,325.0767238000408,None,325.36922950000735,326.4533343000221,325.36922950000735,326.4533343000221,326.4859990000259,None,326.4859990000259,None,326.4859990000259,None,326.4859990000259,None,326.4859990000259,None,326.4859990000259,None,326.4859990000259,None,326.4859990000259,None,326.4859990000259,None,46,20,23,57,57,69,329.0030193999992,None,2.0,2.8392532999860123,329.0030193999992,None,329.0030193999992,None,329.0030193999992,None,329.0030193999992,None,,None,None,None,None,None,None,None,None,None,None,None,None,None,None,,None,None,None,None,0.2,2,None,None,None,None,None,None,None,None,None,None,None,None,,None,None,None,None,None,None,None,None,None,None,None,None,None,None,None,None,None,None,331.9004126000218,None,,,,,,,,,,,,,,,,230,f,21,2023_Mar_20_1017,RL,2021.2.3,60.25058217147471,
1,-0.3,-0.225,0,22,22,22,,,,,,,,,,,,,,,None,None,None,None,None,333.5457979000057,None,333.5457979000057,None,333.5457979000057,None,333.5457979000057,None,f,1.1478926000418141,333.5457979000057,None,333.5457979000057,None,334.73184500000207,None,334.73184500000207,None,334.73184500000207,None,334.73184500000207,None,334.73184500000207,None,334.73184500000207,None,335.0261176000349,336.89396190003026,335.0261176000349,336.89396190003026,336.9280164000229,None,336.9280164000229,None,336.9280164000229,None,336.9280164000229,None,336.9280164000229,None,336.9280164000229,None,336.9280164000229,None,336.9280164000229,None,336.9280164000229,None,48,29,35,53,29,70,None,None,None,None,None,None,None,None,None,None,None,None,60,339.4586041000439,None,339.4586041000439,None,339.4586041000439,None,339.4586041000439,None,339.4586041000439,None,339.4586041000439,None,339.4586041000439,None,60,339.4586041000439,None,0.012711419956758618,None,0.6,0,None,None,None,None,None,None,None,None,None,None,None,None,,None,None,None,None,None,None,3.903645833333334,1.8663759999908507,344.4075398000423,None,344.4075398000423,None,344.4075398000423,None,344.4075398000423,None,None,None,346.29829710000195,None,0.052083333333333336,-0.2890625,1,0,0,4.900495400012005,tijiao,,,,,,,,,230,f,21,2023_Mar_20_1017,RL,2021.2.3,60.25058217147471,
0,0.3,0.225,0,23,23,23,,,,,,,,,,,,,,,None,None,None,None,None,348.1061031999998,None,348.1061031999998,None,348.1061031999998,None,348.1061031999998,None,j,0.8281018999987282,348.1061031999998,None,348.1061031999998,None,348.97793700004695,None,348.97793700004695,None,348.97793700004695,None,348.97793700004695,None,348.97793700004695,None,348.97793700004695,None,349.2691255999962,None,349.2691255999962,None,351.18477160000475,None,351.18477160000475,None,351.18477160000475,None,351.18477160000475,None,351.18477160000475,None,351.18477160000475,None,351.18477160000475,None,351.18477160000475,None,351.18477160000475,None,39,30,24,55,55,69,353.7101600000169,None,2.0,2.5847937999642454,353.7101600000169,None,353.7101600000169,None,353.7101600000169,None,353.7101600000169,None,,None,None,None,None,None,None,None,None,None,None,None,None,None,None,,None,None,None,None,-0.2,3,None,None,None,None,None,None,None,None,None,None,None,None,,None,None,None,None,None,None,None,None,None,None,None,None,None,None,None,None,None,None,356.35912390000885,None,,,,,,,,,,,,,,,,230,f,21,2023_Mar_20_1017,RL,2021.2.3,60.25058217147471,
1,-0.3,-0.225,0,24,24,24,,,,,,,,,,,,,,,None,None,None,None,None,358.3300064000068,None,358.3300064000068,None,358.3300064000068,None,358.3300064000068,None,r,0.994251299998723,358.3300064000068,None,358.3300064000068,None,359.37257070001215,None,359.37257070001215,None,359.37257070001215,None,359.37257070001215,None,359.37257070001215,None,359.37257070001215,None,359.6597255000379,361.3276798000443,359.6597255000379,361.3276798000443,361.36084959999425,None,361.36084959999425,None,361.36084959999425,None,361.36084959999425,None,361.36084959999425,None,361.36084959999425,None,361.36084959999425,None,361.36084959999425,None,361.36084959999425,None,36,27,25,51,36,62,None,None,None,None,None,None,None,None,None,None,None,None,50,363.89668500004336,None,363.89668500004336,None,363.89668500004336,None,363.89668500004336,None,363.89668500004336,None,363.89668500004336,None,363.89668500004336,None,50,363.89668500004336,None,0.007760520034935325,None,0.2,0,None,None,None,None,None,None,None,None,None,None,None,None,,None,None,None,None,None,None,3.044270833333333,1.9331841999664903,367.70317450002767,None,367.70317450002767,None,367.70317450002767,None,367.70317450002767,None,None,None,369.67151439999,None,0.01171875,-0.3020833333333333,1,0,0,3.7615689000231214,tijiao,,,,,,,,,230,f,21,2023_Mar_20_1017,RL,2021.2.3,60.25058217147471,
0,0.3,0.225,0,25,25,25,,,,,,,,,,,,,,,None,None,None,None,None,371.57086110004457,None,371.57086110004457,None,371.57086110004457,None,371.57086110004457,None,r,0.7234265999868512,371.57086110004457,None,371.57086110004457,None,372.33913700003177,None,372.33913700003177,None,372.33913700003177,None,372.33913700003177,None,372.33913700003177,None,372.33913700003177,None,372.6353928000317,374.16991190001136,372.6353928000317,374.16991190001136,374.20245350000914,None,374.20245350000914,None,374.20245350000914,None,374.20245350000914,None,374.20245350000914,None,374.20245350000914,None,374.20245350000914,None,374.20245350000914,None,374.20245350000914,None,36,24,20,57,36,75,None,None,None,None,None,None,None,None,None,None,None,None,60,376.7299397000461,None,376.7299397000461,None,376.7299397000461,None,376.7299397000461,None,376.7299397000461,None,376.7299397000461,None,376.7299397000461,None,60,376.7299397000461,None,9.80799668468535e-05,None,0.6,0,None,None,None,None,None,None,None,None,None,None,None,None,,None,None,None,None,None,None,3.03125,1.561307099997066,383.43599299999187,None,383.43599299999187,None,383.43599299999187,None,383.43599299999187,None,None,None,385.0103762000217,None,0.0703125,-0.25390625,1,0,0,6.655237600032706,tijiao,,,,,,,,,230,f,21,2023_Mar_20_1017,RL,2021.2.3,60.25058217147471,
1,-0.3,-0.225,0,26,26,26,,,,,,,,,,,,,,,None,None,None,None,None,386.6826631000149,None,386.6826631000149,None,386.6826631000149,None,386.6826631000149,None,r,0.43155520001892,386.6826631000149,None,386.6826631000149,None,387.1674114000052,None,387.1674114000052,None,387.1674114000052,None,387.1674114000052,None,387.1674114000052,None,387.1674114000052,None,387.46236040000804,None,387.46236040000804,None,389.42770220001694,None,389.42770220001694,None,389.42770220001694,None,389.42770220001694,None,389.42770220001694,None,389.42770220001694,None,389.42770220001694,None,389.42770220001694,None,389.42770220001694,None,40,28,15,62,40,47,391.9464770000195,None,2.0,0.8573647999437526,391.9464770000195,None,391.9464770000195,None,391.9464770000195,None,391.9464770000195,None,,None,None,None,None,None,None,None,None,None,None,None,None,None,None,,None,None,None,None,0.6,3,None,None,None,None,None,None,None,None,None,None,None,None,,None,None,None,None,None,None,None,None,None,None,None,None,None,None,None,None,None,None,392.85804940003436,None,,,,,,,,,,,,,,,,230,f,21,2023_Mar_20_1017,RL,2021.2.3,60.25058217147471,
0,0.3,0.225,0,27,27,27,,,,,,,,,,,,,,,None,None,None,None,None,394.7876294000307,None,394.7876294000307,None,394.7876294000307,None,394.7876294000307,None,j,0.8566090000094846,394.7876294000307,None,394.7876294000307,None,395.69034269999247,None,395.69034269999247,None,395.69034269999247,None,395.69034269999247,None,395.69034269999247,None,395.69034269999247,None,395.9849841000396,None,395.9849841000396,None,397.782345500018,None,397.782345500018,None,397.782345500018,None,397.782345500018,None,397.782345500018,None,397.782345500018,None,397.782345500018,None,397.782345500018,None,397.782345500018,None,39,26,12,63,63,56,400.3035584000172,None,5.0,1.6064866000087932,400.3035584000172,None,400.3035584000172,None,400.3035584000172,None,400.3035584000172,None,,None,None,None,None,None,None,None,None,None,None,None,None,None,None,,None,None,None,None,0.6,3,None,None,None,None,None,None,None,None,None,None,None,None,,None,None,None,None,None,None,None,None,None,None,None,None,None,None,None,None,None,None,401.9618858000031,None,,,,,,,,,,,,,,,,230,f,21,2023_Mar_20_1017,RL,2021.2.3,60.25058217147471,
1,-0.3,-0.225,0,28,28,28,,,,,,,,,,,,,,,None,None,None,None,None,403.61144050001167,None,403.61144050001167,None,403.61144050001167,None,403.61144050001167,None,i,0.913213399995584,403.61144050001167,None,403.61144050001167,None,404.5643605000223,None,404.5643605000223,None,404.5643605000223,None,404.5643605000223,None,404.5643605000223,None,404.5643605000223,None,404.8578113000258,None,404.8578113000258,None,406.2550226000021,None,406.2550226000021,None,406.2550226000021,None,406.2550226000021,None,406.2550226000021,None,406.2550226000021,None,406.2550226000021,None,406.2550226000021,None,406.2550226000021,None,47,33,13,58,13,60,None,None,None,None,None,None,None,None,None,None,None,None,63,408.7846750000026,None,408.7846750000026,None,408.7846750000026,None,408.7846750000026,None,408.7846750000026,None,408.7846750000026,None,408.7846750000026,None,63,408.7846750000026,None,0.0009263799292966723,None,0.6,0,None,None,None,None,None,None,None,None,None,None,None,None,,None,None,None,None,None,None,2.106770833333333,1.9966320999665186,414.9021957000368,None,414.9021957000368,None,414.9021957000368,None,414.9021957000368,None,None,None,416.9154932000092,None,-0.016927083333333332,-0.22786458333333334,1,0,0,5.838921800022945,tijiao,,,,,,,,,230,f,21,2023_Mar_20_1017,RL,2021.2.3,60.25058217147471,
0,0.3,0.225,0,29,29,29,,,,,,,,,,,,,,,None,None,None,None,None,418.8884090000065,None,418.8884090000065,None,418.8884090000065,None,418.8884090000065,None,f,1.0859187999740243,418.8884090000065,None,418.8884090000065,None,420.0250709000393,None,420.0250709000393,None,420.0250709000393,None,420.0250709000393,None,420.0250709000393,None,420.0250709000393,None,420.3188213999965,None,420.3188213999965,None,421.3373341000406,None,421.3373341000406,None,421.3373341000406,None,421.3373341000406,None,421.3373341000406,None,421.3373341000406,None,421.3373341000406,None,421.3373341000406,None,421.3373341000406,None,40,33,15,66,33,46,None,None,None,None,None,None,None,None,None,None,None,None,40,423.8708591000177,None,423.8708591000177,None,423.8708591000177,None,423.8708591000177,None,423.8708591000177,None,423.8708591000177,None,423.8708591000177,None,40,423.8708591000177,None,0.008618519990704954,None,0.6,0,None,None,None,None,None,None,None,None,None,None,None,None,,None,None,None,None,None,None,2.0546875,1.6005229000002146,429.16163889999734,None,429.16163889999734,None,429.16163889999734,None,429.16163889999734,None,None,None,430.78825650003273,None,0.009114583333333334,-0.2630208333333333,1,0,0,5.246144400036428,tijiao,,,,,,,,,230,f,21,2023_Mar_20_1017,RL,2021.2.3,60.25058217147471,
1,-0.3,-0.225,0,30,30,30,,,,,,,,,,,,,,,None,None,None,None,None,432.71427520003635,None,432.71427520003635,None,432.71427520003635,None,432.71427520003635,None,i,0.5102329000364989,432.71427520003635,None,432.71427520003635,None,433.26925900002243,None,433.26925900002243,None,433.26925900002243,None,433.26925900002243,None,433.26925900002243,None,433.26925900002243,None,433.5444601000054,434.7285043000011,433.5444601000054,434.7285043000011,434.7610647000256,None,434.7610647000256,None,434.7610647000256,None,434.7610647000256,None,434.7610647000256,None,434.7610647000256,None,434.7610647000256,None,434.7610647000256,None,434.7610647000256,None,49,30,18,64,18,48,None,None,None,None,None,None,None,None,None,None,None,None,,None,None,None,None,None,None,None,None,None,None,None,None,None,None,,None,None,None,None,-0.2,1,437.3179703000351,None,437.3179703000351,None,437.3179703000351,None,437.3179703000351,None,437.3179703000351,None,437.3179703000351,None,50,437.3179703000351,None,437.3179703000351,None,0.004259959969203919,None,1.143229166666667,3.3089438999886625,445.1714113000198,None,445.1714113000198,None,445.1714113000198,None,445.1714113000198,None,None,None,448.5042005000287,None,,,,,,,,-0.08463541666666667,-0.2877604166666667,1,0,0,7.810357100039255,tijiao,,230,f,21,2023_Mar_20_1017,RL,2021.2.3,60.25058217147471,
0,0.3,0.225,0,31,31,31,,,,,,,,,,,,,,,None,None,None,None,None,450.2271389000234,None,450.2271389000234,None,450.2271389000234,None,450.2271389000234,None,i,1.0473613000358455,450.2271389000234,None,450.2271389000234,None,451.31233380001504,None,451.31233380001504,None,451.31233380001504,None,451.31233380001504,None,451.31233380001504,None,451.31233380001504,None,451.60686340002576,None,451.60686340002576,None,452.9552735000034,None,452.9552735000034,None,452.9552735000034,None,452.9552735000034,None,452.9552735000034,None,452.9552735000034,None,452.9552735000034,None,452.9552735000034,None,452.9552735000034,None,43,39,10,63,10,60,None,None,None,None,None,None,None,None,None,None,None,None,70,455.48534200002905,None,455.48534200002905,None,455.48534200002905,None,455.48534200002905,None,455.48534200002905,None,455.48534200002905,None,455.48534200002905,None,70,455.48534200002905,None,0.01604642003076151,None,-0.6,0,None,None,None,None,None,None,None,None,None,None,None,None,,None,None,None,None,None,None,1.013020833333333,2.0652031000354327,461.00257890002104,None,461.00257890002104,None,461.00257890002104,None,461.00257890002104,None,None,None,463.09600880002836,None,0.1015625,-0.3072916666666667,1,0,0,5.470777200011071,tijiao,,,,,,,,,230,f,21,2023_Mar_20_1017,RL,2021.2.3,60.25058217147471,
1,-0.3,-0.225,0,32,32,32,,,,,,,,,,,,,,,None,None,None,None,None,464.9868842000142,None,464.9868842000142,None,464.9868842000142,None,464.9868842000142,None,j,0.7879101999569684,464.9868842000142,None,464.9868842000142,None,465.8215218000114,None,465.8215218000114,None,465.8215218000114,None,465.8215218000114,None,465.8215218000114,None,465.8215218000114,None,466.11710170004517,467.1013318999903,466.11710170004517,467.1013318999903,467.1349553000182,None,467.1349553000182,None,467.1349553000182,None,467.1349553000182,None,467.1349553000182,None,467.1349553000182,None,467.1349553000182,None,467.1349553000182,None,467.1349553000182,None,47,44,11,60,60,47,469.6595201000455,None,4.0,2.5489552000071853,469.6595201000455,None,469.6595201000455,None,469.6595201000455,None,469.6595201000455,None,,None,None,None,None,None,None,None,None,None,None,None,None,None,None,,None,None,None,None,0.2,3,None,None,None,None,None,None,None,None,None,None,None,None,,None,None,None,None,None,None,None,None,None,None,None,None,None,None,None,None,None,None,472.28124909999315,None,,,,,,,,,,,,,,,,230,f,21,2023_Mar_20_1017,RL,2021.2.3,60.25058217147471,
0,0.3,0.225,0,33,33,33,,,,,,,,,,,,,,,None,None,None,None,None,474.0433503999957,None,474.0433503999957,None,474.0433503999957,None,474.0433503999957,None,r,0.9823401999892667,474.0433503999957,None,474.0433503999957,None,475.0786094000214,None,475.0786094000214,None,475.0786094000214,None,475.0786094000214,None,475.0786094000214,None,475.0786094000214,None,475.3735654000193,None,475.3735654000193,None,476.45703740004683,None,476.45703740004683,None,476.45703740004683,None,476.45703740004683,None,476.45703740004683,None,476.45703740004683,None,476.45703740004683,None,476.45703740004683,None,476.45703740004683,None,37,41,2,57,37,31,None,None,None,None,None,None,None,None,None,None,None,None,20,478.98541260004276,None,478.98541260004276,None,478.98541260004276,None,478.98541260004276,None,478.98541260004276,None,478.98541260004276,None,478.98541260004276,None,20,478.98541260004276,None,0.015551819989923388,None,-0.6,0,None,None,None,None,None,None,None,None,None,None,None,None,,None,None,None,None,None,None,2.015625,2.699246999982279,484.4193459000089,None,484.4193459000089,None,484.4193459000089,None,484.4193459000089,None,None,None,487.1482786000124,None,0.006510416666666667,-0.2799479166666667,1,0,0,5.386462799971923,tijiao,,,,,,,,,230,f,21,2023_Mar_20_1017,RL,2021.2.3,60.25058217147471,
1,-0.3,-0.225,0,34,34,34,,,,,,,,,,,,,,,None,None,None,None,None,488.7199322000379,None,488.7199322000379,None,488.7199322000379,None,488.7199322000379,None,i,0.995819500007201,488.7199322000379,None,488.7199322000379,None,489.76077069999883,None,489.76077069999883,None,489.76077069999883,None,489.76077069999883,None,489.76077069999883,None,489.76077069999883,None,490.0502853000071,491.9182026000344,490.0502853000071,491.9182026000344,491.953425100015,None,491.953425100015,None,491.953425100015,None,491.953425100015,None,491.953425100015,None,491.953425100015,None,491.953425100015,None,491.953425100015,None,491.953425100015,None,35,42,0,51,0,46,None,None,None,None,None,None,None,None,None,None,None,None,60,494.4855581000447,None,494.4855581000447,None,494.4855581000447,None,494.4855581000447,None,494.4855581000447,None,494.4855581000447,None,494.4855581000447,None,60,494.4855581000447,None,0.010271820006892085,None,-0.2,0,None,None,None,None,None,None,None,None,None,None,None,None,,None,None,None,None,None,None,2.966145833333333,2.9344471000367776,503.3704582999926,None,503.3704582999926,None,503.3704582999926,None,503.3704582999926,None,None,None,506.326206800004,None,-0.029947916666666668,-0.2838541666666667,1,0,0,8.83438960002968,tijiao,,,,,,,,,230,f,21,2023_Mar_20_1017,RL,2021.2.3,60.25058217147471,
0,0.3,0.225,0,35,35,35,,,,,,,,,,,,,,,None,None,None,None,None,507.8673551999964,None,507.8673551999964,None,507.8673551999964,None,507.8673551999964,None,i,0.39857000001939014,507.8673551999964,None,507.8673551999964,None,508.3176525000017,None,508.3176525000017,None,508.3176525000017,None,508.3176525000017,None,508.3176525000017,None,508.3176525000017,None,508.6130326000275,None,508.6130326000275,None,510.196118700027,None,510.196118700027,None,510.196118700027,None,510.196118700027,None,510.196118700027,None,510.196118700027,None,510.196118700027,None,510.196118700027,None,510.196118700027,None,46,58,11,55,11,64,None,None,None,None,None,None,None,None,None,None,None,None,60,512.7341661000391,None,512.7341661000391,None,512.7341661000391,None,512.7341661000391,None,512.7341661000391,None,512.7341661000391,None,512.7341661000391,None,60,512.7341661000391,None,0.007509320043027401,None,-0.6,0,None,None,None,None,None,None,None,None,None,None,None,None,,None,None,None,None,None,None,1,2.2602976000052877,517.3562357000192,None,517.3562357000192,None,517.3562357000192,None,517.3562357000192,None,None,None,519.6351984000066,None,-0.06380208333333333,-0.2955729166666667,1,0,0,4.577817099983804,tijiao,,,,,,,,,230,f,21,2023_Mar_20_1017,RL,2021.2.3,60.25058217147471,
1,-0.3,-0.225,0,36,36,36,,,,,,,,,,,,,,,None,None,None,None,None,521.5759272000287,None,521.5759272000287,None,521.5759272000287,None,521.5759272000287,None,i,0.4501973000005819,521.5759272000287,None,521.5759272000287,None,522.0808863000129,None,522.0808863000129,None,522.0808863000129,None,522.0808863000129,None,522.0808863000129,None,522.0808863000129,None,522.3726776000112,523.3567355000414,522.3726776000112,523.3567355000414,523.3932400000049,None,523.3932400000049,None,523.3932400000049,None,523.3932400000049,None,523.3932400000049,None,523.3932400000049,None,523.3932400000049,None,523.3932400000049,None,523.3932400000049,None,46,55,11,66,11,66,525.9112314000377,None,1.0,1.5673310999991372,525.9112314000377,None,525.9112314000377,None,525.9112314000377,None,525.9112314000377,None,,None,None,None,None,None,None,None,None,None,None,None,None,None,None,,None,None,None,None,-0.2,3,None,None,None,None,None,None,None,None,None,None,None,None,,None,None,None,None,None,None,None,None,None,None,None,None,None,None,None,None,None,None,527.535690299992,None,,,,,,,,,,,,,,,,230,f,21,2023_Mar_20_1017,RL,2021.2.3,60.25058217147471,
0,0.3,0.225,0,37,37,37,,,,,,,,,,,,,,,None,None,None,None,None,529.3319404000067,None,529.3319404000067,None,529.3319404000067,None,529.3319404000067,None,r,1.1041390000027604,529.3319404000067,None,529.3319404000067,None,530.4825123000192,None,530.4825123000192,None,530.4825123000192,None,530.4825123000192,None,530.4825123000192,None,530.4825123000192,None,530.7786872000434,None,530.7786872000434,None,532.3292389000417,None,532.3292389000417,None,532.3292389000417,None,532.3292389000417,None,532.3292389000417,None,532.3292389000417,None,532.3292389000417,None,532.3292389000417,None,532.3292389000417,None,38,53,1,58,38,52,None,None,None,None,None,None,None,None,None,None,None,None,10,534.8538744000252,None,534.8538744000252,None,534.8538744000252,None,534.8538744000252,None,534.8538744000252,None,534.8538744000252,None,534.8538744000252,None,10,534.8538744000252,None,0.001790479989722371,None,0.6,0,None,None,None,None,None,None,None,None,None,None,None,None,,None,None,None,None,None,None,1.078125,1.4975494000245817,540.7420252000447,None,540.7420252000447,None,540.7420252000447,None,540.7420252000447,None,None,None,542.2527846000157,None,-0.11458333333333333,-0.2643229166666667,1,0,0,5.839668500004336,tijiao,,,,,,,,,230,f,21,2023_Mar_20_1017,RL,2021.2.3,60.25058217147471,
1,-0.3,-0.225,0,38,38,38,,,,,,,,,,,,,,,None,None,None,None,None,544.0589710000204,None,544.0589710000204,None,544.0589710000204,None,544.0589710000204,None,j,0.9371919999830425,544.0589710000204,None,544.0589710000204,None,545.0433294000104,None,545.0433294000104,None,545.0433294000104,None,545.0433294000104,None,545.0433294000104,None,545.0433294000104,None,545.3389244000427,None,545.3389244000427,None,546.5697813000297,None,546.5697813000297,None,546.5697813000297,None,546.5697813000297,None,546.5697813000297,None,546.5697813000297,None,546.5697813000297,None,546.5697813000297,None,546.5697813000297,None,46,52,18,53,53,59,549.0957625000156,None,3.0,2.015993000008166,549.0957625000156,None,549.0957625000156,None,549.0957625000156,None,549.0957625000156,None,,None,None,None,None,None,None,None,None,None,None,None,None,None,None,,None,None,None,None,0.6,3,None,None,None,None,None,None,None,None,None,None,None,None,,None,None,None,None,None,None,None,None,None,None,None,None,None,None,None,None,None,None,551.1634833000135,None,,,,,,,,,,,,,,,,230,f,21,2023_Mar_20_1017,RL,2021.2.3,60.25058217147471,
0,0.3,0.225,0,39,39,39,,,,,,,,,,,,,,,None,None,None,None,None,553.0151351999957,None,553.0151351999957,None,553.0151351999957,None,553.0151351999957,None,f,1.161145900026895,553.0151351999957,None,553.0151351999957,None,554.2184240000206,None,554.2184240000206,None,554.2184240000206,None,554.2184240000206,None,554.2184240000206,None,554.2184240000206,None,554.5118893000181,556.1962242000154,554.5118893000181,556.1962242000154,556.2284361000056,None,556.2284361000056,None,556.2284361000056,None,556.2284361000056,None,556.2284361000056,None,556.2284361000056,None,556.2284361000056,None,556.2284361000056,None,556.2284361000056,None,44,48,14,49,48,62,558.7561306999996,None,1.0,1.6320131999673322,558.7561306999996,None,558.7561306999996,None,558.7561306999996,None,558.7561306999996,None,,None,None,None,None,None,None,None,None,None,None,None,None,None,None,,None,None,None,None,0.2,2,None,None,None,None,None,None,None,None,None,None,None,None,,None,None,None,None,None,None,None,None,None,None,None,None,None,None,None,None,None,None,560.4432597000268,None,,,,,,,,,,,,,,,,230,f,21,2023_Mar_20_1017,RL,2021.2.3,60.25058217147471,
1,-0.3,-0.225,0,40,40,40,,,,,,,,,,,,,,,None,None,None,None,None,561.9880782000255,None,561.9880782000255,None,561.9880782000255,None,561.9880782000255,None,i,1.1781726000481285,561.9880782000255,None,561.9880782000255,None,563.2080311000464,None,563.2080311000464,None,563.2080311000464,None,563.2080311000464,None,563.2080311000464,None,563.2080311000464,None,563.5013034000294,None,563.5013034000294,None,564.4164547999972,None,564.4164547999972,None,564.4164547999972,None,564.4164547999972,None,564.4164547999972,None,564.4164547999972,None,564.4164547999972,None,564.4164547999972,None,564.4164547999972,None,38,54,19,57,19,75,566.9405497999978,None,1.0,1.2167764999903738,566.9405497999978,None,566.9405497999978,None,566.9405497999978,None,566.9405497999978,None,,None,None,None,None,None,None,None,None,None,None,None,None,None,None,,None,None,None,None,-0.6,2,None,None,None,None,None,None,None,None,None,None,None,None,,None,None,None,None,None,None,None,None,None,None,None,None,None,None,None,None,None,None,568.2077272000024,None,,,,,,,,,,,,,,,,230,f,21,2023_Mar_20_1017,RL,2021.2.3,60.25058217147471,
0,0.3,0.225,0,41,41,41,,,,,,,,,,,,,,,None,None,None,None,None,569.8266867999919,None,569.8266867999919,None,569.8266867999919,None,569.8266867999919,None,f,1.0696111000142992,569.8266867999919,None,569.8266867999919,None,570.945893600001,None,570.945893600001,None,570.945893600001,None,570.945893600001,None,570.945893600001,None,570.945893600001,None,571.239928200026,572.8244690000429,571.239928200026,572.8244690000429,572.8570296000107,None,572.8570296000107,None,572.8570296000107,None,572.8570296000107,None,572.8570296000107,None,572.8570296000107,None,572.8570296000107,None,572.8570296000107,None,572.8570296000107,None,47,43,11,58,43,74,None,None,None,None,None,None,None,None,None,None,None,None,,None,None,None,None,None,None,None,None,None,None,None,None,None,None,,None,None,None,None,-0.2,1,575.4056052000378,None,575.4056052000378,None,575.4056052000378,None,575.4056052000378,None,575.4056052000378,None,575.4056052000378,None,11,575.4056052000378,None,575.4056052000378,None,0.011464559996966273,None,1,1.2814745000214316,581.619907699991,None,581.619907699991,None,581.619907699991,None,581.619907699991,None,None,None,582.9291304000071,None,,,,,,,,0.109375,-0.2708333333333333,1,0,0,6.183232299983501,tijiao,,230,f,21,2023_Mar_20_1017,RL,2021.2.3,60.25058217147471,
1,-0.3,-0.225,0,42,42,42,,,,,,,,,,,,,,,None,None,None,None,None,584.6035323000397,None,584.6035323000397,None,584.6035323000397,None,584.6035323000397,None,i,1.213080799963791,584.6035323000397,None,584.6035323000397,None,585.8563314999919,None,585.8563314999919,None,585.8563314999919,None,585.8563314999919,None,585.8563314999919,None,585.8563314999919,None,586.1503358000191,None,586.1503358000191,None,587.6988310000161,None,587.6988310000161,None,587.6988310000161,None,587.6988310000161,None,587.6988310000161,None,587.6988310000161,None,587.6988310000161,None,587.6988310000161,None,587.6988310000161,None,52,49,17,55,17,34,590.2184758000076,None,2.0,2.7218931999523193,590.2184758000076,None,590.2184758000076,None,590.2184758000076,None,590.2184758000076,None,,None,None,None,None,None,None,None,None,None,None,None,None,None,None,,None,None,None,None,0.2,2,None,None,None,None,None,None,None,None,None,None,None,None,,None,None,None,None,None,None,None,None,None,None,None,None,None,None,None,None,None,None,593.0031352000078,None,,,,,,,,,,,,,,,,230,f,21,2023_Mar_20_1017,RL,2021.2.3,60.25058217147471,
0,0.3,0.225,0,43,43,43,,,,,,,,,,,,,,,None,None,None,None,None,594.8772650000174,None,594.8772650000174,None,594.8772650000174,None,594.8772650000174,None,j,1.0992047000327148,594.8772650000174,None,594.8772650000174,None,596.030341500009,None,596.030341500009,None,596.030341500009,None,596.030341500009,None,596.030341500009,None,596.030341500009,None,596.3240769000258,598.0582082000328,596.3240769000258,598.0582082000328,598.0913514000131,None,598.0913514000131,None,598.0913514000131,None,598.0913514000131,None,598.0913514000131,None,598.0913514000131,None,598.0913514000131,None,598.0913514000131,None,598.0913514000131,None,43,46,3,64,64,55,None,None,None,None,None,None,None,None,None,None,None,None,,None,None,None,None,None,None,None,None,None,None,None,None,None,None,,None,None,None,None,0.2,1,600.6336465000059,None,600.6336465000059,None,600.6336465000059,None,600.6336465000059,None,600.6336465000059,None,600.6336465000059,None,74,600.6336465000059,None,600.6336465000059,None,0.0013374199625104666,None,2.0546875,3.027909099997487,608.1266722000437,None,608.1266722000437,None,608.1266722000437,None,608.1266722000437,None,None,None,611.1823789000046,None,,,,,,,,0.0013020833333333333,-0.2942708333333333,1,0,0,7.457791199965868,tijiao,,230,f,21,2023_Mar_20_1017,RL,2021.2.3,60.25058217147471,
1,-0.3,-0.225,0,44,44,44,,,,,,,,,,,,,,,None,None,None,None,None,612.823267800035,None,612.823267800035,None,612.823267800035,None,612.823267800035,None,i,0.24367440002970397,612.823267800035,None,612.823267800035,None,613.1073076000321,None,613.1073076000321,None,613.1073076000321,None,613.1073076000321,None,613.1073076000321,None,613.1073076000321,None,613.4027818000177,None,613.4027818000177,None,614.4238933000015,None,614.4238933000015,None,614.4238933000015,None,614.4238933000015,None,614.4238933000015,None,614.4238933000015,None,614.4238933000015,None,614.4238933000015,None,614.4238933000015,None,41,51,13,61,13,77,616.9607991999947,None,1.0,1.1304935999796726,616.9607991999947,None,616.9607991999947,None,616.9607991999947,None,616.9607991999947,None,,None,None,None,None,None,None,None,None,None,None,None,None,None,None,,None,None,None,None,0.2,2,None,None,None,None,None,None,None,None,None,None,None,None,,None,None,None,None,None,None,None,None,None,None,None,None,None,None,None,None,None,None,618.143053900043,None,,,,,,,,,,,,,,,,230,f,21,2023_Mar_20_1017,RL,2021.2.3,60.25058217147471,
0,0.3,0.225,0,45,45,45,,,,,,,,,,,,,,,None,None,None,None,None,620.071117000014,None,620.071117000014,None,620.071117000014,None,620.071117000014,None,j,1.3355837000417523,620.071117000014,None,620.071117000014,None,621.4486251000199,None,621.4486251000199,None,621.4486251000199,None,621.4486251000199,None,621.4486251000199,None,621.4486251000199,None,621.7416605000035,623.5599326000083,621.7416605000035,623.5599326000083,623.5917012999998,None,623.5917012999998,None,623.5917012999998,None,623.5917012999998,None,623.5917012999998,None,623.5917012999998,None,623.5917012999998,None,623.5917012999998,None,623.5917012999998,None,48,50,5,70,70,74,None,None,None,None,None,None,None,None,None,None,None,None,,None,None,None,None,None,None,None,None,None,None,None,None,None,None,,None,None,None,None,0.2,1,626.1337387000094,None,626.1337387000094,None,626.1337387000094,None,626.1337387000094,None,626.1337387000094,None,626.1337387000094,None,17,626.1337387000094,None,626.1337387000094,None,0.0022492199786938727,None,1.924479166666667,2.2432248000404797,631.1438603000133,None,631.1438603000133,None,631.1438603000133,None,631.1438603000133,None,None,None,633.4148282000097,None,,,,,,,,0.029947916666666668,-0.2981770833333333,1,0,0,4.973217200022191,tijiao,,230,f,21,2023_Mar_20_1017,RL,2021.2.3,60.25058217147471,
1,-0.3,-0.225,0,46,46,46,,,,,,,,,,,,,,,None,None,None,None,None,635.1556072999956,None,635.1556072999956,None,635.1556072999956,None,635.1556072999956,None,j,0.8412119999993593,635.1556072999956,None,635.1556072999956,None,636.0417097000172,None,636.0417097000172,None,636.0417097000172,None,636.0417097000172,None,636.0417097000172,None,636.0417097000172,None,636.3352948999964,638.2699396000244,636.3352948999964,638.2699396000244,638.3029099000269,None,638.3029099000269,None,638.3029099000269,None,638.3029099000269,None,638.3029099000269,None,638.3029099000269,None,638.3029099000269,None,638.3029099000269,None,638.3029099000269,None,42,49,6,61,61,37,None,None,None,None,None,None,None,None,None,None,None,None,,None,None,None,None,None,None,None,None,None,None,None,None,None,None,,None,None,None,None,0.2,1,640.8510311000282,None,640.8510311000282,None,640.8510311000282,None,640.8510311000282,None,640.8510311000282,None,640.8510311000282,None,30,640.8510311000282,None,640.8510311000282,None,0.01136715995380655,None,3.03125,2.058804999978747,645.4070929000154,None,645.4070929000154,None,645.4070929000154,None,645.4070929000154,None,None,None,647.4907702000346,None,,,,,,,,-0.006510416666666667,-0.3046875,1,0,0,4.51549060002435,tijiao,,230,f,21,2023_Mar_20_1017,RL,2021.2.3,60.25058217147471,
0,0.3,0.225,0,47,47,47,,,,,,,,,,,,,,,None,None,None,None,None,649.4486256000237,None,649.4486256000237,None,649.4486256000237,None,649.4486256000237,None,f,1.069302800053265,649.4486256000237,None,649.4486256000237,None,650.568321800034,None,650.568321800034,None,650.568321800034,None,650.568321800034,None,650.568321800034,None,650.568321800034,None,650.8620384000242,None,650.8620384000242,None,652.4258167000371,None,652.4258167000371,None,652.4258167000371,None,652.4258167000371,None,652.4258167000371,None,652.4258167000371,None,652.4258167000371,None,652.4258167000371,None,652.4258167000371,None,48,50,8,65,50,42,None,None,None,None,None,None,None,None,None,None,None,None,50,654.9582398000057,None,654.9582398000057,None,654.9582398000057,None,654.9582398000057,None,654.9582398000057,None,654.9582398000057,None,654.9582398000057,None,50,654.9582398000057,None,0.014743219944648445,None,-0.6,0,None,None,None,None,None,None,None,None,None,None,None,None,,None,None,None,None,None,None,3.03125,2.208787699986715,660.4181065000012,None,660.4181065000012,None,660.4181065000012,None,660.4181065000012,None,None,None,662.6513170000399,None,-0.0013020833333333333,-0.23697916666666666,1,0,0,5.16871950001223,tijiao,,,,,,,,,230,f,21,2023_Mar_20_1017,RL,2021.2.3,60.25058217147471,
1,-0.3,-0.225,0,48,48,48,,,,,,,,,,,,,,,None,None,None,None,None,664.2589408000349,None,664.2589408000349,None,664.2589408000349,None,664.2589408000349,None,f,0.8290608000243083,664.2589408000349,None,664.2589408000349,None,665.1293552000425,None,665.1293552000425,None,665.1293552000425,None,665.1293552000425,None,665.1293552000425,None,665.1293552000425,None,665.4221057000104,None,665.4221057000104,None,667.2519126000116,None,667.2519126000116,None,667.2519126000116,None,667.2519126000116,None,667.2519126000116,None,667.2519126000116,None,667.2519126000116,None,667.2519126000116,None,667.2519126000116,None,41,47,6,65,47,47,669.779548200022,None,4.0,2.4510834999964572,669.779548200022,None,669.779548200022,None,669.779548200022,None,669.779548200022,None,,None,None,None,None,None,None,None,None,None,None,None,None,None,None,,None,None,None,None,0.2,2,None,None,None,None,None,None,None,None,None,None,None,None,,None,None,None,None,None,None,None,None,None,None,None,None,None,None,None,None,None,None,672.2796992000076,None,,,,,,,,,,,,,,,,230,f,21,2023_Mar_20_1017,RL,2021.2.3,60.25058217147471,
0,0.3,0.225,0,49,49,49,,,,,,,,,,,,,,,None,None,None,None,None,673.9485904000467,None,673.9485904000467,None,673.9485904000467,None,673.9485904000467,None,f,0.3594812999945134,673.9485904000467,None,673.9485904000467,None,674.3509932000306,None,674.3509932000306,None,674.3509932000306,None,674.3509932000306,None,674.3509932000306,None,674.3509932000306,None,674.6450442000059,None,674.6450442000059,None,676.343602100038,None,676.343602100038,None,676.343602100038,None,676.343602100038,None,676.343602100038,None,676.343602100038,None,676.343602100038,None,676.343602100038,None,676.343602100038,None,46,34,-4,67,34,82,678.8609850000357,None,1.0,1.4396258000051603,678.8609850000357,None,678.8609850000357,None,678.8609850000357,None,678.8609850000357,None,,None,None,None,None,None,None,None,None,None,None,None,None,None,None,,None,None,None,None,0.6,2,None,None,None,None,None,None,None,None,None,None,None,None,,None,None,None,None,None,None,None,None,None,None,None,None,None,None,None,None,None,None,680.3507802000386,None,,,,,,,,,,,,,,,,230,f,21,2023_Mar_20_1017,RL,2021.2.3,60.25058217147471,
1,-0.3,-0.225,0,50,50,50,,,,,,,,,,,,,,,None,None,None,None,None,682.03792110004,None,682.03792110004,None,682.03792110004,None,682.03792110004,None,j,1.1502068000263534,682.03792110004,None,682.03792110004,None,683.2377487000194,None,683.2377487000194,None,683.2377487000194,None,683.2377487000194,None,683.2377487000194,None,683.2377487000194,None,683.534721700009,685.3358368999907,683.534721700009,685.3358368999907,685.3696534000337,None,685.3696534000337,None,685.3696534000337,None,685.3696534000337,None,685.3696534000337,None,685.3696534000337,None,685.3696534000337,None,685.3696534000337,None,685.3696534000337,None,46,40,13,70,70,43,None,None,None,None,None,None,None,None,None,None,None,None,,None,None,None,None,None,None,None,None,None,None,None,None,None,None,,None,None,None,None,-0.2,1,687.9091159999953,None,687.9091159999953,None,687.9091159999953,None,687.9091159999953,None,687.9091159999953,None,687.9091159999953,None,40,687.9091159999953,None,687.9091159999953,None,0.0031289199832826853,None,2.966145833333333,1.7649765000096522,693.0139990000171,None,693.0139990000171,None,693.0139990000171,None,693.0139990000171,None,None,None,694.7917652000324,None,,,,,,,,0.010416666666666666,-0.23307291666666666,1,0,0,4.773278400010895,tijiao,,230,f,21,2023_Mar_20_1017,RL,2021.2.3,60.25058217147471,
0,0.3,0.225,0,51,51,51,,,,,,,,,,,,,,,None,None,None,None,None,696.7313729000161,None,696.7313729000161,None,696.7313729000161,None,696.7313729000161,None,j,0.936872599995695,696.7313729000161,None,696.7313729000161,None,697.7182770000072,None,697.7182770000072,None,697.7182770000072,None,697.7182770000072,None,697.7182770000072,None,697.7182770000072,None,698.0116417999961,None,698.0116417999961,None,698.9265327000176,None,698.9265327000176,None,698.9265327000176,None,698.9265327000176,None,698.9265327000176,None,698.9265327000176,None,698.9265327000176,None,698.9265327000176,None,698.9265327000176,None,47,48,14,67,67,79,None,None,None,None,None,None,None,None,None,None,None,None,,None,None,None,None,None,None,None,None,None,None,None,None,None,None,,None,None,None,None,-0.6,1,701.4823225000291,None,701.4823225000291,None,701.4823225000291,None,701.4823225000291,None,701.4823225000291,None,701.4823225000291,None,17,701.4823225000291,None,701.4823225000291,None,0.005531259987037629,None,2.875,2.7872733999975026,706.0334682000102,None,706.0334682000102,None,706.0334682000102,None,706.0334682000102,None,None,None,708.8334251000197,None,,,,,,,,-0.013020833333333334,-0.2838541666666667,1,0,0,4.5098403000156395,tijiao,,230,f,21,2023_Mar_20_1017,RL,2021.2.3,60.25058217147471,
1,-0.3,-0.225,0,52,52,52,,,,,,,,,,,,,,,None,None,None,None,None,710.5406039000372,None,710.5406039000372,None,710.5406039000372,None,710.5406039000372,None,j,0.9978341000387445,710.5406039000372,None,710.5406039000372,None,711.5764593000058,None,711.5764593000058,None,711.5764593000058,None,711.5764593000058,None,711.5764593000058,None,711.5764593000058,None,711.8711151000462,None,711.8711151000462,None,713.1035678000189,None,713.1035678000189,None,713.1035678000189,None,713.1035678000189,None,713.1035678000189,None,713.1035678000189,None,713.1035678000189,None,713.1035678000189,None,713.1035678000189,None,49,49,11,69,69,77,715.6210794000071,None,6.0,2.04082950000884,715.6210794000071,None,715.6210794000071,None,715.6210794000071,None,715.6210794000071,None,,None,None,None,None,None,None,None,None,None,None,None,None,None,None,,None,None,None,None,0.6,3,None,None,None,None,None,None,None,None,None,None,None,None,,None,None,None,None,None,None,None,None,None,None,None,None,None,None,None,None,None,None,717.7235110000474,None,,,,,,,,,,,,,,,,230,f,21,2023_Mar_20_1017,RL,2021.2.3,60.25058217147471,
0,0.3,0.225,0,53,53,53,,,,,,,,,,,,,,,None,None,None,None,None,719.5133662000299,None,719.5133662000299,None,719.5133662000299,None,719.5133662000299,None,j,1.315065000031609,719.5133662000299,None,719.5133662000299,None,720.8653638000251,None,720.8653638000251,None,720.8653638000251,None,720.8653638000251,None,720.8653638000251,None,720.8653638000251,None,721.1608277999912,722.1615518000326,721.1608277999912,722.1615518000326,722.1933453000383,None,722.1933453000383,None,722.1933453000383,None,722.1933453000383,None,722.1933453000383,None,722.1933453000383,None,722.1933453000383,None,722.1933453000383,None,722.1933453000383,None,47,50,3,56,56,76,None,None,None,None,None,None,None,None,None,None,None,None,40,724.7297259999905,None,724.7297259999905,None,724.7297259999905,None,724.7297259999905,None,724.7297259999905,None,724.7297259999905,None,724.7297259999905,None,40,724.7297259999905,None,0.00853601994458586,None,0.6,0,None,None,None,None,None,None,None,None,None,None,None,None,,None,None,None,None,None,None,4.0859375,2.117298499972094,730.188668399991,None,730.188668399991,None,730.188668399991,None,730.188668399991,None,None,None,732.3266287000151,None,0.08723958333333333,-0.2838541666666667,1,0,0,5.413577100029215,tijiao,,,,,,,,,230,f,21,2023_Mar_20_1017,RL,2021.2.3,60.25058217147471,
1,-0.3,-0.225,0,54,54,54,,,,,,,,,,,,,,,None,None,None,None,None,733.8405505000264,None,733.8405505000264,None,733.8405505000264,None,733.8405505000264,None,i,1.117941599979531,733.8405505000264,None,733.8405505000264,None,735.0105698000407,None,735.0105698000407,None,735.0105698000407,None,735.0105698000407,None,735.0105698000407,None,735.0105698000407,None,735.2873738000053,736.6718433999922,735.2873738000053,736.6718433999922,736.7053467000369,None,736.7053467000369,None,736.7053467000369,None,736.7053467000369,None,736.7053467000369,None,736.7053467000369,None,736.7053467000369,None,736.7053467000369,None,736.7053467000369,None,39,51,16,56,16,75,None,None,None,None,None,None,None,None,None,None,None,None,0,739.241437299992,None,739.241437299992,None,739.241437299992,None,739.241437299992,None,739.241437299992,None,739.241437299992,None,739.241437299992,None,0,739.241437299992,None,0.008258619986008853,None,0.2,0,None,None,None,None,None,None,None,None,None,None,None,None,,None,None,None,None,None,None,4.020833333333334,2.001690700009931,743.1950721000321,None,743.1950721000321,None,743.1950721000321,None,743.1950721000321,None,None,None,745.2104737000191,None,0.11588541666666667,-0.2955729166666667,1,0,0,3.912026100035291,tijiao,,,,,,,,,230,f,21,2023_Mar_20_1017,RL,2021.2.3,60.25058217147471,
0,0.3,0.225,0,55,55,55,,,,,,,,,,,,,,,None,None,None,None,None,747.0834650000324,None,747.0834650000324,None,747.0834650000324,None,747.0834650000324,None,f,0.5951778999879025,747.0834650000324,None,747.0834650000324,None,747.7231603999971,None,747.7231603999971,None,747.7231603999971,None,747.7231603999971,None,747.7231603999971,None,747.7231603999971,None,748.0129771000356,None,748.0129771000356,None,749.6103551000124,None,749.6103551000124,None,749.6103551000124,None,749.6103551000124,None,749.6103551000124,None,749.6103551000124,None,749.6103551000124,None,749.6103551000124,None,749.6103551000124,None,46,46,10,59,46,88,None,None,None,None,None,None,None,None,None,None,None,None,40,752.1416843000334,None,752.1416843000334,None,752.1416843000334,None,752.1416843000334,None,752.1416843000334,None,752.1416843000334,None,752.1416843000334,None,40,752.1416843000334,None,0.01586821995442733,None,0.6,0,None,None,None,None,None,None,None,None,None,None,None,None,,None,None,None,None,None,None,1.9375,2.200965100026224,758.7574374999967,None,758.7574374999967,None,758.7574374999967,None,758.7574374999967,None,None,None,760.9864282000344,None,0.13932291666666666,-0.296875,1,0,0,6.571368700009771,tijiao,,,,,,,,,230,f,21,2023_Mar_20_1017,RL,2021.2.3,60.25058217147471,
1,-0.3,-0.225,0,56,56,56,,,,,,,,,,,,,,,None,None,None,None,None,762.5771894000354,None,762.5771894000354,None,762.5771894000354,None,762.5771894000354,None,j,0.4815641000168398,762.5771894000354,None,762.5771894000354,None,763.1120102000423,None,763.1120102000423,None,763.1120102000423,None,763.1120102000423,None,763.1120102000423,None,763.1120102000423,None,763.4067008999991,None,763.4067008999991,None,764.8875062000006,None,764.8875062000006,None,764.8875062000006,None,764.8875062000006,None,764.8875062000006,None,764.8875062000006,None,764.8875062000006,None,764.8875062000006,None,764.8875062000006,None,46,44,11,64,64,83,None,None,None,None,None,None,None,None,None,None,None,None,64,767.4202878000215,None,767.4202878000215,None,767.4202878000215,None,767.4202878000215,None,767.4202878000215,None,767.4202878000215,None,767.4202878000215,None,64,767.4202878000215,None,0.015083620033692569,None,0.2,0,None,None,None,None,None,None,None,None,None,None,None,None,,None,None,None,None,None,None,4.046875,1.2246864000335336,775.1164740000386,None,775.1164740000386,None,775.1164740000386,None,775.1164740000386,None,None,None,776.3636319999932,None,0.037760416666666664,-0.2942708333333333,1,0,0,7.654326699965168,tijiao,,,,,,,,,230,f,21,2023_Mar_20_1017,RL,2021.2.3,60.25058217147471,
0,0.3,0.225,0,57,57,57,,,,,,,,,,,,,,,None,None,None,None,None,777.9040778999915,None,777.9040778999915,None,777.9040778999915,None,777.9040778999915,None,j,0.2948058000183664,777.9040778999915,None,777.9040778999915,None,778.2424498000182,None,778.2424498000182,None,778.2424498000182,None,778.2424498000182,None,778.2424498000182,None,778.2424498000182,None,778.5173134999932,779.7183638000279,778.5173134999932,779.7183638000279,779.7677983000176,None,779.7677983000176,None,779.7677983000176,None,779.7677983000176,None,779.7677983000176,None,779.7677983000176,None,779.7677983000176,None,779.7677983000176,None,779.7677983000176,None,56,44,12,72,72,49,None,None,None,None,None,None,None,None,None,None,None,None,,None,None,None,None,None,None,None,None,None,None,None,None,None,None,,None,None,None,None,-0.6,1,782.3080822000047,None,782.3080822000047,None,782.3080822000047,None,782.3080822000047,None,782.3080822000047,None,782.3080822000047,None,43,782.3080822000047,None,782.3080822000047,None,0.003067619982175529,None,3.838541666666666,1.7045663999742828,787.0613698000088,None,787.0613698000088,None,787.0613698000088,None,787.0613698000088,None,None,None,788.7926725000143,None,,,,,,,,-0.016927083333333332,-0.2864583333333333,1,0,0,4.724014600040391,tijiao,,230,f,21,2023_Mar_20_1017,RL,2021.2.3,60.25058217147471,
1,-0.3,-0.225,0,58,58,58,,,,,,,,,,,,,,,None,None,None,None,None,790.7801418000017,None,790.7801418000017,None,790.7801418000017,None,790.7801418000017,None,j,0.888770499965176,790.7801418000017,None,790.7801418000017,None,791.7190412000054,None,791.7190412000054,None,791.7190412000054,None,791.7190412000054,None,791.7190412000054,None,791.7190412000054,None,792.0099963000393,793.4945567999966,792.0099963000393,793.4945567999966,793.5271317000152,None,793.5271317000152,None,793.5271317000152,None,793.5271317000152,None,793.5271317000152,None,793.5271317000152,None,793.5271317000152,None,793.5271317000152,None,793.5271317000152,None,51,48,7,65,65,82,796.0443329000263,None,4.0,1.7572832999867387,796.0443329000263,None,796.0443329000263,None,796.0443329000263,None,796.0443329000263,None,,None,None,None,None,None,None,None,None,None,None,None,None,None,None,,None,None,None,None,-0.6,2,None,None,None,None,None,None,None,None,None,None,None,None,,None,None,None,None,None,None,None,None,None,None,None,None,None,None,None,None,None,None,797.8610872999998,None,,,,,,,,,,,,,,,,230,f,21,2023_Mar_20_1017,RL,2021.2.3,60.25058217147471,
0,0.3,0.225,0,59,59,59,,,,,,,,,,,,,,,None,None,None,None,None,799.5193517000298,None,799.5193517000298,None,799.5193517000298,None,799.5193517000298,None,None,,799.5193517000298,None,799.5193517000298,None,None,None,None,None,None,None,None,None,None,None,None,None,None,None,None,None,None,None,None,None,None,None,None,None,None,None,None,None,None,None,None,None,None,None,52,53,17,63,0,**,None,None,None,None,None,None,None,None,None,None,None,None,,None,None,None,None,None,None,None,None,None,None,None,None,None,None,,None,None,None,None,-0.6,2,None,None,None,None,None,None,None,None,None,None,None,None,,None,None,None,None,None,None,None,None,None,None,None,None,None,None,None,None,801.104101600009,None,807.10387240001,None,,,,,,,,,,,,,,,,230,f,21,2023_Mar_20_1017,RL,2021.2.3,60.25058217147471,
1,-0.3,-0.225,0,60,60,60,,,,,,,,,,,,,,,None,None,None,None,None,808.9595272000297,None,808.9595272000297,None,808.9595272000297,None,808.9595272000297,None,j,1.1804228999535553,808.9595272000297,None,808.9595272000297,None,810.1789175000158,None,810.1789175000158,None,810.1789175000158,None,810.1789175000158,None,810.1789175000158,None,810.1789175000158,None,810.4723795000464,None,810.4723795000464,None,812.1721434000065,None,812.1721434000065,None,812.1721434000065,None,812.1721434000065,None,812.1721434000065,None,812.1721434000065,None,812.1721434000065,None,812.1721434000065,None,812.1721434000065,None,43,47,6,65,65,80,None,None,None,None,None,None,None,None,None,None,None,None,60,814.6988757000072,None,814.6988757000072,None,814.6988757000072,None,814.6988757000072,None,814.6988757000072,None,814.6988757000072,None,814.6988757000072,None,60,814.6988757000072,None,0.0014164799940772355,None,0.6,0,None,None,None,None,None,None,None,None,None,None,None,None,,None,None,None,None,None,None,3.916666666666666,2.1159225000301376,819.1007301000063,None,819.1007301000063,None,819.1007301000063,None,819.1007301000063,None,None,None,821.2469892000081,None,0.046875,-0.2825520833333333,1,0,0,4.355706800008193,tijiao,,,,,,,,,230,f,21,2023_Mar_20_1017,RL,2021.2.3,60.25058217147471,
0,0.3,0.225,0,61,61,61,,,,,,,,,,,,,,,None,None,None,None,None,823.0341833000421,None,823.0341833000421,None,823.0341833000421,None,823.0341833000421,None,r,0.9058774000150152,823.0341833000421,None,823.0341833000421,None,823.9883287000121,None,823.9883287000121,None,823.9883287000121,None,823.9883287000121,None,823.9883287000121,None,823.9883287000121,None,824.282383200014,825.8500815000152,824.282383200014,825.8500815000152,825.8817213000148,None,825.8817213000148,None,825.8817213000148,None,825.8817213000148,None,825.8817213000148,None,825.8817213000148,None,825.8817213000148,None,825.8817213000148,None,825.8817213000148,None,45,36,22,78,45,87,828.4059393000207,None,2.0,2.048572100000456,828.4059393000207,None,828.4059393000207,None,828.4059393000207,None,828.4059393000207,None,,None,None,None,None,None,None,None,None,None,None,None,None,None,None,,None,None,None,None,0.2,2,None,None,None,None,None,None,None,None,None,None,None,None,,None,None,None,None,None,None,None,None,None,None,None,None,None,None,None,None,None,None,830.5070865000016,None,,,,,,,,,,,,,,,,230,f,21,2023_Mar_20_1017,RL,2021.2.3,60.25058217147471,
1,-0.3,-0.225,0,62,62,62,,,,,,,,,,,,,,,None,None,None,None,None,832.2585480000125,None,832.2585480000125,None,832.2585480000125,None,832.2585480000125,None,r,1.1816184000344947,832.2585480000125,None,832.2585480000125,None,833.4922668000218,None,833.4922668000218,None,833.4922668000218,None,833.4922668000218,None,833.4922668000218,None,833.4922668000218,None,833.7885384000256,None,833.7885384000256,None,835.7369675000082,None,835.7369675000082,None,835.7369675000082,None,835.7369675000082,None,835.7369675000082,None,835.7369675000082,None,835.7369675000082,None,835.7369675000082,None,835.7369675000082,None,52,49,20,71,52,40,None,None,None,None,None,None,None,None,None,None,None,None,,None,None,None,None,None,None,None,None,None,None,None,None,None,None,,None,None,None,None,0.2,1,838.2837374000228,None,838.2837374000228,None,838.2837374000228,None,838.2837374000228,None,838.2837374000228,None,838.2837374000228,None,25,838.2837374000228,None,838.2837374000228,None,0.00028571998700499535,None,1.872395833333333,1.4287233999930322,845.0050494000316,None,845.0050494000316,None,845.0050494000316,None,845.0050494000316,None,None,None,846.4535197000368,None,,,,,,,,0.05078125,-0.28125,1,0,0,6.6896369000314735,tijiao,,230,f,21,2023_Mar_20_1017,RL,2021.2.3,60.25058217147471,
0,0.3,0.225,0,63,63,63,,,,,,,,,,,,,,,None,None,None,None,None,848.369976499991,None,848.369976499991,None,848.369976499991,None,848.369976499991,None,r,1.010251600004267,848.369976499991,None,848.369976499991,None,849.4207157000201,None,849.4207157000201,None,849.4207157000201,None,849.4207157000201,None,849.4207157000201,None,849.4207157000201,None,849.716753100045,None,849.716753100045,None,851.1312441999908,None,851.1312441999908,None,851.1312441999908,None,851.1312441999908,None,851.1312441999908,None,851.1312441999908,None,851.1312441999908,None,851.1312441999908,None,851.1312441999908,None,55,51,12,68,55,70,None,None,None,None,None,None,None,None,None,None,None,None,55,853.6655365999904,None,853.6655365999904,None,853.6655365999904,None,853.6655365999904,None,853.6655365999904,None,853.6655365999904,None,853.6655365999904,None,55,853.6655365999904,None,0.012509419932030141,None,-0.2,0,None,None,None,None,None,None,None,None,None,None,None,None,,None,None,None,None,None,None,2.015625,1.4485421000281349,859.5471762000234,None,859.5471762000234,None,859.5471762000234,None,859.5471762000234,None,None,None,861.0239329000469,None,-0.05859375,-0.2708333333333333,1,0,0,5.8339182999916375,tijiao,,,,,,,,,230,f,21,2023_Mar_20_1017,RL,2021.2.3,60.25058217147471,
1,-0.3,-0.225,0,64,64,64,,,,,,,,,,,,,,,None,None,None,None,None,862.8302303000237,None,862.8302303000237,None,862.8302303000237,None,862.8302303000237,None,f,1.160251099965535,862.8302303000237,None,862.8302303000237,None,864.0353076000465,None,864.0353076000465,None,864.0353076000465,None,864.0353076000465,None,864.0353076000465,None,864.0353076000465,None,864.3269410000066,None,864.3269410000066,None,865.8088730000309,None,865.8088730000309,None,865.8088730000309,None,865.8088730000309,None,865.8088730000309,None,865.8088730000309,None,865.8088730000309,None,865.8088730000309,None,865.8088730000309,None,52,43,18,72,43,33,None,None,None,None,None,None,None,None,None,None,None,None,50,868.345361899992,None,868.345361899992,None,868.345361899992,None,868.345361899992,None,868.345361899992,None,868.345361899992,None,868.345361899992,None,50,868.345361899992,None,0.009034920018166304,None,-0.6,0,None,None,None,None,None,None,None,None,None,None,None,None,,None,None,None,None,None,None,2.783854166666667,2.077741999994032,875.176608800015,None,875.176608800015,None,875.176608800015,None,875.176608800015,None,None,None,877.2862875999999,None,-0.022135416666666668,-0.2916666666666667,1,0,0,6.7810829999507405,tijiao,,,,,,,,,230,f,21,2023_Mar_20_1017,RL,2021.2.3,60.25058217147471,
0,0.3,0.225,0,65,65,65,,,,,,,,,,,,,,,None,None,None,None,None,878.7911512000137,None,878.7911512000137,None,878.7911512000137,None,878.7911512000137,None,j,0.9393817999516614,878.7911512000137,None,878.7911512000137,None,879.777980200015,None,879.777980200015,None,879.777980200015,None,879.777980200015,None,879.777980200015,None,879.777980200015,None,880.0711355000385,None,880.0711355000385,None,881.422381500015,None,881.422381500015,None,881.422381500015,None,881.422381500015,None,881.422381500015,None,881.422381500015,None,881.422381500015,None,881.422381500015,None,881.422381500015,None,55,47,15,65,65,75,None,None,None,None,None,None,None,None,None,None,None,None,,None,None,None,None,None,None,None,None,None,None,None,None,None,None,,None,None,None,None,0.6,1,883.9704141000402,None,883.9704141000402,None,883.9704141000402,None,883.9704141000402,None,883.9704141000402,None,883.9704141000402,None,65,883.9704141000402,None,883.9704141000402,None,0.01113295997492969,None,11,1.776592000038363,888.5017952999915,None,888.5017952999915,None,888.5017952999915,None,888.5017952999915,None,None,None,890.2999307000428,None,,,,,,,,0.12890625,-0.27734375,1,0,0,4.49818100000266,tijiao,,230,f,21,2023_Mar_20_1017,RL,2021.2.3,60.25058217147471,
1,-0.3,-0.225,0,66,66,66,,,,,,,,,,,,,,,None,None,None,None,None,892.1839168000151,None,892.1839168000151,None,892.1839168000151,None,892.1839168000151,None,j,0.31678939994890243,892.1839168000151,None,892.1839168000151,None,892.5486912000342,None,892.5486912000342,None,892.5486912000342,None,892.5486912000342,None,892.5486912000342,None,892.5486912000342,None,892.846759600041,None,892.846759600041,None,894.4628114000079,None,894.4628114000079,None,894.4628114000079,None,894.4628114000079,None,894.4628114000079,None,894.4628114000079,None,894.4628114000079,None,894.4628114000079,None,894.4628114000079,None,58,43,23,67,67,65,None,None,None,None,None,None,None,None,None,None,None,None,,None,None,None,None,None,None,None,None,None,None,None,None,None,None,,None,None,None,None,-0.2,1,897.0139019000344,None,897.0139019000344,None,897.0139019000344,None,897.0139019000344,None,897.0139019000344,None,897.0139019000344,None,33,897.0139019000344,None,897.0139019000344,None,0.010445359977893531,None,3.877604166666666,1.562805900000967,901.0107187000103,None,901.0107187000103,None,901.0107187000103,None,901.0107187000103,None,None,None,902.5862349999952,None,,,,,,,,0.06380208333333333,-0.2838541666666667,1,0,0,3.964381699974183,tijiao,,230,f,21,2023_Mar_20_1017,RL,2021.2.3,60.25058217147471,
0,0.3,0.225,0,67,67,67,,,,,,,,,,,,,,,None,None,None,None,None,904.4252251000144,None,904.4252251000144,None,904.4252251000144,None,904.4252251000144,None,i,0.7756824999814853,904.4252251000144,None,904.4252251000144,None,905.2478483000305,None,905.2478483000305,None,905.2478483000305,None,905.2478483000305,None,905.2478483000305,None,905.2478483000305,None,905.5386412999942,906.9230405000271,905.5386412999942,906.9230405000271,906.9600042999955,None,906.9600042999955,None,906.9600042999955,None,906.9600042999955,None,906.9600042999955,None,906.9600042999955,None,906.9600042999955,None,906.9600042999955,None,906.9600042999955,None,56,52,24,76,24,68,None,None,None,None,None,None,None,None,None,None,None,None,,None,None,None,None,None,None,None,None,None,None,None,None,None,None,,None,None,None,None,-0.2,1,909.5002987000044,None,909.5002987000044,None,909.5002987000044,None,909.5002987000044,None,909.5002987000044,None,909.5002987000044,None,47,909.5002987000044,None,909.5002987000044,None,0.01566395995905623,None,2.041666666666667,1.420807699963916,915.0549396999995,None,915.0549396999995,None,915.0549396999995,None,915.0549396999995,None,None,None,916.4915707000182,None,,,,,,,,0.06770833333333333,-0.30859375,1,0,0,5.503590000036638,tijiao,,230,f,21,2023_Mar_20_1017,RL,2021.2.3,60.25058217147471,
1,-0.3,-0.225,0,68,68,68,,,,,,,,,,,,,,,None,None,None,None,None,918.0853700000443,None,918.0853700000443,None,918.0853700000443,None,918.0853700000443,None,j,0.3954049000167288,918.0853700000443,None,918.0853700000443,None,918.5207813000306,None,918.5207813000306,None,918.5207813000306,None,918.5207813000306,None,918.5207813000306,None,918.5207813000306,None,918.8148395000026,None,918.8148395000026,None,919.9956290000118,None,919.9956290000118,None,919.9956290000118,None,919.9956290000118,None,919.9956290000118,None,919.9956290000118,None,919.9956290000118,None,919.9956290000118,None,919.9956290000118,None,61,40,27,80,80,74,922.5146228999947,None,7.0,1.5071403000038117,922.5146228999947,None,922.5146228999947,None,922.5146228999947,None,922.5146228999947,None,,None,None,None,None,None,None,None,None,None,None,None,None,None,None,,None,None,None,None,0.6,2,None,None,None,None,None,None,None,None,None,None,None,None,,None,None,None,None,None,None,None,None,None,None,None,None,None,None,None,None,None,None,924.0887537000235,None,,,,,,,,,,,,,,,,230,f,21,2023_Mar_20_1017,RL,2021.2.3,60.25058217147471,
0,0.3,0.225,0,69,69,69,,,,,,,,,,,,,,,None,None,None,None,None,925.9067285000347,None,925.9067285000347,None,925.9067285000347,None,925.9067285000347,None,None,,925.9067285000347,None,925.9067285000347,None,None,None,None,None,None,None,None,None,None,None,None,None,None,None,None,None,None,None,None,None,None,None,None,None,None,None,None,None,None,None,None,None,None,None,62,50,22,80,0,**,None,None,None,None,None,None,None,None,None,None,None,None,,None,None,None,None,None,None,None,None,None,None,None,None,None,None,,None,None,None,None,0.6,2,None,None,None,None,None,None,None,None,None,None,None,None,,None,None,None,None,None,None,None,None,None,None,None,None,None,None,None,None,927.5085743000382,None,933.5084644000162,None,,,,,,,,,,,,,,,,230,f,21,2023_Mar_20_1017,RL,2021.2.3,60.25058217147471,
1,-0.3,-0.225,0,70,70,70,,,,,,,,,,,,,,,None,None,None,None,None,935.3803248000331,None,935.3803248000331,None,935.3803248000331,None,935.3803248000331,None,j,0.5109883000259288,935.3803248000331,None,935.3803248000331,None,935.9314115000307,None,935.9314115000307,None,935.9314115000307,None,935.9314115000307,None,935.9314115000307,None,935.9314115000307,None,936.2269416000345,937.0939603000297,936.2269416000345,937.0939603000297,937.1251296999981,None,937.1251296999981,None,937.1251296999981,None,937.1251296999981,None,937.1251296999981,None,937.1251296999981,None,937.1251296999981,None,937.1251296999981,None,937.1251296999981,None,61,37,16,73,73,50,None,None,None,None,None,None,None,None,None,None,None,None,,None,None,None,None,None,None,None,None,None,None,None,None,None,None,,None,None,None,None,0.2,1,939.6688475999981,None,939.6688475999981,None,939.6688475999981,None,939.6688475999981,None,939.6688475999981,None,939.6688475999981,None,73,939.6688475999981,None,939.6688475999981,None,0.0009852200164459646,None,10.934895833333332,2.4071089000208303,943.1124848999898,None,943.1124848999898,None,943.1124848999898,None,943.1124848999898,None,None,None,945.5326208000188,None,,,,,,,,0.037760416666666664,-0.2786458333333333,1,0,0,3.403613000002224,tijiao,,230,f,21,2023_Mar_20_1017,RL,2021.2.3,60.25058217147471,
0,0.3,0.225,0,71,71,71,,,,,,,,,,,,,,,None,None,None,None,None,947.2056768999901,None,947.2056768999901,None,947.2056768999901,None,947.2056768999901,None,j,0.6254411999834701,947.2056768999901,None,947.2056768999901,None,947.8748933000024,None,947.8748933000024,None,947.8748933000024,None,947.8748933000024,None,947.8748933000024,None,947.8748933000024,None,948.1685183999944,None,948.1685183999944,None,949.7005340000032,None,949.7005340000032,None,949.7005340000032,None,949.7005340000032,None,949.7005340000032,None,949.7005340000032,None,949.7005340000032,None,949.7005340000032,None,949.7005340000032,None,49,39,25,75,75,73,None,None,None,None,None,None,None,None,None,None,None,None,,None,None,None,None,None,None,None,None,None,None,None,None,None,None,,None,None,None,None,-0.6,1,952.2529442000086,None,952.2529442000086,None,952.2529442000086,None,952.2529442000086,None,952.2529442000086,None,952.2529442000086,None,11,952.2529442000086,None,952.2529442000086,None,0.010414260032121092,None,3.96875,2.2912516000214964,956.1703102000174,None,956.1703102000174,None,956.1703102000174,None,956.1703102000174,None,None,None,958.4751364000258,None,,,,,,,,-0.026041666666666668,-0.2604166666666667,1,0,0,3.8802334000356495,tijiao,,230,f,21,2023_Mar_20_1017,RL,2021.2.3,60.25058217147471,
1,-0.3,-0.225,0,72,72,72,,,,,,,,,,,,,,,None,None,None,None,None,960.4810939000454,None,960.4810939000454,None,960.4810939000454,None,960.4810939000454,None,j,0.26992320001590997,960.4810939000454,None,960.4810939000454,None,960.7998229000368,None,960.7998229000368,None,960.7998229000368,None,960.7998229000368,None,960.7998229000368,None,960.7998229000368,None,961.0943857000093,None,961.0943857000093,None,962.1982316999929,None,962.1982316999929,None,962.1982316999929,None,962.1982316999929,None,962.1982316999929,None,962.1982316999929,None,962.1982316999929,None,962.1982316999929,None,962.1982316999929,None,50,41,22,72,72,75,964.7100525000133,None,7.0,1.674097699986305,964.7100525000133,None,964.7100525000133,None,964.7100525000133,None,964.7100525000133,None,,None,None,None,None,None,None,None,None,None,None,None,None,None,None,,None,None,None,None,0.6,3,None,None,None,None,None,None,None,None,None,None,None,None,,None,None,None,None,None,None,None,None,None,None,None,None,None,None,None,None,None,None,966.4410226000473,None,,,,,,,,,,,,,,,,230,f,21,2023_Mar_20_1017,RL,2021.2.3,60.25058217147471,
0,0.3,0.225,0,73,73,73,,,,,,,,,,,,,,,None,None,None,None,None,968.00306800002,None,968.00306800002,None,968.00306800002,None,968.00306800002,None,j,0.8291977999615483,968.00306800002,None,968.00306800002,None,968.8732872999972,None,968.8732872999972,None,968.8732872999972,None,968.8732872999972,None,968.8732872999972,None,968.8732872999972,None,969.1663154000416,None,969.1663154000416,None,970.3296650000266,None,970.3296650000266,None,970.3296650000266,None,970.3296650000266,None,970.3296650000266,None,970.3296650000266,None,970.3296650000266,None,970.3296650000266,None,970.3296650000266,None,59,39,21,64,64,72,972.8500080000376,None,4.0,1.2556078999768943,972.8500080000376,None,972.8500080000376,None,972.8500080000376,None,972.8500080000376,None,,None,None,None,None,None,None,None,None,None,None,None,None,None,None,,None,None,None,None,-0.6,3,None,None,None,None,None,None,None,None,None,None,None,None,,None,None,None,None,None,None,None,None,None,None,None,None,None,None,None,None,None,None,974.1550887000049,None,,,,,,,,,,,,,,,,230,f,21,2023_Mar_20_1017,RL,2021.2.3,60.25058217147471,
1,-0.3,-0.225,0,74,74,74,,,,,,,,,,,,,,,None,None,None,None,None,976.0086186000262,None,976.0086186000262,None,976.0086186000262,None,976.0086186000262,None,j,0.6535665999981575,976.0086186000262,None,976.0086186000262,None,976.7088976000086,None,976.7088976000086,None,976.7088976000086,None,976.7088976000086,None,976.7088976000086,None,976.7088976000086,None,977.0050899999915,None,977.0050899999915,None,978.6716443999903,None,978.6716443999903,None,978.6716443999903,None,978.6716443999903,None,978.6716443999903,None,978.6716443999903,None,978.6716443999903,None,978.6716443999903,None,978.6716443999903,None,56,45,18,61,61,39,981.1949950000271,None,6.0,2.099325700022746,981.1949950000271,None,981.1949950000271,None,981.1949950000271,None,981.1949950000271,None,,None,None,None,None,None,None,None,None,None,None,None,None,None,None,,None,None,None,None,0.6,3,None,None,None,None,None,None,None,None,None,None,None,None,,None,None,None,None,None,None,None,None,None,None,None,None,None,None,None,None,None,None,983.3425631000428,None,,,,,,,,,,,,,,,,230,f,21,2023_Mar_20_1017,RL,2021.2.3,60.25058217147471,
0,0.3,0.225,0,75,75,75,,,,,,,,,,,,,,,985.0938678000239,None,q,985.0938678000239,None,1072.432749700034,None,1072.432749700034,None,1072.432749700034,None,1072.432749700034,None,j,0.9300017000059597,1072.432749700034,None,1072.432749700034,None,1073.4083847000147,None,1073.4083847000147,None,1073.4083847000147,None,1073.4083847000147,None,1073.4083847000147,None,1073.4083847000147,None,1073.7054927000427,1075.2732431000331,1073.7054927000427,1075.2732431000331,1075.304189699993,None,1075.304189699993,None,1075.304189699993,None,1075.304189699993,None,1075.304189699993,None,1075.304189699993,None,1075.304189699993,None,1075.304189699993,None,1075.304189699993,None,62,43,21,58,58,79,1077.8283332000137,None,3.0,2.0020031000021845,1077.8283332000137,None,1077.8283332000137,None,1077.8283332000137,None,1077.8283332000137,None,,None,None,None,None,None,None,None,None,None,None,None,None,None,None,,None,None,None,None,-0.2,2,None,None,None,None,None,None,None,None,None,None,None,None,,None,None,None,None,None,None,None,None,None,None,None,None,None,None,None,None,None,None,1079.8903105999925,None,,,,,,,,,,,,,,,87.30893609998748,230,f,21,2023_Mar_20_1017,RL,2021.2.3,60.25058217147471,
1,-0.3,-0.225,0,76,76,76,,,,,,,,,,,,,,,None,None,None,None,None,1081.8491856000037,None,1081.8491856000037,None,1081.8491856000037,None,1081.8491856000037,None,r,0.8838306000106968,1081.8491856000037,None,1081.8491856000037,None,1082.7839370000293,None,1082.7839370000293,None,1082.7839370000293,None,1082.7839370000293,None,1082.7839370000293,None,1082.7839370000293,None,1083.0787886999897,1084.7134202000452,1083.0787886999897,1084.7134202000452,1084.7458152000327,None,1084.7458152000327,None,1084.7458152000327,None,1084.7458152000327,None,1084.7458152000327,None,1084.7458152000327,None,1084.7458152000327,None,1084.7458152000327,None,1084.7458152000327,None,66,42,17,49,66,52,None,None,None,None,None,None,None,None,None,None,None,None,,None,None,None,None,None,None,None,None,None,None,None,None,None,None,,None,None,None,None,-0.2,1,1087.2868257000227,None,1087.2868257000227,None,1087.2868257000227,None,1087.2868257000227,None,1087.2868257000227,None,1087.2868257000227,None,30,1087.2868257000227,None,1087.2868257000227,None,0.0036560199805535376,None,3.942708333333334,1.8225249000242911,1090.7367448000005,None,1090.7367448000005,None,1090.7367448000005,None,1090.7367448000005,None,None,None,1092.5832303999923,None,,,,,,,,0.033854166666666664,-0.26953125,1,0,0,3.407327399996575,tijiao,,230,f,21,2023_Mar_20_1017,RL,2021.2.3,60.25058217147471,
0,0.3,0.225,0,77,77,77,,,,,,,,,,,,,,,None,None,None,None,None,1094.3409619000158,None,1094.3409619000158,None,1094.3409619000158,None,1094.3409619000158,None,i,0.7720903999870643,1094.3409619000158,None,1094.3409619000158,None,1095.1596304000122,None,1095.1596304000122,None,1095.1596304000122,None,1095.1596304000122,None,1095.1596304000122,None,1095.1596304000122,None,1095.4540428000037,None,1095.4540428000037,None,1096.953158600023,None,1096.953158600023,None,1096.953158600023,None,1096.953158600023,None,1096.953158600023,None,1096.953158600023,None,1096.953158600023,None,1096.953158600023,None,1096.953158600023,None,56,41,31,51,31,65,1099.4716909000417,None,3.0,1.6382372000371106,1099.4716909000417,None,1099.4716909000417,None,1099.4716909000417,None,1099.4716909000417,None,,None,None,None,None,None,None,None,None,None,None,None,None,None,None,,None,None,None,None,0.6,2,None,None,None,None,None,None,None,None,None,None,None,None,,None,None,None,None,None,None,None,None,None,None,None,None,None,None,None,None,None,None,1101.161915900011,None,,,,,,,,,,,,,,,,230,f,21,2023_Mar_20_1017,RL,2021.2.3,60.25058217147471,
1,-0.3,-0.225,0,78,78,78,,,,,,,,,,,,,,,None,None,None,None,None,1103.013669100008,None,1103.013669100008,None,1103.013669100008,None,1103.013669100008,None,j,0.35936890001175925,1103.013669100008,None,1103.013669100008,None,1103.416081000003,None,1103.416081000003,None,1103.416081000003,None,1103.416081000003,None,1103.416081000003,None,1103.416081000003,None,1103.7095985999913,1104.7607554999995,1103.7095985999913,1104.7607554999995,1104.7928483000142,None,1104.7928483000142,None,1104.7928483000142,None,1104.7928483000142,None,1104.7928483000142,None,1104.7928483000142,None,1104.7928483000142,None,1104.7928483000142,None,1104.7928483000142,None,62,47,20,61,61,70,None,None,None,None,None,None,None,None,None,None,None,None,61,1107.3249171000207,None,1107.3249171000207,None,1107.3249171000207,None,1107.3249171000207,None,1107.3249171000207,None,1107.3249171000207,None,1107.3249171000207,None,61,1107.3249171000207,None,0.013297619996592402,None,0.6,0,None,None,None,None,None,None,None,None,None,None,None,None,,None,None,None,None,None,None,4.893229166666667,2.2937740000197664,1113.0929304000456,None,1113.0929304000456,None,1113.0929304000456,None,1113.0929304000456,None,None,None,1115.4007924000034,None,0.12239583333333333,-0.3072916666666667,1,0,0,5.717855900002178,tijiao,,,,,,,,,230,f,21,2023_Mar_20_1017,RL,2021.2.3,60.25058217147471,
