bandit0,black_x_pos_random,black_y_pos_random,trials.thisRepN,trials.thisTrialN,trials.thisN,trials.thisIndex,instru_img1.started,instru_img1.stopped,instru_resp.keys,instru_resp.rt,instru_resp.started,instru_resp.stopped,instru_img2.started,instru_img2.stopped,instru_resp2.keys,instru_resp2.rt,instru_resp2.started,instru_resp2.stopped,fixbefore_2.started,fixbefore_2.stopped,rest_image.started,rest_image.stopped,rest_response.keys,rest_response.started,rest_response.stopped,red.started,red.stopped,green.started,green.stopped,yellow.started,yellow.stopped,blue.started,blue.stopped,choose_bandit.keys,choose_bandit.rt,choose_bandit.started,choose_bandit.stopped,Fixation.started,Fixation.stopped,black.started,black.stopped,red_2.started,red_2.stopped,green_2.started,green_2.stopped,yellow_2.started,yellow_2.stopped,blue_2.started,blue_2.stopped,fixation_2.started,fixation_2.stopped,docs.started,docs.stopped,wait_playerB.started,wait_playerB.stopped,black_com.started,black_com.stopped,reward_sub.started,reward_sub.stopped,palyerb.started,palyerb.stopped,reward__sub.started,reward__sub.stopped,compare.started,compare.stopped,red_compare.started,red_compare.stopped,green_com.started,green_com.stopped,yellow_com.started,yellow_com.stopped,blue_com.started,blue_com.stopped,rewardyellow,rewardred,rewardblue,rewardgreen,subchoose,playerb,image_3.started,image_3.stopped,slider.response,slider.rt,slider.started,slider.stopped,text.started,text.stopped,image_4.started,image_4.stopped,image_5.started,image_5.stopped,value_expect_self,expect_self_black.started,expect_self_black.stopped,expect_self.started,expect_self.stopped,expect_self_red.started,expect_self_red.stopped,expect_self_green.started,expect_self_green.stopped,expect_self_yellow.started,expect_self_yellow.stopped,expect_self_blue.started,expect_self_blue.stopped,tijiao.started,tijiao.stopped,expectself.text,expectself.started,expectself.stopped,tijiao_click.started,tijiao_click.stopped,random_whicharm,whether_ask,jiantou_random.started,jiantou_random.stopped,expect_red.started,expect_red.stopped,expect_green.started,expect_green.stopped,expect_yellow.started,expect_yellow.stopped,expect_blue.started,expect_blue.stopped,expect_random_2.started,expect_random_2.stopped,expect_random_3.text,expect_random_3.started,expect_random_3.stopped,tijiao_random_2.started,tijiao_random_2.stopped,tijiao_random.started,tijiao_random.stopped,slider_2.response,slider_2.rt,slider_2.started,slider_2.stopped,image_7.started,image_7.stopped,confi.started,confi.stopped,notconfi.started,notconfi.stopped,bigx.started,bigx.stopped,intertrialfix.started,intertrialfix.stopped,tijiao_click.x,tijiao_click.y,tijiao_click.leftButton,tijiao_click.midButton,tijiao_click.rightButton,tijiao_click.time,tijiao_click.clicked_name,tijiao_random.x,tijiao_random.y,tijiao_random.leftButton,tijiao_random.midButton,tijiao_random.rightButton,tijiao_random.time,tijiao_random.clicked_name,rest_response.rt,participant,Gender,Age,date,expName,psychopyVersion,frameRate
,,,,,,,24.8515074,None,space,7.0171897,24.8515074,None,,,,,,,,,,,,,,,,,,,,,,,,,,,,,,,,,,,,,,,,,,,,,,,,,,,,,,,,,,,,,,,,,,,,,,,,,,,,,,,,,,,,,,,,,,,,,,,,,,,,,,,,,,,,,,,,,,,,,,,,,,,,,,,,,,,,,,,,,,,,,,,,,,,,,,231,m,19,2023_Mar_21_0943,RL,2021.2.3,59.78794412
,,,,,,,,,,,,,31.8999325,None,s,28.6688806,31.8999325,None,,,,,,,,,,,,,,,,,,,,,,,,,,,,,,,,,,,,,,,,,,,,,,,,,,,,,,,,,,,,,,,,,,,,,,,,,,,,,,,,,,,,,,,,,,,,,,,,,,,,,,,,,,,,,,,,,,,,,,,,,,,,,,,,,,,,,,,,,,,,,,,,231,m,19,2023_Mar_21_0943,RL,2021.2.3,59.78794412
1,-0.3,-0.225,0,0,0,0,,,,,,,,,,,,,60.6001741,None,None,None,None,None,None,61.685586,None,61.685586,None,61.685586,None,61.685586,None,j,0.4833782,61.685586,None,61.685586,None,62.281067,None,62.281067,None,62.281067,None,62.281067,None,62.281067,None,62.281067,None,62.5748929,64.2095634,62.5748929,64.2095634,64.3016061,None,64.3016061,None,64.3016061,None,64.3016061,None,64.3016061,None,64.3016061,None,64.3016061,None,64.3016061,None,64.3016061,None,28,53,42,73,73,68,66.9390352,None,5,2.3838531,66.9390352,None,66.9390352,None,66.9390352,None,66.9390352,None,,None,None,None,None,None,None,None,None,None,None,None,None,None,None,,None,None,None,None,-0.2,2,None,None,None,None,None,None,None,None,None,None,None,None,,None,None,None,None,None,None,None,None,None,None,None,None,None,None,None,None,None,None,69.8834437,None,,,,,,,,,,,,,,,,231,m,19,2023_Mar_21_0943,RL,2021.2.3,59.78794412
0,0.3,0.225,0,1,1,1,,,,,,,,,,,,,,,None,None,None,None,None,71.7021573,None,71.7021573,None,71.7021573,None,71.7021573,None,r,0.6666184,71.7021573,None,71.7021573,None,72.4078623,None,72.4078623,None,72.4078623,None,72.4078623,None,72.4078623,None,72.4078623,None,72.6984771,None,72.6984771,None,73.850941,None,73.850941,None,73.850941,None,73.850941,None,73.850941,None,73.850941,None,73.850941,None,73.850941,None,73.850941,None,47,47,57,72,47,62,76.3662949,None,2,1.070901,76.3662949,None,76.3662949,None,76.3662949,None,76.3662949,None,,None,None,None,None,None,None,None,None,None,None,None,None,None,None,,None,None,None,None,0.2,2,None,None,None,None,None,None,None,None,None,None,None,None,,None,None,None,None,None,None,None,None,None,None,None,None,None,None,None,None,None,None,77.4852114,None,,,,,,,,,,,,,,,,231,m,19,2023_Mar_21_0943,RL,2021.2.3,59.78794412
1,-0.3,-0.225,0,2,2,2,,,,,,,,,,,,,,,None,None,None,None,None,79.3080241,None,79.3080241,None,79.3080241,None,79.3080241,None,j,0.5508539,79.3080241,None,79.3080241,None,79.9109127,None,79.9109127,None,79.9109127,None,79.9109127,None,79.9109127,None,79.9109127,None,80.1871686,81.9385227,80.1871686,81.9385227,81.9745498,None,81.9745498,None,81.9745498,None,81.9745498,None,81.9745498,None,81.9745498,None,81.9745498,None,81.9745498,None,81.9745498,None,49,60,61,82,82,59,84.494519,None,6,1.4837812,84.494519,None,84.494519,None,84.494519,None,84.494519,None,,None,None,None,None,None,None,None,None,None,None,None,None,None,None,,None,None,None,None,0.6,3,None,None,None,None,None,None,None,None,None,None,None,None,,None,None,None,None,None,None,None,None,None,None,None,None,None,None,None,None,None,None,86.0284301,None,,,,,,,,,,,,,,,,231,m,19,2023_Mar_21_0943,RL,2021.2.3,59.78794412
0,0.3,0.225,0,3,3,3,,,,,,,,,,,,,,,None,None,None,None,None,87.8963991,None,87.8963991,None,87.8963991,None,87.8963991,None,f,0.8627491,87.8963991,None,87.8963991,None,88.8061812,None,88.8061812,None,88.8061812,None,88.8061812,None,88.8061812,None,88.8061812,None,89.0771023,89.8940219,89.0771023,89.8940219,89.9261518,None,89.9261518,None,89.9261518,None,89.9261518,None,89.9261518,None,89.9261518,None,89.9261518,None,89.9261518,None,89.9261518,None,40,52,60,76,52,37,92.4489654,None,6,0.8978674,92.4489654,None,92.4489654,None,92.4489654,None,92.4489654,None,,None,None,None,None,None,None,None,None,None,None,None,None,None,None,,None,None,None,None,-0.2,2,None,None,None,None,None,None,None,None,None,None,None,None,,None,None,None,None,None,None,None,None,None,None,None,None,None,None,None,None,None,None,93.3981318,None,,,,,,,,,,,,,,,,231,m,19,2023_Mar_21_0943,RL,2021.2.3,59.78794412
1,-0.3,-0.225,0,4,4,4,,,,,,,,,,,,,,,None,None,None,None,None,95.101846,None,95.101846,None,95.101846,None,95.101846,None,i,0.4171324,95.101846,None,95.101846,None,95.5684441,None,95.5684441,None,95.5684441,None,95.5684441,None,95.5684441,None,95.5684441,None,95.8648634,None,95.8648634,None,97.4983585,None,97.4983585,None,97.4983585,None,97.4983585,None,97.4983585,None,97.4983585,None,97.4983585,None,97.4983585,None,97.4983585,None,46,63,61,80,61,32,100.0214956,None,7,1.6496157,100.0214956,None,100.0214956,None,100.0214956,None,100.0214956,None,,None,None,None,None,None,None,None,None,None,None,None,None,None,None,,None,None,None,None,-0.6,2,None,None,None,None,None,None,None,None,None,None,None,None,,None,None,None,None,None,None,None,None,None,None,None,None,None,None,None,None,None,None,101.718288,None,,,,,,,,,,,,,,,,231,m,19,2023_Mar_21_0943,RL,2021.2.3,59.78794412
0,0.3,0.225,0,5,5,5,,,,,,,,,,,,,,,None,None,None,None,None,103.5581014,None,103.5581014,None,103.5581014,None,103.5581014,None,f,0.4709307,103.5581014,None,103.5581014,None,104.0812748,None,104.0812748,None,104.0812748,None,104.0812748,None,104.0812748,None,104.0812748,None,104.3707498,105.4714933,104.3707498,105.4714933,105.5054206,None,105.5054206,None,105.5054206,None,105.5054206,None,105.5054206,None,105.5054206,None,105.5054206,None,105.5054206,None,105.5054206,None,45,63,66,82,63,56,108.0192301,None,6,1.7209213,108.0192301,None,108.0192301,None,108.0192301,None,108.0192301,None,,None,None,None,None,None,None,None,None,None,None,None,None,None,None,,None,None,None,None,-0.2,3,None,None,None,None,None,None,None,None,None,None,None,None,,None,None,None,None,None,None,None,None,None,None,None,None,None,None,None,None,None,None,109.7929701,None,,,,,,,,,,,,,,,,231,m,19,2023_Mar_21_0943,RL,2021.2.3,59.78794412
1,-0.3,-0.225,0,6,6,6,,,,,,,,,,,,,,,None,None,None,None,None,111.346826,None,111.346826,None,111.346826,None,111.346826,None,r,0.402297,111.346826,None,111.346826,None,111.7973256,None,111.7973256,None,111.7973256,None,111.7973256,None,111.7973256,None,111.7973256,None,112.0925425,None,112.0925425,None,113.4400053,None,113.4400053,None,113.4400053,None,113.4400053,None,113.4400053,None,113.4400053,None,113.4400053,None,113.4400053,None,113.4400053,None,37,65,56,74,37,44,115.9665391,None,3,0.5769391,115.9665391,None,115.9665391,None,115.9665391,None,115.9665391,None,,None,None,None,None,None,None,None,None,None,None,None,None,None,None,,None,None,None,None,0.2,3,None,None,None,None,None,None,None,None,None,None,None,None,,None,None,None,None,None,None,None,None,None,None,None,None,None,None,None,None,None,None,116.5945796,None,,,,,,,,,,,,,,,,231,m,19,2023_Mar_21_0943,RL,2021.2.3,59.78794412
0,0.3,0.225,0,7,7,7,,,,,,,,,,,,,,,None,None,None,None,None,118.3661217,None,118.3661217,None,118.3661217,None,118.3661217,None,j,0.5531613,118.3661217,None,118.3661217,None,118.9706766,None,118.9706766,None,118.9706766,None,118.9706766,None,118.9706766,None,118.9706766,None,119.2642542,120.3987825,119.2642542,120.3987825,120.4309525,None,120.4309525,None,120.4309525,None,120.4309525,None,120.4309525,None,120.4309525,None,120.4309525,None,120.4309525,None,120.4309525,None,45,58,53,77,77,66,None,None,None,None,None,None,None,None,None,None,None,None,80,123.0226337,None,123.0226337,None,123.0226337,None,123.0226337,None,123.0226337,None,123.0226337,None,123.0226337,None,80,123.0226337,None,0.01076672,None,-0.2,0,None,None,None,None,None,None,None,None,None,None,None,None,,None,None,None,None,None,None,7.979166667,1.7696247,128.5130718,None,128.5130718,None,128.5130718,None,128.5130718,None,None,None,130.2882117,None,0.122395833,-0.329427083,1,0,0,5.4157732,tijiao,,,,,,,,,231,m,19,2023_Mar_21_0943,RL,2021.2.3,59.78794412
1,-0.3,-0.225,0,8,8,8,,,,,,,,,,,,,,,None,None,None,None,None,131.8940638,None,131.8940638,None,131.8940638,None,131.8940638,None,r,0.7851974,131.8940638,None,131.8940638,None,132.7281884,None,132.7281884,None,132.7281884,None,132.7281884,None,132.7281884,None,132.7281884,None,133.0239389,None,133.0239389,None,134.9596723,None,134.9596723,None,134.9596723,None,134.9596723,None,134.9596723,None,134.9596723,None,134.9596723,None,134.9596723,None,134.9596723,None,52,51,52,74,52,73,137.4809703,None,3,2.1517703,137.4809703,None,137.4809703,None,137.4809703,None,137.4809703,None,,None,None,None,None,None,None,None,None,None,None,None,None,None,None,,None,None,None,None,0.2,3,None,None,None,None,None,None,None,None,None,None,None,None,,None,None,None,None,None,None,None,None,None,None,None,None,None,None,None,None,None,None,139.6831299,None,,,,,,,,,,,,,,,,231,m,19,2023_Mar_21_0943,RL,2021.2.3,59.78794412
0,0.3,0.225,0,9,9,9,,,,,,,,,,,,,,,None,None,None,None,None,141.3674566,None,141.3674566,None,141.3674566,None,141.3674566,None,f,0.7428876,141.3674566,None,141.3674566,None,142.1546009,None,142.1546009,None,142.1546009,None,142.1546009,None,142.1546009,None,142.1546009,None,142.4473095,144.1149281,142.4473095,144.1149281,144.1471565,None,144.1471565,None,144.1471565,None,144.1471565,None,144.1471565,None,144.1471565,None,144.1471565,None,144.1471565,None,144.1471565,None,54,62,51,69,62,51,None,None,None,None,None,None,None,None,None,None,None,None,,None,None,None,None,None,None,None,None,None,None,None,None,None,None,,None,None,None,None,-0.6,1,146.6947631,None,146.6947631,None,146.6947631,None,146.6947631,None,146.6947631,None,146.6947631,None,55,146.6947631,None,146.6947631,None,0.01445388,None,10.24479167,0.8683516,151.6046103,None,151.6046103,None,151.6046103,None,151.6046103,None,None,None,152.4867615,None,,,,,,,,0.108072917,-0.264322917,1,0,0,4.8522829,tijiao,,231,m,19,2023_Mar_21_0943,RL,2021.2.3,59.78794412
1,-0.3,-0.225,0,10,10,10,,,,,,,,,,,,,,,None,None,None,None,None,154.1428288,None,154.1428288,None,154.1428288,None,154.1428288,None,j,0.6676066,154.1428288,None,154.1428288,None,154.8610035,None,154.8610035,None,154.8610035,None,154.8610035,None,154.8610035,None,154.8610035,None,155.1554376,None,155.1554376,None,156.6889848,None,156.6889848,None,156.6889848,None,156.6889848,None,156.6889848,None,156.6889848,None,156.6889848,None,156.6889848,None,156.6889848,None,43,55,49,70,70,72,159.2132285,None,6,1.9021361,159.2132285,None,159.2132285,None,159.2132285,None,159.2132285,None,,None,None,None,None,None,None,None,None,None,None,None,None,None,None,,None,None,None,None,0.6,3,None,None,None,None,None,None,None,None,None,None,None,None,,None,None,None,None,None,None,None,None,None,None,None,None,None,None,None,None,None,None,161.1797633,None,,,,,,,,,,,,,,,,231,m,19,2023_Mar_21_0943,RL,2021.2.3,59.78794412
0,0.3,0.225,0,11,11,11,,,,,,,,,,,,,,,None,None,None,None,None,163.0990229,None,163.0990229,None,163.0990229,None,163.0990229,None,f,0.6515291,163.0990229,None,163.0990229,None,163.8008247,None,163.8008247,None,163.8008247,None,163.8008247,None,163.8008247,None,163.8008247,None,164.0954962,None,164.0954962,None,165.4256278,None,165.4256278,None,165.4256278,None,165.4256278,None,165.4256278,None,165.4256278,None,165.4256278,None,165.4256278,None,165.4256278,None,34,62,49,69,62,43,None,None,None,None,None,None,None,None,None,None,None,None,,None,None,None,None,None,None,None,None,None,None,None,None,None,None,,None,None,None,None,0.6,1,167.9750925,None,167.9750925,None,167.9750925,None,167.9750925,None,167.9750925,None,167.9750925,None,75,167.9750925,None,167.9750925,None,0.01477768,None,9.893229167,1.0614787,173.4430568,None,173.4430568,None,173.4430568,None,173.4430568,None,None,None,174.5186971,None,,,,,,,,0.2421875,-0.23046875,1,0,0,4.268552,tijiao,,231,m,19,2023_Mar_21_0943,RL,2021.2.3,59.78794412
1,-0.3,-0.225,0,12,12,12,,,,,,,,,,,,,,,None,None,None,None,None,176.0908537,None,176.0908537,None,176.0908537,None,176.0908537,None,i,1.0598347,176.0908537,None,176.0908537,None,177.1945865,None,177.1945865,None,177.1945865,None,177.1945865,None,177.1945865,None,177.1945865,None,177.4880217,None,177.4880217,None,178.4196899,None,178.4196899,None,178.4196899,None,178.4196899,None,178.4196899,None,178.4196899,None,178.4196899,None,178.4196899,None,178.4196899,None,35,56,53,69,53,67,180.9417878,None,3,2.3533059,180.9417878,None,180.9417878,None,180.9417878,None,180.9417878,None,,None,None,None,None,None,None,None,None,None,None,None,None,None,None,,None,None,None,None,0.2,3,None,None,None,None,None,None,None,None,None,None,None,None,,None,None,None,None,None,None,None,None,None,None,None,None,None,None,None,None,None,None,183.3483677,None,,,,,,,,,,,,,,,,231,m,19,2023_Mar_21_0943,RL,2021.2.3,59.78794412
0,0.3,0.225,0,13,13,13,,,,,,,,,,,,,,,None,None,None,None,None,185.0641718,None,185.0641718,None,185.0641718,None,185.0641718,None,j,0.5769923,185.0641718,None,185.0641718,None,185.6832866,None,185.6832866,None,185.6832866,None,185.6832866,None,185.6832866,None,185.6832866,None,185.9773206,None,185.9773206,None,187.8938419,None,187.8938419,None,187.8938419,None,187.8938419,None,187.8938419,None,187.8938419,None,187.8938419,None,187.8938419,None,187.8938419,None,41,68,55,68,68,61,None,None,None,None,None,None,None,None,None,None,None,None,,None,None,None,None,None,None,None,None,None,None,None,None,None,None,,None,None,None,None,0.2,1,190.4364287,None,190.4364287,None,190.4364287,None,190.4364287,None,190.4364287,None,190.4364287,None,65,190.4364287,None,190.4364287,None,0.00178116,None,4.8671875,1.0724567,199.4092588,None,199.4092588,None,199.4092588,None,199.4092588,None,None,None,200.5019888,None,,,,,,,,0.299479167,-0.291666667,1,0,0,7.5074973,tijiao,,231,m,19,2023_Mar_21_0943,RL,2021.2.3,59.78794412
1,-0.3,-0.225,0,14,14,14,,,,,,,,,,,,,,,None,None,None,None,None,202.2594139,None,202.2594139,None,202.2594139,None,202.2594139,None,j,0.8214472,202.2594139,None,202.2594139,None,203.126453,None,203.126453,None,203.126453,None,203.126453,None,203.126453,None,203.126453,None,203.4229582,None,203.4229582,None,205.271776,None,205.271776,None,205.271776,None,205.271776,None,205.271776,None,205.271776,None,205.271776,None,205.271776,None,205.271776,None,35,61,47,65,65,68,207.7964324,None,4,2.3184557,207.7964324,None,207.7964324,None,207.7964324,None,207.7964324,None,,None,None,None,None,None,None,None,None,None,None,None,None,None,None,,None,None,None,None,0.2,3,None,None,None,None,None,None,None,None,None,None,None,None,,None,None,None,None,None,None,None,None,None,None,None,None,None,None,None,None,None,None,210.1782226,None,,,,,,,,,,,,,,,,231,m,19,2023_Mar_21_0943,RL,2021.2.3,59.78794412
0,0.3,0.225,0,15,15,15,,,,,,,,,,,,,,,None,None,None,None,None,212.0330327,None,212.0330327,None,212.0330327,None,212.0330327,None,j,0.9178905,212.0330327,None,212.0330327,None,213.0030589,None,213.0030589,None,213.0030589,None,213.0030589,None,213.0030589,None,213.0030589,None,213.2964226,214.5307493,213.2964226,214.5307493,214.5622014,None,214.5622014,None,214.5622014,None,214.5622014,None,214.5622014,None,214.5622014,None,214.5622014,None,214.5622014,None,214.5622014,None,42,58,50,64,64,66,217.08537,None,4,1.554032,217.08537,None,217.08537,None,217.08537,None,217.08537,None,,None,None,None,None,None,None,None,None,None,None,None,None,None,None,,None,None,None,None,-0.6,3,None,None,None,None,None,None,None,None,None,None,None,None,,None,None,None,None,None,None,None,None,None,None,None,None,None,None,None,None,None,None,218.6875847,None,,,,,,,,,,,,,,,,231,m,19,2023_Mar_21_0943,RL,2021.2.3,59.78794412
1,-0.3,-0.225,0,16,16,16,,,,,,,,,,,,,,,None,None,None,None,None,220.3055344,None,220.3055344,None,220.3055344,None,220.3055344,None,f,0.595319,220.3055344,None,220.3055344,None,220.942119,None,220.942119,None,220.942119,None,220.942119,None,220.942119,None,220.942119,None,221.2350827,222.7864133,221.2350827,222.7864133,222.8229525,None,222.8229525,None,222.8229525,None,222.8229525,None,222.8229525,None,222.8229525,None,222.8229525,None,222.8229525,None,222.8229525,None,38,49,49,71,49,65,None,None,None,None,None,None,None,None,None,None,None,None,47,225.3662802,None,225.3662802,None,225.3662802,None,225.3662802,None,225.3662802,None,225.3662802,None,225.3662802,None,47,225.3662802,None,0.01314036,None,-0.2,0,None,None,None,None,None,None,None,None,None,None,None,None,,None,None,None,None,None,None,8.096354167,1.4246,234.2152465,None,234.2152465,None,234.2152465,None,234.2152465,None,None,None,235.6766016,None,0.1171875,-0.315104167,1,0,0,8.8036099,tijiao,,,,,,,,,231,m,19,2023_Mar_21_0943,RL,2021.2.3,59.78794412
0,0.3,0.225,0,17,17,17,,,,,,,,,,,,,,,None,None,None,None,None,237.2674169,None,237.2674169,None,237.2674169,None,237.2674169,None,i,0.5835482,237.2674169,None,237.2674169,None,237.9027431,None,237.9027431,None,237.9027431,None,237.9027431,None,237.9027431,None,237.9027431,None,238.1969596,None,238.1969596,None,239.4149053,None,239.4149053,None,239.4149053,None,239.4149053,None,239.4149053,None,239.4149053,None,239.4149053,None,239.4149053,None,239.4149053,None,38,46,50,68,50,69,241.9415011,None,3,1.3990251,241.9415011,None,241.9415011,None,241.9415011,None,241.9415011,None,,None,None,None,None,None,None,None,None,None,None,None,None,None,None,,None,None,None,None,-0.2,2,None,None,None,None,None,None,None,None,None,None,None,None,,None,None,None,None,None,None,None,None,None,None,None,None,None,None,None,None,None,None,243.4105076,None,,,,,,,,,,,,,,,,231,m,19,2023_Mar_21_0943,RL,2021.2.3,59.78794412
1,-0.3,-0.225,0,18,18,18,,,,,,,,,,,,,,,None,None,None,None,None,245.1391502,None,245.1391502,None,245.1391502,None,245.1391502,None,j,1.1518669,245.1391502,None,245.1391502,None,246.3389876,None,246.3389876,None,246.3389876,None,246.3389876,None,246.3389876,None,246.3389876,None,246.636082,None,246.636082,None,248.6544544,None,248.6544544,None,248.6544544,None,248.6544544,None,248.6544544,None,248.6544544,None,248.6544544,None,248.6544544,None,248.6544544,None,33,47,40,67,67,67,None,None,None,None,None,None,None,None,None,None,None,None,68,251.1895739,None,251.1895739,None,251.1895739,None,251.1895739,None,251.1895739,None,251.1895739,None,251.1895739,None,68,251.1895739,None,0.00809776,None,0.2,0,None,None,None,None,None,None,None,None,None,None,None,None,,None,None,None,None,None,None,10.83072917,2.4519073,254.5610606,None,254.5610606,None,254.5610606,None,254.5610606,None,None,None,257.0262307,None,-0.044270833,-0.287760417,1,0,0,3.3279104,tijiao,,,,,,,,,231,m,19,2023_Mar_21_0943,RL,2021.2.3,59.78794412
0,0.3,0.225,0,19,19,19,,,,,,,,,,,,,,,None,None,None,None,None,259.0327021,None,259.0327021,None,259.0327021,None,259.0327021,None,j,0.6484152,259.0327021,None,259.0327021,None,259.7354841,None,259.7354841,None,259.7354841,None,259.7354841,None,259.7354841,None,259.7354841,None,260.0285197,None,260.0285197,None,261.4783951,None,261.4783951,None,261.4783951,None,261.4783951,None,261.4783951,None,261.4783951,None,261.4783951,None,261.4783951,None,261.4783951,None,33,41,38,62,62,69,263.993726,None,6,1.5912858,263.993726,None,263.993726,None,263.993726,None,263.993726,None,,None,None,None,None,None,None,None,None,None,None,None,None,None,None,,None,None,None,None,0.2,2,None,None,None,None,None,None,None,None,None,None,None,None,,None,None,None,None,None,None,None,None,None,None,None,None,None,None,None,None,None,None,265.6497342,None,,,,,,,,,,,,,,,,231,m,19,2023_Mar_21_0943,RL,2021.2.3,59.78794412
1,-0.3,-0.225,0,20,20,20,,,,,,,,,,,,,,,None,None,None,None,None,267.2550447,None,267.2550447,None,267.2550447,None,267.2550447,None,j,0.7361111,267.2550447,None,267.2550447,None,268.0389637,None,268.0389637,None,268.0389637,None,268.0389637,None,268.0389637,None,268.0389637,None,268.3344684,None,268.3344684,None,270.1651838,None,270.1651838,None,270.1651838,None,270.1651838,None,270.1651838,None,270.1651838,None,270.1651838,None,270.1651838,None,270.1651838,None,31,47,44,60,60,61,None,None,None,None,None,None,None,None,None,None,None,None,59,272.6978067,None,272.6978067,None,272.6978067,None,272.6978067,None,272.6978067,None,272.6978067,None,272.6978067,None,59,272.6978067,None,0.01448416,None,0.2,0,None,None,None,None,None,None,None,None,None,None,None,None,,None,None,None,None,None,None,9.971354167,2.1626019,277.8797383,None,277.8797383,None,277.8797383,None,277.8797383,None,None,None,280.0591117,None,0.178385417,-0.26953125,1,0,0,5.1356446,tijiao,,,,,,,,,231,m,19,2023_Mar_21_0943,RL,2021.2.3,59.78794412
0,0.3,0.225,0,21,21,21,,,,,,,,,,,,,,,None,None,None,None,None,281.7976636,None,281.7976636,None,281.7976636,None,281.7976636,None,j,0.7836104,281.7976636,None,281.7976636,None,282.6329734,None,282.6329734,None,282.6329734,None,282.6329734,None,282.6329734,None,282.6329734,None,282.9280915,284.6127399,282.9280915,284.6127399,284.6458919,None,284.6458919,None,284.6458919,None,284.6458919,None,284.6458919,None,284.6458919,None,284.6458919,None,284.6458919,None,284.6458919,None,32,46,49,62,62,70,None,None,None,None,None,None,None,None,None,None,None,None,,None,None,None,None,None,None,None,None,None,None,None,None,None,None,,None,None,None,None,0.2,1,287.1891992,None,287.1891992,None,287.1891992,None,287.1891992,None,287.1891992,None,287.1891992,None,50,287.1891992,None,287.1891992,None,0.01636568,None,6.950520833,1.8621848,296.0273812,None,296.0273812,None,296.0273812,None,296.0273812,None,None,None,297.9044054,None,,,,,,,,0.194010417,-0.235677083,1,0,0,7.3385138,tijiao,,231,m,19,2023_Mar_21_0943,RL,2021.2.3,59.78794412
1,-0.3,-0.225,0,22,22,22,,,,,,,,,,,,,,,None,None,None,None,None,299.8773055,None,299.8773055,None,299.8773055,None,299.8773055,None,j,1.3041666,299.8773055,None,299.8773055,None,301.2287342,None,301.2287342,None,301.2287342,None,301.2287342,None,301.2287342,None,301.2287342,None,301.5244719,None,301.5244719,None,303.1880843,None,303.1880843,None,303.1880843,None,303.1880843,None,303.1880843,None,303.1880843,None,303.1880843,None,303.1880843,None,303.1880843,None,28,39,43,59,59,63,None,None,None,None,None,None,None,None,None,None,None,None,60,305.7253552,None,305.7253552,None,305.7253552,None,305.7253552,None,305.7253552,None,305.7253552,None,305.7253552,None,60,305.7253552,None,0.00971776,None,0.2,0,None,None,None,None,None,None,None,None,None,None,None,None,,None,None,None,None,None,None,6.065104167,1.7603563,310.2179838,None,310.2179838,None,310.2179838,None,310.2179838,None,None,None,311.9959725,None,0.087239583,-0.30078125,1,0,0,4.4474727,tijiao,,,,,,,,,231,m,19,2023_Mar_21_0943,RL,2021.2.3,59.78794412
0,0.3,0.225,0,23,23,23,,,,,,,,,,,,,,,None,None,None,None,None,313.7533503,None,313.7533503,None,313.7533503,None,313.7533503,None,j,0.9292786,313.7533503,None,313.7533503,None,314.7247442,None,314.7247442,None,314.7247442,None,314.7247442,None,314.7247442,None,314.7247442,None,315.01686,None,315.01686,None,316.7471057,None,316.7471057,None,316.7471057,None,316.7471057,None,316.7471057,None,316.7471057,None,316.7471057,None,316.7471057,None,316.7471057,None,45,48,48,69,69,64,None,None,None,None,None,None,None,None,None,None,None,None,,None,None,None,None,None,None,None,None,None,None,None,None,None,None,,None,None,None,None,0.6,1,319.3008139,None,319.3008139,None,319.3008139,None,319.3008139,None,319.3008139,None,319.3008139,None,72,319.3008139,None,319.3008139,None,0.01033118,None,10.03645833,1.4755441,322.9852106,None,322.9852106,None,322.9852106,None,322.9852106,None,None,None,324.4878694,None,,,,,,,,0.139322917,-0.287760417,1,0,0,3.6468408,tijiao,,231,m,19,2023_Mar_21_0943,RL,2021.2.3,59.78794412
1,-0.3,-0.225,0,24,24,24,,,,,,,,,,,,,,,None,None,None,None,None,326.362625,None,326.362625,None,326.362625,None,326.362625,None,j,0.6000014,326.362625,None,326.362625,None,327.0128697,None,327.0128697,None,327.0128697,None,327.0128697,None,327.0128697,None,327.0128697,None,327.3087912,328.8599089,327.3087912,328.8599089,328.8914837,None,328.8914837,None,328.8914837,None,328.8914837,None,328.8914837,None,328.8914837,None,328.8914837,None,328.8914837,None,328.8914837,None,40,41,52,63,63,68,None,None,None,None,None,None,None,None,None,None,None,None,57,331.4289277,None,331.4289277,None,331.4289277,None,331.4289277,None,331.4289277,None,331.4289277,None,331.4289277,None,57,331.4289277,None,0.00831606,None,-0.2,0,None,None,None,None,None,None,None,None,None,None,None,None,,None,None,None,None,None,None,8.018229167,2.2795978,338.9941603,None,338.9941603,None,338.9941603,None,338.9941603,None,None,None,341.299886,None,0.165364583,-0.295572917,1,0,0,7.5141056,tijiao,,,,,,,,,231,m,19,2023_Mar_21_0943,RL,2021.2.3,59.78794412
0,0.3,0.225,0,25,25,25,,,,,,,,,,,,,,,None,None,None,None,None,342.8073549,None,342.8073549,None,342.8073549,None,342.8073549,None,j,0.935332,342.8073549,None,342.8073549,None,343.794197,None,343.794197,None,343.794197,None,343.794197,None,343.794197,None,343.794197,None,344.0872234,345.4047034,344.0872234,345.4047034,345.4348255,None,345.4348255,None,345.4348255,None,345.4348255,None,345.4348255,None,345.4348255,None,345.4348255,None,345.4348255,None,345.4348255,None,42,41,46,63,63,73,347.9525115,None,3,1.6399567,347.9525115,None,347.9525115,None,347.9525115,None,347.9525115,None,,None,None,None,None,None,None,None,None,None,None,None,None,None,None,,None,None,None,None,-0.2,2,None,None,None,None,None,None,None,None,None,None,None,None,,None,None,None,None,None,None,None,None,None,None,None,None,None,None,None,None,None,None,349.6444935,None,,,,,,,,,,,,,,,,231,m,19,2023_Mar_21_0943,RL,2021.2.3,59.78794412
1,-0.3,-0.225,0,26,26,26,,,,,,,,,,,,,,,None,None,None,None,None,351.3956604,None,351.3956604,None,351.3956604,None,351.3956604,None,r,0.9171077,351.3956604,None,351.3956604,None,352.3643264,None,352.3643264,None,352.3643264,None,352.3643264,None,352.3643264,None,352.3643264,None,352.6598062,None,352.6598062,None,353.6548164,None,353.6548164,None,353.6548164,None,353.6548164,None,353.6548164,None,353.6548164,None,353.6548164,None,353.6548164,None,353.6548164,None,44,41,48,57,44,70,356.1829791,None,1,1.9828306,356.1829791,None,356.1829791,None,356.1829791,None,356.1829791,None,,None,None,None,None,None,None,None,None,None,None,None,None,None,None,,None,None,None,None,-0.6,3,None,None,None,None,None,None,None,None,None,None,None,None,,None,None,None,None,None,None,None,None,None,None,None,None,None,None,None,None,None,None,358.2148262,None,,,,,,,,,,,,,,,,231,m,19,2023_Mar_21_0943,RL,2021.2.3,59.78794412
0,0.3,0.225,0,27,27,27,,,,,,,,,,,,,,,None,None,None,None,None,360.2034881,None,360.2034881,None,360.2034881,None,360.2034881,None,j,0.5493441,360.2034881,None,360.2034881,None,360.8035211,None,360.8035211,None,360.8035211,None,360.8035211,None,360.8035211,None,360.8035211,None,361.0982657,362.1494439,361.0982657,362.1494439,362.1803684,None,362.1803684,None,362.1803684,None,362.1803684,None,362.1803684,None,362.1803684,None,362.1803684,None,362.1803684,None,362.1803684,None,34,50,45,56,56,61,None,None,None,None,None,None,None,None,None,None,None,None,62,364.7098751,None,364.7098751,None,364.7098751,None,364.7098751,None,364.7098751,None,364.7098751,None,364.7098751,None,62,364.7098751,None,0.01659286,None,0.2,0,None,None,None,None,None,None,None,None,None,None,None,None,,None,None,None,None,None,None,8.955729167,1.7169373,371.4602842,None,371.4602842,None,371.4602842,None,371.4602842,None,None,None,373.1963624,None,0.009114583,-0.404947917,1,0,0,5.9549001,tijiao,,,,,,,,,231,m,19,2023_Mar_21_0943,RL,2021.2.3,59.78794412
1,-0.3,-0.225,0,28,28,28,,,,,,,,,,,,,,,None,None,None,None,None,374.9629322,None,374.9629322,None,374.9629322,None,374.9629322,None,j,0.5402842,374.9629322,None,374.9629322,None,375.5479817,None,375.5479817,None,375.5479817,None,375.5479817,None,375.5479817,None,375.5479817,None,375.8424972,376.8766949,375.8424972,376.8766949,376.9099902,None,376.9099902,None,376.9099902,None,376.9099902,None,376.9099902,None,376.9099902,None,376.9099902,None,376.9099902,None,376.9099902,None,43,45,45,52,52,76,379.434056,None,1,2.3190199,379.434056,None,379.434056,None,379.434056,None,379.434056,None,,None,None,None,None,None,None,None,None,None,None,None,None,None,None,,None,None,None,None,0.2,2,None,None,None,None,None,None,None,None,None,None,None,None,,None,None,None,None,None,None,None,None,None,None,None,None,None,None,None,None,None,None,381.8104327,None,,,,,,,,,,,,,,,,231,m,19,2023_Mar_21_0943,RL,2021.2.3,59.78794412
0,0.3,0.225,0,29,29,29,,,,,,,,,,,,,,,None,None,None,None,None,383.7529799,None,383.7529799,None,383.7529799,None,383.7529799,None,None,,383.7529799,None,383.7529799,None,None,None,None,None,None,None,None,None,None,None,None,None,None,None,None,None,None,None,None,None,None,None,None,None,None,None,None,None,None,None,None,None,None,None,32,53,44,58,0,**,None,None,None,None,None,None,None,None,None,None,None,None,,None,None,None,None,None,None,None,None,None,None,None,None,None,None,,None,None,None,None,-0.6,0,None,None,None,None,None,None,None,None,None,None,None,None,,None,None,None,None,None,None,None,None,None,None,None,None,None,None,None,None,385.4888907,None,391.5033842,None,,,,,,,,,,,,,,,,231,m,19,2023_Mar_21_0943,RL,2021.2.3,59.78794412
1,-0.3,-0.225,0,30,30,30,,,,,,,,,,,,,,,None,None,None,None,None,393.2756095,None,393.2756095,None,393.2756095,None,393.2756095,None,f,0.6174369,393.2756095,None,393.2756095,None,393.9496137,None,393.9496137,None,393.9496137,None,393.9496137,None,393.9496137,None,393.9496137,None,394.2382998,395.1392715,394.2382998,395.1392715,395.1718505,None,395.1718505,None,395.1718505,None,395.1718505,None,395.1718505,None,395.1718505,None,395.1718505,None,395.1718505,None,395.1718505,None,36,35,33,60,35,61,None,None,None,None,None,None,None,None,None,None,None,None,,None,None,None,None,None,None,None,None,None,None,None,None,None,None,,None,None,None,None,0.2,1,397.7209119,None,397.7209119,None,397.7209119,None,397.7209119,None,397.7209119,None,397.7209119,None,45,397.7209119,None,397.7209119,None,0.01044378,None,4.90625,0.8459005,401.4335275,None,401.4335275,None,401.4335275,None,401.4335275,None,None,None,402.2935537,None,,,,,,,,-0.0703125,-0.309895833,1,0,0,3.6807725,tijiao,,231,m,19,2023_Mar_21_0943,RL,2021.2.3,59.78794412
0,0.3,0.225,0,31,31,31,,,,,,,,,,,,,,,None,None,None,None,None,404.0163724,None,404.0163724,None,404.0163724,None,404.0163724,None,i,0.8468854,404.0163724,None,404.0163724,None,404.9099295,None,404.9099295,None,404.9099295,None,404.9099295,None,404.9099295,None,404.9099295,None,405.1959929,406.2469115,405.1959929,406.2469115,406.2817799,None,406.2817799,None,406.2817799,None,406.2817799,None,406.2817799,None,406.2817799,None,406.2817799,None,406.2817799,None,406.2817799,None,39,48,48,59,48,64,None,None,None,None,None,None,None,None,None,None,None,None,49,408.8142709,None,408.8142709,None,408.8142709,None,408.8142709,None,408.8142709,None,408.8142709,None,408.8142709,None,49,408.8142709,None,0.00947246,None,-0.6,0,None,None,None,None,None,None,None,None,None,None,None,None,,None,None,None,None,None,None,8.942708333,1.2878524,412.9966311,None,412.9966311,None,412.9966311,None,412.9966311,None,None,None,414.3024476,None,0.041666667,-0.25,1,0,0,4.1296958,tijiao,,,,,,,,,231,m,19,2023_Mar_21_0943,RL,2021.2.3,59.78794412
1,-0.3,-0.225,0,32,32,32,,,,,,,,,,,,,,,None,None,None,None,None,415.9913144,None,415.9913144,None,415.9913144,None,415.9913144,None,j,0.4619217,415.9913144,None,415.9913144,None,416.498303,None,416.498303,None,416.498303,None,416.498303,None,416.498303,None,416.498303,None,416.7872569,418.0387166,416.7872569,418.0387166,418.0725309,None,418.0725309,None,418.0725309,None,418.0725309,None,418.0725309,None,418.0725309,None,418.0725309,None,418.0725309,None,418.0725309,None,32,52,42,65,65,70,420.5952257,None,2,2.1655482,420.5952257,None,420.5952257,None,420.5952257,None,420.5952257,None,,None,None,None,None,None,None,None,None,None,None,None,None,None,None,,None,None,None,None,-0.6,3,None,None,None,None,None,None,None,None,None,None,None,None,,None,None,None,None,None,None,None,None,None,None,None,None,None,None,None,None,None,None,422.8190959,None,,,,,,,,,,,,,,,,231,m,19,2023_Mar_21_0943,RL,2021.2.3,59.78794412
0,0.3,0.225,0,33,33,33,,,,,,,,,,,,,,,None,None,None,None,None,424.6146308,None,424.6146308,None,424.6146308,None,424.6146308,None,j,0.3686439,424.6146308,None,424.6146308,None,425.0304996,None,425.0304996,None,425.0304996,None,425.0304996,None,425.0304996,None,425.0304996,None,425.3270027,None,425.3270027,None,426.5975291,None,426.5975291,None,426.5975291,None,426.5975291,None,426.5975291,None,426.5975291,None,426.5975291,None,426.5975291,None,426.5975291,None,24,45,46,52,52,60,429.1261129,None,2,1.021831,429.1261129,None,429.1261129,None,429.1261129,None,429.1261129,None,,None,None,None,None,None,None,None,None,None,None,None,None,None,None,,None,None,None,None,0.6,3,None,None,None,None,None,None,None,None,None,None,None,None,,None,None,None,None,None,None,None,None,None,None,None,None,None,None,None,None,None,None,430.2095288,None,,,,,,,,,,,,,,,,231,m,19,2023_Mar_21_0943,RL,2021.2.3,59.78794412
1,-0.3,-0.225,0,34,34,34,,,,,,,,,,,,,,,None,None,None,None,None,431.7665047,None,431.7665047,None,431.7665047,None,431.7665047,None,j,0.4668293,431.7665047,None,431.7665047,None,432.276974,None,432.276974,None,432.276974,None,432.276974,None,432.276974,None,432.276974,None,432.5652912,None,432.5652912,None,434.4471676,None,434.4471676,None,434.4471676,None,434.4471676,None,434.4471676,None,434.4471676,None,434.4471676,None,434.4471676,None,434.4471676,None,27,58,30,56,56,64,None,None,None,None,None,None,None,None,None,None,None,None,62,436.9803001,None,436.9803001,None,436.9803001,None,436.9803001,None,436.9803001,None,436.9803001,None,436.9803001,None,62,436.9803001,None,0.01303496,None,0.2,0,None,None,None,None,None,None,None,None,None,None,None,None,,None,None,None,None,None,None,8.838541667,1.6348369,442.9431021,None,442.9431021,None,442.9431021,None,442.9431021,None,None,None,444.6048396,None,0.063802083,-0.309895833,1,0,0,5.9176375,tijiao,,,,,,,,,231,m,19,2023_Mar_21_0943,RL,2021.2.3,59.78794412
0,0.3,0.225,0,35,35,35,,,,,,,,,,,,,,,None,None,None,None,None,446.3789199,None,446.3789199,None,446.3789199,None,446.3789199,None,j,0.7845973,446.3789199,None,446.3789199,None,447.2174626,None,447.2174626,None,447.2174626,None,447.2174626,None,447.2174626,None,447.2174626,None,447.5088432,None,447.5088432,None,448.9227651,None,448.9227651,None,448.9227651,None,448.9227651,None,448.9227651,None,448.9227651,None,448.9227651,None,448.9227651,None,448.9227651,None,33,54,36,56,56,61,None,None,None,None,None,None,None,None,None,None,None,None,,None,None,None,None,None,None,None,None,None,None,None,None,None,None,,None,None,None,None,0.6,1,451.4861868,None,451.4861868,None,451.4861868,None,451.4861868,None,451.4861868,None,451.4861868,None,59,451.4861868,None,451.4861868,None,0.016586,None,8.864583333,1.8467163,455.7215391,None,455.7215391,None,455.7215391,None,455.7215391,None,None,None,457.5820501,None,,,,,,,,0.009114583,-0.348958333,1,0,0,4.2039369,tijiao,,231,m,19,2023_Mar_21_0943,RL,2021.2.3,59.78794412
1,-0.3,-0.225,0,36,36,36,,,,,,,,,,,,,,,None,None,None,None,None,459.571876,None,459.571876,None,459.571876,None,459.571876,None,j,0.5218113,459.571876,None,459.571876,None,460.1484992,None,460.1484992,None,460.1484992,None,460.1484992,None,460.1484992,None,460.1484992,None,460.4344965,461.2684139,460.4344965,461.2684139,461.3020376,None,461.3020376,None,461.3020376,None,461.3020376,None,461.3020376,None,461.3020376,None,461.3020376,None,461.3020376,None,461.3020376,None,32,63,36,55,55,46,None,None,None,None,None,None,None,None,None,None,None,None,,None,None,None,None,None,None,None,None,None,None,None,None,None,None,,None,None,None,None,0.6,1,463.8507427,None,463.8507427,None,463.8507427,None,463.8507427,None,463.8507427,None,463.8507427,None,53,463.8507427,None,463.8507427,None,0.01101438,None,10.03645833,1.7321895,468.0610298,None,468.0610298,None,468.0610298,None,468.0610298,None,None,None,469.8078205,None,,,,,,,,0.151041667,-0.278645833,1,0,0,4.1807258,tijiao,,231,m,19,2023_Mar_21_0943,RL,2021.2.3,59.78794412
0,0.3,0.225,0,37,37,37,,,,,,,,,,,,,,,None,None,None,None,None,471.7129636,None,471.7129636,None,471.7129636,None,471.7129636,None,j,0.4219736,471.7129636,None,471.7129636,None,472.1787965,None,472.1787965,None,472.1787965,None,472.1787965,None,472.1787965,None,472.1787965,None,472.4761889,473.743936,472.4761889,473.743936,473.7813937,None,473.7813937,None,473.7813937,None,473.7813937,None,473.7813937,None,473.7813937,None,473.7813937,None,473.7813937,None,473.7813937,None,34,59,41,47,47,52,476.2927551,None,3,3.8089602,476.2927551,None,476.2927551,None,476.2927551,None,476.2927551,None,,None,None,None,None,None,None,None,None,None,None,None,None,None,None,,None,None,None,None,-0.6,3,None,None,None,None,None,None,None,None,None,None,None,None,,None,None,None,None,None,None,None,None,None,None,None,None,None,None,None,None,None,None,480.1620335,None,,,,,,,,,,,,,,,,231,m,19,2023_Mar_21_0943,RL,2021.2.3,59.78794412
1,-0.3,-0.225,0,38,38,38,,,,,,,,,,,,,,,None,None,None,None,None,481.7038144,None,481.7038144,None,481.7038144,None,481.7038144,None,j,0.460794,481.7038144,None,481.7038144,None,482.2072253,None,482.2072253,None,482.2072253,None,482.2072253,None,482.2072253,None,482.2072253,None,482.4832638,484.0178609,482.4832638,484.0178609,484.0661545,None,484.0661545,None,484.0661545,None,484.0661545,None,484.0661545,None,484.0661545,None,484.0661545,None,484.0661545,None,484.0661545,None,31,68,45,55,55,53,486.5870288,None,5,2.5215782,486.5870288,None,486.5870288,None,486.5870288,None,486.5870288,None,,None,None,None,None,None,None,None,None,None,None,None,None,None,None,,None,None,None,None,-0.2,3,None,None,None,None,None,None,None,None,None,None,None,None,,None,None,None,None,None,None,None,None,None,None,None,None,None,None,None,None,None,None,489.159062,None,,,,,,,,,,,,,,,,231,m,19,2023_Mar_21_0943,RL,2021.2.3,59.78794412
0,0.3,0.225,0,39,39,39,,,,,,,,,,,,,,,None,None,None,None,None,491.1099269,None,491.1099269,None,491.1099269,None,491.1099269,None,j,0.5547104,491.1099269,None,491.1099269,None,491.7123273,None,491.7123273,None,491.7123273,None,491.7123273,None,491.7123273,None,491.7123273,None,492.0067208,None,492.0067208,None,493.2539403,None,493.2539403,None,493.2539403,None,493.2539403,None,493.2539403,None,493.2539403,None,493.2539403,None,493.2539403,None,493.2539403,None,32,68,38,52,52,61,495.78019,None,3,1.801037,495.78019,None,495.78019,None,495.78019,None,495.78019,None,,None,None,None,None,None,None,None,None,None,None,None,None,None,None,,None,None,None,None,0.6,2,None,None,None,None,None,None,None,None,None,None,None,None,,None,None,None,None,None,None,None,None,None,None,None,None,None,None,None,None,None,None,497.6299767,None,,,,,,,,,,,,,,,,231,m,19,2023_Mar_21_0943,RL,2021.2.3,59.78794412
1,-0.3,-0.225,0,40,40,40,,,,,,,,,,,,,,,None,None,None,None,None,499.2452785,None,499.2452785,None,499.2452785,None,499.2452785,None,i,0.5495608,499.2452785,None,499.2452785,None,499.8319024,None,499.8319024,None,499.8319024,None,499.8319024,None,499.8319024,None,499.8319024,None,500.1287496,501.5131452,500.1287496,501.5131452,501.545467,None,501.545467,None,501.545467,None,501.545467,None,501.545467,None,501.545467,None,501.545467,None,501.545467,None,501.545467,None,30,63,43,57,43,62,None,None,None,None,None,None,None,None,None,None,None,None,45,504.0826852,None,504.0826852,None,504.0826852,None,504.0826852,None,504.0826852,None,504.0826852,None,504.0826852,None,45,504.0826852,None,0.01069046,None,0.6,0,None,None,None,None,None,None,None,None,None,None,None,None,,None,None,None,None,None,None,8.682291667,1.5895356,507.484917,None,507.484917,None,507.484917,None,507.484917,None,None,None,509.099624,None,0.0234375,-0.34765625,1,0,0,3.3631069,tijiao,,,,,,,,,231,m,19,2023_Mar_21_0943,RL,2021.2.3,59.78794412
0,0.3,0.225,0,41,41,41,,,,,,,,,,,,,,,None,None,None,None,None,510.9241688,None,510.9241688,None,510.9241688,None,510.9241688,None,j,0.9706988,510.9241688,None,510.9241688,None,511.9415939,None,511.9415939,None,511.9415939,None,511.9415939,None,511.9415939,None,511.9415939,None,512.237289,513.0714325,512.237289,513.0714325,513.1047273,None,513.1047273,None,513.1047273,None,513.1047273,None,513.1047273,None,513.1047273,None,513.1047273,None,513.1047273,None,513.1047273,None,28,61,43,57,57,48,515.6213451,None,7,1.6225431,515.6213451,None,515.6213451,None,515.6213451,None,515.6213451,None,,None,None,None,None,None,None,None,None,None,None,None,None,None,None,,None,None,None,None,-0.6,2,None,None,None,None,None,None,None,None,None,None,None,None,,None,None,None,None,None,None,None,None,None,None,None,None,None,None,None,None,None,None,517.3045889,None,,,,,,,,,,,,,,,,231,m,19,2023_Mar_21_0943,RL,2021.2.3,59.78794412
1,-0.3,-0.225,0,42,42,42,,,,,,,,,,,,,,,None,None,None,None,None,518.8964507,None,518.8964507,None,518.8964507,None,518.8964507,None,j,0.3885086,518.8964507,None,518.8964507,None,519.3314863,None,519.3314863,None,519.3314863,None,519.3314863,None,519.3314863,None,519.3314863,None,519.6255555,None,519.6255555,None,521.1767155,None,521.1767155,None,521.1767155,None,521.1767155,None,521.1767155,None,521.1767155,None,521.1767155,None,521.1767155,None,521.1767155,None,32,59,35,65,65,52,523.6984776,None,7,1.6184711,523.6984776,None,523.6984776,None,523.6984776,None,523.6984776,None,,None,None,None,None,None,None,None,None,None,None,None,None,None,None,,None,None,None,None,0.6,3,None,None,None,None,None,None,None,None,None,None,None,None,,None,None,None,None,None,None,None,None,None,None,None,None,None,None,None,None,None,None,525.3707067,None,,,,,,,,,,,,,,,,231,m,19,2023_Mar_21_0943,RL,2021.2.3,59.78794412
0,0.3,0.225,0,43,43,43,,,,,,,,,,,,,,,None,None,None,None,None,527.0350986,None,527.0350986,None,527.0350986,None,527.0350986,None,j,0.459889,527.0350986,None,527.0350986,None,527.5384853,None,527.5384853,None,527.5384853,None,527.5384853,None,527.5384853,None,527.5384853,None,527.8312941,528.6486882,527.8312941,528.6486882,528.6822141,None,528.6822141,None,528.6822141,None,528.6822141,None,528.6822141,None,528.6822141,None,528.6822141,None,528.6822141,None,528.6822141,None,32,65,35,64,64,54,531.1964492,None,7,1.1895249,531.1964492,None,531.1964492,None,531.1964492,None,531.1964492,None,,None,None,None,None,None,None,None,None,None,None,None,None,None,None,,None,None,None,None,0.6,3,None,None,None,None,None,None,None,None,None,None,None,None,,None,None,None,None,None,None,None,None,None,None,None,None,None,None,None,None,None,None,532.4450453,None,,,,,,,,,,,,,,,,231,m,19,2023_Mar_21_0943,RL,2021.2.3,59.78794412
1,-0.3,-0.225,0,44,44,44,,,,,,,,,,,,,,,None,None,None,None,None,534.0564067,None,534.0564067,None,534.0564067,None,534.0564067,None,j,0.4390697,534.0564067,None,534.0564067,None,534.5437046,None,534.5437046,None,534.5437046,None,534.5437046,None,534.5437046,None,534.5437046,None,534.8361739,None,534.8361739,None,536.0032676,None,536.0032676,None,536.0032676,None,536.0032676,None,536.0032676,None,536.0032676,None,536.0032676,None,536.0032676,None,536.0032676,None,29,68,40,50,50,55,538.5260707,None,5,1.7680806,538.5260707,None,538.5260707,None,538.5260707,None,538.5260707,None,,None,None,None,None,None,None,None,None,None,None,None,None,None,None,,None,None,None,None,-0.6,2,None,None,None,None,None,None,None,None,None,None,None,None,,None,None,None,None,None,None,None,None,None,None,None,None,None,None,None,None,None,None,540.3399407,None,,,,,,,,,,,,,,,,231,m,19,2023_Mar_21_0943,RL,2021.2.3,59.78794412
0,0.3,0.225,0,45,45,45,,,,,,,,,,,,,,,None,None,None,None,None,541.9455353,None,541.9455353,None,541.9455353,None,541.9455353,None,None,,541.9455353,None,541.9455353,None,None,None,None,None,None,None,None,None,None,None,None,None,None,None,None,None,None,None,None,None,None,None,None,None,None,None,None,None,None,None,None,None,None,None,25,77,35,49,0,**,None,None,None,None,None,None,None,None,None,None,None,None,,None,None,None,None,None,None,None,None,None,None,None,None,None,None,,None,None,None,None,0.6,3,None,None,None,None,None,None,None,None,None,None,None,None,,None,None,None,None,None,None,None,None,None,None,None,None,None,None,None,None,543.5403423,None,549.5464994,None,,,,,,,,,,,,,,,,231,m,19,2023_Mar_21_0943,RL,2021.2.3,59.78794412
1,-0.3,-0.225,0,46,46,46,,,,,,,,,,,,,,,None,None,None,None,None,551.4186299,None,551.4186299,None,551.4186299,None,551.4186299,None,j,0.5765215,551.4186299,None,551.4186299,None,552.0392219,None,552.0392219,None,552.0392219,None,552.0392219,None,552.0392219,None,552.0392219,None,552.3316923,554.0330941,552.3316923,554.0330941,554.0664177,None,554.0664177,None,554.0664177,None,554.0664177,None,554.0664177,None,554.0664177,None,554.0664177,None,554.0664177,None,554.0664177,None,34,68,32,57,57,46,None,None,None,None,None,None,None,None,None,None,None,None,,None,None,None,None,None,None,None,None,None,None,None,None,None,None,,None,None,None,None,0.2,1,556.609128,None,556.609128,None,556.609128,None,556.609128,None,556.609128,None,556.609128,None,45,556.609128,None,556.609128,None,0.01641098,None,8.03125,2.9427243,562.0662534,None,562.0662534,None,562.0662534,None,562.0662534,None,None,None,565.0247289,None,,,,,,,,0.342447917,-0.23828125,1,0,0,3.669082,tijiao,,231,m,19,2023_Mar_21_0943,RL,2021.2.3,59.78794412
0,0.3,0.225,0,47,47,47,,,,,,,,,,,,,,,None,None,None,None,None,566.8126424,None,566.8126424,None,566.8126424,None,566.8126424,None,j,0.5727706,566.8126424,None,566.8126424,None,567.4330632,None,567.4330632,None,567.4330632,None,567.4330632,None,567.4330632,None,567.4330632,None,567.7257276,569.5937335,567.7257276,569.5937335,569.6273319,None,569.6273319,None,569.6273319,None,569.6273319,None,569.6273319,None,569.6273319,None,569.6273319,None,569.6273319,None,569.6273319,None,35,64,29,51,51,59,572.1422251,None,3,2.3242425,572.1422251,None,572.1422251,None,572.1422251,None,572.1422251,None,,None,None,None,None,None,None,None,None,None,None,None,None,None,None,,None,None,None,None,0.2,3,None,None,None,None,None,None,None,None,None,None,None,None,,None,None,None,None,None,None,None,None,None,None,None,None,None,None,None,None,None,None,574.5325179,None,,,,,,,,,,,,,,,,231,m,19,2023_Mar_21_0943,RL,2021.2.3,59.78794412
1,-0.3,-0.225,0,48,48,48,,,,,,,,,,,,,,,None,None,None,None,None,576.102472,None,576.102472,None,576.102472,None,576.102472,None,j,0.342856,576.102472,None,576.102472,None,576.4878307,None,576.4878307,None,576.4878307,None,576.4878307,None,576.4878307,None,576.4878307,None,576.7821428,None,576.7821428,None,578.7653142,None,578.7653142,None,578.7653142,None,578.7653142,None,578.7653142,None,578.7653142,None,578.7653142,None,578.7653142,None,578.7653142,None,34,69,33,56,56,43,581.2859297,None,5,1.9694267,581.2859297,None,581.2859297,None,581.2859297,None,581.2859297,None,,None,None,None,None,None,None,None,None,None,None,None,None,None,None,,None,None,None,None,0.2,2,None,None,None,None,None,None,None,None,None,None,None,None,,None,None,None,None,None,None,None,None,None,None,None,None,None,None,None,None,None,None,583.3033749,None,,,,,,,,,,,,,,,,231,m,19,2023_Mar_21_0943,RL,2021.2.3,59.78794412
0,0.3,0.225,0,49,49,49,,,,,,,,,,,,,,,None,None,None,None,None,584.8418319,None,584.8418319,None,584.8418319,None,584.8418319,None,j,0.4935866,584.8418319,None,584.8418319,None,585.3788861,None,585.3788861,None,585.3788861,None,585.3788861,None,585.3788861,None,585.3788861,None,585.6714951,587.4060414,585.6714951,587.4060414,587.4375476,None,587.4375476,None,587.4375476,None,587.4375476,None,587.4375476,None,587.4375476,None,587.4375476,None,587.4375476,None,587.4375476,None,41,68,28,60,60,64,589.9525721,None,2,1.8229592,589.9525721,None,589.9525721,None,589.9525721,None,589.9525721,None,,None,None,None,None,None,None,None,None,None,None,None,None,None,None,,None,None,None,None,0.6,2,None,None,None,None,None,None,None,None,None,None,None,None,,None,None,None,None,None,None,None,None,None,None,None,None,None,None,None,None,None,None,591.8305661,None,,,,,,,,,,,,,,,,231,m,19,2023_Mar_21_0943,RL,2021.2.3,59.78794412
1,-0.3,-0.225,0,50,50,50,,,,,,,,,,,,,,,None,None,None,None,None,593.7147049,None,593.7147049,None,593.7147049,None,593.7147049,None,j,0.4507396,593.7147049,None,593.7147049,None,594.2159322,None,594.2159322,None,594.2159322,None,594.2159322,None,594.2159322,None,594.2159322,None,594.5110297,595.8451951,594.5110297,595.8451951,595.8765277,None,595.8765277,None,595.8765277,None,595.8765277,None,595.8765277,None,595.8765277,None,595.8765277,None,595.8765277,None,595.8765277,None,42,67,32,62,62,61,None,None,None,None,None,None,None,None,None,None,None,None,,None,None,None,None,None,None,None,None,None,None,None,None,None,None,,None,None,None,None,-0.2,1,598.4187611,None,598.4187611,None,598.4187611,None,598.4187611,None,598.4187611,None,598.4187611,None,35,598.4187611,None,598.4187611,None,0.00402766,None,7.953125,1.1888876,602.6390611,None,602.6390611,None,602.6390611,None,602.6390611,None,None,None,603.8485339,None,,,,,,,,0.071614583,-0.302083333,1,0,0,4.1908459,tijiao,,231,m,19,2023_Mar_21_0943,RL,2021.2.3,59.78794412
0,0.3,0.225,0,51,51,51,,,,,,,,,,,,,,,None,None,None,None,None,605.4725919,None,605.4725919,None,605.4725919,None,605.4725919,None,j,0.5528983,605.4725919,None,605.4725919,None,606.0742213,None,606.0742213,None,606.0742213,None,606.0742213,None,606.0742213,None,606.0742213,None,606.3693476,607.186485,606.3693476,607.186485,607.2173965,None,607.2173965,None,607.2173965,None,607.2173965,None,607.2173965,None,607.2173965,None,607.2173965,None,607.2173965,None,607.2173965,None,51,64,40,58,58,40,609.7422144,None,6,2.034285,609.7422144,None,609.7422144,None,609.7422144,None,609.7422144,None,,None,None,None,None,None,None,None,None,None,None,None,None,None,None,,None,None,None,None,-0.2,3,None,None,None,None,None,None,None,None,None,None,None,None,,None,None,None,None,None,None,None,None,None,None,None,None,None,None,None,None,None,None,611.8266976,None,,,,,,,,,,,,,,,,231,m,19,2023_Mar_21_0943,RL,2021.2.3,59.78794412
1,-0.3,-0.225,0,52,52,52,,,,,,,,,,,,,,,None,None,None,None,None,613.7621376,None,613.7621376,None,613.7621376,None,613.7621376,None,j,0.4633314,613.7621376,None,613.7621376,None,614.2695327,None,614.2695327,None,614.2695327,None,614.2695327,None,614.2695327,None,614.2695327,None,614.5583402,616.5599061,614.5583402,616.5599061,616.5917296,None,616.5917296,None,616.5917296,None,616.5917296,None,616.5917296,None,616.5917296,None,616.5917296,None,616.5917296,None,616.5917296,None,40,65,35,74,74,68,619.108294,None,7,1.0230278,619.108294,None,619.108294,None,619.108294,None,619.108294,None,,None,None,None,None,None,None,None,None,None,None,None,None,None,None,,None,None,None,None,0.2,3,None,None,None,None,None,None,None,None,None,None,None,None,,None,None,None,None,None,None,None,None,None,None,None,None,None,None,None,None,None,None,620.1970294,None,,,,,,,,,,,,,,,,231,m,19,2023_Mar_21_0943,RL,2021.2.3,59.78794412
0,0.3,0.225,0,53,53,53,,,,,,,,,,,,,,,None,None,None,None,None,622.1679406,None,622.1679406,None,622.1679406,None,622.1679406,None,j,0.4977337,622.1679406,None,622.1679406,None,622.70171,None,622.70171,None,622.70171,None,622.70171,None,622.70171,None,622.70171,None,622.9975408,623.9314656,622.9975408,623.9314656,623.9620825,None,623.9620825,None,623.9620825,None,623.9620825,None,623.9620825,None,623.9620825,None,623.9620825,None,623.9620825,None,623.9620825,None,33,64,39,66,66,56,626.4849315,None,7,1.1515673,626.4849315,None,626.4849315,None,626.4849315,None,626.4849315,None,,None,None,None,None,None,None,None,None,None,None,None,None,None,None,,None,None,None,None,-0.6,2,None,None,None,None,None,None,None,None,None,None,None,None,,None,None,None,None,None,None,None,None,None,None,None,None,None,None,None,None,None,None,627.6864616,None,,,,,,,,,,,,,,,,231,m,19,2023_Mar_21_0943,RL,2021.2.3,59.78794412
1,-0.3,-0.225,0,54,54,54,,,,,,,,,,,,,,,None,None,None,None,None,629.3717042,None,629.3717042,None,629.3717042,None,629.3717042,None,j,0.803963,629.3717042,None,629.3717042,None,630.2240878,None,630.2240878,None,630.2240878,None,630.2240878,None,630.2240878,None,630.2240878,None,630.5194136,None,630.5194136,None,632.4995209,None,632.4995209,None,632.4995209,None,632.4995209,None,632.4995209,None,632.4995209,None,632.4995209,None,632.4995209,None,632.4995209,None,36,74,37,66,66,59,None,None,None,None,None,None,None,None,None,None,None,None,70,635.0376512,None,635.0376512,None,635.0376512,None,635.0376512,None,635.0376512,None,635.0376512,None,635.0376512,None,70,635.0376512,None,0.01023616,None,0.2,0,None,None,None,None,None,None,None,None,None,None,None,None,,None,None,None,None,None,None,9.880208333,1.2635946,640.9822046,None,640.9822046,None,640.9822046,None,640.9822046,None,None,None,642.2602986,None,0.16015625,-0.26953125,1,0,0,5.8985824,tijiao,,,,,,,,,231,m,19,2023_Mar_21_0943,RL,2021.2.3,59.78794412
0,0.3,0.225,0,55,55,55,,,,,,,,,,,,,,,None,None,None,None,None,643.8827671,None,643.8827671,None,643.8827671,None,643.8827671,None,j,0.5541476,643.8827671,None,643.8827671,None,644.4853855,None,644.4853855,None,644.4853855,None,644.4853855,None,644.4853855,None,644.4853855,None,644.7792474,None,644.7792474,None,646.7999111,None,646.7999111,None,646.7999111,None,646.7999111,None,646.7999111,None,646.7999111,None,646.7999111,None,646.7999111,None,646.7999111,None,31,80,37,71,71,54,None,None,None,None,None,None,None,None,None,None,None,None,66,649.3298981,None,649.3298981,None,649.3298981,None,649.3298981,None,649.3298981,None,649.3298981,None,649.3298981,None,66,649.3298981,None,0.01109946,None,0.6,0,None,None,None,None,None,None,None,None,None,None,None,None,,None,None,None,None,None,None,9.815104167,2.1582068,655.8776483,None,655.8776483,None,655.8776483,None,655.8776483,None,None,None,658.069693,None,0.149739583,-0.227864583,1,0,0,5.5488428,tijiao,,,,,,,,,231,m,19,2023_Mar_21_0943,RL,2021.2.3,59.78794412
1,-0.3,-0.225,0,56,56,56,,,,,,,,,,,,,,,None,None,None,None,None,659.5941014,None,659.5941014,None,659.5941014,None,659.5941014,None,j,0.5428519,659.5941014,None,659.5941014,None,660.1856041,None,660.1856041,None,660.1856041,None,660.1856041,None,660.1856041,None,660.1856041,None,660.4735245,661.6245582,660.4735245,661.6245582,661.6562851,None,661.6562851,None,661.6562851,None,661.6562851,None,661.6562851,None,661.6562851,None,661.6562851,None,661.6562851,None,661.6562851,None,36,80,42,69,69,56,None,None,None,None,None,None,None,None,None,None,None,None,,None,None,None,None,None,None,None,None,None,None,None,None,None,None,,None,None,None,None,0.2,1,664.2069313,None,664.2069313,None,664.2069313,None,664.2069313,None,664.2069313,None,664.2069313,None,50,664.2069313,None,664.2069313,None,0.01017058,None,7.067708333,1.3336075,670.9376844,None,670.9376844,None,670.9376844,None,670.9376844,None,None,None,672.2990166,None,,,,,,,,0.177083333,-0.2734375,1,0,0,6.6994752,tijiao,,231,m,19,2023_Mar_21_0943,RL,2021.2.3,59.78794412
0,0.3,0.225,0,57,57,57,,,,,,,,,,,,,,,None,None,None,None,None,674.1875041,None,674.1875041,None,674.1875041,None,674.1875041,None,j,0.4594374,674.1875041,None,674.1875041,None,674.6902131,None,674.6902131,None,674.6902131,None,674.6902131,None,674.6902131,None,674.6902131,None,674.9835616,None,674.9835616,None,676.8633416,None,676.8633416,None,676.8633416,None,676.8633416,None,676.8633416,None,676.8633416,None,676.8633416,None,676.8633416,None,676.8633416,None,31,82,40,74,74,59,None,None,None,None,None,None,None,None,None,None,None,None,69,679.3950634,None,679.3950634,None,679.3950634,None,679.3950634,None,679.3950634,None,679.3950634,None,679.3950634,None,69,679.3950634,None,9.39E-05,None,0.2,0,None,None,None,None,None,None,None,None,None,None,None,None,,None,None,None,None,None,None,7.888020833,1.9264403,687.3194995,None,687.3194995,None,687.3194995,None,687.3194995,None,None,None,689.2746179,None,0.115885417,-0.274739583,1,0,0,7.8731491,tijiao,,,,,,,,,231,m,19,2023_Mar_21_0943,RL,2021.2.3,59.78794412
1,-0.3,-0.225,0,58,58,58,,,,,,,,,,,,,,,None,None,None,None,None,691.0141874,None,691.0141874,None,691.0141874,None,691.0141874,None,j,0.3829511,691.0141874,None,691.0141874,None,691.4508065,None,691.4508065,None,691.4508065,None,691.4508065,None,691.4508065,None,691.4508065,None,691.7283903,693.0960916,691.7283903,693.0960916,693.1469874,None,693.1469874,None,693.1469874,None,693.1469874,None,693.1469874,None,693.1469874,None,693.1469874,None,693.1469874,None,693.1469874,None,44,85,38,67,67,59,695.6633489,None,6,2.006263,695.6633489,None,695.6633489,None,695.6633489,None,695.6633489,None,,None,None,None,None,None,None,None,None,None,None,None,None,None,None,,None,None,None,None,0.2,3,None,None,None,None,None,None,None,None,None,None,None,None,,None,None,None,None,None,None,None,None,None,None,None,None,None,None,None,None,None,None,697.7226971,None,,,,,,,,,,,,,,,,231,m,19,2023_Mar_21_0943,RL,2021.2.3,59.78794412
0,0.3,0.225,0,59,59,59,,,,,,,,,,,,,,,None,None,None,None,None,699.5553426,None,699.5553426,None,699.5553426,None,699.5553426,None,j,0.4021495,699.5553426,None,699.5553426,None,700.0067151,None,700.0067151,None,700.0067151,None,700.0067151,None,700.0067151,None,700.0067151,None,700.3013445,None,700.3013445,None,701.2142604,None,701.2142604,None,701.2142604,None,701.2142604,None,701.2142604,None,701.2142604,None,701.2142604,None,701.2142604,None,701.2142604,None,44,80,37,66,66,57,None,None,None,None,None,None,None,None,None,None,None,None,64,703.7507084,None,703.7507084,None,703.7507084,None,703.7507084,None,703.7507084,None,703.7507084,None,703.7507084,None,64,703.7507084,None,0.01026816,None,-0.6,0,None,None,None,None,None,None,None,None,None,None,None,None,,None,None,None,None,None,None,9.033854167,1.8881244,708.5321069,None,708.5321069,None,708.5321069,None,708.5321069,None,None,None,710.4393685,None,0.259114583,-0.354166667,1,0,0,3.930246,tijiao,,,,,,,,,231,m,19,2023_Mar_21_0943,RL,2021.2.3,59.78794412
1,-0.3,-0.225,0,60,60,60,,,,,,,,,,,,,,,None,None,None,None,None,712.1636579,None,712.1636579,None,712.1636579,None,712.1636579,None,j,0.3135683,712.1636579,None,712.1636579,None,712.5179069,None,712.5179069,None,712.5179069,None,712.5179069,None,712.5179069,None,712.5179069,None,712.8099141,713.6438603,712.8099141,713.6438603,713.6802749,None,713.6802749,None,713.6802749,None,713.6802749,None,713.6802749,None,713.6802749,None,713.6802749,None,713.6802749,None,713.6802749,None,32,76,33,66,66,60,716.2005275,None,6,1.433037,716.2005275,None,716.2005275,None,716.2005275,None,716.2005275,None,,None,None,None,None,None,None,None,None,None,None,None,None,None,None,,None,None,None,None,-0.6,2,None,None,None,None,None,None,None,None,None,None,None,None,,None,None,None,None,None,None,None,None,None,None,None,None,None,None,None,None,None,None,717.690849,None,,,,,,,,,,,,,,,,231,m,19,2023_Mar_21_0943,RL,2021.2.3,59.78794412
0,0.3,0.225,0,61,61,61,,,,,,,,,,,,,,,None,None,None,None,None,719.2190137,None,719.2190137,None,719.2190137,None,719.2190137,None,j,0.398296,719.2190137,None,719.2190137,None,719.6824236,None,719.6824236,None,719.6824236,None,719.6824236,None,719.6824236,None,719.6824236,None,719.981511,None,719.981511,None,721.3968011,None,721.3968011,None,721.3968011,None,721.3968011,None,721.3968011,None,721.3968011,None,721.3968011,None,721.3968011,None,721.3968011,None,38,77,34,60,60,53,723.9145842,None,7,2.2723149,723.9145842,None,723.9145842,None,723.9145842,None,723.9145842,None,,None,None,None,None,None,None,None,None,None,None,None,None,None,None,,None,None,None,None,0.2,3,None,None,None,None,None,None,None,None,None,None,None,None,,None,None,None,None,None,None,None,None,None,None,None,None,None,None,None,None,None,None,726.2585921,None,,,,,,,,,,,,,,,,231,m,19,2023_Mar_21_0943,RL,2021.2.3,59.78794412
1,-0.3,-0.225,0,62,62,62,,,,,,,,,,,,,,,None,None,None,None,None,728.2079401,None,728.2079401,None,728.2079401,None,728.2079401,None,j,0.4193839,728.2079401,None,728.2079401,None,728.6752748,None,728.6752748,None,728.6752748,None,728.6752748,None,728.6752748,None,728.6752748,None,728.9708961,None,728.9708961,None,729.821674,None,729.821674,None,729.821674,None,729.821674,None,729.821674,None,729.821674,None,729.821674,None,729.821674,None,729.821674,None,34,76,31,61,61,30,None,None,None,None,None,None,None,None,None,None,None,None,,None,None,None,None,None,None,None,None,None,None,None,None,None,None,,None,None,None,None,-0.2,1,732.3683386,None,732.3683386,None,732.3683386,None,732.3683386,None,732.3683386,None,732.3683386,None,30,732.3683386,None,732.3683386,None,0.01330098,None,10.0625,1.8426892,735.9011078,None,735.9011078,None,735.9011078,None,735.9011078,None,None,None,737.7582483,None,,,,,,,,0.123697917,-0.28125,1,0,0,3.4832101,tijiao,,231,m,19,2023_Mar_21_0943,RL,2021.2.3,59.78794412
0,0.3,0.225,0,63,63,63,,,,,,,,,,,,,,,None,None,None,None,None,739.3823366,None,739.3823366,None,739.3823366,None,739.3823366,None,j,0.3850479,739.3823366,None,739.3823366,None,739.8203101,None,739.8203101,None,739.8203101,None,739.8203101,None,739.8203101,None,739.8203101,None,740.112229,None,740.112229,None,741.6430349,None,741.6430349,None,741.6430349,None,741.6430349,None,741.6430349,None,741.6430349,None,741.6430349,None,741.6430349,None,741.6430349,None,43,74,35,56,56,37,744.1622626,None,6,2.0214806,744.1622626,None,744.1622626,None,744.1622626,None,744.1622626,None,,None,None,None,None,None,None,None,None,None,None,None,None,None,None,,None,None,None,None,-0.2,3,None,None,None,None,None,None,None,None,None,None,None,None,,None,None,None,None,None,None,None,None,None,None,None,None,None,None,None,None,None,None,746.2339941,None,,,,,,,,,,,,,,,,231,m,19,2023_Mar_21_0943,RL,2021.2.3,59.78794412
1,-0.3,-0.225,0,64,64,64,,,,,,,,,,,,,,,None,None,None,None,None,747.971642,None,747.971642,None,747.971642,None,747.971642,None,j,0.6058806,747.971642,None,747.971642,None,748.6240953,None,748.6240953,None,748.6240953,None,748.6240953,None,748.6240953,None,748.6240953,None,748.9181829,None,748.9181829,None,749.9165638,None,749.9165638,None,749.9165638,None,749.9165638,None,749.9165638,None,749.9165638,None,749.9165638,None,749.9165638,None,749.9165638,None,40,69,36,53,53,51,752.4426337,None,5,1.5319968,752.4426337,None,752.4426337,None,752.4426337,None,752.4426337,None,,None,None,None,None,None,None,None,None,None,None,None,None,None,None,,None,None,None,None,0.2,3,None,None,None,None,None,None,None,None,None,None,None,None,,None,None,None,None,None,None,None,None,None,None,None,None,None,None,None,None,None,None,754.0276603,None,,,,,,,,,,,,,,,,231,m,19,2023_Mar_21_0943,RL,2021.2.3,59.78794412
0,0.3,0.225,0,65,65,65,,,,,,,,,,,,,,,None,None,None,None,None,755.8773293,None,755.8773293,None,755.8773293,None,755.8773293,None,j,0.5201661,755.8773293,None,755.8773293,None,756.445454,None,756.445454,None,756.445454,None,756.445454,None,756.445454,None,756.445454,None,756.7401545,None,756.7401545,None,757.5874321,None,757.5874321,None,757.5874321,None,757.5874321,None,757.5874321,None,757.5874321,None,757.5874321,None,757.5874321,None,757.5874321,None,33,79,47,60,60,32,None,None,None,None,None,None,None,None,None,None,None,None,62,760.1261567,None,760.1261567,None,760.1261567,None,760.1261567,None,760.1261567,None,760.1261567,None,760.1261567,None,62,760.1261567,None,0.00807236,None,-0.2,0,None,None,None,None,None,None,None,None,None,None,None,None,,None,None,None,None,None,None,8.825520833,1.7305002,766.2199423,None,766.2199423,None,766.2199423,None,766.2199423,None,None,None,767.9792784,None,-0.006510417,-0.346354167,1,0,0,6.0472333,tijiao,,,,,,,,,231,m,19,2023_Mar_21_0943,RL,2021.2.3,59.78794412
1,-0.3,-0.225,0,66,66,66,,,,,,,,,,,,,,,None,None,None,None,None,769.8538916,None,769.8538916,None,769.8538916,None,769.8538916,None,j,0.513738,769.8538916,None,769.8538916,None,770.4073633,None,770.4073633,None,770.4073633,None,770.4073633,None,770.4073633,None,770.4073633,None,770.7000496,772.567957,770.7000496,772.567957,772.5997999,None,772.5997999,None,772.5997999,None,772.5997999,None,772.5997999,None,772.5997999,None,772.5997999,None,772.5997999,None,772.5997999,None,27,68,41,52,52,46,None,None,None,None,None,None,None,None,None,None,None,None,,None,None,None,None,None,None,None,None,None,None,None,None,None,None,,None,None,None,None,-0.6,1,775.1470248,None,775.1470248,None,775.1470248,None,775.1470248,None,775.1470248,None,775.1470248,None,37,775.1470248,None,775.1470248,None,0.01355438,None,6,1.7194421,780.8311961,None,780.8311961,None,780.8311961,None,780.8311961,None,None,None,782.5743179,None,,,,,,,,0.171875,-0.24609375,1,0,0,4.2506765,tijiao,,231,m,19,2023_Mar_21_0943,RL,2021.2.3,59.78794412
0,0.3,0.225,0,67,67,67,,,,,,,,,,,,,,,None,None,None,None,None,784.0760859,None,784.0760859,None,784.0760859,None,784.0760859,None,j,0.6618474,784.0760859,None,784.0760859,None,784.789165,None,784.789165,None,784.789165,None,784.789165,None,784.789165,None,784.789165,None,785.0767859,786.4609386,785.0767859,786.4609386,786.4917807,None,786.4917807,None,786.4917807,None,786.4917807,None,786.4917807,None,786.4917807,None,786.4917807,None,786.4917807,None,786.4917807,None,41,71,45,59,59,40,None,None,None,None,None,None,None,None,None,None,None,None,61,789.0227094,None,789.0227094,None,789.0227094,None,789.0227094,None,789.0227094,None,789.0227094,None,789.0227094,None,61,789.0227094,None,0.01499176,None,0.6,0,None,None,None,None,None,None,None,None,None,None,None,None,,None,None,None,None,None,None,9.971354167,1.1374776,793.4835197,None,793.4835197,None,793.4835197,None,793.4835197,None,None,None,794.6476512,None,-0.0078125,-0.252604167,1,0,0,4.4187551,tijiao,,,,,,,,,231,m,19,2023_Mar_21_0943,RL,2021.2.3,59.78794412
1,-0.3,-0.225,0,68,68,68,,,,,,,,,,,,,,,None,None,None,None,None,796.4723054,None,796.4723054,None,796.4723054,None,796.4723054,None,j,0.3258164,796.4723054,None,796.4723054,None,796.8408869,None,796.8408869,None,796.8408869,None,796.8408869,None,796.8408869,None,796.8408869,None,797.1350694,None,797.1350694,None,798.9340432,None,798.9340432,None,798.9340432,None,798.9340432,None,798.9340432,None,798.9340432,None,798.9340432,None,798.9340432,None,798.9340432,None,45,72,41,53,53,77,801.4511009,None,2,2.3254334,801.4511009,None,801.4511009,None,801.4511009,None,801.4511009,None,,None,None,None,None,None,None,None,None,None,None,None,None,None,None,,None,None,None,None,0.2,2,None,None,None,None,None,None,None,None,None,None,None,None,,None,None,None,None,None,None,None,None,None,None,None,None,None,None,None,None,None,None,803.8324891,None,,,,,,,,,,,,,,,,231,m,19,2023_Mar_21_0943,RL,2021.2.3,59.78794412
0,0.3,0.225,0,69,69,69,,,,,,,,,,,,,,,None,None,None,None,None,805.7444995,None,805.7444995,None,805.7444995,None,805.7444995,None,j,0.354569,805.7444995,None,805.7444995,None,806.1460138,None,806.1460138,None,806.1460138,None,806.1460138,None,806.1460138,None,806.1460138,None,806.4415608,None,806.4415608,None,807.4089232,None,807.4089232,None,807.4089232,None,807.4089232,None,807.4089232,None,807.4089232,None,807.4089232,None,807.4089232,None,807.4089232,None,30,69,39,46,46,51,None,None,None,None,None,None,None,None,None,None,None,None,,None,None,None,None,None,None,None,None,None,None,None,None,None,None,,None,None,None,None,0.6,1,809.9563619,None,809.9563619,None,809.9563619,None,809.9563619,None,809.9563619,None,809.9563619,None,47,809.9563619,None,809.9563619,None,0.01279718,None,9.2421875,1.000206,815.721024,None,815.721024,None,815.721024,None,815.721024,None,None,None,816.7481651,None,,,,,,,,-0.1875,-0.29296875,1,0,0,5.7341373,tijiao,,231,m,19,2023_Mar_21_0943,RL,2021.2.3,59.78794412
1,-0.3,-0.225,0,70,70,70,,,,,,,,,,,,,,,None,None,None,None,None,818.5542324,None,818.5542324,None,818.5542324,None,818.5542324,None,j,0.4548048,818.5542324,None,818.5542324,None,819.0582163,None,819.0582163,None,819.0582163,None,819.0582163,None,819.0582163,None,819.0582163,None,819.3338969,820.6682989,819.3338969,820.6682989,820.7009225,None,820.7009225,None,820.7009225,None,820.7009225,None,820.7009225,None,820.7009225,None,820.7009225,None,820.7009225,None,820.7009225,None,34,85,39,58,58,67,823.2201935,None,6,1.3379331,823.2201935,None,823.2201935,None,823.2201935,None,823.2201935,None,,None,None,None,None,None,None,None,None,None,None,None,None,None,None,,None,None,None,None,-0.6,2,None,None,None,None,None,None,None,None,None,None,None,None,,None,None,None,None,None,None,None,None,None,None,None,None,None,None,None,None,None,None,824.6088744,None,,,,,,,,,,,,,,,,231,m,19,2023_Mar_21_0943,RL,2021.2.3,59.78794412
0,0.3,0.225,0,71,71,71,,,,,,,,,,,,,,,None,None,None,None,None,826.2259758,None,826.2259758,None,826.2259758,None,826.2259758,None,j,0.4930107,826.2259758,None,826.2259758,None,826.7601712,None,826.7601712,None,826.7601712,None,826.7601712,None,826.7601712,None,826.7601712,None,827.0558145,None,827.0558145,None,828.0215498,None,828.0215498,None,828.0215498,None,828.0215498,None,828.0215498,None,828.0215498,None,828.0215498,None,828.0215498,None,828.0215498,None,31,66,41,53,53,58,830.5428883,None,3,1.7536277,830.5428883,None,830.5428883,None,830.5428883,None,830.5428883,None,,None,None,None,None,None,None,None,None,None,None,None,None,None,None,,None,None,None,None,0.6,2,None,None,None,None,None,None,None,None,None,None,None,None,,None,None,None,None,None,None,None,None,None,None,None,None,None,None,None,None,None,None,832.3606629,None,,,,,,,,,,,,,,,,231,m,19,2023_Mar_21_0943,RL,2021.2.3,59.78794412
1,-0.3,-0.225,0,72,72,72,,,,,,,,,,,,,,,None,None,None,None,None,834.0313931,None,834.0313931,None,834.0313931,None,834.0313931,None,j,0.3576782,834.0313931,None,834.0313931,None,834.4334326,None,834.4334326,None,834.4334326,None,834.4334326,None,834.4334326,None,834.4334326,None,834.7280875,835.9953195,834.7280875,835.9953195,836.0280123,None,836.0280123,None,836.0280123,None,836.0280123,None,836.0280123,None,836.0280123,None,836.0280123,None,836.0280123,None,836.0280123,None,36,71,42,48,48,69,838.5459145,None,1,2.5063338,838.5459145,None,838.5459145,None,838.5459145,None,838.5459145,None,,None,None,None,None,None,None,None,None,None,None,None,None,None,None,,None,None,None,None,-0.2,2,None,None,None,None,None,None,None,None,None,None,None,None,,None,None,None,None,None,None,None,None,None,None,None,None,None,None,None,None,None,None,841.1119329,None,,,,,,,,,,,,,,,,231,m,19,2023_Mar_21_0943,RL,2021.2.3,59.78794412
0,0.3,0.225,0,73,73,73,,,,,,,,,,,,,,,None,None,None,None,None,842.7043813,None,842.7043813,None,842.7043813,None,842.7043813,None,j,0.3552768,842.7043813,None,842.7043813,None,843.1062349,None,843.1062349,None,843.1062349,None,843.1062349,None,843.1062349,None,843.1062349,None,843.4003452,None,843.4003452,None,844.4498984,None,844.4498984,None,844.4498984,None,844.4498984,None,844.4498984,None,844.4498984,None,844.4498984,None,844.4498984,None,844.4498984,None,33,72,38,52,52,75,None,None,None,None,None,None,None,None,None,None,None,None,60,846.9817289,None,846.9817289,None,846.9817289,None,846.9817289,None,846.9817289,None,846.9817289,None,846.9817289,None,60,846.9817289,None,0.01240726,None,0.6,0,None,None,None,None,None,None,None,None,None,None,None,None,,None,None,None,None,None,None,5.088541667,0.9362768,851.224892,None,851.224892,None,851.224892,None,851.224892,None,None,None,852.1742821,None,-0.046875,-0.311197917,1,0,0,4.1997072,tijiao,,,,,,,,,231,m,19,2023_Mar_21_0943,RL,2021.2.3,59.78794412
1,-0.3,-0.225,0,74,74,74,,,,,,,,,,,,,,,None,None,None,None,None,854.1120486,None,854.1120486,None,854.1120486,None,854.1120486,None,j,0.3373016,854.1120486,None,854.1120486,None,854.4974436,None,854.4974436,None,854.4974436,None,854.4974436,None,854.4974436,None,854.4974436,None,854.7918764,None,854.7918764,None,855.7067719,None,855.7067719,None,855.7067719,None,855.7067719,None,855.7067719,None,855.7067719,None,855.7067719,None,855.7067719,None,855.7067719,None,31,72,32,51,51,64,858.2322505,None,2,1.9676351,858.2322505,None,858.2322505,None,858.2322505,None,858.2322505,None,,None,None,None,None,None,None,None,None,None,None,None,None,None,None,,None,None,None,None,-0.6,2,None,None,None,None,None,None,None,None,None,None,None,None,,None,None,None,None,None,None,None,None,None,None,None,None,None,None,None,None,None,None,860.2632803,None,,,,,,,,,,,,,,,,231,m,19,2023_Mar_21_0943,RL,2021.2.3,59.78794412
0,0.3,0.225,0,75,75,75,,,,,,,,,,,,,,,861.913488,None,q,861.913488,None,937.2801549,None,937.2801549,None,937.2801549,None,937.2801549,None,j,0.9009363,937.2801549,None,937.2801549,None,938.2284597,None,938.2284597,None,938.2284597,None,938.2284597,None,938.2284597,None,938.2284597,None,938.5165509,None,938.5165509,None,940.2820544,None,940.2820544,None,940.2820544,None,940.2820544,None,940.2820544,None,940.2820544,None,940.2820544,None,940.2820544,None,940.2820544,None,25,68,40,54,54,47,None,None,None,None,None,None,None,None,None,None,None,None,55,942.8195117,None,942.8195117,None,942.8195117,None,942.8195117,None,942.8195117,None,942.8195117,None,942.8195117,None,55,942.8195117,None,0.00855526,None,0.6,0,None,None,None,None,None,None,None,None,None,None,None,None,,None,None,None,None,None,None,7.809895833,2.367793,950.7955472,None,950.7955472,None,950.7955472,None,950.7955472,None,None,None,953.1762312,None,-0.09375,-0.278645833,1,0,0,7.9313732,tijiao,,,,,,,,75.2904547,231,m,19,2023_Mar_21_0943,RL,2021.2.3,59.78794412
1,-0.3,-0.225,0,76,76,76,,,,,,,,,,,,,,,None,None,None,None,None,954.6822333,None,954.6822333,None,954.6822333,None,954.6822333,None,i,0.4187501,954.6822333,None,954.6822333,None,955.1491944,None,955.1491944,None,955.1491944,None,955.1491944,None,955.1491944,None,955.1491944,None,955.4449471,None,955.4449471,None,956.4763288,None,956.4763288,None,956.4763288,None,956.4763288,None,956.4763288,None,956.4763288,None,956.4763288,None,956.4763288,None,956.4763288,None,29,78,47,56,47,44,959.002744,None,4,1.7490763,959.002744,None,959.002744,None,959.002744,None,959.002744,None,,None,None,None,None,None,None,None,None,None,None,None,None,None,None,,None,None,None,None,0.2,3,None,None,None,None,None,None,None,None,None,None,None,None,,None,None,None,None,None,None,None,None,None,None,None,None,None,None,None,None,None,None,960.8247776,None,,,,,,,,,,,,,,,,231,m,19,2023_Mar_21_0943,RL,2021.2.3,59.78794412
0,0.3,0.225,0,77,77,77,,,,,,,,,,,,,,,None,None,None,None,None,962.7376179,None,962.7376179,None,962.7376179,None,962.7376179,None,r,0.4132988,962.7376179,None,962.7376179,None,963.1888324,None,963.1888324,None,963.1888324,None,963.1888324,None,963.1888324,None,963.1888324,None,963.4838356,None,963.4838356,None,964.4164838,None,964.4164838,None,964.4164838,None,964.4164838,None,964.4164838,None,964.4164838,None,964.4164838,None,964.4164838,None,964.4164838,None,34,68,47,48,34,62,966.9325029,None,2,2.0394113,966.9325029,None,966.9325029,None,966.9325029,None,966.9325029,None,,None,None,None,None,None,None,None,None,None,None,None,None,None,None,,None,None,None,None,-0.6,3,None,None,None,None,None,None,None,None,None,None,None,None,,None,None,None,None,None,None,None,None,None,None,None,None,None,None,None,None,None,None,969.0271334,None,,,,,,,,,,,,,,,,231,m,19,2023_Mar_21_0943,RL,2021.2.3,59.78794412
1,-0.3,-0.225,0,78,78,78,,,,,,,,,,,,,,,None,None,None,None,None,970.7266141,None,970.7266141,None,970.7266141,None,970.7266141,None,f,0.6244476,970.7266141,None,970.7266141,None,971.3945607,None,971.3945607,None,971.3945607,None,971.3945607,None,971.3945607,None,971.3945607,None,971.6897944,972.7737265,971.6897944,972.7737265,972.8050758,None,972.8050758,None,972.8050758,None,972.8050758,None,972.8050758,None,972.8050758,None,972.8050758,None,972.8050758,None,972.8050758,None,44,77,39,37,77,63,975.3215165,None,6,1.607451,975.3215165,None,975.3215165,None,975.3215165,None,975.3215165,None,,None,None,None,None,None,None,None,None,None,None,None,None,None,None,,None,None,None,None,0.6,3,None,None,None,None,None,None,None,None,None,None,None,None,,None,None,None,None,None,None,None,None,None,None,None,None,None,None,None,None,None,None,976.978902,None,,,,,,,,,,,,,,,,231,m,19,2023_Mar_21_0943,RL,2021.2.3,59.78794412
0,0.3,0.225,0,79,79,79,,,,,,,,,,,,,,,None,None,None,None,None,978.5157039,None,978.5157039,None,978.5157039,None,978.5157039,None,f,0.3753326,978.5157039,None,978.5157039,None,978.9324786,None,978.9324786,None,978.9324786,None,978.9324786,None,978.9324786,None,978.9324786,None,979.2281149,None,979.2281149,None,980.4080618,None,980.4080618,None,980.4080618,None,980.4080618,None,980.4080618,None,980.4080618,None,980.4080618,None,980.4080618,None,980.4080618,None,38,72,35,49,72,71,None,None,None,None,None,None,None,None,None,None,None,None,73,982.9416828,None,982.9416828,None,982.9416828,None,982.9416828,None,982.9416828,None,982.9416828,None,982.9416828,None,73,982.9416828,None,0.01403776,None,0.2,0,None,None,None,None,None,None,None,None,None,None,None,None,,None,None,None,None,None,None,10.07552083,1.6419807,987.3529544,None,987.3529544,None,987.3529544,None,987.3529544,None,None,None,989.034167,None,0.046875,-0.240885417,1,0,0,3.4834615,tijiao,,,,,,,,,231,m,19,2023_Mar_21_0943,RL,2021.2.3,59.78794412
1,-0.3,-0.225,0,80,80,80,,,,,,,,,,,,,,,None,None,None,None,None,990.7737887,None,990.7737887,None,990.7737887,None,990.7737887,None,f,0.3673259,990.7737887,None,990.7737887,None,991.1953523,None,991.1953523,None,991.1953523,None,991.1953523,None,991.1953523,None,991.1953523,None,991.4867777,None,991.4867777,None,993.401282,None,993.401282,None,993.401282,None,993.401282,None,993.401282,None,993.401282,None,993.401282,None,993.401282,None,993.401282,None,44,68,43,52,68,52,995.926988,None,6,2.3166474,995.926988,None,995.926988,None,995.926988,None,995.926988,None,,None,None,None,None,None,None,None,None,None,None,None,None,None,None,,None,None,None,None,0.2,3,None,None,None,None,None,None,None,None,None,None,None,None,,None,None,None,None,None,None,None,None,None,None,None,None,None,None,None,None,None,None,998.2958476,None,,,,,,,,,,,,,,,,231,m,19,2023_Mar_21_0943,RL,2021.2.3,59.78794412
0,0.3,0.225,0,81,81,81,,,,,,,,,,,,,,,None,None,None,None,None,1000.11364,None,1000.11364,None,1000.11364,None,1000.11364,None,f,0.5577448,1000.11364,None,1000.11364,None,1000.722756,None,1000.722756,None,1000.722756,None,1000.722756,None,1000.722756,None,1000.722756,None,1001.010016,1002.444325,1001.010016,1002.444325,1002.47524,None,1002.47524,None,1002.47524,None,1002.47524,None,1002.47524,None,1002.47524,None,1002.47524,None,1002.47524,None,1002.47524,None,35,82,48,52,82,43,None,None,None,None,None,None,None,None,None,None,None,None,75,1005.004015,None,1005.004015,None,1005.004015,None,1005.004015,None,1005.004015,None,1005.004015,None,1005.004015,None,75,1005.004015,None,0.00052044,None,0.6,0,None,None,None,None,None,None,None,None,None,None,None,None,,None,None,None,None,None,None,8.96875,1.790732,1010.618665,None,1010.618665,None,1010.618665,None,1010.618665,None,None,None,1012.43225,None,0.18359375,-0.287760417,1,0,0,5.5715346,tijiao,,,,,,,,,231,m,19,2023_Mar_21_0943,RL,2021.2.3,59.78794412
1,-0.3,-0.225,0,82,82,82,,,,,,,,,,,,,,,None,None,None,None,None,1014.006878,None,1014.006878,None,1014.006878,None,1014.006878,None,f,0.3255609,1014.006878,None,1014.006878,None,1014.376195,None,1014.376195,None,1014.376195,None,1014.376195,None,1014.376195,None,1014.376195,None,1014.669669,1016.503901,1014.669669,1016.503901,1016.538085,None,1016.538085,None,1016.538085,None,1016.538085,None,1016.538085,None,1016.538085,None,1016.538085,None,1016.538085,None,1016.538085,None,28,72,40,52,72,76,1019.043237,None,5,1.751302,1019.043237,None,1019.043237,None,1019.043237,None,1019.043237,None,,None,None,None,None,None,None,None,None,None,None,None,None,None,None,,None,None,None,None,-0.2,2,None,None,None,None,None,None,None,None,None,None,None,None,,None,None,None,None,None,None,None,None,None,None,None,None,None,None,None,None,None,None,1020.861164,None,,,,,,,,,,,,,,,,231,m,19,2023_Mar_21_0943,RL,2021.2.3,59.78794412
0,0.3,0.225,0,83,83,83,,,,,,,,,,,,,,,None,None,None,None,None,1022.479394,None,1022.479394,None,1022.479394,None,1022.479394,None,f,0.3329814,1022.479394,None,1022.479394,None,1022.862193,None,1022.862193,None,1022.862193,None,1022.862193,None,1022.862193,None,1022.862193,None,1023.158672,None,1023.158672,None,1025.124772,None,1025.124772,None,1025.124772,None,1025.124772,None,1025.124772,None,1025.124772,None,1025.124772,None,1025.124772,None,1025.124772,None,43,81,47,51,81,72,None,None,None,None,None,None,None,None,None,None,None,None,77,1027.661401,None,1027.661401,None,1027.661401,None,1027.661401,None,1027.661401,None,1027.661401,None,1027.661401,None,77,1027.661401,None,0.00870026,None,-0.6,0,None,None,None,None,None,None,None,None,None,None,None,None,,None,None,None,None,None,None,8.239583333,1.9548822,1031.584523,None,1031.584523,None,1031.584523,None,1031.584523,None,None,None,1033.563979,None,0.036458333,-0.28125,1,0,0,3.8796714,tijiao,,,,,,,,,231,m,19,2023_Mar_21_0943,RL,2021.2.3,59.78794412
1,-0.3,-0.225,0,84,84,84,,,,,,,,,,,,,,,None,None,None,None,None,1035.388057,None,1035.388057,None,1035.388057,None,1035.388057,None,f,0.3245918,1035.388057,None,1035.388057,None,1035.763702,None,1035.763702,None,1035.763702,None,1035.763702,None,1035.763702,None,1035.763702,None,1036.051006,1037.485307,1036.051006,1037.485307,1037.52295,None,1037.52295,None,1037.52295,None,1037.52295,None,1037.52295,None,1037.52295,None,1037.52295,None,1037.52295,None,1037.52295,None,36,84,45,52,84,45,1040.057963,None,7,1.9502313,1040.057963,None,1040.057963,None,1040.057963,None,1040.057963,None,,None,None,None,None,None,None,None,None,None,None,None,None,None,None,,None,None,None,None,-0.6,3,None,None,None,None,None,None,None,None,None,None,None,None,,None,None,None,None,None,None,None,None,None,None,None,None,None,None,None,None,None,None,1042.064522,None,,,,,,,,,,,,,,,,231,m,19,2023_Mar_21_0943,RL,2021.2.3,59.78794412
0,0.3,0.225,0,85,85,85,,,,,,,,,,,,,,,None,None,None,None,None,1044.010606,None,1044.010606,None,1044.010606,None,1044.010606,None,f,0.3519295,1044.010606,None,1044.010606,None,1044.410385,None,1044.410385,None,1044.410385,None,1044.410385,None,1044.410385,None,1044.410385,None,1044.7072,1046.391558,1044.7072,1046.391558,1046.425894,None,1046.425894,None,1046.425894,None,1046.425894,None,1046.425894,None,1046.425894,None,1046.425894,None,1046.425894,None,1046.425894,None,30,83,47,63,83,74,None,None,None,None,None,None,None,None,None,None,None,None,,None,None,None,None,None,None,None,None,None,None,None,None,None,None,,None,None,None,None,0.6,1,1048.965687,None,1048.965687,None,1048.965687,None,1048.965687,None,1048.965687,None,1048.965687,None,56,1048.965687,None,1048.965687,None,0.00194196,None,7.002604167,1.529358,1053.50408,None,1053.50408,None,1053.50408,None,1053.50408,None,None,None,1055.064419,None,,,,,,,,0.084635417,-0.313802083,1,0,0,4.5059735,tijiao,,231,m,19,2023_Mar_21_0943,RL,2021.2.3,59.78794412
1,-0.3,-0.225,0,86,86,86,,,,,,,,,,,,,,,None,None,None,None,None,1056.701965,None,1056.701965,None,1056.701965,None,1056.701965,None,f,0.4106461,1056.701965,None,1056.701965,None,1057.160251,None,1057.160251,None,1057.160251,None,1057.160251,None,1057.160251,None,1057.160251,None,1057.449163,None,1057.449163,None,1059.069058,None,1059.069058,None,1059.069058,None,1059.069058,None,1059.069058,None,1059.069058,None,1059.069058,None,1059.069058,None,1059.069058,None,28,71,46,64,71,71,1061.584995,None,4,3.0197017,1061.584995,None,1061.584995,None,1061.584995,None,1061.584995,None,,None,None,None,None,None,None,None,None,None,None,None,None,None,None,,None,None,None,None,0.2,3,None,None,None,None,None,None,None,None,None,None,None,None,,None,None,None,None,None,None,None,None,None,None,None,None,None,None,None,None,None,None,1064.660619,None,,,,,,,,,,,,,,,,231,m,19,2023_Mar_21_0943,RL,2021.2.3,59.78794412
0,0.3,0.225,0,87,87,87,,,,,,,,,,,,,,,None,None,None,None,None,1066.55983,None,1066.55983,None,1066.55983,None,1066.55983,None,f,0.292824,1066.55983,None,1066.55983,None,1066.895203,None,1066.895203,None,1066.895203,None,1066.895203,None,1066.895203,None,1066.895203,None,1067.189233,1068.056405,1067.189233,1068.056405,1068.088158,None,1068.088158,None,1068.088158,None,1068.088158,None,1068.088158,None,1068.088158,None,1068.088158,None,1068.088158,None,1068.088158,None,16,77,43,62,77,24,None,None,None,None,None,None,None,None,None,None,None,None,75,1070.623426,None,1070.623426,None,1070.623426,None,1070.623426,None,1070.623426,None,1070.623426,None,1070.623426,None,75,1070.623426,None,0.01051156,None,0.2,0,None,None,None,None,None,None,None,None,None,None,None,None,,None,None,None,None,None,None,9.059895833,1.6897908,1074.76391,None,1074.76391,None,1074.76391,None,1074.76391,None,None,None,1076.47179,None,-0.0078125,-0.265625,1,0,0,4.0978551,tijiao,,,,,,,,,231,m,19,2023_Mar_21_0943,RL,2021.2.3,59.78794412
1,-0.3,-0.225,0,88,88,88,,,,,,,,,,,,,,,None,None,None,None,None,1078.234541,None,1078.234541,None,1078.234541,None,1078.234541,None,f,0.3082956,1078.234541,None,1078.234541,None,1078.594601,None,1078.594601,None,1078.594601,None,1078.594601,None,1078.594601,None,1078.594601,None,1078.88069,1080.615214,1078.88069,1080.615214,1080.648972,None,1080.648972,None,1080.648972,None,1080.648972,None,1080.648972,None,1080.648972,None,1080.648972,None,1080.648972,None,1080.648972,None,28,74,32,70,74,64,1083.164224,None,6,1.7373734,1083.164224,None,1083.164224,None,1083.164224,None,1083.164224,None,,None,None,None,None,None,None,None,None,None,None,None,None,None,None,,None,None,None,None,0.2,2,None,None,None,None,None,None,None,None,None,None,None,None,,None,None,None,None,None,None,None,None,None,None,None,None,None,None,None,None,None,None,1084.955447,None,,,,,,,,,,,,,,,,231,m,19,2023_Mar_21_0943,RL,2021.2.3,59.78794412
0,0.3,0.225,0,89,89,89,,,,,,,,,,,,,,,None,None,None,None,None,1086.723918,None,1086.723918,None,1086.723918,None,1086.723918,None,f,0.3488806,1086.723918,None,1086.723918,None,1087.123655,None,1087.123655,None,1087.123655,None,1087.123655,None,1087.123655,None,1087.123655,None,1087.419801,None,1087.419801,None,1089.100502,None,1089.100502,None,1089.100502,None,1089.100502,None,1089.100502,None,1089.100502,None,1089.100502,None,1089.100502,None,1089.100502,None,12,78,45,72,78,71,1091.627882,None,6,1.3660876,1091.627882,None,1091.627882,None,1091.627882,None,1091.627882,None,,None,None,None,None,None,None,None,None,None,None,None,None,None,None,,None,None,None,None,-0.6,3,None,None,None,None,None,None,None,None,None,None,None,None,,None,None,None,None,None,None,None,None,None,None,None,None,None,None,None,None,None,None,1093.046085,None,,,,,,,,,,,,,,,,231,m,19,2023_Mar_21_0943,RL,2021.2.3,59.78794412
1,-0.3,-0.225,0,90,90,90,,,,,,,,,,,,,,,None,None,None,None,None,1094.57897,None,1094.57897,None,1094.57897,None,1094.57897,None,f,0.6242001,1094.57897,None,1094.57897,None,1095.255161,None,1095.255161,None,1095.255161,None,1095.255161,None,1095.255161,None,1095.255161,None,1095.542426,1097.026627,1095.542426,1097.026627,1097.057708,None,1097.057708,None,1097.057708,None,1097.057708,None,1097.057708,None,1097.057708,None,1097.057708,None,1097.057708,None,1097.057708,None,3,84,52,63,84,66,1099.585004,None,6,1.2344404,1099.585004,None,1099.585004,None,1099.585004,None,1099.585004,None,,None,None,None,None,None,None,None,None,None,None,None,None,None,None,,None,None,None,None,-0.2,3,None,None,None,None,None,None,None,None,None,None,None,None,,None,None,None,None,None,None,None,None,None,None,None,None,None,None,None,None,None,None,1100.86653,None,,,,,,,,,,,,,,,,231,m,19,2023_Mar_21_0943,RL,2021.2.3,59.78794412
0,0.3,0.225,0,91,91,91,,,,,,,,,,,,,,,None,None,None,None,None,1102.484818,None,1102.484818,None,1102.484818,None,1102.484818,None,f,0.51814,1102.484818,None,1102.484818,None,1103.050921,None,1103.050921,None,1103.050921,None,1103.050921,None,1103.050921,None,1103.050921,None,1103.347719,None,1103.347719,None,1105.352684,None,1105.352684,None,1105.352684,None,1105.352684,None,1105.352684,None,1105.352684,None,1105.352684,None,1105.352684,None,1105.352684,None,9,71,50,69,71,46,None,None,None,None,None,None,None,None,None,None,None,None,73,1107.884192,None,1107.884192,None,1107.884192,None,1107.884192,None,1107.884192,None,1107.884192,None,1107.884192,None,73,1107.884192,None,0.00924856,None,0.2,0,None,None,None,None,None,None,None,None,None,None,None,None,,None,None,None,None,None,None,10.08854167,1.4925565,1112.957347,None,1112.957347,None,1112.957347,None,1112.957347,None,None,None,1114.481266,None,0.11328125,-0.229166667,1,0,0,4.1299404,tijiao,,,,,,,,,231,m,19,2023_Mar_21_0943,RL,2021.2.3,59.78794412
1,-0.3,-0.225,0,92,92,92,,,,,,,,,,,,,,,None,None,None,None,None,1116.044019,None,1116.044019,None,1116.044019,None,1116.044019,None,f,0.3189694,1116.044019,None,1116.044019,None,1116.419015,None,1116.419015,None,1116.419015,None,1116.419015,None,1116.419015,None,1116.419015,None,1116.707009,None,1116.707009,None,1117.822358,None,1117.822358,None,1117.822358,None,1117.822358,None,1117.822358,None,1117.822358,None,1117.822358,None,1117.822358,None,1117.822358,None,6,73,55,80,73,42,None,None,None,None,None,None,None,None,None,None,None,None,,None,None,None,None,None,None,None,None,None,None,None,None,None,None,,None,None,None,None,0.6,1,1120.372791,None,1120.372791,None,1120.372791,None,1120.372791,None,1120.372791,None,1120.372791,None,45,1120.372791,None,1120.372791,None,0.01053398,None,6.924479167,1.9818045,1125.818728,None,1125.818728,None,1125.818728,None,1125.818728,None,None,None,1127.814887,None,,,,,,,,0.1484375,-0.283854167,1,0,0,5.4150991,tijiao,,231,m,19,2023_Mar_21_0943,RL,2021.2.3,59.78794412
0,0.3,0.225,0,93,93,93,,,,,,,,,,,,,,,None,None,None,None,None,1129.670102,None,1129.670102,None,1129.670102,None,1129.670102,None,f,0.3730177,1129.670102,None,1129.670102,None,1130.094869,None,1130.094869,None,1130.094869,None,1130.094869,None,1130.094869,None,1130.094869,None,1130.383067,1131.400824,1130.383067,1131.400824,1131.432768,None,1131.432768,None,1131.432768,None,1131.432768,None,1131.432768,None,1131.432768,None,1131.432768,None,1131.432768,None,1131.432768,None,8,86,45,71,86,33,None,None,None,None,None,None,None,None,None,None,None,None,,None,None,None,None,None,None,None,None,None,None,None,None,None,None,,None,None,None,None,0.2,1,1133.97621,None,1133.97621,None,1133.97621,None,1133.97621,None,1133.97621,None,1133.97621,None,40,1133.97621,None,1133.97621,None,7.30E-05,None,7.276041667,1.8135968,1137.645803,None,1137.645803,None,1137.645803,None,1137.645803,None,None,None,1139.487274,None,,,,,,,,0.080729167,-0.298177083,1,0,0,3.6376141,tijiao,,231,m,19,2023_Mar_21_0943,RL,2021.2.3,59.78794412
1,-0.3,-0.225,0,94,94,94,,,,,,,,,,,,,,,None,None,None,None,None,1141.327963,None,1141.327963,None,1141.327963,None,1141.327963,None,f,0.3452504,1141.327963,None,1141.327963,None,1141.724749,None,1141.724749,None,1141.724749,None,1141.724749,None,1141.724749,None,1141.724749,None,1142.024681,None,1142.024681,None,1143.796225,None,1143.796225,None,1143.796225,None,1143.796225,None,1143.796225,None,1143.796225,None,1143.796225,None,1143.796225,None,1143.796225,None,9,84,49,66,84,57,None,None,None,None,None,None,None,None,None,None,None,None,,None,None,None,None,None,None,None,None,None,None,None,None,None,None,,None,None,None,None,0.2,1,1146.354795,None,1146.354795,None,1146.354795,None,1146.354795,None,1146.354795,None,1146.354795,None,37,1146.354795,None,1146.354795,None,0.01410738,None,8.096354167,2.5707204,1151.82571,None,1151.82571,None,1151.82571,None,1151.82571,None,None,None,1154.431279,None,,,,,,,,0.2890625,-0.263020833,1,0,0,4.701237,tijiao,,231,m,19,2023_Mar_21_0943,RL,2021.2.3,59.78794412
0,0.3,0.225,0,95,95,95,,,,,,,,,,,,,,,None,None,None,None,None,1155.971731,None,1155.971731,None,1155.971731,None,1155.971731,None,f,0.3417551,1155.971731,None,1155.971731,None,1156.363575,None,1156.363575,None,1156.363575,None,1156.363575,None,1156.363575,None,1156.363575,None,1156.651484,None,1156.651484,None,1158.233965,None,1158.233965,None,1158.233965,None,1158.233965,None,1158.233965,None,1158.233965,None,1158.233965,None,1158.233965,None,1158.233965,None,11,77,60,81,77,34,1160.751005,None,7,2.0745178,1160.751005,None,1160.751005,None,1160.751005,None,1160.751005,None,,None,None,None,None,None,None,None,None,None,None,None,None,None,None,,None,None,None,None,0.2,2,None,None,None,None,None,None,None,None,None,None,None,None,,None,None,None,None,None,None,None,None,None,None,None,None,None,None,None,None,None,None,1162.892945,None,,,,,,,,,,,,,,,,231,m,19,2023_Mar_21_0943,RL,2021.2.3,59.78794412
1,-0.3,-0.225,0,96,96,96,,,,,,,,,,,,,,,None,None,None,None,None,1164.594496,None,1164.594496,None,1164.594496,None,1164.594496,None,f,0.4388996,1164.594496,None,1164.594496,None,1165.081473,None,1165.081473,None,1165.081473,None,1165.081473,None,1165.081473,None,1165.081473,None,1165.374208,1166.625024,1165.374208,1166.625024,1166.663002,None,1166.663002,None,1166.663002,None,1166.663002,None,1166.663002,None,1166.663002,None,1166.663002,None,1166.663002,None,1166.663002,None,7,69,51,87,69,59,1169.181961,None,7,1.2972966,1169.181961,None,1169.181961,None,1169.181961,None,1169.181961,None,,None,None,None,None,None,None,None,None,None,None,None,None,None,None,,None,None,None,None,0.2,2,None,None,None,None,None,None,None,None,None,None,None,None,,None,None,None,None,None,None,None,None,None,None,None,None,None,None,None,None,None,None,1170.527614,None,,,,,,,,,,,,,,,,231,m,19,2023_Mar_21_0943,RL,2021.2.3,59.78794412
0,0.3,0.225,0,97,97,97,,,,,,,,,,,,,,,None,None,None,None,None,1172.148866,None,1172.148866,None,1172.148866,None,1172.148866,None,f,0.4060464,1172.148866,None,1172.148866,None,1172.601014,None,1172.601014,None,1172.601014,None,1172.601014,None,1172.601014,None,1172.601014,None,1172.895851,1173.729889,1172.895851,1173.729889,1173.764379,None,1173.764379,None,1173.764379,None,1173.764379,None,1173.764379,None,1173.764379,None,1173.764379,None,1173.764379,None,1173.764379,None,13,76,56,78,76,58,None,None,None,None,None,None,None,None,None,None,None,None,77,1176.291639,None,1176.291639,None,1176.291639,None,1176.291639,None,1176.291639,None,1176.291639,None,1176.291639,None,77,1176.291639,None,0.01471066,None,-0.6,0,None,None,None,None,None,None,None,None,None,None,None,None,,None,None,None,None,None,None,9.932291667,0.8689197,1180.434645,None,1180.434645,None,1180.434645,None,1180.434645,None,None,None,1181.339796,None,0.25390625,-0.194010417,1,0,0,3.6180627,tijiao,,,,,,,,,231,m,19,2023_Mar_21_0943,RL,2021.2.3,59.78794412
1,-0.3,-0.225,0,98,98,98,,,,,,,,,,,,,,,None,None,None,None,None,1183.140588,None,1183.140588,None,1183.140588,None,1183.140588,None,f,0.4038893,1183.140588,None,1183.140588,None,1183.594582,None,1183.594582,None,1183.594582,None,1183.594582,None,1183.594582,None,1183.594582,None,1183.88694,None,1183.88694,None,1185.788886,None,1185.788886,None,1185.788886,None,1185.788886,None,1185.788886,None,1185.788886,None,1185.788886,None,1185.788886,None,1185.788886,None,21,66,42,79,66,50,None,None,None,None,None,None,None,None,None,None,None,None,67,1188.332864,None,1188.332864,None,1188.332864,None,1188.332864,None,1188.332864,None,1188.332864,None,1188.332864,None,67,1188.332864,None,0.01586658,None,-0.2,0,None,None,None,None,None,None,None,None,None,None,None,None,,None,None,None,None,None,None,9.151041667,1.1900244,1194.198509,None,1194.198509,None,1194.198509,None,1194.198509,None,None,None,1195.426258,None,0.048177083,-0.247395833,1,0,0,4.5702962,tijiao,,,,,,,,,231,m,19,2023_Mar_21_0943,RL,2021.2.3,59.78794412
0,0.3,0.225,0,99,99,99,,,,,,,,,,,,,,,None,None,None,None,None,1196.966677,None,1196.966677,None,1196.966677,None,1196.966677,None,f,0.2978877,1196.966677,None,1196.966677,None,1197.306773,None,1197.306773,None,1197.306773,None,1197.306773,None,1197.306773,None,1197.306773,None,1197.596469,1199.231071,1197.596469,1199.231071,1199.263492,None,1199.263492,None,1199.263492,None,1199.263492,None,1199.263492,None,1199.263492,None,1199.263492,None,1199.263492,None,1199.263492,None,19,77,49,73,77,66,1201.787892,None,7,2.3515703,1201.787892,None,1201.787892,None,1201.787892,None,1201.787892,None,,None,None,None,None,None,None,None,None,None,None,None,None,None,None,,None,None,None,None,-0.6,3,None,None,None,None,None,None,None,None,None,None,None,None,,None,None,None,None,None,None,None,None,None,None,None,None,None,None,None,None,None,None,1204.200276,None,,,,,,,,,,,,,,,,231,m,19,2023_Mar_21_0943,RL,2021.2.3,59.78794412
