bandit0,black_x_pos_random,black_y_pos_random,trials.thisRepN,trials.thisTrialN,trials.thisN,trials.thisIndex,instru_img1.started,instru_resp.started,instru_resp.keys,instru_resp.rt,instru_img2.started,instru_resp2.started,instru_resp2.keys,instru_resp2.rt,fixbefore_2.started,rest_response.keys,red.started,green.started,yellow.started,blue.started,choose_bandit.started,Fixation.started,choose_bandit.keys,choose_bandit.rt,black.started,red_2.started,green_2.started,yellow_2.started,blue_2.started,fixation_2.started,docs.started,wait_playerB.started,docs.stopped,wait_playerB.stopped,black.stopped,red_2.stopped,green_2.stopped,yellow_2.stopped,blue_2.stopped,fixation_2.stopped,black_com.started,reward_sub.started,palyerb.started,reward__sub.started,compare.started,red_compare.started,green_com.started,yellow_com.started,blue_com.started,image_3.started,slider.started,text.started,image_4.started,image_5.started,rewardyellow,rewardred,rewardblue,rewardgreen,subchoose,playerb,slider.response,slider.rt,value_expect_self,expectself.text,tijiao_click.x,tijiao_click.y,tijiao_click.leftButton,tijiao_click.midButton,tijiao_click.rightButton,tijiao_click.time,tijiao_click.clicked_name,random_whicharm,whether_ask,expect_random_3.text,tijiao_random.x,tijiao_random.y,tijiao_random.leftButton,tijiao_random.midButton,tijiao_random.rightButton,tijiao_random.time,tijiao_random.clicked_name,slider_2.response,slider_2.rt,intertrialfix.started,intertrialfix.stopped,expect_self_black.started,expect_self.started,expect_self_red.started,expect_self_green.started,expect_self_yellow.started,expect_self_blue.started,tijiao.started,expectself.started,tijiao_click.started,slider_2.started,image_7.started,confi.started,notconfi.started,jiantou_random.started,expect_red.started,expect_green.started,expect_yellow.started,expect_blue.started,expect_random_2.started,expect_random_3.started,tijiao_random_2.started,tijiao_random.started,rest_image.started,rest_response.started,rest_response.rt,participant,Gender,Age,date,expName,psychopyVersion,frameRate,
,,,,,,,44.05786719999742,44.05786719999742,space,7.2680468000035034,,,,,,,,,,,,,,,,,,,,,,,,,,,,,,,,,,,,,,,,,,,,,,,,,,,,,,,,,,,,,,,,,,,,,,,,,,,,,,,,,,,,,,,,,,,,,,,,,,,,,232,f,26,2023-03-21_09h43.20.387,RL,2022.2.4,60.14404498881359,
,,,,,,,,,,,51.351490300003206,51.351490300003206,s,31.234004600002663,,,,,,,,,,,,,,,,,,,,,,,,,,,,,,,,,,,,,,,,,,,,,,,,,,,,,,,,,,,,,,,,,,,,,,,,,,,,,,,,,,,,,,,,,,,,,,,,,232,f,26,2023-03-21_09h43.20.387,RL,2022.2.4,60.14404498881359,
1,-0.3,-0.225,0,0,0,0,,,,,,,,,82.60875149999629,None,83.64478539999982,83.64478539999982,83.64478539999982,83.64478539999982,83.64478539999982,83.64478539999982,j,0.6391747000016039,84.32671059999848,84.32671059999848,84.32671059999848,84.32671059999848,84.32671059999848,84.32671059999848,84.60355650000565,84.60355650000565,85.94961239999975,85.94961239999975,85.96840379999776,85.96840379999776,85.96840379999776,85.96840379999776,85.96840379999776,85.96840379999776,85.96840379999776,85.96840379999776,85.96840379999776,85.96840379999776,85.96840379999776,85.96840379999776,85.96840379999776,85.96840379999776,85.96840379999776,88.47593739999866,88.47593739999866,88.47593739999866,88.47593739999866,88.47593739999866,39,73,37,45,45,75,5.0,2.874595599991153,,,[],[],[],[],[],[],[],-0.6,3,,[],[],[],[],[],[],[],None,None,91.53376910000225,93.44562909999513,,,,,,,,,,,,,,,,,,,,,,,,,,232,f,26,2023-03-21_09h43.20.387,RL,2022.2.4,60.14404498881359,
0,0.3,0.225,0,1,1,1,,,,,,,,,,None,93.44562909999513,93.44562909999513,93.44562909999513,93.44562909999513,93.44562909999513,93.44562909999513,f,0.43868530000327155,93.91689920000499,93.91689920000499,93.91689920000499,93.91689920000499,93.91689920000499,93.91689920000499,94.21055210000486,94.21055210000486,96.20505839999532,96.20505839999532,96.20505839999532,96.20505839999532,96.20505839999532,96.20505839999532,96.20505839999532,96.20505839999532,96.20505839999532,96.20505839999532,96.20505839999532,96.20505839999532,96.20505839999532,96.20505839999532,96.20505839999532,96.20505839999532,96.20505839999532,,,,,,40,73,47,39,73,46,None,None,89,89,[0.03888888888888889],[-0.30185185185185187],[1],[0],[0],[6.775978799996665],['tijiao'],0.2,0,,[],[],[],[],[],[],[],8.944444444444445,3.7226259000017308,109.2679477000056,110.99788830000034,98.72958929999731,98.72958929999731,98.72958929999731,98.72958929999731,98.72958929999731,98.72958929999731,98.72958929999731,98.72958929999731,0.005669899997883476,105.53440679999767,105.53440679999767,105.53440679999767,105.53440679999767,,,,,,,,,,,,,232,f,26,2023-03-21_09h43.20.387,RL,2022.2.4,60.14404498881359,
1,-0.3,-0.225,0,2,2,2,,,,,,,,,,None,110.99788830000034,110.99788830000034,110.99788830000034,110.99788830000034,110.99788830000034,110.99788830000034,r,0.7644241999951191,111.7958132000058,111.7958132000058,111.7958132000058,111.7958132000058,111.7958132000058,111.7958132000058,112.09501229999296,112.09501229999296,114.05630490000476,114.05630490000476,114.05630490000476,114.05630490000476,114.05630490000476,114.05630490000476,114.05630490000476,114.05630490000476,114.05630490000476,114.05630490000476,114.05630490000476,114.05630490000476,114.05630490000476,114.05630490000476,114.05630490000476,114.05630490000476,114.05630490000476,116.5654962999979,116.5654962999979,116.5654962999979,116.5654962999979,116.5654962999979,45,66,38,41,45,46,6.0,2.1594687000033446,,,[],[],[],[],[],[],[],0.6,3,,[],[],[],[],[],[],[],None,None,118.74869059999764,120.3887798999931,,,,,,,,,,,,,,,,,,,,,,,,,,232,f,26,2023-03-21_09h43.20.387,RL,2022.2.4,60.14404498881359,
0,0.3,0.225,0,3,3,3,,,,,,,,,,None,120.3887798999931,120.3887798999931,120.3887798999931,120.3887798999931,120.3887798999931,120.3887798999931,i,1.1895641000010073,121.60832539999683,121.60832539999683,121.60832539999683,121.60832539999683,121.60832539999683,121.60832539999683,121.9017262999987,121.9017262999987,122.89857439999469,122.89857439999469,122.89857439999469,122.89857439999469,122.89857439999469,122.89857439999469,122.89857439999469,122.89857439999469,122.89857439999469,122.89857439999469,122.89857439999469,122.89857439999469,122.89857439999469,122.89857439999469,122.89857439999469,122.89857439999469,122.89857439999469,,,,,,46,72,33,48,33,27,None,None,68,68,[0.0],[-0.28703703703703703],[1],[0],[0],[5.69069909999962],['tijiao'],-0.2,0,,[],[],[],[],[],[],[],8.018518518518519,3.5587362999940524,134.6986678999965,136.34482779999962,125.41009789999225,125.41009789999225,125.41009789999225,125.41009789999225,125.41009789999225,125.41009789999225,125.41009789999225,125.41009789999225,0.007019000011496246,131.12136520000058,131.12136520000058,131.12136520000058,131.12136520000058,,,,,,,,,,,,,232,f,26,2023-03-21_09h43.20.387,RL,2022.2.4,60.14404498881359,
1,-0.3,-0.225,0,4,4,4,,,,,,,,,,None,136.34482779999962,136.34482779999962,136.34482779999962,136.34482779999962,136.34482779999962,136.34482779999962,i,1.007940099996631,137.3760784000042,137.3760784000042,137.3760784000042,137.3760784000042,137.3760784000042,137.3760784000042,137.67493449999893,137.67493449999893,138.95514849999745,138.95514849999745,138.95514849999745,138.95514849999745,138.95514849999745,138.95514849999745,138.95514849999745,138.95514849999745,138.95514849999745,138.95514849999745,138.95514849999745,138.95514849999745,138.95514849999745,138.95514849999745,138.95514849999745,138.95514849999745,138.95514849999745,141.46404489999986,141.46404489999986,141.46404489999986,141.46404489999986,141.46404489999986,39,59,45,46,45,67,4.0,2.359531199996127,,,[],[],[],[],[],[],[],-0.2,2,,[],[],[],[],[],[],[],None,None,143.85058679999202,145.81932029999734,,,,,,,,,,,,,,,,,,,,,,,,,,232,f,26,2023-03-21_09h43.20.387,RL,2022.2.4,60.14404498881359,
0,0.3,0.225,0,5,5,5,,,,,,,,,,None,145.81932029999734,145.81932029999734,145.81932029999734,145.81932029999734,145.81932029999734,145.81932029999734,r,0.7346241999912309,146.58409439999377,146.58409439999377,146.58409439999377,146.58409439999377,146.58409439999377,146.58409439999377,146.8830658999941,146.8830658999941,148.37917240000388,148.37917240000388,148.37917240000388,148.37917240000388,148.37917240000388,148.37917240000388,148.37917240000388,148.37917240000388,148.37917240000388,148.37917240000388,148.37917240000388,148.37917240000388,148.37917240000388,148.37917240000388,148.37917240000388,148.37917240000388,148.37917240000388,150.88861700000416,150.88861700000416,150.88861700000416,150.88861700000416,150.88861700000416,46,53,39,46,46,71,4.0,2.809165099999518,,,[],[],[],[],[],[],[],0.6,3,,[],[],[],[],[],[],[],None,None,153.7195728999941,155.4431998999935,,,,,,,,,,,,,,,,,,,,,,,,,,232,f,26,2023-03-21_09h43.20.387,RL,2022.2.4,60.14404498881359,
1,-0.3,-0.225,0,6,6,6,,,,,,,,,,None,155.4431998999935,155.4431998999935,155.4431998999935,155.4431998999935,155.4431998999935,155.4431998999935,j,1.2465595999965444,156.70660399999178,156.70660399999178,156.70660399999178,156.70660399999178,156.70660399999178,156.70660399999178,157.00554670000565,157.00554670000565,158.88520780000545,158.88520780000545,158.88520780000545,158.88520780000545,158.88520780000545,158.88520780000545,158.88520780000545,158.88520780000545,158.88520780000545,158.88520780000545,158.88520780000545,158.88520780000545,158.88520780000545,158.88520780000545,158.88520780000545,158.88520780000545,158.88520780000545,,,,,,41,60,36,51,51,79,None,None,72,72,[0.025],[-0.28888888888888886],[1],[0],[0],[8.881615799997235],['tijiao'],-0.6,0,,[],[],[],[],[],[],[],6.9907407407407405,3.525065199995879,173.84190830000443,175.68795949999185,161.3953138999932,161.3953138999932,161.3953138999932,161.3953138999932,161.3953138999932,161.3953138999932,161.3953138999932,161.3953138999932,0.007404199990560301,170.29795799999556,170.29795799999556,170.29795799999556,170.29795799999556,,,,,,,,,,,,,232,f,26,2023-03-21_09h43.20.387,RL,2022.2.4,60.14404498881359,
0,0.3,0.225,0,7,7,7,,,,,,,,,,None,175.68795949999185,175.68795949999185,175.68795949999185,175.68795949999185,175.68795949999185,175.68795949999185,f,0.9784893000032753,176.68536180000228,176.68536180000228,176.68536180000228,176.68536180000228,176.68536180000228,176.68536180000228,176.9842815000011,176.9842815000011,178.2644702999969,178.2644702999969,178.2644702999969,178.2644702999969,178.2644702999969,178.2644702999969,178.2644702999969,178.2644702999969,178.2644702999969,178.2644702999969,178.2644702999969,178.2644702999969,178.2644702999969,178.2644702999969,178.2644702999969,178.2644702999969,178.2644702999969,,,,,,49,66,44,50,66,51,None,None,78,78,[-0.012962962962962963],[-0.2722222222222222],[1],[0],[0],[6.154847899990273],['tijiao'],0.2,0,,[],[],[],[],[],[],[],6.027777777777778,2.1452088999940315,189.1168192000041,190.96300489999703,180.77635060000466,180.77635060000466,180.77635060000466,180.77635060000466,180.77635060000466,180.77635060000466,180.77635060000466,180.77635060000466,0.007564799991087057,186.95295700000133,186.95295700000133,186.95295700000133,186.95295700000133,,,,,,,,,,,,,232,f,26,2023-03-21_09h43.20.387,RL,2022.2.4,60.14404498881359,
1,-0.3,-0.225,0,8,8,8,,,,,,,,,,None,190.96300489999703,190.96300489999703,190.96300489999703,190.96300489999703,190.96300489999703,190.96300489999703,i,0.4503814999916358,191.44564930000342,191.44564930000342,191.44564930000342,191.44564930000342,191.44564930000342,191.44564930000342,191.744082899997,191.744082899997,192.9243504000042,192.9243504000042,192.9243504000042,192.9243504000042,192.9243504000042,192.9243504000042,192.9243504000042,192.9243504000042,192.9243504000042,192.9243504000042,192.9243504000042,192.9243504000042,192.9243504000042,192.9243504000042,192.9243504000042,192.9243504000042,192.9243504000042,,,,,,49,57,46,52,46,61,None,None,46,46,[-0.006481481481481481],[-0.30925925925925923],[1],[0],[0],[3.080531899991911],['tijiao'],-0.6,0,,[],[],[],[],[],[],[],7.0092592592592595,2.5416645999939647,201.10085299999628,202.92976179999823,195.43611539999256,195.43611539999256,195.43611539999256,195.43611539999256,195.43611539999256,195.43611539999256,195.43611539999256,195.43611539999256,0.007590100009110756,198.54031810000015,198.54031810000015,198.54031810000015,198.54031810000015,,,,,,,,,,,,,232,f,26,2023-03-21_09h43.20.387,RL,2022.2.4,60.14404498881359,
0,0.3,0.225,0,9,9,9,,,,,,,,,,None,202.92976179999823,202.92976179999823,202.92976179999823,202.92976179999823,202.92976179999823,202.92976179999823,j,0.36144530000456143,203.31375139999727,203.31375139999727,203.31375139999727,203.31375139999727,203.31375139999727,203.31375139999727,203.61196959999506,203.61196959999506,205.5400379999919,205.5400379999919,205.5400379999919,205.5400379999919,205.5400379999919,205.5400379999919,205.5400379999919,205.5400379999919,205.5400379999919,205.5400379999919,205.5400379999919,205.5400379999919,205.5400379999919,205.5400379999919,205.5400379999919,205.5400379999919,205.5400379999919,208.04882830000133,208.04882830000133,208.04882830000133,208.04882830000133,208.04882830000133,48,65,41,54,54,64,3.0,1.8775830999948084,,,[],[],[],[],[],[],[],-0.6,3,,[],[],[],[],[],[],[],None,None,209.95166560000507,211.5899703000032,,,,,,,,,,,,,,,,,,,,,,,,,,232,f,26,2023-03-21_09h43.20.387,RL,2022.2.4,60.14404498881359,
1,-0.3,-0.225,0,10,10,10,,,,,,,,,,None,211.5899703000032,211.5899703000032,211.5899703000032,211.5899703000032,211.5899703000032,211.5899703000032,i,1.1716385999898193,212.78716120000172,212.78716120000172,212.78716120000172,212.78716120000172,212.78716120000172,212.78716120000172,213.08618929999648,213.08618929999648,214.1495234000031,214.1495234000031,214.1495234000031,214.1495234000031,214.1495234000031,214.1495234000031,214.1495234000031,214.1495234000031,214.1495234000031,214.1495234000031,214.1495234000031,214.1495234000031,214.1495234000031,214.1495234000031,214.1495234000031,214.1495234000031,214.1495234000031,,,,,,57,58,43,50,43,60,None,None,,,[],[],[],[],[],[],[],0.6,1,60,[-0.005555555555555556],[-0.2962962962962963],[1],[0],[0],[4.454589900007704],['tijiao'],6.083333333333333,2.0544284999923548,223.20727949999855,224.82036549999611,,,,,,,,,,221.13493529999687,221.13493529999687,221.13493529999687,221.13493529999687,216.66916960000526,216.66916960000526,216.66916960000526,216.66916960000526,216.66916960000526,216.66916960000526,216.66916960000526,216.66916960000526,0.005857399999513291,,,,232,f,26,2023-03-21_09h43.20.387,RL,2022.2.4,60.14404498881359,
0,0.3,0.225,0,11,11,11,,,,,,,,,,None,224.82036549999611,224.82036549999611,224.82036549999611,224.82036549999611,224.82036549999611,224.82036549999611,f,1.0387494000024162,225.88457739999285,225.88457739999285,225.88457739999285,225.88457739999285,225.88457739999285,225.88457739999285,226.18365229999472,226.18365229999472,228.02847380000458,228.02847380000458,228.02847380000458,228.02847380000458,228.02847380000458,228.02847380000458,228.02847380000458,228.02847380000458,228.02847380000458,228.02847380000458,228.02847380000458,228.02847380000458,228.02847380000458,228.02847380000458,228.02847380000458,228.02847380000458,228.02847380000458,230.53785740000603,230.53785740000603,230.53785740000603,230.53785740000603,230.53785740000603,53,59,38,52,59,65,3.0,2.2261695000051986,,,[],[],[],[],[],[],[],-0.6,3,,[],[],[],[],[],[],[],None,None,232.78949439999997,234.7767290000047,,,,,,,,,,,,,,,,,,,,,,,,,,232,f,26,2023-03-21_09h43.20.387,RL,2022.2.4,60.14404498881359,
1,-0.3,-0.225,0,12,12,12,,,,,,,,,,None,234.7767290000047,234.7767290000047,234.7767290000047,234.7767290000047,234.7767290000047,234.7767290000047,r,1.0220839000103297,235.8268270999979,235.8268270999979,235.8268270999979,235.8268270999979,235.8268270999979,235.8268270999979,236.12332600000082,236.12332600000082,238.00106680000317,238.00106680000317,238.0178464000055,238.0178464000055,238.0178464000055,238.0178464000055,238.0178464000055,238.0178464000055,238.0178464000055,238.0178464000055,238.0178464000055,238.0178464000055,238.0178464000055,238.0178464000055,238.0178464000055,238.0178464000055,238.0178464000055,,,,,,39,55,39,44,39,68,None,None,,,[],[],[],[],[],[],[],-0.6,1,39,[0.05648148148148148],[-0.3],[1],[0],[0],[3.637246199999936],['tijiao'],4.981481481481481,2.635703400010243,246.84277160000056,248.65511769999284,,,,,,,,,,244.18864659999963,244.18864659999963,244.18864659999963,244.18864659999963,240.5382244999928,240.5382244999928,240.5382244999928,240.5382244999928,240.5382244999928,240.5382244999928,240.5382244999928,240.5382244999928,0.0058642000076361,,,,232,f,26,2023-03-21_09h43.20.387,RL,2022.2.4,60.14404498881359,
0,0.3,0.225,0,13,13,13,,,,,,,,,,None,248.65511769999284,248.65511769999284,248.65511769999284,248.65511769999284,248.65511769999284,248.65511769999284,i,0.4204233999917051,249.10578589999932,249.10578589999932,249.10578589999932,249.10578589999932,249.10578589999932,249.10578589999932,249.40360150000197,249.40360150000197,250.71664299999247,250.71664299999247,250.71664299999247,250.71664299999247,250.71664299999247,250.71664299999247,250.71664299999247,250.71664299999247,250.71664299999247,250.71664299999247,250.71664299999247,250.71664299999247,250.71664299999247,250.71664299999247,250.71664299999247,250.71664299999247,250.71664299999247,253.22574069999973,253.22574069999973,253.22574069999973,253.22574069999973,253.22574069999973,54,54,44,57,44,67,2.0,2.110120999990613,,,[],[],[],[],[],[],[],0.2,2,,[],[],[],[],[],[],[],None,None,255.36240499999258,256.96608600000036,,,,,,,,,,,,,,,,,,,,,,,,,,232,f,26,2023-03-21_09h43.20.387,RL,2022.2.4,60.14404498881359,
1,-0.3,-0.225,0,14,14,14,,,,,,,,,,None,256.96608600000036,256.96608600000036,256.96608600000036,256.96608600000036,256.96608600000036,256.96608600000036,j,1.0109804999956395,257.9962855000049,257.9962855000049,257.9962855000049,257.9962855000049,257.9962855000049,257.9962855000049,258.29603879999195,258.29603879999195,260.3071886999969,260.3071886999969,260.3071886999969,260.3071886999969,260.3071886999969,260.3071886999969,260.3071886999969,260.3071886999969,260.3071886999969,260.3071886999969,260.3071886999969,260.3071886999969,260.3071886999969,260.3071886999969,260.3071886999969,260.3071886999969,260.3071886999969,262.81636339999386,262.81636339999386,262.81636339999386,262.81636339999386,262.81636339999386,55,57,36,46,46,80,1.0,2.461475899996003,,,[],[],[],[],[],[],[],0.6,3,,[],[],[],[],[],[],[],None,None,265.29737050000404,266.92224729999725,,,,,,,,,,,,,,,,,,,,,,,,,,232,f,26,2023-03-21_09h43.20.387,RL,2022.2.4,60.14404498881359,
0,0.3,0.225,0,15,15,15,,,,,,,,,,None,266.92224729999725,266.92224729999725,266.92224729999725,266.92224729999725,266.92224729999725,266.92224729999725,r,0.6496546999987913,267.60433909999847,267.60433909999847,267.60433909999847,267.60433909999847,267.60433909999847,267.60433909999847,267.90313289999904,267.90313289999904,268.9831911999936,268.9831911999936,268.9831911999936,268.9831911999936,268.9831911999936,268.9831911999936,268.9831911999936,268.9831911999936,268.9831911999936,268.9831911999936,268.9831911999936,268.9831911999936,268.9831911999936,268.9831911999936,268.9831911999936,268.9831911999936,268.9831911999936,,,,,,50,59,39,46,50,76,None,None,46,46,[0.02962962962962963],[-0.2962962962962963],[1],[0],[0],[3.945337800003472],['tijiao'],-0.2,0,,[],[],[],[],[],[],[],5.018518518518518,2.393775300006382,277.87479479999456,279.4879227000056,271.49511030000576,271.49511030000576,271.49511030000576,271.49511030000576,271.49511030000576,271.49511030000576,271.49511030000576,271.49511030000576,0.007034399997792207,275.46218220000446,275.46218220000446,275.46218220000446,275.46218220000446,,,,,,,,,,,,,232,f,26,2023-03-21_09h43.20.387,RL,2022.2.4,60.14404498881359,
1,-0.3,-0.225,0,16,16,16,,,,,,,,,,None,279.4879227000056,279.4879227000056,279.4879227000056,279.4879227000056,279.4879227000056,279.4879227000056,i,0.39677570000640117,279.9036058999918,279.9036058999918,279.9036058999918,279.9036058999918,279.9036058999918,279.9036058999918,280.20304049999686,280.20304049999686,281.6490909999993,281.6490909999993,281.6490909999993,281.6490909999993,281.6490909999993,281.6490909999993,281.6490909999993,281.6490909999993,281.6490909999993,281.6490909999993,281.6490909999993,281.6490909999993,281.6490909999993,281.6490909999993,281.6490909999993,281.6490909999993,281.6490909999993,284.15808110000216,284.15808110000216,284.15808110000216,284.15808110000216,284.15808110000216,59,60,36,40,36,41,2.0,1.960652800000389,,,[],[],[],[],[],[],[],-0.6,3,,[],[],[],[],[],[],[],None,None,286.14431639999384,287.8152551999956,,,,,,,,,,,,,,,,,,,,,,,,,,232,f,26,2023-03-21_09h43.20.387,RL,2022.2.4,60.14404498881359,
0,0.3,0.225,0,17,17,17,,,,,,,,,,None,287.8152551999956,287.8152551999956,287.8152551999956,287.8152551999956,287.8152551999956,287.8152551999956,f,1.0653299999976298,288.91273690000526,288.91273690000526,288.91273690000526,288.91273690000526,288.91273690000526,288.91273690000526,289.21147120000387,289.21147120000387,290.9570636999997,290.9570636999997,290.9570636999997,290.9570636999997,290.9570636999997,290.9570636999997,290.9570636999997,290.9570636999997,290.9570636999997,290.9570636999997,290.9570636999997,290.9570636999997,290.9570636999997,290.9570636999997,290.9570636999997,290.9570636999997,290.9570636999997,,,,,,54,56,34,45,56,68,None,None,68,68,[0.022222222222222223],[-0.2898148148148148],[1],[0],[0],[5.091938099998515],['tijiao'],0.2,0,,[],[],[],[],[],[],[],5.064814814814815,2.0469887999934144,300.6459471999988,302.3920591999922,293.46901990000333,293.46901990000333,293.46901990000333,293.46901990000333,293.46901990000333,293.46901990000333,293.46901990000333,293.46901990000333,0.007497799990233034,298.580595899999,298.580595899999,298.580595899999,298.580595899999,,,,,,,,,,,,,232,f,26,2023-03-21_09h43.20.387,RL,2022.2.4,60.14404498881359,
1,-0.3,-0.225,0,18,18,18,,,,,,,,,,None,302.3920591999922,302.3920591999922,302.3920591999922,302.3920591999922,302.3920591999922,302.3920591999922,i,0.689495500002522,303.10727829999814,303.10727829999814,303.10727829999814,303.10727829999814,303.10727829999814,303.10727829999814,303.4062247999973,303.4062247999973,304.63616860000184,304.63616860000184,304.63616860000184,304.63616860000184,304.63616860000184,304.63616860000184,304.63616860000184,304.63616860000184,304.63616860000184,304.63616860000184,304.63616860000184,304.63616860000184,304.63616860000184,304.63616860000184,304.63616860000184,304.63616860000184,304.63616860000184,307.14536249999946,307.14536249999946,307.14536249999946,307.14536249999946,307.14536249999946,54,62,40,34,40,62,1.0,2.243032400001539,,,[],[],[],[],[],[],[],-0.2,3,,[],[],[],[],[],[],[],None,None,309.41420389999985,311.3342883000005,,,,,,,,,,,,,,,,,,,,,,,,,,232,f,26,2023-03-21_09h43.20.387,RL,2022.2.4,60.14404498881359,
0,0.3,0.225,0,19,19,19,,,,,,,,,,None,311.3342883000005,311.3342883000005,311.3342883000005,311.3342883000005,311.3342883000005,311.3342883000005,f,0.7232285000063712,312.0825094000029,312.0825094000029,312.0825094000029,312.0825094000029,312.0825094000029,312.0825094000029,312.3817723999964,312.3817723999964,313.56172559999686,313.56172559999686,313.56172559999686,313.56172559999686,313.56172559999686,313.56172559999686,313.56172559999686,313.56172559999686,313.56172559999686,313.56172559999686,313.56172559999686,313.56172559999686,313.56172559999686,313.56172559999686,313.56172559999686,313.56172559999686,313.56172559999686,,,,,,51,63,45,35,63,63,None,None,63,63,[0.020370370370370372],[-0.3],[1],[0],[0],[3.432189600003767],['tijiao'],-0.2,0,,[],[],[],[],[],[],[],5.9907407407407405,2.1279622000001837,321.6719541999919,323.40144560000044,316.07220049999887,316.07220049999887,316.07220049999887,316.07220049999887,316.07220049999887,316.07220049999887,316.07220049999887,316.07220049999887,0.005044599995017052,319.5259500999964,319.5259500999964,319.5259500999964,319.5259500999964,,,,,,,,,,,,,232,f,26,2023-03-21_09h43.20.387,RL,2022.2.4,60.14404498881359,
1,-0.3,-0.225,0,20,20,20,,,,,,,,,,None,323.40144560000044,323.40144560000044,323.40144560000044,323.40144560000044,323.40144560000044,323.40144560000044,f,0.6439019000099506,324.06782830000157,324.06782830000157,324.06782830000157,324.06782830000157,324.06782830000157,324.06782830000157,324.365458500004,324.365458500004,325.7785562999925,325.7785562999925,325.7785562999925,325.7785562999925,325.7785562999925,325.7785562999925,325.7785562999925,325.7785562999925,325.7785562999925,325.7785562999925,325.7785562999925,325.7785562999925,325.7785562999925,325.7785562999925,325.7785562999925,325.7785562999925,325.7785562999925,,,,,,55,63,46,35,63,63,None,None,,,[],[],[],[],[],[],[],-0.2,1,63,[0.037037037037037035],[-0.27870370370370373],[1],[0],[0],[3.972861100002774],['tijiao'],8.037037037037038,1.589001600004849,333.88849019999907,335.518422299996,,,,,,,,,,332.28085559999454,332.28085559999454,332.28085559999454,332.28085559999454,328.2955363999936,328.2955363999936,328.2955363999936,328.2955363999936,328.2955363999936,328.2955363999936,328.2955363999936,328.2955363999936,0.0056677999964449555,,,,232,f,26,2023-03-21_09h43.20.387,RL,2022.2.4,60.14404498881359,
0,0.3,0.225,0,21,21,21,,,,,,,,,,None,335.518422299996,335.518422299996,335.518422299996,335.518422299996,335.518422299996,335.518422299996,i,0.6910995000071125,336.2334630999976,336.2334630999976,336.2334630999976,336.2334630999976,336.2334630999976,336.2334630999976,336.53250610000396,336.53250610000396,338.09495199999947,338.09495199999947,338.09495199999947,338.09495199999947,338.09495199999947,338.09495199999947,338.09495199999947,338.09495199999947,338.09495199999947,338.09495199999947,338.09495199999947,338.09495199999947,338.09495199999947,338.09495199999947,338.09495199999947,338.09495199999947,338.09495199999947,340.6040451000008,340.6040451000008,340.6040451000008,340.6040451000008,340.6040451000008,52,66,38,38,38,57,1.0,2.7421714999945834,,,[],[],[],[],[],[],[],0.2,3,,[],[],[],[],[],[],[],None,None,343.3708448999969,345.12562530000287,,,,,,,,,,,,,,,,,,,,,,,,,,232,f,26,2023-03-21_09h43.20.387,RL,2022.2.4,60.14404498881359,
1,-0.3,-0.225,0,22,22,22,,,,,,,,,,None,345.12562530000287,345.12562530000287,345.12562530000287,345.12562530000287,345.12562530000287,345.12562530000287,f,0.7132393000065349,345.85715559999517,345.85715559999517,345.85715559999517,345.85715559999517,345.85715559999517,345.85715559999517,346.15596799999184,346.15596799999184,347.93477500000154,347.93477500000154,347.93477500000154,347.93477500000154,347.93477500000154,347.93477500000154,347.93477500000154,347.93477500000154,347.93477500000154,347.93477500000154,347.93477500000154,347.93477500000154,347.93477500000154,347.93477500000154,347.93477500000154,347.93477500000154,347.93477500000154,350.4438958999963,350.4438958999963,350.4438958999963,350.4438958999963,350.4438958999963,56,63,34,42,63,60,7.0,2.0773272999940673,,,[],[],[],[],[],[],[],-0.6,2,,[],[],[],[],[],[],[],None,None,352.54668420000235,354.15093809999235,,,,,,,,,,,,,,,,,,,,,,,,,,232,f,26,2023-03-21_09h43.20.387,RL,2022.2.4,60.14404498881359,
0,0.3,0.225,0,23,23,23,,,,,,,,,,None,354.15093809999235,354.15093809999235,354.15093809999235,354.15093809999235,354.15093809999235,354.15093809999235,f,0.3405122999974992,354.5168524000037,354.5168524000037,354.5168524000037,354.5168524000037,354.5168524000037,354.5168524000037,354.8157826999959,354.8157826999959,356.07922499999404,356.07922499999404,356.07922499999404,356.07922499999404,356.07922499999404,356.07922499999404,356.07922499999404,356.07922499999404,356.07922499999404,356.07922499999404,356.07922499999404,356.07922499999404,356.07922499999404,356.07922499999404,356.07922499999404,356.07922499999404,356.07922499999404,,,,,,46,58,46,30,58,67,None,None,67,67,[-0.032407407407407406],[-0.30092592592592593],[1],[0],[0],[3.944375899998704],['tijiao'],0.2,0,,[],[],[],[],[],[],[],6.898148148148148,2.5435787000023993,365.12032299999555,366.69975390000036,358.59149700000125,358.59149700000125,358.59149700000125,358.59149700000125,358.59149700000125,358.59149700000125,358.59149700000125,358.59149700000125,0.007799800005159341,362.55706019999343,362.55706019999343,362.55706019999343,362.55706019999343,,,,,,,,,,,,,232,f,26,2023-03-21_09h43.20.387,RL,2022.2.4,60.14404498881359,
1,-0.3,-0.225,0,24,24,24,,,,,,,,,,None,366.69975390000036,366.69975390000036,366.69975390000036,366.69975390000036,366.69975390000036,366.69975390000036,j,0.9697389000066323,367.6976815999951,367.6976815999951,367.6976815999951,367.6976815999951,367.6976815999951,367.6976815999951,367.9967101999937,367.9967101999937,369.4094733999955,369.4094733999955,369.4094733999955,369.4094733999955,369.4094733999955,369.4094733999955,369.4094733999955,369.4094733999955,369.4094733999955,369.4094733999955,369.4094733999955,369.4094733999955,369.4094733999955,369.4094733999955,369.4094733999955,369.4094733999955,369.4094733999955,371.91872129999683,371.91872129999683,371.91872129999683,371.91872129999683,371.91872129999683,53,63,36,36,36,47,1.0,1.9600147000019206,,,[],[],[],[],[],[],[],0.6,3,,[],[],[],[],[],[],[],None,None,373.9032761999988,375.52566329999536,,,,,,,,,,,,,,,,,,,,,,,,,,232,f,26,2023-03-21_09h43.20.387,RL,2022.2.4,60.14404498881359,
0,0.3,0.225,0,25,25,25,,,,,,,,,,None,375.52566329999536,375.52566329999536,375.52566329999536,375.52566329999536,375.52566329999536,375.52566329999536,r,1.0255040000047302,376.5749436000042,376.5749436000042,376.5749436000042,376.5749436000042,376.5749436000042,376.5749436000042,376.8724987000023,376.8724987000023,378.0358319999941,378.0358319999941,378.0358319999941,378.0358319999941,378.0358319999941,378.0358319999941,378.0358319999941,378.0358319999941,378.0358319999941,378.0358319999941,378.0358319999941,378.0358319999941,378.0358319999941,378.0358319999941,378.0358319999941,378.0358319999941,378.0358319999941,,,,,,58,65,40,32,58,69,None,None,,,[],[],[],[],[],[],[],-0.2,1,68,[0.05],[-0.28703703703703703],[1],[0],[0],[4.5026035999908345],['tijiao'],4.157407407407407,1.805532200000016,386.8937855999975,388.424025100001,,,,,,,,,,385.0697661000013,385.0697661000013,385.0697661000013,385.0697661000013,380.55436799999734,380.55436799999734,380.55436799999734,380.55436799999734,380.55436799999734,380.55436799999734,380.55436799999734,380.55436799999734,0.005323299992596731,,,,232,f,26,2023-03-21_09h43.20.387,RL,2022.2.4,60.14404498881359,
1,-0.3,-0.225,0,26,26,26,,,,,,,,,,None,388.424025100001,388.424025100001,388.424025100001,388.424025100001,388.424025100001,388.424025100001,f,0.6807750999869313,389.1230784999934,389.1230784999934,389.1230784999934,389.1230784999934,389.1230784999934,389.1230784999934,389.4216773999942,389.4216773999942,391.2166232000018,391.2166232000018,391.2166232000018,391.2166232000018,391.2166232000018,391.2166232000018,391.2166232000018,391.2166232000018,391.2166232000018,391.2166232000018,391.2166232000018,391.2166232000018,391.2166232000018,391.2166232000018,391.2166232000018,391.2166232000018,391.2166232000018,,,,,,48,68,41,36,68,56,None,None,68,68,[0.012962962962962963],[-0.27685185185185185],[1],[0],[0],[3.380516199991689],['tijiao'],0.2,0,,[],[],[],[],[],[],[],8.944444444444445,2.528291499998886,399.67577000000165,401.40496479999274,393.72785110000405,393.72785110000405,393.72785110000405,393.72785110000405,393.72785110000405,393.72785110000405,393.72785110000405,393.72785110000405,0.007396600005449727,397.12872900000366,397.12872900000366,397.12872900000366,397.12872900000366,,,,,,,,,,,,,232,f,26,2023-03-21_09h43.20.387,RL,2022.2.4,60.14404498881359,
0,0.3,0.225,0,27,27,27,,,,,,,,,,None,401.40496479999274,401.40496479999274,401.40496479999274,401.40496479999274,401.40496479999274,401.40496479999274,f,0.6030450999969617,402.0370973999961,402.0370973999961,402.0370973999961,402.0370973999961,402.0370973999961,402.0370973999961,402.33627810000326,402.33627810000326,403.8322171000036,403.8322171000036,403.8322171000036,403.8322171000036,403.8322171000036,403.8322171000036,403.8322171000036,403.8322171000036,403.8322171000036,403.8322171000036,403.8322171000036,403.8322171000036,403.8322171000036,403.8322171000036,403.8322171000036,403.8322171000036,403.8322171000036,406.3412618000002,406.3412618000002,406.3412618000002,406.3412618000002,406.3412618000002,54,58,41,36,58,26,6.0,1.7934888000017963,,,[],[],[],[],[],[],[],-0.6,3,,[],[],[],[],[],[],[],None,None,408.16000350000104,409.8487635999918,,,,,,,,,,,,,,,,,,,,,,,,,,232,f,26,2023-03-21_09h43.20.387,RL,2022.2.4,60.14404498881359,
1,-0.3,-0.225,0,28,28,28,,,,,,,,,,None,409.8487635999918,409.8487635999918,409.8487635999918,409.8487635999918,409.8487635999918,409.8487635999918,f,0.31780330000037793,410.1982569999964,410.1982569999964,410.1982569999964,410.1982569999964,410.1982569999964,410.1982569999964,410.49738539999817,410.49738539999817,411.4945244999981,411.4945244999981,411.4945244999981,411.4945244999981,411.4945244999981,411.4945244999981,411.4945244999981,411.4945244999981,411.4945244999981,411.4945244999981,411.4945244999981,411.4945244999981,411.4945244999981,411.4945244999981,411.4945244999981,411.4945244999981,411.4945244999981,414.00341130000015,414.00341130000015,414.00341130000015,414.00341130000015,414.00341130000015,50,65,34,36,65,60,7.0,1.1128756999969482,,,[],[],[],[],[],[],[],0.6,3,,[],[],[],[],[],[],[],None,None,415.14329209999414,417.01237749999564,,,,,,,,,,,,,,,,,,,,,,,,,,232,f,26,2023-03-21_09h43.20.387,RL,2022.2.4,60.14404498881359,
0,0.3,0.225,0,29,29,29,,,,,,,,,,None,417.01237749999564,417.01237749999564,417.01237749999564,417.01237749999564,417.01237749999564,417.01237749999564,f,0.5064668000122765,417.5463316999958,417.5463316999958,417.5463316999958,417.5463316999958,417.5463316999958,417.5463316999958,417.84370379999746,417.84370379999746,419.30658279999625,419.30658279999625,419.3234742000059,419.3234742000059,419.3234742000059,419.3234742000059,419.3234742000059,419.3234742000059,419.3234742000059,419.3234742000059,419.3234742000059,419.3234742000059,419.3234742000059,419.3234742000059,419.3234742000059,419.3234742000059,419.3234742000059,,,,,,46,61,42,39,61,57,None,None,,,[],[],[],[],[],[],[],-0.2,1,68,[0.008333333333333333],[-0.2537037037037037],[1],[0],[0],[3.4409880000021076],['tijiao'],8.0,1.60548870000639,426.91798199999903,428.5976093999925,,,,,,,,,,425.29368539999996,425.29368539999996,425.29368539999996,425.29368539999996,421.8403040999983,421.8403040999983,421.8403040999983,421.8403040999983,421.8403040999983,421.8403040999983,421.8403040999983,421.8403040999983,0.005391600003349595,,,,232,f,26,2023-03-21_09h43.20.387,RL,2022.2.4,60.14404498881359,
1,-0.3,-0.225,0,30,30,30,,,,,,,,,,None,428.5976093999925,428.5976093999925,428.5976093999925,428.5976093999925,428.5976093999925,428.5976093999925,f,0.275452599991695,428.89719800000603,428.89719800000603,428.89719800000603,428.89719800000603,428.89719800000603,428.89719800000603,429.19633829999657,429.19633829999657,430.62583540000196,430.62583540000196,430.62583540000196,430.62583540000196,430.62583540000196,430.62583540000196,430.62583540000196,430.62583540000196,430.62583540000196,430.62583540000196,430.62583540000196,430.62583540000196,430.62583540000196,430.62583540000196,430.62583540000196,430.62583540000196,430.62583540000196,,,,,,51,54,48,39,54,62,None,None,,,[],[],[],[],[],[],[],0.6,1,72,[0.041666666666666664],[-0.29907407407407405],[1],[0],[0],[4.720982700004242],['tijiao'],3.9907407407407405,1.9878701999987243,439.88248519999615,441.5791662999982,,,,,,,,,,437.8763816999999,437.8763816999999,437.8763816999999,437.8763816999999,433.1426502999966,433.1426502999966,433.1426502999966,433.1426502999966,433.1426502999966,433.1426502999966,433.1426502999966,433.1426502999966,0.005824400010169484,,,,232,f,26,2023-03-21_09h43.20.387,RL,2022.2.4,60.14404498881359,
0,0.3,0.225,0,31,31,31,,,,,,,,,,None,441.5791662999982,441.5791662999982,441.5791662999982,441.5791662999982,441.5791662999982,441.5791662999982,j,0.4004399999976158,442.0115094999928,442.0115094999928,442.0115094999928,442.0115094999928,442.0115094999928,442.0115094999928,442.3105366999953,442.3105366999953,444.2883909999946,444.2883909999946,444.2883909999946,444.2883909999946,444.2883909999946,444.2883909999946,444.2883909999946,444.2883909999946,444.2883909999946,444.2883909999946,444.2883909999946,444.2883909999946,444.2883909999946,444.2883909999946,444.2883909999946,444.2883909999946,444.2883909999946,446.79753729999356,446.79753729999356,446.79753729999356,446.79753729999356,446.79753729999356,49,63,44,39,39,62,1.0,2.2928681999910623,,,[],[],[],[],[],[],[],0.2,3,,[],[],[],[],[],[],[],None,None,449.11582979999366,450.9368467000022,,,,,,,,,,,,,,,,,,,,,,,,,,232,f,26,2023-03-21_09h43.20.387,RL,2022.2.4,60.14404498881359,
1,-0.3,-0.225,0,32,32,32,,,,,,,,,,None,450.9368467000022,450.9368467000022,450.9368467000022,450.9368467000022,450.9368467000022,450.9368467000022,f,0.7943551999924239,451.7513162999967,451.7513162999967,451.7513162999967,451.7513162999967,451.7513162999967,451.7513162999967,452.0506524999946,452.0506524999946,453.97872579999967,453.97872579999967,453.9952614999929,453.9952614999929,453.9952614999929,453.9952614999929,453.9952614999929,453.9952614999929,453.9952614999929,453.9952614999929,453.9952614999929,453.9952614999929,453.9952614999929,453.9952614999929,453.9952614999929,453.9952614999929,453.9952614999929,456.5040987999964,456.5040987999964,456.5040987999964,456.5040987999964,456.5040987999964,50,54,47,26,54,60,2.0,1.877697799995076,,,[],[],[],[],[],[],[],-0.2,3,,[],[],[],[],[],[],[],None,None,458.4072656999924,460.1615623999969,,,,,,,,,,,,,,,,,,,,,,,,,,232,f,26,2023-03-21_09h43.20.387,RL,2022.2.4,60.14404498881359,
0,0.3,0.225,0,33,33,33,,,,,,,,,,None,460.1615623999969,460.1615623999969,460.1615623999969,460.1615623999969,460.1615623999969,460.1615623999969,i,0.3208487999945646,460.51095549999445,460.51095549999445,460.51095549999445,460.51095549999445,460.51095549999445,460.51095549999445,460.8100903000013,460.8100903000013,461.8903629999986,461.8903629999986,461.8903629999986,461.8903629999986,461.8903629999986,461.8903629999986,461.8903629999986,461.8903629999986,461.8903629999986,461.8903629999986,461.8903629999986,461.8903629999986,461.8903629999986,461.8903629999986,461.8903629999986,461.8903629999986,461.8903629999986,464.3996002000058,464.3996002000058,464.3996002000058,464.3996002000058,464.3996002000058,49,51,49,41,49,37,5.0,2.5089512999984436,,,[],[],[],[],[],[],[],0.2,3,,[],[],[],[],[],[],[],None,None,466.93312319999677,468.838044899996,,,,,,,,,,,,,,,,,,,,,,,,,,232,f,26,2023-03-21_09h43.20.387,RL,2022.2.4,60.14404498881359,
1,-0.3,-0.225,0,34,34,34,,,,,,,,,,None,468.838044899996,468.838044899996,468.838044899996,468.838044899996,468.838044899996,468.838044899996,r,1.1144851999997627,469.98542300000554,469.98542300000554,469.98542300000554,469.98542300000554,469.98542300000554,469.98542300000554,470.2843014999962,470.2843014999962,471.82979279999563,471.82979279999563,471.82979279999563,471.82979279999563,471.82979279999563,471.82979279999563,471.82979279999563,471.82979279999563,471.82979279999563,471.82979279999563,471.82979279999563,471.82979279999563,471.82979279999563,471.82979279999563,471.82979279999563,471.82979279999563,471.82979279999563,,,,,,53,49,50,36,53,54,None,None,64,64,[-0.020370370370370372],[-0.29444444444444445],[1],[0],[0],[3.927932899998268],['tijiao'],0.6,0,,[],[],[],[],[],[],[],3.935185185185185,2.179423900000984,480.48869879999256,482.433801399995,474.34174560000247,474.34174560000247,474.34174560000247,474.34174560000247,474.34174560000247,474.34174560000247,474.34174560000247,474.34174560000247,0.0072213999956147745,478.2901484000031,478.2901484000031,478.2901484000031,478.2901484000031,,,,,,,,,,,,,232,f,26,2023-03-21_09h43.20.387,RL,2022.2.4,60.14404498881359,
0,0.3,0.225,0,35,35,35,,,,,,,,,,None,482.433801399995,482.433801399995,482.433801399995,482.433801399995,482.433801399995,482.433801399995,i,0.6674757000000682,483.1332175999996,483.1332175999996,483.1332175999996,483.1332175999996,483.1332175999996,483.1332175999996,483.43170689999533,483.43170689999533,484.6612804000033,484.6612804000033,484.6612804000033,484.6612804000033,484.6612804000033,484.6612804000033,484.6612804000033,484.6612804000033,484.6612804000033,484.6612804000033,484.6612804000033,484.6612804000033,484.6612804000033,484.6612804000033,484.6612804000033,484.6612804000033,484.6612804000033,,,,,,42,54,47,31,47,55,None,None,47,47,[0.03981481481481482],[-0.30277777777777776],[1],[0],[0],[3.2804100000066683],['tijiao'],-0.2,0,,[],[],[],[],[],[],[],3.8703703703703702,1.9801498999877367,492.472826600002,494.1687626000057,487.1734293000045,487.1734293000045,487.1734293000045,487.1734293000045,487.1734293000045,487.1734293000045,487.1734293000045,487.1734293000045,0.007123900009901263,490.4730508999928,490.4730508999928,490.4730508999928,490.4730508999928,,,,,,,,,,,,,232,f,26,2023-03-21_09h43.20.387,RL,2022.2.4,60.14404498881359,
1,-0.3,-0.225,0,36,36,36,,,,,,,,,,None,494.1687626000057,494.1687626000057,494.1687626000057,494.1687626000057,494.1687626000057,494.1687626000057,f,0.3746423999982653,494.5679697000014,494.5679697000014,494.5679697000014,494.5679697000014,494.5679697000014,494.5679697000014,494.86722949999967,494.86722949999967,495.9804714000056,495.9804714000056,495.9804714000056,495.9804714000056,495.9804714000056,495.9804714000056,495.9804714000056,495.9804714000056,495.9804714000056,495.9804714000056,495.9804714000056,495.9804714000056,495.9804714000056,495.9804714000056,495.9804714000056,495.9804714000056,495.9804714000056,498.48941840000043,498.48941840000043,498.48941840000043,498.48941840000043,498.48941840000043,50,48,49,37,48,25,7.0,1.7775564000039594,,,[],[],[],[],[],[],[],0.2,3,,[],[],[],[],[],[],[],None,None,500.2950811000046,502.1963679000037,,,,,,,,,,,,,,,,,,,,,,,,,,232,f,26,2023-03-21_09h43.20.387,RL,2022.2.4,60.14404498881359,
0,0.3,0.225,0,37,37,37,,,,,,,,,,None,502.1963679000037,502.1963679000037,502.1963679000037,502.1963679000037,502.1963679000037,502.1963679000037,f,0.38905009999871254,502.612689600006,502.612689600006,502.612689600006,502.612689600006,502.612689600006,502.612689600006,502.9116825999954,502.9116825999954,504.10863279999467,504.10863279999467,504.10863279999467,504.10863279999467,504.10863279999467,504.10863279999467,504.10863279999467,504.10863279999467,504.10863279999467,504.10863279999467,504.10863279999467,504.10863279999467,504.10863279999467,504.10863279999467,504.10863279999467,504.10863279999467,504.10863279999467,,,,,,47,46,46,41,46,59,None,None,,,[],[],[],[],[],[],[],-0.2,1,46,[0.000925925925925926],[-0.3055555555555556],[1],[0],[0],[2.957149299996672],['tijiao'],7.148148148148148,2.0702773000084562,511.68649829999777,513.2335536000028,,,,,,,,,,509.59907229999953,509.59907229999953,509.59907229999953,509.59907229999953,506.6267852000019,506.6267852000019,506.6267852000019,506.6267852000019,506.6267852000019,506.6267852000019,506.6267852000019,506.6267852000019,0.005458599989651702,,,,232,f,26,2023-03-21_09h43.20.387,RL,2022.2.4,60.14404498881359,
1,-0.3,-0.225,0,38,38,38,,,,,,,,,,None,513.2335536000028,513.2335536000028,513.2335536000028,513.2335536000028,513.2335536000028,513.2335536000028,f,0.5607872999971732,513.8163467999984,513.8163467999984,513.8163467999984,513.8163467999984,513.8163467999984,513.8163467999984,514.114713300005,514.114713300005,515.8597741999984,515.8597741999984,515.8597741999984,515.8597741999984,515.8597741999984,515.8597741999984,515.8597741999984,515.8597741999984,515.8597741999984,515.8597741999984,515.8597741999984,515.8597741999984,515.8597741999984,515.8597741999984,515.8597741999984,515.8597741999984,515.8597741999984,518.3688776000054,518.3688776000054,518.3688776000054,518.3688776000054,518.3688776000054,44,56,42,31,56,61,4.0,1.7609677000000374,,,[],[],[],[],[],[],[],0.6,2,,[],[],[],[],[],[],[],None,None,520.1556631999993,521.6770860999968,,,,,,,,,,,,,,,,,,,,,,,,,,232,f,26,2023-03-21_09h43.20.387,RL,2022.2.4,60.14404498881359,
0,0.3,0.225,0,39,39,39,,,,,,,,,,None,521.6770860999968,521.6770860999968,521.6770860999968,521.6770860999968,521.6770860999968,521.6770860999968,i,0.29861610000079963,521.9930759999988,521.9930759999988,521.9930759999988,521.9930759999988,521.9930759999988,521.9930759999988,522.2922970999934,522.2922970999934,523.1229810999939,523.1229810999939,523.1229810999939,523.1229810999939,523.1229810999939,523.1229810999939,523.1229810999939,523.1229810999939,523.1229810999939,523.1229810999939,523.1229810999939,523.1229810999939,523.1229810999939,523.1229810999939,523.1229810999939,523.1229810999939,523.1229810999939,,,,,,47,54,45,25,45,68,None,None,,,[],[],[],[],[],[],[],0.6,1,37,[-0.006481481481481481],[-0.27870370370370373],[1],[0],[0],[8.475551800001995],['tijiao'],5.027777777777778,2.286499800000456,536.4357220999955,538.0989945000038,,,,,,,,,,534.130837100005,534.130837100005,534.130837100005,534.130837100005,525.6414298000018,525.6414298000018,525.6414298000018,525.6414298000018,525.6414298000018,525.6414298000018,525.6414298000018,525.6414298000018,0.005663399992045015,,,,232,f,26,2023-03-21_09h43.20.387,RL,2022.2.4,60.14404498881359,
1,-0.3,-0.225,0,40,40,40,,,,,,,,,,None,538.0989945000038,538.0989945000038,538.0989945000038,538.0989945000038,538.0989945000038,538.0989945000038,f,0.9352345000079367,539.0641471999988,539.0641471999988,539.0641471999988,539.0641471999988,539.0641471999988,539.0641471999988,539.3623744999932,539.3623744999932,540.2266844999976,540.2266844999976,540.2266844999976,540.2266844999976,540.2266844999976,540.2266844999976,540.2266844999976,540.2266844999976,540.2266844999976,540.2266844999976,540.2266844999976,540.2266844999976,540.2266844999976,540.2266844999976,540.2266844999976,540.2266844999976,540.2266844999976,,,,,,37,49,42,31,49,77,None,None,55,55,[0.03425925925925926],[-0.28055555555555556],[1],[0],[0],[6.723931200001971],['tijiao'],0.6,0,,[],[],[],[],[],[],[],4.916666666666666,2.112799399998039,551.6111035999929,553.3906143000058,542.7369561999949,542.7369561999949,542.7369561999949,542.7369561999949,542.7369561999949,542.7369561999949,542.7369561999949,542.7369561999949,0.004881399989244528,549.4797320999933,549.4797320999933,549.4797320999933,549.4797320999933,,,,,,,,,,,,,232,f,26,2023-03-21_09h43.20.387,RL,2022.2.4,60.14404498881359,
0,0.3,0.225,0,41,41,41,,,,,,,,,,None,553.3906143000058,553.3906143000058,553.3906143000058,553.3906143000058,553.3906143000058,553.3906143000058,i,0.5688737000018591,553.9912038000039,553.9912038000039,553.9912038000039,553.9912038000039,553.9912038000039,553.9912038000039,554.2883336999948,554.2883336999948,556.266324199998,556.266324199998,556.266324199998,556.266324199998,556.266324199998,556.266324199998,556.266324199998,556.266324199998,556.266324199998,556.266324199998,556.266324199998,556.266324199998,556.266324199998,556.266324199998,556.266324199998,556.266324199998,556.266324199998,558.7753186000045,558.7753186000045,558.7753186000045,558.7753186000045,558.7753186000045,48,42,47,32,47,65,2.0,2.193713900007424,,,[],[],[],[],[],[],[],0.2,3,,[],[],[],[],[],[],[],None,None,560.9934527000005,562.9476842000004,,,,,,,,,,,,,,,,,,,,,,,,,,232,f,26,2023-03-21_09h43.20.387,RL,2022.2.4,60.14404498881359,
1,-0.3,-0.225,0,42,42,42,,,,,,,,,,None,562.9476842000004,562.9476842000004,562.9476842000004,562.9476842000004,562.9476842000004,562.9476842000004,f,0.6929490999900736,563.6629453999922,563.6629453999922,563.6629453999922,563.6629453999922,563.6629453999922,563.6629453999922,563.9618672999932,563.9618672999932,564.9092458999949,564.9092458999949,564.9092458999949,564.9092458999949,564.9092458999949,564.9092458999949,564.9092458999949,564.9092458999949,564.9092458999949,564.9092458999949,564.9092458999949,564.9092458999949,564.9092458999949,564.9092458999949,564.9092458999949,564.9092458999949,564.9092458999949,567.4182104999927,567.4182104999927,567.4182104999927,567.4182104999927,567.4182104999927,43,51,49,35,51,74,2.0,1.4951525999931619,,,[],[],[],[],[],[],[],-0.2,2,,[],[],[],[],[],[],[],None,None,568.9379059000057,570.859392600003,,,,,,,,,,,,,,,,,,,,,,,,,,232,f,26,2023-03-21_09h43.20.387,RL,2022.2.4,60.14404498881359,
0,0.3,0.225,0,43,43,43,,,,,,,,,,None,570.859392600003,570.859392600003,570.859392600003,570.859392600003,570.859392600003,570.859392600003,i,0.8277814000030048,571.7075908999977,571.7075908999977,571.7075908999977,571.7075908999977,571.7075908999977,571.7075908999977,572.0068175000051,572.0068175000051,573.3196609000006,573.3196609000006,573.3196609000006,573.3196609000006,573.3196609000006,573.3196609000006,573.3196609000006,573.3196609000006,573.3196609000006,573.3196609000006,573.3196609000006,573.3196609000006,573.3196609000006,573.3196609000006,573.3196609000006,573.3196609000006,573.3196609000006,575.8289262000035,575.8289262000035,575.8289262000035,575.8289262000035,575.8289262000035,47,57,42,29,42,68,1.0,2.2598345000005793,,,[],[],[],[],[],[],[],-0.2,3,,[],[],[],[],[],[],[],None,None,578.1157840999949,579.6355756999983,,,,,,,,,,,,,,,,,,,,,,,,,,232,f,26,2023-03-21_09h43.20.387,RL,2022.2.4,60.14404498881359,
1,-0.3,-0.225,0,44,44,44,,,,,,,,,,None,579.6355756999983,579.6355756999983,579.6355756999983,579.6355756999983,579.6355756999983,579.6355756999983,r,1.2378538000048138,580.8990058000054,580.8990058000054,580.8990058000054,580.8990058000054,580.8990058000054,580.8990058000054,581.1981144000019,581.1981144000019,583.0925790000038,583.0925790000038,583.0925790000038,583.0925790000038,583.0925790000038,583.0925790000038,583.0925790000038,583.0925790000038,583.0925790000038,583.0925790000038,583.0925790000038,583.0925790000038,583.0925790000038,583.0925790000038,583.0925790000038,583.0925790000038,583.0925790000038,,,,,,39,59,46,34,39,81,None,None,,,[],[],[],[],[],[],[],-0.6,1,39,"[-0.03333333333333333, -0.004629629629629629]","[-0.24722222222222223, -0.2851851851851852]","[1, 1]","[0, 0]","[0, 0]","[5.817046500000288, 6.233069800000521]",['tijiao'],3.9907407407407405,5.029890700010583,596.9039212999924,598.7996043000021,,,,,,,,,,591.855555400005,591.855555400005,591.855555400005,591.855555400005,585.6095126,585.6095126,585.6095126,585.6095126,585.6095126,585.6095126,585.6095126,585.6095126,0.005437900006654672,,,,232,f,26,2023-03-21_09h43.20.387,RL,2022.2.4,60.14404498881359,
0,0.3,0.225,0,45,45,45,,,,,,,,,,None,598.7996043000021,598.7996043000021,598.7996043000021,598.7996043000021,598.7996043000021,598.7996043000021,f,0.29110790000413544,599.1163597999985,599.1163597999985,599.1163597999985,599.1163597999985,599.1163597999985,599.1163597999985,599.4149017000018,599.4149017000018,601.1105698000028,601.1105698000028,601.1105698000028,601.1105698000028,601.1105698000028,601.1105698000028,601.1105698000028,601.1105698000028,601.1105698000028,601.1105698000028,601.1105698000028,601.1105698000028,601.1105698000028,601.1105698000028,601.1105698000028,601.1105698000028,601.1105698000028,603.6196344000055,603.6196344000055,603.6196344000055,603.6196344000055,603.6196344000055,40,62,38,33,62,77,3.0,1.6778007000102662,,,[],[],[],[],[],[],[],0.6,3,,[],[],[],[],[],[],[],None,None,605.322063700005,606.9774997999921,,,,,,,,,,,,,,,,,,,,,,,,,,232,f,26,2023-03-21_09h43.20.387,RL,2022.2.4,60.14404498881359,
1,-0.3,-0.225,0,46,46,46,,,,,,,,,,None,606.9774997999921,606.9774997999921,606.9774997999921,606.9774997999921,606.9774997999921,606.9774997999921,f,0.7696881000010762,607.7759226000053,607.7759226000053,607.7759226000053,607.7759226000053,607.7759226000053,607.7759226000053,608.0745210000023,608.0745210000023,610.0197890999989,610.0197890999989,610.0197890999989,610.0197890999989,610.0197890999989,610.0197890999989,610.0197890999989,610.0197890999989,610.0197890999989,610.0197890999989,610.0197890999989,610.0197890999989,610.0197890999989,610.0197890999989,610.0197890999989,610.0197890999989,610.0197890999989,,,,,,43,54,50,44,54,67,None,None,67,67,[0.07407407407407407],[-0.2814814814814815],[1],[0],[0],[6.5564905000064755],['tijiao'],-0.6,0,,[],[],[],[],[],[],[],5.12962962962963,2.642135500005679,621.7694622999988,623.4826680999977,612.5300658000051,612.5300658000051,612.5300658000051,612.5300658000051,612.5300658000051,612.5300658000051,612.5300658000051,612.5300658000051,0.005602199991699308,619.1084518999996,619.1084518999996,619.1084518999996,619.1084518999996,,,,,,,,,,,,,232,f,26,2023-03-21_09h43.20.387,RL,2022.2.4,60.14404498881359,
0,0.3,0.225,0,47,47,47,,,,,,,,,,None,623.4826680999977,623.4826680999977,623.4826680999977,623.4826680999977,623.4826680999977,623.4826680999977,i,0.6938376000034623,624.1979679999931,624.1979679999931,624.1979679999931,624.1979679999931,624.1979679999931,624.1979679999931,624.4969163999922,624.4969163999922,625.7597702999919,625.7597702999919,625.7597702999919,625.7597702999919,625.7597702999919,625.7597702999919,625.7597702999919,625.7597702999919,625.7597702999919,625.7597702999919,625.7597702999919,625.7597702999919,625.7597702999919,625.7597702999919,625.7597702999919,625.7597702999919,625.7597702999919,,,,,,38,55,49,39,49,71,None,None,,,[],[],[],[],[],[],[],0.2,1,69,[-0.04722222222222222],[-0.3148148148148148],[1],[0],[0],[3.9043796000041766],['tijiao'],2.9166666666666665,2.7695177999994485,634.9833607000037,636.6296684999979,,,,,,,,,,632.1950705000054,632.1950705000054,632.1950705000054,632.1950705000054,628.2788918000006,628.2788918000006,628.2788918000006,628.2788918000006,628.2788918000006,628.2788918000006,628.2788918000006,628.2788918000006,0.006205900004715659,,,,232,f,26,2023-03-21_09h43.20.387,RL,2022.2.4,60.14404498881359,
1,-0.3,-0.225,0,48,48,48,,,,,,,,,,None,636.6296684999979,636.6296684999979,636.6296684999979,636.6296684999979,636.6296684999979,636.6296684999979,i,0.6739196999988053,637.3297765000025,637.3297765000025,637.3297765000025,637.3297765000025,637.3297765000025,637.3297765000025,637.6272744000016,637.6272744000016,639.4890293000062,639.4890293000062,639.5053245000017,639.5053245000017,639.5053245000017,639.5053245000017,639.5053245000017,639.5053245000017,639.5053245000017,639.5053245000017,639.5053245000017,639.5053245000017,639.5053245000017,639.5053245000017,639.5053245000017,639.5053245000017,639.5053245000017,642.0146916999947,642.0146916999947,642.0146916999947,642.0146916999947,642.0146916999947,44,47,53,41,53,70,2.0,3.290550699995947,,,[],[],[],[],[],[],[],0.2,3,,[],[],[],[],[],[],[],None,None,645.3299901999999,647.3176134999958,,,,,,,,,,,,,,,,,,,,,,,,,,232,f,26,2023-03-21_09h43.20.387,RL,2022.2.4,60.14404498881359,
0,0.3,0.225,0,49,49,49,,,,,,,,,,None,647.3176134999958,647.3176134999958,647.3176134999958,647.3176134999958,647.3176134999958,647.3176134999958,f,1.10976639999717,648.448243699997,648.448243699997,648.448243699997,648.448243699997,648.448243699997,648.448243699997,648.7472839999973,648.7472839999973,649.8442069000012,649.8442069000012,649.8442069000012,649.8442069000012,649.8442069000012,649.8442069000012,649.8442069000012,649.8442069000012,649.8442069000012,649.8442069000012,649.8442069000012,649.8442069000012,649.8442069000012,649.8442069000012,649.8442069000012,649.8442069000012,649.8442069000012,,,,,,37,55,49,40,55,72,None,None,,,[],[],[],[],[],[],[],-0.2,1,52,[0.05462962962962963],[-0.30092592592592593],[1],[0],[0],[3.023558700006106],['tijiao'],2.9722222222222223,2.204859100005706,657.621708199993,659.5174235000013,,,,,,,,,,655.3981984999991,655.3981984999991,655.3981984999991,655.3981984999991,652.3621699999931,652.3621699999931,652.3621699999931,652.3621699999931,652.3621699999931,652.3621699999931,652.3621699999931,652.3621699999931,0.0063415000040549785,,,,232,f,26,2023-03-21_09h43.20.387,RL,2022.2.4,60.14404498881359,
1,-0.3,-0.225,0,50,50,50,,,,,,,,,,None,659.5174235000013,659.5174235000013,659.5174235000013,659.5174235000013,659.5174235000013,659.5174235000013,f,0.3297569999995176,659.867116399997,659.867116399997,659.867116399997,659.867116399997,659.867116399997,659.867116399997,660.1661506999953,660.1661506999953,661.6617618000018,661.6617618000018,661.6784830999968,661.6784830999968,661.6784830999968,661.6784830999968,661.6784830999968,661.6784830999968,661.6784830999968,661.6784830999968,661.6784830999968,661.6784830999968,661.6784830999968,661.6784830999968,661.6784830999968,661.6784830999968,661.6784830999968,,,,,,42,47,45,38,47,59,None,None,,,[],[],[],[],[],[],[],-0.2,1,47,[-0.08425925925925926],[-0.27870370370370373],[1],[0],[0],[4.106150899999193],['tijiao'],2.055555555555556,2.3032721000054153,670.6360969999951,672.4983358000027,,,,,,,,,,668.3151868999994,668.3151868999994,668.3151868999994,668.3151868999994,664.1953371999989,664.1953371999989,664.1953371999989,664.1953371999989,664.1953371999989,664.1953371999989,664.1953371999989,664.1953371999989,0.005604499994660728,,,,232,f,26,2023-03-21_09h43.20.387,RL,2022.2.4,60.14404498881359,
0,0.3,0.225,0,51,51,51,,,,,,,,,,None,672.4983358000027,672.4983358000027,672.4983358000027,672.4983358000027,672.4983358000027,672.4983358000027,i,0.39226729999063537,672.9147986000025,672.9147986000025,672.9147986000025,672.9147986000025,672.9147986000025,672.9147986000025,673.2134291999973,673.2134291999973,674.7096280999976,674.7096280999976,674.7096280999976,674.7096280999976,674.7096280999976,674.7096280999976,674.7096280999976,674.7096280999976,674.7096280999976,674.7096280999976,674.7096280999976,674.7096280999976,674.7096280999976,674.7096280999976,674.7096280999976,674.7096280999976,674.7096280999976,,,,,,37,61,36,32,36,65,None,None,,,[],[],[],[],[],[],[],0.2,1,36,[0.012037037037037037],[-0.2861111111111111],[1],[0],[0],[3.7054883999953745],['tijiao'],3.8148148148148144,2.2703392999974312,683.2351435000019,685.0313412999967,,,,,,,,,,680.946059599999,680.946059599999,680.946059599999,680.946059599999,677.2284734999994,677.2284734999994,677.2284734999994,677.2284734999994,677.2284734999994,677.2284734999994,677.2284734999994,677.2284734999994,0.005646499994327314,,,,232,f,26,2023-03-21_09h43.20.387,RL,2022.2.4,60.14404498881359,
1,-0.3,-0.225,0,52,52,52,,,,,,,,,,None,685.0313412999967,685.0313412999967,685.0313412999967,685.0313412999967,685.0313412999967,685.0313412999967,r,0.6804333000036422,685.729806599993,685.729806599993,685.729806599993,685.729806599993,685.729806599993,685.729806599993,686.0284669999965,686.0284669999965,687.9898011000041,687.9898011000041,687.9898011000041,687.9898011000041,687.9898011000041,687.9898011000041,687.9898011000041,687.9898011000041,687.9898011000041,687.9898011000041,687.9898011000041,687.9898011000041,687.9898011000041,687.9898011000041,687.9898011000041,687.9898011000041,687.9898011000041,,,,,,39,68,44,32,39,62,None,None,,,[],[],[],[],[],[],[],-0.6,1,39,[-0.007407407407407408],[-0.2833333333333333],[1],[0],[0],[4.736110300000291],['tijiao'],3.0,1.8227401000040118,697.097308299999,698.6439138999995,,,,,,,,,,695.2559760000004,695.2559760000004,695.2559760000004,695.2559760000004,690.5073211999988,690.5073211999988,690.5073211999988,690.5073211999988,690.5073211999988,690.5073211999988,690.5073211999988,690.5073211999988,0.005797899997560307,,,,232,f,26,2023-03-21_09h43.20.387,RL,2022.2.4,60.14404498881359,
0,0.3,0.225,0,53,53,53,,,,,,,,,,None,698.6439138999995,698.6439138999995,698.6439138999995,698.6439138999995,698.6439138999995,698.6439138999995,i,0.35455970000475645,699.0287090000056,699.0287090000056,699.0287090000056,699.0287090000056,699.0287090000056,699.0287090000056,699.3258851999999,699.3258851999999,700.3397511999938,700.3397511999938,700.3397511999938,700.3397511999938,700.3397511999938,700.3397511999938,700.3397511999938,700.3397511999938,700.3397511999938,700.3397511999938,700.3397511999938,700.3397511999938,700.3397511999938,700.3397511999938,700.3397511999938,700.3397511999938,700.3397511999938,702.8485985000007,702.8485985000007,702.8485985000007,702.8485985000007,702.8485985000007,42,78,43,34,43,61,3.0,3.6726144999993267,,,[],[],[],[],[],[],[],-0.6,3,,[],[],[],[],[],[],[],None,None,706.5464448999992,708.2514247999934,,,,,,,,,,,,,,,,,,,,,,,,,,232,f,26,2023-03-21_09h43.20.387,RL,2022.2.4,60.14404498881359,
1,-0.3,-0.225,0,54,54,54,,,,,,,,,,None,708.2514247999934,708.2514247999934,708.2514247999934,708.2514247999934,708.2514247999934,708.2514247999934,f,0.3281886000040686,708.6009848999965,708.6009848999965,708.6009848999965,708.6009848999965,708.6009848999965,708.6009848999965,708.8997455000062,708.8997455000062,710.3125533999992,710.3125533999992,710.3125533999992,710.3125533999992,710.3125533999992,710.3125533999992,710.3125533999992,710.3125533999992,710.3125533999992,710.3125533999992,710.3125533999992,710.3125533999992,710.3125533999992,710.3125533999992,710.3125533999992,710.3125533999992,710.3125533999992,,,,,,46,74,42,38,74,73,None,None,74,74,[0.032407407407407406],[-0.34074074074074073],[1],[0],[0],[4.461734800002887],['tijiao'],0.6,0,,[],[],[],[],[],[],[],6.064814814814815,1.9945994000008795,719.3201386000001,721.1989466999948,712.8228459999955,712.8228459999955,712.8228459999955,712.8228459999955,712.8228459999955,712.8228459999955,712.8228459999955,712.8228459999955,0.0056468999973731115,717.307054200006,717.307054200006,717.307054200006,717.307054200006,,,,,,,,,,,,,232,f,26,2023-03-21_09h43.20.387,RL,2022.2.4,60.14404498881359,
0,0.3,0.225,0,55,55,55,,,,,,,,,,None,721.1989466999948,721.1989466999948,721.1989466999948,721.1989466999948,721.1989466999948,721.1989466999948,i,0.4234415999962948,721.6498234000028,721.6498234000028,721.6498234000028,721.6498234000028,721.6498234000028,721.6498234000028,721.9474441999919,721.9474441999919,723.4598859999969,723.4598859999969,723.4598859999969,723.4598859999969,723.4598859999969,723.4598859999969,723.4598859999969,723.4598859999969,723.4598859999969,723.4598859999969,723.4598859999969,723.4598859999969,723.4598859999969,723.4598859999969,723.4598859999969,723.4598859999969,723.4598859999969,,,,,,40,74,41,33,41,65,None,None,,,[],[],[],[],[],[],[],-0.6,1,39,[0.004629629629629629],[-0.2833333333333333],[1],[0],[0],[3.4061298000015086],['tijiao'],1.9537037037037037,2.385046900002635,731.8026760999928,733.3660611999949,,,,,,,,,,729.399700199996,729.399700199996,729.399700199996,729.399700199996,725.9784317000012,725.9784317000012,725.9784317000012,725.9784317000012,725.9784317000012,725.9784317000012,725.9784317000012,725.9784317000012,0.005803000007290393,,,,232,f,26,2023-03-21_09h43.20.387,RL,2022.2.4,60.14404498881359,
1,-0.3,-0.225,0,56,56,56,,,,,,,,,,None,733.3660611999949,733.3660611999949,733.3660611999949,733.3660611999949,733.3660611999949,733.3660611999949,i,0.29499499998928513,733.6824639999977,733.6824639999977,733.6824639999977,733.6824639999977,733.6824639999977,733.6824639999977,733.9810631,733.9810631,735.3609624999954,735.3609624999954,735.3609624999954,735.3609624999954,735.3609624999954,735.3609624999954,735.3609624999954,735.3609624999954,735.3609624999954,735.3609624999954,735.3609624999954,735.3609624999954,735.3609624999954,735.3609624999954,735.3609624999954,735.3609624999954,735.3609624999954,,,,,,42,83,49,42,49,39,None,None,67,67,[-0.07962962962962963],[-0.3],[1],[0],[0],[6.471880400000373],['tijiao'],0.2,0,,[],[],[],[],[],[],[],2.962962962962963,2.3103798999945866,746.6952087999962,748.4411660000042,737.8718355000019,737.8718355000019,737.8718355000019,737.8718355000019,737.8718355000019,737.8718355000019,737.8718355000019,737.8718355000019,0.00724360000458546,744.3660302999924,744.3660302999924,744.3660302999924,744.3660302999924,,,,,,,,,,,,,232,f,26,2023-03-21_09h43.20.387,RL,2022.2.4,60.14404498881359,
0,0.3,0.225,0,57,57,57,,,,,,,,,,None,748.4411660000042,748.4411660000042,748.4411660000042,748.4411660000042,748.4411660000042,748.4411660000042,f,0.5345271999976831,749.0073985000054,749.0073985000054,749.0073985000054,749.0073985000054,749.0073985000054,749.0073985000054,749.3058155000035,749.3058155000035,750.9350440999988,750.9350440999988,750.9350440999988,750.9350440999988,750.9350440999988,750.9350440999988,750.9350440999988,750.9350440999988,750.9350440999988,750.9350440999988,750.9350440999988,750.9350440999988,750.9350440999988,750.9350440999988,750.9350440999988,750.9350440999988,750.9350440999988,753.4441583000007,753.4441583000007,753.4441583000007,753.4441583000007,753.4441583000007,41,72,43,48,72,68,7.0,2.209863399999449,,,[],[],[],[],[],[],[],0.6,3,,[],[],[],[],[],[],[],None,None,755.678298400002,757.3171979000035,,,,,,,,,,,,,,,,,,,,,,,,,,232,f,26,2023-03-21_09h43.20.387,RL,2022.2.4,60.14404498881359,
1,-0.3,-0.225,0,58,58,58,,,,,,,,,,None,757.3171979000035,757.3171979000035,757.3171979000035,757.3171979000035,757.3171979000035,757.3171979000035,r,0.9550277999951504,758.2985189000028,758.2985189000028,758.2985189000028,758.2985189000028,758.2985189000028,758.2985189000028,758.5975354999973,758.5975354999973,759.7770033999986,759.7770033999986,759.7770033999986,759.7770033999986,759.7770033999986,759.7770033999986,759.7770033999986,759.7770033999986,759.7770033999986,759.7770033999986,759.7770033999986,759.7770033999986,759.7770033999986,759.7770033999986,759.7770033999986,759.7770033999986,759.7770033999986,,,,,,32,80,47,47,32,64,None,None,,,[],[],[],[],[],[],[],-0.2,1,46,[0.002777777777777778],[-0.2759259259259259],[1],[0],[0],[3.289103299990529],['tijiao'],2.0185185185185186,2.202580700002727,767.8213493999938,769.3511091999972,,,,,,,,,,765.6003622999997,765.6003622999997,765.6003622999997,765.6003622999997,762.2967612999928,762.2967612999928,762.2967612999928,762.2967612999928,762.2967612999928,762.2967612999928,762.2967612999928,762.2967612999928,0.005221500003244728,,,,232,f,26,2023-03-21_09h43.20.387,RL,2022.2.4,60.14404498881359,
0,0.3,0.225,0,59,59,59,,,,,,,,,,None,769.3511091999972,769.3511091999972,769.3511091999972,769.3511091999972,769.3511091999972,769.3511091999972,i,0.5899552000046242,769.9667909999989,769.9667909999989,769.9667909999989,769.9667909999989,769.9667909999989,769.9667909999989,770.2655543000001,770.2655543000001,771.1628449999989,771.1628449999989,771.1628449999989,771.1628449999989,771.1628449999989,771.1628449999989,771.1628449999989,771.1628449999989,771.1628449999989,771.1628449999989,771.1628449999989,771.1628449999989,771.1628449999989,771.1628449999989,771.1628449999989,771.1628449999989,771.1628449999989,773.6720592999918,773.6720592999918,773.6720592999918,773.6720592999918,773.6720592999918,38,77,46,44,46,51,2.0,2.4758719999954337,,,[],[],[],[],[],[],[],-0.6,2,,[],[],[],[],[],[],[],None,None,776.1718012000056,778.0774182000023,,,,,,,,,,,,,,,,,,,,,,,,,,232,f,26,2023-03-21_09h43.20.387,RL,2022.2.4,60.14404498881359,
1,-0.3,-0.225,0,60,60,60,,,,,,,,,,None,778.0774182000023,778.0774182000023,778.0774182000023,778.0774182000023,778.0774182000023,778.0774182000023,f,0.305236900007003,778.4102710000006,778.4102710000006,778.4102710000006,778.4102710000006,778.4102710000006,778.4102710000006,778.7090408999939,778.7090408999939,779.9721208999981,779.9721208999981,779.9721208999981,779.9721208999981,779.9721208999981,779.9721208999981,779.9721208999981,779.9721208999981,779.9721208999981,779.9721208999981,779.9721208999981,779.9721208999981,779.9721208999981,779.9721208999981,779.9721208999981,779.9721208999981,779.9721208999981,,,,,,40,75,49,45,75,75,None,None,65,65,[-0.009259259259259259],[-0.29074074074074074],[1],[0],[0],[5.3263662999961525],['tijiao'],-0.6,0,,[],[],[],[],[],[],[],1.7777777777777777,2.145365000003949,789.9935943000019,791.9229742000025,782.4823009999964,782.4823009999964,782.4823009999964,782.4823009999964,782.4823009999964,782.4823009999964,782.4823009999964,782.4823009999964,0.005640200004563667,787.8291613000038,787.8291613000038,787.8291613000038,787.8291613000038,,,,,,,,,,,,,232,f,26,2023-03-21_09h43.20.387,RL,2022.2.4,60.14404498881359,
0,0.3,0.225,0,61,61,61,,,,,,,,,,None,791.9229742000025,791.9229742000025,791.9229742000025,791.9229742000025,791.9229742000025,791.9229742000025,i,0.3413202999945497,792.2917949999974,792.2917949999974,792.2917949999974,792.2917949999974,792.2917949999974,792.2917949999974,792.5881135999953,792.5881135999953,793.6517602999957,793.6517602999957,793.6517602999957,793.6517602999957,793.6517602999957,793.6517602999957,793.6517602999957,793.6517602999957,793.6517602999957,793.6517602999957,793.6517602999957,793.6517602999957,793.6517602999957,793.6517602999957,793.6517602999957,793.6517602999957,793.6517602999957,796.1607371999999,796.1607371999999,796.1607371999999,796.1607371999999,796.1607371999999,37,84,43,49,43,65,2.0,1.96072109999659,,,[],[],[],[],[],[],[],-0.2,3,,[],[],[],[],[],[],[],None,None,798.147020000004,799.9673946999974,,,,,,,,,,,,,,,,,,,,,,,,,,232,f,26,2023-03-21_09h43.20.387,RL,2022.2.4,60.14404498881359,
1,-0.3,-0.225,0,62,62,62,,,,,,,,,,None,799.9673946999974,799.9673946999974,799.9673946999974,799.9673946999974,799.9673946999974,799.9673946999974,f,0.9787005999969551,800.9650710999995,800.9650710999995,800.9650710999995,800.9650710999995,800.9650710999995,800.9650710999995,801.2641530999972,801.2641530999972,803.0760088999959,803.0760088999959,803.0760088999959,803.0760088999959,803.0760088999959,803.0760088999959,803.0760088999959,803.0760088999959,803.0760088999959,803.0760088999959,803.0760088999959,803.0760088999959,803.0760088999959,803.0760088999959,803.0760088999959,803.0760088999959,803.0760088999959,805.5852425000048,805.5852425000048,805.5852425000048,805.5852425000048,805.5852425000048,45,68,55,48,68,57,7.0,2.008750599998166,,,[],[],[],[],[],[],[],0.2,3,,[],[],[],[],[],[],[],None,None,807.6260844999924,809.4415181999939,,,,,,,,,,,,,,,,,,,,,,,,,,232,f,26,2023-03-21_09h43.20.387,RL,2022.2.4,60.14404498881359,
0,0.3,0.225,0,63,63,63,,,,,,,,,,None,809.4415181999939,809.4415181999939,809.4415181999939,809.4415181999939,809.4415181999939,809.4415181999939,f,0.6409355000068899,810.1067896000022,810.1067896000022,810.1067896000022,810.1067896000022,810.1067896000022,810.1067896000022,810.4059163000056,810.4059163000056,811.8853476999939,811.8853476999939,811.8853476999939,811.8853476999939,811.8853476999939,811.8853476999939,811.8853476999939,811.8853476999939,811.8853476999939,811.8853476999939,811.8853476999939,811.8853476999939,811.8853476999939,811.8853476999939,811.8853476999939,811.8853476999939,811.8853476999939,814.3940255000052,814.3940255000052,814.3940255000052,814.3940255000052,814.3940255000052,47,80,49,51,80,68,7.0,1.2626293000066653,,,[],[],[],[],[],[],[],-0.2,2,,[],[],[],[],[],[],[],None,None,815.6830389999959,817.370130299998,,,,,,,,,,,,,,,,,,,,,,,,,,232,f,26,2023-03-21_09h43.20.387,RL,2022.2.4,60.14404498881359,
1,-0.3,-0.225,0,64,64,64,,,,,,,,,,None,817.370130299998,817.370130299998,817.370130299998,817.370130299998,817.370130299998,817.370130299998,f,0.4355933000042569,817.8359177999955,817.8359177999955,817.8359177999955,817.8359177999955,817.8359177999955,817.8359177999955,818.1351727000001,818.1351727000001,819.3482513000054,819.3482513000054,819.3482513000054,819.3482513000054,819.3482513000054,819.3482513000054,819.3482513000054,819.3482513000054,819.3482513000054,819.3482513000054,819.3482513000054,819.3482513000054,819.3482513000054,819.3482513000054,819.3482513000054,819.3482513000054,819.3482513000054,,,,,,46,81,54,53,81,54,None,None,80,80,[0.0787037037037037],[-0.27685185185185185],[1],[0],[0],[3.9115940000046976],['tijiao'],-0.2,0,,[],[],[],[],[],[],[],4.953703703703704,1.746293300006073,827.557910699994,829.2208965000027,821.8599977999984,821.8599977999984,821.8599977999984,821.8599977999984,821.8599977999984,821.8599977999984,821.8599977999984,821.8599977999984,0.0073158000013791025,825.7933782000036,825.7933782000036,825.7933782000036,825.7933782000036,,,,,,,,,,,,,232,f,26,2023-03-21_09h43.20.387,RL,2022.2.4,60.14404498881359,
0,0.3,0.225,0,65,65,65,,,,,,,,,,None,829.2208965000027,829.2208965000027,829.2208965000027,829.2208965000027,829.2208965000027,829.2208965000027,i,0.37757710000732914,829.6203798999923,829.6203798999923,829.6203798999923,829.6203798999923,829.6203798999923,829.6203798999923,829.9194756999932,829.9194756999932,831.8141400000022,831.8141400000022,831.8141400000022,831.8141400000022,831.8141400000022,831.8141400000022,831.8141400000022,831.8141400000022,831.8141400000022,831.8141400000022,831.8141400000022,831.8141400000022,831.8141400000022,831.8141400000022,831.8141400000022,831.8141400000022,831.8141400000022,,,,,,36,67,61,57,61,45,None,None,,,[],[],[],[],[],[],[],-0.6,1,39,[-0.02962962962962963],[-0.2861111111111111],[1],[0],[0],[3.4242186000046786],['tijiao'],2.8425925925925926,1.4387638000043808,839.2260470000037,841.0053374999989,,,,,,,,,,837.7686316000036,837.7686316000036,837.7686316000036,837.7686316000036,834.3311140000005,834.3311140000005,834.3311140000005,834.3311140000005,834.3311140000005,834.3311140000005,834.3311140000005,834.3311140000005,0.0057022000110009685,,,,232,f,26,2023-03-21_09h43.20.387,RL,2022.2.4,60.14404498881359,
1,-0.3,-0.225,0,66,66,66,,,,,,,,,,None,841.0053374999989,841.0053374999989,841.0053374999989,841.0053374999989,841.0053374999989,841.0053374999989,i,0.5466678999946453,841.5710680000047,841.5710680000047,841.5710680000047,841.5710680000047,841.5710680000047,841.5710680000047,841.869862099993,841.869862099993,843.1333898000012,843.1333898000012,843.1333898000012,843.1333898000012,843.1333898000012,843.1333898000012,843.1333898000012,843.1333898000012,843.1333898000012,843.1333898000012,843.1333898000012,843.1333898000012,843.1333898000012,843.1333898000012,843.1333898000012,843.1333898000012,843.1333898000012,,,,,,44,73,58,53,58,59,None,None,,,[],[],[],[],[],[],[],-0.6,1,35,[0.06111111111111111],[-0.29907407407407405],[1],[0],[0],[4.702447500007111],['tijiao'],3.0555555555555554,1.7214668999949936,852.1077112999919,854.0530264999979,,,,,,,,,,850.3676736000052,850.3676736000052,850.3676736000052,850.3676736000052,845.6517998000054,845.6517998000054,845.6517998000054,845.6517998000054,845.6517998000054,845.6517998000054,845.6517998000054,845.6517998000054,0.005531000002520159,,,,232,f,26,2023-03-21_09h43.20.387,RL,2022.2.4,60.14404498881359,
0,0.3,0.225,0,67,67,67,,,,,,,,,,None,854.0530264999979,854.0530264999979,854.0530264999979,854.0530264999979,854.0530264999979,854.0530264999979,f,0.3369310999987647,854.4195225000003,854.4195225000003,854.4195225000003,854.4195225000003,854.4195225000003,854.4195225000003,854.7183842999948,854.7183842999948,856.5133703000029,856.5133703000029,856.5133703000029,856.5133703000029,856.5133703000029,856.5133703000029,856.5133703000029,856.5133703000029,856.5133703000029,856.5133703000029,856.5133703000029,856.5133703000029,856.5133703000029,856.5133703000029,856.5133703000029,856.5133703000029,856.5133703000029,859.0222817000031,859.0222817000031,859.0222817000031,859.0222817000031,859.0222817000031,47,74,42,48,74,63,7.0,1.8108479999937117,,,[],[],[],[],[],[],[],0.2,2,,[],[],[],[],[],[],[],None,None,860.8591429999942,862.6132417000044,,,,,,,,,,,,,,,,,,,,,,,,,,232,f,26,2023-03-21_09h43.20.387,RL,2022.2.4,60.14404498881359,
1,-0.3,-0.225,0,68,68,68,,,,,,,,,,None,862.6132417000044,862.6132417000044,862.6132417000044,862.6132417000044,862.6132417000044,862.6132417000044,f,0.3733815000014147,863.0136134000059,863.0136134000059,863.0136134000059,863.0136134000059,863.0136134000059,863.0136134000059,863.311621899993,863.311621899993,864.6578198000061,864.6578198000061,864.6578198000061,864.6578198000061,864.6578198000061,864.6578198000061,864.6578198000061,864.6578198000061,864.6578198000061,864.6578198000061,864.6578198000061,864.6578198000061,864.6578198000061,864.6578198000061,864.6578198000061,864.6578198000061,864.6578198000061,,,,,,49,70,63,46,70,65,None,None,,,[],[],[],[],[],[],[],-0.2,1,72,[0.08703703703703704],[-0.27870370370370373],[1],[0],[0],[2.990535800010548],['tijiao'],5.87962962962963,1.7883559000038076,871.9867302000057,873.6498395999952,,,,,,,,,,870.1799163999967,870.1799163999967,870.1799163999967,870.1799163999967,867.176735999994,867.176735999994,867.176735999994,867.176735999994,867.176735999994,867.176735999994,867.176735999994,867.176735999994,0.005126499992911704,,,,232,f,26,2023-03-21_09h43.20.387,RL,2022.2.4,60.14404498881359,
0,0.3,0.225,0,69,69,69,,,,,,,,,,None,873.6498395999952,873.6498395999952,873.6498395999952,873.6498395999952,873.6498395999952,873.6498395999952,f,0.33045310000306927,874.0014665000053,874.0014665000053,874.0014665000053,874.0014665000053,874.0014665000053,874.0014665000053,874.2982756999991,874.2982756999991,875.511579900005,875.511579900005,875.5283930000005,875.5283930000005,875.5283930000005,875.5283930000005,875.5283930000005,875.5283930000005,875.5283930000005,875.5283930000005,875.5283930000005,875.5283930000005,875.5283930000005,875.5283930000005,875.5283930000005,875.5283930000005,875.5283930000005,878.037455800004,878.037455800004,878.037455800004,878.037455800004,878.037455800004,48,64,58,47,64,63,6.0,1.7776237000070978,,,[],[],[],[],[],[],[],0.6,3,,[],[],[],[],[],[],[],None,None,879.8405691999942,881.6780486999924,,,,,,,,,,,,,,,,,,,,,,,,,,232,f,26,2023-03-21_09h43.20.387,RL,2022.2.4,60.14404498881359,
1,-0.3,-0.225,0,70,70,70,,,,,,,,,,None,881.6780486999924,881.6780486999924,881.6780486999924,881.6780486999924,881.6780486999924,881.6780486999924,f,0.3396795000007842,882.0442073000013,882.0442073000013,882.0442073000013,882.0442073000013,882.0442073000013,882.0442073000013,882.3431262999948,882.3431262999948,883.705632600002,883.705632600002,883.705632600002,883.705632600002,883.705632600002,883.705632600002,883.705632600002,883.705632600002,883.705632600002,883.705632600002,883.705632600002,883.705632600002,883.705632600002,883.705632600002,883.705632600002,883.705632600002,883.705632600002,886.2151771999925,886.2151771999925,886.2151771999925,886.2151771999925,886.2151771999925,51,62,53,48,62,55,7.0,1.7275365000095917,,,[],[],[],[],[],[],[],-0.6,3,,[],[],[],[],[],[],[],None,None,887.9674564000015,889.7892907999922,,,,,,,,,,,,,,,,,,,,,,,,,,232,f,26,2023-03-21_09h43.20.387,RL,2022.2.4,60.14404498881359,
0,0.3,0.225,0,71,71,71,,,,,,,,,,None,889.7892907999922,889.7892907999922,889.7892907999922,889.7892907999922,889.7892907999922,889.7892907999922,f,0.5904775999952108,890.4048315999971,890.4048315999971,890.4048315999971,890.4048315999971,890.4048315999971,890.4048315999971,890.7033756000019,890.7033756000019,891.9663604999951,891.9663604999951,891.9663604999951,891.9663604999951,891.9663604999951,891.9663604999951,891.9663604999951,891.9663604999951,891.9663604999951,891.9663604999951,891.9663604999951,891.9663604999951,891.9663604999951,891.9663604999951,891.9663604999951,891.9663604999951,891.9663604999951,894.4757589999936,894.4757589999936,894.4757589999936,894.4757589999936,894.4757589999936,48,57,49,47,57,59,6.0,1.778109899998526,,,[],[],[],[],[],[],[],-0.2,2,,[],[],[],[],[],[],[],None,None,896.2785766000015,898.0169081000058,,,,,,,,,,,,,,,,,,,,,,,,,,232,f,26,2023-03-21_09h43.20.387,RL,2022.2.4,60.14404498881359,
1,-0.3,-0.225,0,72,72,72,,,,,,,,,,None,898.0169081000058,898.0169081000058,898.0169081000058,898.0169081000058,898.0169081000058,898.0169081000058,f,0.8496474999992643,898.8982497999968,898.8982497999968,898.8982497999968,898.8982497999968,898.8982497999968,898.8982497999968,899.1972038999957,899.1972038999957,900.1278114000015,900.1278114000015,900.1278114000015,900.1278114000015,900.1278114000015,900.1278114000015,900.1278114000015,900.1278114000015,900.1278114000015,900.1278114000015,900.1278114000015,900.1278114000015,900.1278114000015,900.1278114000015,900.1278114000015,900.1278114000015,900.1278114000015,902.6370584999968,902.6370584999968,902.6370584999968,902.6370584999968,902.6370584999968,47,59,51,49,59,61,5.0,2.5921263999916846,,,[],[],[],[],[],[],[],0.2,3,,[],[],[],[],[],[],[],None,None,905.2554023999983,906.942300900002,,,,,,,,,,,,,,,,,,,,,,,,,,232,f,26,2023-03-21_09h43.20.387,RL,2022.2.4,60.14404498881359,
0,0.3,0.225,0,73,73,73,,,,,,,,,,None,906.942300900002,906.942300900002,906.942300900002,906.942300900002,906.942300900002,906.942300900002,f,0.5363956000073813,907.5080159999925,907.5080159999925,907.5080159999925,907.5080159999925,907.5080159999925,907.5080159999925,907.8068722000025,907.8068722000025,908.9536743000062,908.9536743000062,908.9536743000062,908.9536743000062,908.9536743000062,908.9536743000062,908.9536743000062,908.9536743000062,908.9536743000062,908.9536743000062,908.9536743000062,908.9536743000062,908.9536743000062,908.9536743000062,908.9536743000062,908.9536743000062,908.9536743000062,,,,,,43,55,48,41,55,49,None,None,55,55,[0.041666666666666664],[-0.3037037037037037],[1],[0],[0],[3.6957383999979356],['tijiao'],-0.6,0,,[],[],[],[],[],[],[],2.712962962962963,2.5426117000024533,917.7453127000044,919.6244076000003,911.4654963999928,911.4654963999928,911.4654963999928,911.4654963999928,911.4654963999928,911.4654963999928,911.4654963999928,911.4654963999928,0.00757099999464117,915.1839095000032,915.1839095000032,915.1839095000032,915.1839095000032,,,,,,,,,,,,,232,f,26,2023-03-21_09h43.20.387,RL,2022.2.4,60.14404498881359,
1,-0.3,-0.225,0,74,74,74,,,,,,,,,,None,919.6244076000003,919.6244076000003,919.6244076000003,919.6244076000003,919.6244076000003,919.6244076000003,i,0.3472928999981377,919.9906823000056,919.9906823000056,919.9906823000056,919.9906823000056,919.9906823000056,919.9906823000056,920.2895418999979,920.2895418999979,921.3200770999974,921.3200770999974,921.3200770999974,921.3200770999974,921.3200770999974,921.3200770999974,921.3200770999974,921.3200770999974,921.3200770999974,921.3200770999974,921.3200770999974,921.3200770999974,921.3200770999974,921.3200770999974,921.3200770999974,921.3200770999974,921.3200770999974,923.8290901,923.8290901,923.8290901,923.8290901,923.8290901,45,56,47,48,47,57,2.0,1.3788989000022411,,,[],[],[],[],[],[],[],-0.6,3,,[],[],[],[],[],[],[],None,None,925.2346089999919,927.0871273999946,,,,,,,,,,,,,,,,,,,,,,,,,,232,f,26,2023-03-21_09h43.20.387,RL,2022.2.4,60.14404498881359,
0,0.3,0.225,0,75,75,75,,,,,,,,,,q,959.250842399997,959.250842399997,959.250842399997,959.250842399997,959.250842399997,959.250842399997,f,1.0380027000064729,960.3137843000004,960.3137843000004,960.3137843000004,960.3137843000004,960.3137843000004,960.3137843000004,960.6129505999997,960.6129505999997,961.992528799994,961.992528799994,961.992528799994,961.992528799994,961.992528799994,961.992528799994,961.992528799994,961.992528799994,961.992528799994,961.992528799994,961.992528799994,961.992528799994,961.992528799994,961.992528799994,961.992528799994,961.992528799994,961.992528799994,964.5011800999928,964.5011800999928,964.5011800999928,964.5011800999928,964.5011800999928,56,52,47,49,52,57,4.0,2.4093406000029063,,,[],[],[],[],[],[],[],0.6,3,,[],[],[],[],[],[],[],None,None,966.9378654000029,968.7237177999923,,,,,,,,,,,,,,,,,,,,,,,927.0871273999946,927.0871273999946,32.13772990000143,232,f,26,2023-03-21_09h43.20.387,RL,2022.2.4,60.14404498881359,
1,-0.3,-0.225,0,76,76,76,,,,,,,,,,None,968.7237177999923,968.7237177999923,968.7237177999923,968.7237177999923,968.7237177999923,968.7237177999923,r,0.8011072000081185,969.5572339999926,969.5572339999926,969.5572339999926,969.5572339999926,969.5572339999926,969.5572339999926,969.854307200003,969.854307200003,970.6855733999982,970.6855733999982,970.6855733999982,970.6855733999982,970.6855733999982,970.6855733999982,970.6855733999982,970.6855733999982,970.6855733999982,970.6855733999982,970.6855733999982,970.6855733999982,970.6855733999982,970.6855733999982,970.6855733999982,970.6855733999982,970.6855733999982,,,,,,59,59,49,44,59,59,None,None,,,[],[],[],[],[],[],[],0.6,1,72,[-0.014814814814814815],[-0.2898148148148148],[1],[0],[0],[3.8055007999937516],['tijiao'],4.018518518518518,1.9700994000013452,979.0112418000062,980.8738881000027,,,,,,,,,,977.0234832999995,977.0234832999995,977.0234832999995,977.0234832999995,973.2032781000016,973.2032781000016,973.2032781000016,973.2032781000016,973.2032781000016,973.2032781000016,973.2032781000016,973.2032781000016,0.0054946000018389896,,,,232,f,26,2023-03-21_09h43.20.387,RL,2022.2.4,60.14404498881359,
0,0.3,0.225,0,77,77,77,,,,,,,,,,None,980.8738881000027,980.8738881000027,980.8738881000027,980.8738881000027,980.8738881000027,980.8738881000027,f,0.5994357000017771,981.505831500006,981.505831500006,981.505831500006,981.505831500006,981.505831500006,981.505831500006,981.8049014999997,981.8049014999997,982.6690509000036,982.6690509000036,982.6690509000036,982.6690509000036,982.6690509000036,982.6690509000036,982.6690509000036,982.6690509000036,982.6690509000036,982.6690509000036,982.6690509000036,982.6690509000036,982.6690509000036,982.6690509000036,982.6690509000036,982.6690509000036,982.6690509000036,985.1783159000042,985.1783159000042,985.1783159000042,985.1783159000042,985.1783159000042,59,59,56,48,59,73,3.0,1.4952098000067053,,,[],[],[],[],[],[],[],0.2,3,,[],[],[],[],[],[],[],None,None,986.6979323999985,988.5197640999977,,,,,,,,,,,,,,,,,,,,,,,,,,232,f,26,2023-03-21_09h43.20.387,RL,2022.2.4,60.14404498881359,
1,-0.3,-0.225,0,78,78,78,,,,,,,,,,None,988.5197640999977,988.5197640999977,988.5197640999977,988.5197640999977,988.5197640999977,988.5197640999977,f,0.6070887999958359,989.1520514000003,989.1520514000003,989.1520514000003,989.1520514000003,989.1520514000003,989.1520514000003,989.4505270999944,989.4505270999944,990.9301355999924,990.9301355999924,990.9301355999924,990.9301355999924,990.9301355999924,990.9301355999924,990.9301355999924,990.9301355999924,990.9301355999924,990.9301355999924,990.9301355999924,990.9301355999924,990.9301355999924,990.9301355999924,990.9301355999924,990.9301355999924,990.9301355999924,993.4392787999968,993.4392787999968,993.4392787999968,993.4392787999968,993.4392787999968,59,59,46,55,59,69,2.0,2.891629700010526,,,[],[],[],[],[],[],[],-0.2,3,,[],[],[],[],[],[],[],None,None,996.3560354999936,997.8941546999995,,,,,,,,,,,,,,,,,,,,,,,,,,232,f,26,2023-03-21_09h43.20.387,RL,2022.2.4,60.14404498881359,
0,0.3,0.225,0,79,79,79,,,,,,,,,,None,997.8941546999995,997.8941546999995,997.8941546999995,997.8941546999995,997.8941546999995,997.8941546999995,i,0.6850667000107933,998.6093380999955,998.6093380999955,998.6093380999955,998.6093380999955,998.6093380999955,998.6093380999955,998.9080195999995,998.9080195999995,1000.4037797999918,1000.4037797999918,1000.4208198999986,1000.4208198999986,1000.4208198999986,1000.4208198999986,1000.4208198999986,1000.4208198999986,1000.4208198999986,1000.4208198999986,1000.4208198999986,1000.4208198999986,1000.4208198999986,1000.4208198999986,1000.4208198999986,1000.4208198999986,1000.4208198999986,,,,,,60,58,54,52,54,42,None,None,,,[],[],[],[],[],[],[],0.6,1,65,[-0.009259259259259259],[-0.3175925925925926],[1],[0],[0],[3.7901274999894667],['tijiao'],3.8055555555555554,1.937446900003124,1008.697316100006,1010.3765249999997,,,,,,,,,,1006.7418260999984,1006.7418260999984,1006.7418260999984,1006.7418260999984,1002.9374508000037,1002.9374508000037,1002.9374508000037,1002.9374508000037,1002.9374508000037,1002.9374508000037,1002.9374508000037,1002.9374508000037,0.005509599999641068,,,,232,f,26,2023-03-21_09h43.20.387,RL,2022.2.4,60.14404498881359,
1,-0.3,-0.225,0,80,80,80,,,,,,,,,,None,1010.3765249999997,1010.3765249999997,1010.3765249999997,1010.3765249999997,1010.3765249999997,1010.3765249999997,i,0.49027229999774136,1010.8927517999982,1010.8927517999982,1010.8927517999982,1010.8927517999982,1010.8927517999982,1010.8927517999982,1011.1914669999969,1011.1914669999969,1012.271716400006,1012.271716400006,1012.271716400006,1012.271716400006,1012.271716400006,1012.271716400006,1012.271716400006,1012.271716400006,1012.271716400006,1012.271716400006,1012.271716400006,1012.271716400006,1012.271716400006,1012.271716400006,1012.271716400006,1012.271716400006,1012.271716400006,,,,,,59,63,60,53,60,65,None,None,,,[],[],[],[],[],[],[],-0.2,1,46,[-0.012962962962962963],[-0.2851851851851852],[1],[0],[0],[3.7054454000026453],['tijiao'],1.898148148148148,1.854359699995257,1020.3817069999932,1022.3772339999996,,,,,,,,,,1018.5085694000009,1018.5085694000009,1018.5085694000009,1018.5085694000009,1014.7898331000033,1014.7898331000033,1014.7898331000033,1014.7898331000033,1014.7898331000033,1014.7898331000033,1014.7898331000033,1014.7898331000033,0.005658000009134412,,,,232,f,26,2023-03-21_09h43.20.387,RL,2022.2.4,60.14404498881359,
0,0.3,0.225,0,81,81,81,,,,,,,,,,None,1022.3772339999996,1022.3772339999996,1022.3772339999996,1022.3772339999996,1022.3772339999996,1022.3772339999996,f,0.6677090000011958,1023.077507199996,1023.077507199996,1023.077507199996,1023.077507199996,1023.077507199996,1023.077507199996,1023.3749954999948,1023.3749954999948,1025.269428899992,1025.269428899992,1025.269428899992,1025.269428899992,1025.269428899992,1025.269428899992,1025.269428899992,1025.269428899992,1025.269428899992,1025.269428899992,1025.269428899992,1025.269428899992,1025.269428899992,1025.269428899992,1025.269428899992,1025.269428899992,1025.269428899992,1027.7789336999995,1027.7789336999995,1027.7789336999995,1027.7789336999995,1027.7789336999995,56,56,54,52,56,58,4.0,2.641122600005474,,,[],[],[],[],[],[],[],-0.6,2,,[],[],[],[],[],[],[],None,None,1030.4451082000014,1032.2172036999982,,,,,,,,,,,,,,,,,,,,,,,,,,232,f,26,2023-03-21_09h43.20.387,RL,2022.2.4,60.14404498881359,
1,-0.3,-0.225,0,82,82,82,,,,,,,,,,None,1032.2172036999982,1032.2172036999982,1032.2172036999982,1032.2172036999982,1032.2172036999982,1032.2172036999982,i,1.0183206999936374,1033.2646234999993,1033.2646234999993,1033.2646234999993,1033.2646234999993,1033.2646234999993,1033.2646234999993,1033.5636960999982,1033.5636960999982,1034.8932536999928,1034.8932536999928,1034.8932536999928,1034.8932536999928,1034.8932536999928,1034.8932536999928,1034.8932536999928,1034.8932536999928,1034.8932536999928,1034.8932536999928,1034.8932536999928,1034.8932536999928,1034.8932536999928,1034.8932536999928,1034.8932536999928,1034.8932536999928,1034.8932536999928,1037.4025142000028,1037.4025142000028,1037.4025142000028,1037.4025142000028,1037.4025142000028,56,52,49,55,49,72,2.0,2.874888900012593,,,[],[],[],[],[],[],[],0.6,3,,[],[],[],[],[],[],[],None,None,1040.3030049999943,1041.9073684000032,,,,,,,,,,,,,,,,,,,,,,,,,,232,f,26,2023-03-21_09h43.20.387,RL,2022.2.4,60.14404498881359,
0,0.3,0.225,0,83,83,83,,,,,,,,,,None,1041.9073684000032,1041.9073684000032,1041.9073684000032,1041.9073684000032,1041.9073684000032,1041.9073684000032,f,0.9828305999981239,1042.921859199996,1042.921859199996,1042.921859199996,1042.921859199996,1042.921859199996,1042.921859199996,1043.220544900003,1043.220544900003,1044.4006093999924,1044.4006093999924,1044.4006093999924,1044.4006093999924,1044.4006093999924,1044.4006093999924,1044.4006093999924,1044.4006093999924,1044.4006093999924,1044.4006093999924,1044.4006093999924,1044.4006093999924,1044.4006093999924,1044.4006093999924,1044.4006093999924,1044.4006093999924,1044.4006093999924,,,,,,55,66,54,52,66,59,None,None,,,[],[],[],[],[],[],[],-0.6,1,37,[-0.05185185185185185],[-0.2962962962962963],[1],[0],[0],[4.003348900005221],['tijiao'],6.925925925925926,2.5545678999915253,1053.508390499992,1055.1546339000051,,,,,,,,,,1050.9354402000026,1050.9354402000026,1050.9354402000026,1050.9354402000026,1046.9197821999987,1046.9197821999987,1046.9197821999987,1046.9197821999987,1046.9197821999987,1046.9197821999987,1046.9197821999987,1046.9197821999987,0.005596499991952442,,,,232,f,26,2023-03-21_09h43.20.387,RL,2022.2.4,60.14404498881359,
1,-0.3,-0.225,0,84,84,84,,,,,,,,,,None,1055.1546339000051,1055.1546339000051,1055.1546339000051,1055.1546339000051,1055.1546339000051,1055.1546339000051,f,0.38005140000313986,1055.5539015999966,1055.5539015999966,1055.5539015999966,1055.5539015999966,1055.5539015999966,1055.5539015999966,1055.8530561999942,1055.8530561999942,1057.2656753000047,1057.2656753000047,1057.2656753000047,1057.2656753000047,1057.2656753000047,1057.2656753000047,1057.2656753000047,1057.2656753000047,1057.2656753000047,1057.2656753000047,1057.2656753000047,1057.2656753000047,1057.2656753000047,1057.2656753000047,1057.2656753000047,1057.2656753000047,1057.2656753000047,,,,,,55,59,52,54,59,81,None,None,,,[],[],[],[],[],[],[],0.6,1,65,[-0.01574074074074074],[-0.2953703703703704],[1],[0],[0],[4.1051945999934105],['tijiao'],2.9814814814814814,2.186413999996148,1066.106881899992,1068.0192291999992,,,,,,,,,,1063.9029398999992,1063.9029398999992,1063.9029398999992,1063.9029398999992,1059.7823027999984,1059.7823027999984,1059.7823027999984,1059.7823027999984,1059.7823027999984,1059.7823027999984,1059.7823027999984,1059.7823027999984,0.005719599997974001,,,,232,f,26,2023-03-21_09h43.20.387,RL,2022.2.4,60.14404498881359,
0,0.3,0.225,0,85,85,85,,,,,,,,,,None,1068.0192291999992,1068.0192291999992,1068.0192291999992,1068.0192291999992,1068.0192291999992,1068.0192291999992,i,0.6509444999974221,1068.7031224999955,1068.7031224999955,1068.7031224999955,1068.7031224999955,1068.7031224999955,1068.7031224999955,1069.0004238999973,1069.0004238999973,1070.8286067000008,1070.8286067000008,1070.8286067000008,1070.8286067000008,1070.8286067000008,1070.8286067000008,1070.8286067000008,1070.8286067000008,1070.8286067000008,1070.8286067000008,1070.8286067000008,1070.8286067000008,1070.8286067000008,1070.8286067000008,1070.8286067000008,1070.8286067000008,1070.8286067000008,1073.337548399999,1073.337548399999,1073.337548399999,1073.337548399999,1073.337548399999,48,52,55,48,55,73,3.0,1.8611066000012215,,,[],[],[],[],[],[],[],-0.6,3,,[],[],[],[],[],[],[],None,None,1075.2235882999958,1077.0780689999956,,,,,,,,,,,,,,,,,,,,,,,,,,232,f,26,2023-03-21_09h43.20.387,RL,2022.2.4,60.14404498881359,
1,-0.3,-0.225,0,86,86,86,,,,,,,,,,None,1077.0780689999956,1077.0780689999956,1077.0780689999956,1077.0780689999956,1077.0780689999956,1077.0780689999956,f,0.28903400000126567,1077.3941350999958,1077.3941350999958,1077.3941350999958,1077.3941350999958,1077.3941350999958,1077.3941350999958,1077.693264200003,1077.693264200003,1079.5383285999997,1079.5383285999997,1079.5383285999997,1079.5383285999997,1079.5383285999997,1079.5383285999997,1079.5383285999997,1079.5383285999997,1079.5383285999997,1079.5383285999997,1079.5383285999997,1079.5383285999997,1079.5383285999997,1079.5383285999997,1079.5383285999997,1079.5383285999997,1079.5383285999997,,,,,,53,53,49,56,53,76,None,None,,,[],[],[],[],[],[],[],-0.6,1,76,[-0.008333333333333333],[-0.30833333333333335],[1],[0],[0],[4.336551300002611],['tijiao'],6.027777777777778,3.6658638000080828,1090.0915477999952,1091.9708618000004,,,,,,,,,,1086.4080205999926,1086.4080205999926,1086.4080205999926,1086.4080205999926,1082.056779000006,1082.056779000006,1082.056779000006,1082.056779000006,1082.056779000006,1082.056779000006,1082.056779000006,1082.056779000006,0.005556299991440028,,,,232,f,26,2023-03-21_09h43.20.387,RL,2022.2.4,60.14404498881359,
0,0.3,0.225,0,87,87,87,,,,,,,,,,None,1091.9708618000004,1091.9708618000004,1091.9708618000004,1091.9708618000004,1091.9708618000004,1091.9708618000004,r,0.46625919999496546,1092.471384599994,1092.471384599994,1092.471384599994,1092.471384599994,1092.471384599994,1092.471384599994,1092.7689900999976,1092.7689900999976,1094.0318928000052,1094.0318928000052,1094.0318928000052,1094.0318928000052,1094.0318928000052,1094.0318928000052,1094.0318928000052,1094.0318928000052,1094.0318928000052,1094.0318928000052,1094.0318928000052,1094.0318928000052,1094.0318928000052,1094.0318928000052,1094.0318928000052,1094.0318928000052,1094.0318928000052,,,,,,50,42,58,55,50,70,None,None,,,[],[],[],[],[],[],[],-0.6,1,50,[0.05277777777777778],[-0.27870370370370373],[1],[0],[0],[3.2244850999995833],['tijiao'],5.0092592592592595,2.869969099992886,1102.6739463999984,1104.4700873999973,,,,,,,,,,1099.7857387999975,1099.7857387999975,1099.7857387999975,1099.7857387999975,1096.5485443999933,1096.5485443999933,1096.5485443999933,1096.5485443999933,1096.5485443999933,1096.5485443999933,1096.5485443999933,1096.5485443999933,0.006123799990746193,,,,232,f,26,2023-03-21_09h43.20.387,RL,2022.2.4,60.14404498881359,
1,-0.3,-0.225,0,88,88,88,,,,,,,,,,None,1104.4700873999973,1104.4700873999973,1104.4700873999973,1104.4700873999973,1104.4700873999973,1104.4700873999973,f,0.6602215000020806,1105.1517252000049,1105.1517252000049,1105.1517252000049,1105.1517252000049,1105.1517252000049,1105.1517252000049,1105.450949399994,1105.450949399994,1106.398311500001,1106.398311500001,1106.398311500001,1106.398311500001,1106.398311500001,1106.398311500001,1106.398311500001,1106.398311500001,1106.398311500001,1106.398311500001,1106.398311500001,1106.398311500001,1106.398311500001,1106.398311500001,1106.398311500001,1106.398311500001,1106.398311500001,1108.907345300002,1108.907345300002,1108.907345300002,1108.907345300002,1108.907345300002,62,38,53,51,38,74,1.0,2.176450599989039,,,[],[],[],[],[],[],[],-0.6,3,,[],[],[],[],[],[],[],None,None,1111.1104945999978,1112.8306063000055,,,,,,,,,,,,,,,,,,,,,,,,,,232,f,26,2023-03-21_09h43.20.387,RL,2022.2.4,60.14404498881359,
0,0.3,0.225,0,89,89,89,,,,,,,,,,None,1112.8306063000055,1112.8306063000055,1112.8306063000055,1112.8306063000055,1112.8306063000055,1112.8306063000055,j,0.35753950000798795,1113.2132653000008,1113.2132653000008,1113.2132653000008,1113.2132653000008,1113.2132653000008,1113.2132653000008,1113.5119412000058,1113.5119412000058,1114.4095629999938,1114.4095629999938,1114.4095629999938,1114.4095629999938,1114.4095629999938,1114.4095629999938,1114.4095629999938,1114.4095629999938,1114.4095629999938,1114.4095629999938,1114.4095629999938,1114.4095629999938,1114.4095629999938,1114.4095629999938,1114.4095629999938,1114.4095629999938,1114.4095629999938,1116.9188595000014,1116.9188595000014,1116.9188595000014,1116.9188595000014,1116.9188595000014,55,54,47,49,49,82,1.0,2.6250906999921426,,,[],[],[],[],[],[],[],0.2,2,,[],[],[],[],[],[],[],None,None,1119.5694928000012,1121.5729448000056,,,,,,,,,,,,,,,,,,,,,,,,,,232,f,26,2023-03-21_09h43.20.387,RL,2022.2.4,60.14404498881359,
1,-0.3,-0.225,0,90,90,90,,,,,,,,,,None,1121.5729448000056,1121.5729448000056,1121.5729448000056,1121.5729448000056,1121.5729448000056,1121.5729448000056,r,0.5455267000070307,1122.1387216000003,1122.1387216000003,1122.1387216000003,1122.1387216000003,1122.1387216000003,1122.1387216000003,1122.4379600999964,1122.4379600999964,1124.3988788999995,1124.3988788999995,1124.3988788999995,1124.3988788999995,1124.3988788999995,1124.3988788999995,1124.3988788999995,1124.3988788999995,1124.3988788999995,1124.3988788999995,1124.3988788999995,1124.3988788999995,1124.3988788999995,1124.3988788999995,1124.3988788999995,1124.3988788999995,1124.3988788999995,,,,,,60,46,54,47,60,76,None,None,,,[],[],[],[],[],[],[],-0.6,1,46,[-0.012962962962962963],[-0.2712962962962963],[1],[0],[0],[3.887478899996495],['tijiao'],6.7407407407407405,3.1676758999965386,1134.005446199997,1135.9672788000025,,,,,,,,,,1130.8190574000037,1130.8190574000037,1130.8190574000037,1130.8190574000037,1126.9181867000007,1126.9181867000007,1126.9181867000007,1126.9181867000007,1126.9181867000007,1126.9181867000007,1126.9181867000007,1126.9181867000007,0.005416500003775582,,,,232,f,26,2023-03-21_09h43.20.387,RL,2022.2.4,60.14404498881359,
0,0.3,0.225,0,91,91,91,,,,,,,,,,None,1135.9672788000025,1135.9672788000025,1135.9672788000025,1135.9672788000025,1135.9672788000025,1135.9672788000025,i,0.3328789999941364,1136.3335128000035,1136.3335128000035,1136.3335128000035,1136.3335128000035,1136.3335128000035,1136.3335128000035,1136.6326120000012,1136.6326120000012,1137.778883699997,1137.778883699997,1137.778883699997,1137.778883699997,1137.778883699997,1137.778883699997,1137.778883699997,1137.778883699997,1137.778883699997,1137.778883699997,1137.778883699997,1137.778883699997,1137.778883699997,1137.778883699997,1137.778883699997,1137.778883699997,1137.778883699997,,,,,,62,54,50,56,50,73,None,None,,,[],[],[],[],[],[],[],0.2,1,73,[0.027777777777777776],[-0.2638888888888889],[1],[0],[0],[3.0733798000001116],['tijiao'],6.138888888888888,2.187610399996629,1145.5901427000063,1147.4692265000049,,,,,,,,,,1143.3851475999982,1143.3851475999982,1143.3851475999982,1143.3851475999982,1140.2978925999923,1140.2978925999923,1140.2978925999923,1140.2978925999923,1140.2978925999923,1140.2978925999923,1140.2978925999923,1140.2978925999923,0.00581610000517685,,,,232,f,26,2023-03-21_09h43.20.387,RL,2022.2.4,60.14404498881359,
