trials.thisRepN,trials.thisTrialN,trials.thisN,trials.thisIndex,instru_img1.started,instru_img1.stopped,instru_resp.keys,instru_resp.rt,instru_resp.started,instru_resp.stopped,instru_img2.started,instru_img2.stopped,instru_resp2.keys,instru_resp2.rt,instru_resp2.started,instru_resp2.stopped,fixbefore_2.started,fixbefore_2.stopped,rest_image.started,rest_image.stopped,rest_response.keys,rest_response.started,rest_response.stopped,red.started,red.stopped,green.started,green.stopped,yellow.started,yellow.stopped,blue.started,blue.stopped,choose_bandit.keys,choose_bandit.rt,choose_bandit.started,choose_bandit.stopped,Fixation.started,Fixation.stopped,black.started,black.stopped,red_2.started,red_2.stopped,green_2.started,green_2.stopped,yellow_2.started,yellow_2.stopped,blue_2.started,blue_2.stopped,fixation_2.started,fixation_2.stopped,docs.started,docs.stopped,wait_playerB.started,wait_playerB.stopped,black_com.started,black_com.stopped,reward_sub.started,reward_sub.stopped,palyerb.started,palyerb.stopped,reward__sub.started,reward__sub.stopped,compare.started,compare.stopped,red_compare.started,red_compare.stopped,green_com.started,green_com.stopped,yellow_com.started,yellow_com.stopped,blue_com.started,blue_com.stopped,rewardyellow,rewardred,rewardblue,rewardgreen,subchoose,playerb,image_3.started,image_3.stopped,slider.response,slider.rt,slider.started,slider.stopped,text.started,text.stopped,image_4.started,image_4.stopped,image_5.started,image_5.stopped,expectself.text,expectself.started,expectself.stopped,value_expect_self,expect_self_black.started,expect_self_black.stopped,expect_self.started,expect_self.stopped,expect_self_red.started,expect_self_red.stopped,expect_self_green.started,expect_self_green.stopped,expect_self_yellow.started,expect_self_yellow.stopped,expect_self_blue.started,expect_self_blue.stopped,tijiao.started,tijiao.stopped,tijiao_click.x,tijiao_click.y,tijiao_click.leftButton,tijiao_click.midButton,tijiao_click.rightButton,tijiao_click.time,tijiao_click.clicked_name,tijiao_click.started,tijiao_click.stopped,check.started,check.stopped,random_whicharm,whether_ask,jiantou_random.started,jiantou_random.stopped,expect_red.started,expect_red.stopped,expect_green.started,expect_green.stopped,expect_yellow.started,expect_yellow.stopped,expect_blue.started,expect_blue.stopped,expect_random_2.started,expect_random_2.stopped,expect_random_3.text,expect_random_3.started,expect_random_3.stopped,tijiao_random_2.started,tijiao_random_2.stopped,tijiao_random.started,tijiao_random.stopped,check_2.started,check_2.stopped,slider_2.response,slider_2.rt,slider_2.started,slider_2.stopped,image_7.started,image_7.stopped,confi.started,confi.stopped,notconfi.started,notconfi.stopped,bigx.started,bigx.stopped,intertrialfix.started,intertrialfix.stopped,tijiao_random.x,tijiao_random.y,tijiao_random.leftButton,tijiao_random.midButton,tijiao_random.rightButton,tijiao_random.time,tijiao_random.clicked_name,rest_response.rt,image.started,image.stopped,key_resp.keys,key_resp.started,key_resp.stopped,participant,Gender,Age,date,expName,psychopyVersion,frameRate
,,,,24.6566051,None,space,31.6208766,24.6566051,None,,,,,,,,,,,,,,,,,,,,,,,,,,,,,,,,,,,,,,,,,,,,,,,,,,,,,,,,,,,,,,,,,,,,,,,,,,,,,,,,,,,,,,,,,,,,,,,,,,,,,,,,,,,,,,,,,,,,,,,,,,,,,,,,,,,,,,,,,,,,,,,,,,,,,,,,,,,,,,,233,f,22,2023_Mar_21_1053,RL,2021.2.3,59.98890206
,,,,,,,,,,56.3080352,None,s,21.216648,56.3080352,None,,,,,,,,,,,,,,,,,,,,,,,,,,,,,,,,,,,,,,,,,,,,,,,,,,,,,,,,,,,,,,,,,,,,,,,,,,,,,,,,,,,,,,,,,,,,,,,,,,,,,,,,,,,,,,,,,,,,,,,,,,,,,,,,,,,,,,,,,,,,,,,,,,,,,,,,,233,f,22,2023_Mar_21_1053,RL,2021.2.3,59.98890206
1,0,0,0,,,,,,,,,,,,,77.5554033,None,None,None,None,None,None,78.5908971,None,78.5908971,None,78.5908971,None,78.5908971,None,r,0.17365,78.5908971,None,78.5908971,None,78.8152283,None,78.8152283,None,78.8152283,None,78.8152283,None,78.8152283,None,78.8152283,None,79.1105359,None,79.1105359,None,80.015822,None,80.015822,None,80.015822,None,80.015822,None,80.015822,None,80.015822,None,80.015822,None,80.015822,None,80.015822,None,35,67,60,54,35,50,None,None,None,None,None,None,None,None,None,None,None,None,30,82.5582669,None,30,82.5582669,None,82.5582669,None,82.5582669,None,82.5582669,None,82.5582669,None,82.5582669,None,82.5582669,None,-0.022135417,-0.252604167,1,0,0,5.7596856,tijiao,0.00501245,None,82.5582669,None,-0.6,0,None,None,None,None,None,None,None,None,None,None,None,None,,None,None,None,None,None,None,None,None,1.130208333,3.6615674,88.3725673,None,88.3725673,None,88.3725673,None,88.3725673,None,None,None,92.0554438,None,,,,,,,,,,,,,,233,f,22,2023_Mar_21_1053,RL,2021.2.3,59.98890206
0,0,1,0,,,,,,,,,,,,,,,None,None,None,None,None,93.7747176,None,93.7747176,None,93.7747176,None,93.7747176,None,r,0.509928,93.7747176,None,93.7747176,None,94.3303552,None,94.3303552,None,94.3303552,None,94.3303552,None,94.3303552,None,94.3303552,None,94.6217859,95.8890502,94.6217859,95.8890502,95.923312,None,95.923312,None,95.923312,None,95.923312,None,95.923312,None,95.923312,None,95.923312,None,95.923312,None,95.923312,None,33,64,66,51,33,23,None,None,None,None,None,None,None,None,None,None,None,None,20,98.4560446,None,20,98.4560446,None,98.4560446,None,98.4560446,None,98.4560446,None,98.4560446,None,98.4560446,None,98.4560446,None,-0.106770833,-0.278645833,1,0,0,7.6991102,tijiao,0.00953695,None,98.4560446,None,-0.6,0,None,None,None,None,None,None,None,None,None,None,None,None,,None,None,None,None,None,None,None,None,1.9375,3.117565,106.2012035,None,106.2012035,None,106.2012035,None,106.2012035,None,None,None,109.3316471,None,,,,,,,,,,,,,,233,f,22,2023_Mar_21_1053,RL,2021.2.3,59.98890206
1,0,2,0,,,,,,,,,,,,,,,None,None,None,None,None,111.1707464,None,111.1707464,None,111.1707464,None,111.1707464,None,j,0.7444852,111.1707464,None,111.1707464,None,111.9631442,None,111.9631442,None,111.9631442,None,111.9631442,None,111.9631442,None,111.9631442,None,112.2337379,113.5682416,112.2337379,113.5682416,113.6182635,None,113.6182635,None,113.6182635,None,113.6182635,None,113.6182635,None,113.6182635,None,113.6182635,None,113.6182635,None,113.6182635,None,36,69,74,52,52,54,116.1411705,None,4,3.5056528,116.1411705,None,116.1411705,None,116.1411705,None,116.1411705,None,,None,None,,None,None,None,None,None,None,None,None,None,None,None,None,None,None,,,,,,,,None,None,None,None,-0.2,2,None,None,None,None,None,None,None,None,None,None,None,None,,None,None,None,None,None,None,None,None,None,None,None,None,None,None,None,None,None,None,None,None,119.702794,None,,,,,,,,,,,,,,233,f,22,2023_Mar_21_1053,RL,2021.2.3,59.98890206
0,0,3,0,,,,,,,,,,,,,,,None,None,None,None,None,121.6765684,None,121.6765684,None,121.6765684,None,121.6765684,None,r,0.3289704,121.6765684,None,121.6765684,None,122.0482536,None,122.0482536,None,122.0482536,None,122.0482536,None,122.0482536,None,122.0482536,None,122.340358,123.7415517,122.340358,123.7415517,123.7736308,None,123.7736308,None,123.7736308,None,123.7736308,None,123.7736308,None,123.7736308,None,123.7736308,None,123.7736308,None,123.7736308,None,29,64,61,59,29,52,126.2986791,None,2,2.6343217,126.2986791,None,126.2986791,None,126.2986791,None,126.2986791,None,,None,None,,None,None,None,None,None,None,None,None,None,None,None,None,None,None,,,,,,,,None,None,None,None,0.2,3,None,None,None,None,None,None,None,None,None,None,None,None,,None,None,None,None,None,None,None,None,None,None,None,None,None,None,None,None,None,None,None,None,128.994503,None,,,,,,,,,,,,,,233,f,22,2023_Mar_21_1053,RL,2021.2.3,59.98890206
1,0,4,0,,,,,,,,,,,,,,,None,None,None,None,None,130.9337384,None,130.9337384,None,130.9337384,None,130.9337384,None,None,,130.9337384,None,130.9337384,None,None,None,None,None,None,None,None,None,None,None,None,None,None,None,None,None,None,None,None,None,None,None,None,None,None,None,None,None,None,None,None,None,None,None,23,61,65,50,0,**,None,None,None,None,None,None,None,None,None,None,None,None,,None,None,,None,None,None,None,None,None,None,None,None,None,None,None,None,None,,,,,,,,None,None,None,None,0.2,3,None,None,None,None,None,None,None,None,None,None,None,None,,None,None,None,None,None,None,None,None,None,None,None,None,None,None,None,None,None,None,132.5327382,None,138.5353345,None,,,,,,,,,,,,,,233,f,22,2023_Mar_21_1053,RL,2021.2.3,59.98890206
0,0,5,0,,,,,,,,,,,,,,,None,None,None,None,None,140.2398931,None,140.2398931,None,140.2398931,None,140.2398931,None,i,0.3253939,140.2398931,None,140.2398931,None,140.613493,None,140.613493,None,140.613493,None,140.613493,None,140.613493,None,140.613493,None,140.9035978,None,140.9035978,None,142.2698634,None,142.2698634,None,142.2698634,None,142.2698634,None,142.2698634,None,142.2698634,None,142.2698634,None,142.2698634,None,142.2698634,None,24,65,58,51,58,36,None,None,None,None,None,None,None,None,None,None,None,None,,None,None,,None,None,None,None,None,None,None,None,None,None,None,None,None,None,,,,,,,,None,None,None,None,-0.6,1,144.8127002,None,144.8127002,None,144.8127002,None,144.8127002,None,144.8127002,None,144.8127002,None,20,144.8127002,None,144.8127002,None,0.00247555,None,144.8127002,None,1.846354167,1.8117097,150.1197795,None,150.1197795,None,150.1197795,None,150.1197795,None,None,None,151.9441471,None,-0.111979167,-0.295572917,1,0,0,5.2734759,tijiao_random_2,,,,,,,233,f,22,2023_Mar_21_1053,RL,2021.2.3,59.98890206
1,0,6,0,,,,,,,,,,,,,,,None,None,None,None,None,153.5992765,None,153.5992765,None,153.5992765,None,153.5992765,None,f,0.2757164,153.5992765,None,153.5992765,None,153.9225373,None,153.9225373,None,153.9225373,None,153.9225373,None,153.9225373,None,153.9225373,None,154.2128796,155.2468152,154.2128796,155.2468152,155.2799556,None,155.2799556,None,155.2799556,None,155.2799556,None,155.2799556,None,155.2799556,None,155.2799556,None,155.2799556,None,155.2799556,None,26,58,65,58,58,70,157.8027706,None,2,2.2326998,157.8027706,None,157.8027706,None,157.8027706,None,157.8027706,None,,None,None,,None,None,None,None,None,None,None,None,None,None,None,None,None,None,,,,,,,,None,None,None,None,-0.6,2,None,None,None,None,None,None,None,None,None,None,None,None,,None,None,None,None,None,None,None,None,None,None,None,None,None,None,None,None,None,None,None,None,160.0867272,None,,,,,,,,,,,,,,233,f,22,2023_Mar_21_1053,RL,2021.2.3,59.98890206
0,0,7,0,,,,,,,,,,,,,,,None,None,None,None,None,161.6042336,None,161.6042336,None,161.6042336,None,161.6042336,None,j,0.4509061,161.6042336,None,161.6042336,None,162.1059502,None,162.1059502,None,162.1059502,None,162.1059502,None,162.1059502,None,162.1059502,None,162.4017643,None,162.4017643,None,163.5334679,None,163.5334679,None,163.5334679,None,163.5334679,None,163.5334679,None,163.5334679,None,163.5334679,None,163.5334679,None,163.5334679,None,22,56,69,57,57,61,None,None,None,None,None,None,None,None,None,None,None,None,,None,None,,None,None,None,None,None,None,None,None,None,None,None,None,None,None,,,,,,,,None,None,None,None,-0.2,1,166.0847571,None,166.0847571,None,166.0847571,None,166.0847571,None,166.0847571,None,166.0847571,None,20,166.0847571,None,166.0847571,None,0.0114929,None,166.0847571,None,1.9375,2.2332236,170.9793697,None,170.9793697,None,170.9793697,None,170.9793697,None,None,None,173.2410185,None,-0.061197917,-0.266927083,1,0,0,4.8652697,tijiao_random_2,,,,,,,233,f,22,2023_Mar_21_1053,RL,2021.2.3,59.98890206
1,0,8,0,,,,,,,,,,,,,,,None,None,None,None,None,175.1308932,None,175.1308932,None,175.1308932,None,175.1308932,None,i,0.2445101,175.1308932,None,175.1308932,None,175.4173932,None,175.4173932,None,175.4173932,None,175.4173932,None,175.4173932,None,175.4173932,None,175.7109788,None,175.7109788,None,177.5080411,None,177.5080411,None,177.5080411,None,177.5080411,None,177.5080411,None,177.5080411,None,177.5080411,None,177.5080411,None,177.5080411,None,24,55,51,62,51,71,None,None,None,None,None,None,None,None,None,None,None,None,,None,None,,None,None,None,None,None,None,None,None,None,None,None,None,None,None,,,,,,,,None,None,None,None,-0.2,1,180.0541438,None,180.0541438,None,180.0541438,None,180.0541438,None,180.0541438,None,180.0541438,None,30,180.0541438,None,180.0541438,None,0.00130905,None,180.0541438,None,1,1.757924,185.2140563,None,185.2140563,None,185.2140563,None,185.2140563,None,None,None,186.9955754,None,-0.01171875,-0.272135417,1,0,0,5.1226993,tijiao_random_2,,,,,,,233,f,22,2023_Mar_21_1053,RL,2021.2.3,59.98890206
0,0,9,0,,,,,,,,,,,,,,,None,None,None,None,None,188.6730353,None,188.6730353,None,188.6730353,None,188.6730353,None,f,0.6932614,188.6730353,None,188.6730353,None,189.4101375,None,189.4101375,None,189.4101375,None,189.4101375,None,189.4101375,None,189.4101375,None,189.7041393,None,189.7041393,None,190.6729981,None,190.6729981,None,190.6729981,None,190.6729981,None,190.6729981,None,190.6729981,None,190.6729981,None,190.6729981,None,190.6729981,None,18,63,52,56,63,54,193.1904191,None,5,3.0044379,193.1904191,None,193.1904191,None,193.1904191,None,193.1904191,None,,None,None,,None,None,None,None,None,None,None,None,None,None,None,None,None,None,,,,,,,,None,None,None,None,-0.2,2,None,None,None,None,None,None,None,None,None,None,None,None,,None,None,None,None,None,None,None,None,None,None,None,None,None,None,None,None,None,None,None,None,196.2461312,None,,,,,,,,,,,,,,233,f,22,2023_Mar_21_1053,RL,2021.2.3,59.98890206
1,0,10,0,,,,,,,,,,,,,,,None,None,None,None,None,198.0480561,None,198.0480561,None,198.0480561,None,198.0480561,None,j,0.3682546,198.0480561,None,198.0480561,None,198.4648678,None,198.4648678,None,198.4648678,None,198.4648678,None,198.4648678,None,198.4648678,None,198.7603694,None,198.7603694,None,200.4755502,None,200.4755502,None,200.4755502,None,200.4755502,None,200.4755502,None,200.4755502,None,200.4755502,None,200.4755502,None,200.4755502,None,17,58,53,60,60,59,202.992729,None,5,2.5397792,202.992729,None,202.992729,None,202.992729,None,202.992729,None,,None,None,,None,None,None,None,None,None,None,None,None,None,None,None,None,None,,,,,,,,None,None,None,None,0.6,3,None,None,None,None,None,None,None,None,None,None,None,None,,None,None,None,None,None,None,None,None,None,None,None,None,None,None,None,None,None,None,None,None,205.5866207,None,,,,,,,,,,,,,,233,f,22,2023_Mar_21_1053,RL,2021.2.3,59.98890206
0,0,11,0,,,,,,,,,,,,,,,None,None,None,None,None,207.2206776,None,207.2206776,None,207.2206776,None,207.2206776,None,i,0.7857582,207.2206776,None,207.2206776,None,208.0541352,None,208.0541352,None,208.0541352,None,208.0541352,None,208.0541352,None,208.0541352,None,208.3504761,None,208.3504761,None,209.2655595,None,209.2655595,None,209.2655595,None,209.2655595,None,209.2655595,None,209.2655595,None,209.2655595,None,209.2655595,None,209.2655595,None,24,61,54,57,54,46,211.7905415,None,6,2.2655241,211.7905415,None,211.7905415,None,211.7905415,None,211.7905415,None,,None,None,,None,None,None,None,None,None,None,None,None,None,None,None,None,None,,,,,,,,None,None,None,None,-0.2,2,None,None,None,None,None,None,None,None,None,None,None,None,,None,None,None,None,None,None,None,None,None,None,None,None,None,None,None,None,None,None,None,None,214.1035191,None,,,,,,,,,,,,,,233,f,22,2023_Mar_21_1053,RL,2021.2.3,59.98890206
1,0,12,0,,,,,,,,,,,,,,,None,None,None,None,None,215.8919264,None,215.8919264,None,215.8919264,None,215.8919264,None,f,0.2946901,215.8919264,None,215.8919264,None,216.2300046,None,216.2300046,None,216.2300046,None,216.2300046,None,216.2300046,None,216.2300046,None,216.5227433,218.2239778,216.5227433,218.2239778,218.2562386,None,218.2562386,None,218.2562386,None,218.2562386,None,218.2562386,None,218.2562386,None,218.2562386,None,218.2562386,None,218.2562386,None,30,68,44,62,68,68,None,None,None,None,None,None,None,None,None,None,None,None,,None,None,,None,None,None,None,None,None,None,None,None,None,None,None,None,None,,,,,,,,None,None,None,None,-0.2,1,220.7987969,None,220.7987969,None,220.7987969,None,220.7987969,None,220.7987969,None,220.7987969,None,68,220.7987969,None,220.7987969,None,0.00208485,None,220.7987969,None,3.942708333,2.4628051,226.2547722,None,226.2547722,None,226.2547722,None,226.2547722,None,None,None,228.7304898,None,0.114583333,-0.278645833,1,0,0,5.4233032,tijiao_random_2,,,,,,,233,f,22,2023_Mar_21_1053,RL,2021.2.3,59.98890206
0,0,13,0,,,,,,,,,,,,,,,None,None,None,None,None,230.4858322,None,230.4858322,None,230.4858322,None,230.4858322,None,i,0.4007621,230.4858322,None,230.4858322,None,230.9402225,None,230.9402225,None,230.9402225,None,230.9402225,None,230.9402225,None,230.9402225,None,231.2328612,None,231.2328612,None,232.2803276,None,232.2803276,None,232.2803276,None,232.2803276,None,232.2803276,None,232.2803276,None,232.2803276,None,232.2803276,None,232.2803276,None,27,68,39,60,39,68,234.799419,None,2,2.2746607,234.799419,None,234.799419,None,234.799419,None,234.799419,None,,None,None,,None,None,None,None,None,None,None,None,None,None,None,None,None,None,,,,,,,,None,None,None,None,0.2,2,None,None,None,None,None,None,None,None,None,None,None,None,,None,None,None,None,None,None,None,None,None,None,None,None,None,None,None,None,None,None,None,None,237.1303248,None,,,,,,,,,,,,,,233,f,22,2023_Mar_21_1053,RL,2021.2.3,59.98890206
1,0,14,0,,,,,,,,,,,,,,,None,None,None,None,None,239.1081564,None,239.1081564,None,239.1081564,None,239.1081564,None,f,0.6986554,239.1081564,None,239.1081564,None,239.8450438,None,239.8450438,None,239.8450438,None,239.8450438,None,239.8450438,None,239.8450438,None,240.1391043,241.1899427,240.1391043,241.1899427,241.2241728,None,241.2241728,None,241.2241728,None,241.2241728,None,241.2241728,None,241.2241728,None,241.2241728,None,241.2241728,None,241.2241728,None,25,69,54,67,69,73,243.7465288,None,4,2.1994032,243.7465288,None,243.7465288,None,243.7465288,None,243.7465288,None,,None,None,,None,None,None,None,None,None,None,None,None,None,None,None,None,None,,,,,,,,None,None,None,None,-0.6,2,None,None,None,None,None,None,None,None,None,None,None,None,,None,None,None,None,None,None,None,None,None,None,None,None,None,None,None,None,None,None,None,None,246.0025249,None,,,,,,,,,,,,,,233,f,22,2023_Mar_21_1053,RL,2021.2.3,59.98890206
0,0,15,0,,,,,,,,,,,,,,,None,None,None,None,None,247.8638906,None,247.8638906,None,247.8638906,None,247.8638906,None,i,0.4930032,247.8638906,None,247.8638906,None,248.4006198,None,248.4006198,None,248.4006198,None,248.4006198,None,248.4006198,None,248.4006198,None,248.6952091,249.6789237,248.6952091,249.6789237,249.7104492,None,249.7104492,None,249.7104492,None,249.7104492,None,249.7104492,None,249.7104492,None,249.7104492,None,249.7104492,None,249.7104492,None,28,65,47,67,47,66,None,None,None,None,None,None,None,None,None,None,None,None,,None,None,,None,None,None,None,None,None,None,None,None,None,None,None,None,None,,,,,,,,None,None,None,None,-0.6,1,252.2612464,None,252.2612464,None,252.2612464,None,252.2612464,None,252.2612464,None,252.2612464,None,10,252.2612464,None,252.2612464,None,0.0114556,None,252.2612464,None,1,1.3707166,257.1268277,None,257.1268277,None,257.1268277,None,257.1268277,None,None,None,258.5189074,None,-0.01953125,-0.291666667,1,0,0,4.8324031,tijiao_random_2,,,,,,,233,f,22,2023_Mar_21_1053,RL,2021.2.3,59.98890206
1,0,16,0,,,,,,,,,,,,,,,None,None,None,None,None,260.1557966,None,260.1557966,None,260.1557966,None,260.1557966,None,f,0.6509963,260.1557966,None,260.1557966,None,260.8584701,None,260.8584701,None,260.8584701,None,260.8584701,None,260.8584701,None,260.8584701,None,261.1537095,262.7379198,261.1537095,262.7379198,262.7698621,None,262.7698621,None,262.7698621,None,262.7698621,None,262.7698621,None,262.7698621,None,262.7698621,None,262.7698621,None,262.7698621,None,18,71,46,67,71,51,265.295284,None,5,2.5523043,265.295284,None,265.295284,None,265.295284,None,265.295284,None,,None,None,,None,None,None,None,None,None,None,None,None,None,None,None,None,None,,,,,,,,None,None,None,None,-0.2,2,None,None,None,None,None,None,None,None,None,None,None,None,,None,None,None,None,None,None,None,None,None,None,None,None,None,None,None,None,None,None,None,None,267.9039884,None,,,,,,,,,,,,,,233,f,22,2023_Mar_21_1053,RL,2021.2.3,59.98890206
0,0,17,0,,,,,,,,,,,,,,,None,None,None,None,None,269.5309071,None,269.5309071,None,269.5309071,None,269.5309071,None,i,0.3059696,269.5309071,None,269.5309071,None,269.88136,None,269.88136,None,269.88136,None,269.88136,None,269.88136,None,269.88136,None,270.1765937,None,270.1765937,None,271.9064195,None,271.9064195,None,271.9064195,None,271.9064195,None,271.9064195,None,271.9064195,None,271.9064195,None,271.9064195,None,271.9064195,None,20,77,38,65,38,57,None,None,None,None,None,None,None,None,None,None,None,None,,None,None,,None,None,None,None,None,None,None,None,None,None,None,None,None,None,,,,,,,,None,None,None,None,-0.2,1,274.4528802,None,274.4528802,None,274.4528802,None,274.4528802,None,274.4528802,None,274.4528802,None,38,274.4528802,None,274.4528802,None,0.00182875,None,274.4528802,None,4.893229167,1.4653561,278.3377246,None,278.3377246,None,278.3377246,None,278.3377246,None,None,None,279.8345077,None,0.037760417,-0.26953125,1,0,0,3.855645,tijiao_random_2,,,,,,,233,f,22,2023_Mar_21_1053,RL,2021.2.3,59.98890206
1,0,18,0,,,,,,,,,,,,,,,None,None,None,None,None,281.8377737,None,281.8377737,None,281.8377737,None,281.8377737,None,j,0.8891112,281.8377737,None,281.8377737,None,282.7748584,None,282.7748584,None,282.7748584,None,282.7748584,None,282.7748584,None,282.7748584,None,283.0689408,None,283.0689408,None,284.350766,None,284.350766,None,284.350766,None,284.350766,None,284.350766,None,284.350766,None,284.350766,None,284.350766,None,284.350766,None,11,75,42,63,63,68,286.8681612,None,4,2.2066659,286.8681612,None,286.8681612,None,286.8681612,None,286.8681612,None,,None,None,,None,None,None,None,None,None,None,None,None,None,None,None,None,None,,,,,,,,None,None,None,None,0.6,3,None,None,None,None,None,None,None,None,None,None,None,None,,None,None,None,None,None,None,None,None,None,None,None,None,None,None,None,None,None,None,None,None,289.1279824,None,,,,,,,,,,,,,,233,f,22,2023_Mar_21_1053,RL,2021.2.3,59.98890206
0,0,19,0,,,,,,,,,,,,,,,None,None,None,None,None,290.6945679,None,290.6945679,None,290.6945679,None,290.6945679,None,i,0.3425178,290.6945679,None,290.6945679,None,291.0794179,None,291.0794179,None,291.0794179,None,291.0794179,None,291.0794179,None,291.0794179,None,291.3746794,292.4589259,291.3746794,292.4589259,292.4895038,None,292.4895038,None,292.4895038,None,292.4895038,None,292.4895038,None,292.4895038,None,292.4895038,None,292.4895038,None,292.4895038,None,19,78,41,65,41,79,None,None,None,None,None,None,None,None,None,None,None,None,,None,None,,None,None,None,None,None,None,None,None,None,None,None,None,None,None,,,,,,,,None,None,None,None,-0.6,1,295.0402913,None,295.0402913,None,295.0402913,None,295.0402913,None,295.0402913,None,295.0402913,None,15,295.0402913,None,295.0402913,None,0.0121347,None,295.0402913,None,1.052083333,1.4141548,300.1549843,None,300.1549843,None,300.1549843,None,300.1549843,None,None,None,301.5962789,None,-0.013020833,-0.265625,1,0,0,5.0831418,tijiao_random_2,,,,,,,233,f,22,2023_Mar_21_1053,RL,2021.2.3,59.98890206
1,0,20,0,,,,,,,,,,,,,,,None,None,None,None,None,303.4204376,None,303.4204376,None,303.4204376,None,303.4204376,None,f,0.3366163,303.4204376,None,303.4204376,None,303.8049494,None,303.8049494,None,303.8049494,None,303.8049494,None,303.8049494,None,303.8049494,None,304.1001458,None,304.1001458,None,306.0858462,None,306.0858462,None,306.0858462,None,306.0858462,None,306.0858462,None,306.0858462,None,306.0858462,None,306.0858462,None,306.0858462,None,16,80,39,58,80,37,308.5995592,None,7,1.9721167,308.5995592,None,308.5995592,None,308.5995592,None,308.5995592,None,,None,None,,None,None,None,None,None,None,None,None,None,None,None,None,None,None,,,,,,,,None,None,None,None,0.2,3,None,None,None,None,None,None,None,None,None,None,None,None,,None,None,None,None,None,None,None,None,None,None,None,None,None,None,None,None,None,None,None,None,310.6252059,None,,,,,,,,,,,,,,233,f,22,2023_Mar_21_1053,RL,2021.2.3,59.98890206
0,0,21,0,,,,,,,,,,,,,,,None,None,None,None,None,312.3896017,None,312.3896017,None,312.3896017,None,312.3896017,None,f,0.5174626,312.3896017,None,312.3896017,None,312.9454021,None,312.9454021,None,312.9454021,None,312.9454021,None,312.9454021,None,312.9454021,None,313.2400697,None,313.2400697,None,314.3202424,None,314.3202424,None,314.3202424,None,314.3202424,None,314.3202424,None,314.3202424,None,314.3202424,None,314.3202424,None,314.3202424,None,14,75,40,56,75,69,316.847337,None,5,2.7192132,316.847337,None,316.847337,None,316.847337,None,316.847337,None,,None,None,,None,None,None,None,None,None,None,None,None,None,None,None,None,None,,,,,,,,None,None,None,None,-0.2,3,None,None,None,None,None,None,None,None,None,None,None,None,,None,None,None,None,None,None,None,None,None,None,None,None,None,None,None,None,None,None,None,None,319.6255828,None,,,,,,,,,,,,,,233,f,22,2023_Mar_21_1053,RL,2021.2.3,59.98890206
1,0,22,0,,,,,,,,,,,,,,,None,None,None,None,None,321.4487732,None,321.4487732,None,321.4487732,None,321.4487732,None,i,0.2986675,321.4487732,None,321.4487732,None,321.7863538,None,321.7863538,None,321.7863538,None,321.7863538,None,321.7863538,None,321.7863538,None,322.0794309,None,322.0794309,None,323.2443493,None,323.2443493,None,323.2443493,None,323.2443493,None,323.2443493,None,323.2443493,None,323.2443493,None,323.2443493,None,323.2443493,None,20,85,39,63,39,75,None,None,None,None,None,None,None,None,None,None,None,None,,None,None,,None,None,None,None,None,None,None,None,None,None,None,None,None,None,,,,,,,,None,None,None,None,-0.2,1,325.7930534,None,325.7930534,None,325.7930534,None,325.7930534,None,325.7930534,None,325.7930534,None,39,325.7930534,None,325.7930534,None,0.0141828,None,325.7930534,None,4.033854167,1.9275338,330.1096068,None,330.1096068,None,330.1096068,None,330.1096068,None,None,None,332.0523101,None,0.016927083,-0.278645833,1,0,0,4.2853624,tijiao_random_2,,,,,,,233,f,22,2023_Mar_21_1053,RL,2021.2.3,59.98890206
0,0,23,0,,,,,,,,,,,,,,,None,None,None,None,None,333.6082479,None,333.6082479,None,333.6082479,None,333.6082479,None,f,0.6290823,333.6082479,None,333.6082479,None,334.276606,None,334.276606,None,334.276606,None,334.276606,None,334.276606,None,334.276606,None,334.571354,336.5561233,334.571354,336.5561233,336.5882959,None,336.5882959,None,336.5882959,None,336.5882959,None,336.5882959,None,336.5882959,None,336.5882959,None,336.5882959,None,336.5882959,None,15,89,36,53,89,63,None,None,None,None,None,None,None,None,None,None,None,None,30,339.117725,None,30,339.117725,None,339.117725,None,339.117725,None,339.117725,None,339.117725,None,339.117725,None,339.117725,None,0.014322917,-0.287760417,1,0,0,5.5041788,tijiao,0.01588585,None,339.117725,None,0.2,0,None,None,None,None,None,None,None,None,None,None,None,None,,None,None,None,None,None,None,None,None,1.9375,1.8617525,344.6691893,None,344.6691893,None,344.6691893,None,344.6691893,None,None,None,346.5466833,None,,,,,,,,,,,,,,233,f,22,2023_Mar_21_1053,RL,2021.2.3,59.98890206
1,0,24,0,,,,,,,,,,,,,,,None,None,None,None,None,348.2676518,None,348.2676518,None,348.2676518,None,348.2676518,None,f,0.2697235,348.2676518,None,348.2676518,None,348.5865948,None,348.5865948,None,348.5865948,None,348.5865948,None,348.5865948,None,348.5865948,None,348.8812323,None,348.8812323,None,350.0957941,None,350.0957941,None,350.0957941,None,350.0957941,None,350.0957941,None,350.0957941,None,350.0957941,None,350.0957941,None,350.0957941,None,18,87,34,61,87,39,352.6133749,None,6,2.5071696,352.6133749,None,352.6133749,None,352.6133749,None,352.6133749,None,,None,None,,None,None,None,None,None,None,None,None,None,None,None,None,None,None,,,,,,,,None,None,None,None,0.6,2,None,None,None,None,None,None,None,None,None,None,None,None,,None,None,None,None,None,None,None,None,None,None,None,None,None,None,None,None,None,None,None,None,355.1877048,None,,,,,,,,,,,,,,233,f,22,2023_Mar_21_1053,RL,2021.2.3,59.98890206
0,0,25,0,,,,,,,,,,,,,,,None,None,None,None,None,356.87472,None,356.87472,None,356.87472,None,356.87472,None,j,0.7336438,356.87472,None,356.87472,None,357.6590358,None,357.6590358,None,357.6590358,None,357.6590358,None,357.6590358,None,357.6590358,None,357.954016,None,357.954016,None,359.4847185,None,359.4847185,None,359.4847185,None,359.4847185,None,359.4847185,None,359.4847185,None,359.4847185,None,359.4847185,None,359.4847185,None,17,88,31,58,58,57,362.0121817,None,4,2.2704021,362.0121817,None,362.0121817,None,362.0121817,None,362.0121817,None,,None,None,,None,None,None,None,None,None,None,None,None,None,None,None,None,None,,,,,,,,None,None,None,None,-0.2,2,None,None,None,None,None,None,None,None,None,None,None,None,,None,None,None,None,None,None,None,None,None,None,None,None,None,None,None,None,None,None,None,None,364.3398904,None,,,,,,,,,,,,,,233,f,22,2023_Mar_21_1053,RL,2021.2.3,59.98890206
1,0,26,0,,,,,,,,,,,,,,,None,None,None,None,None,365.997234,None,365.997234,None,365.997234,None,365.997234,None,f,0.3012312,365.997234,None,365.997234,None,366.3546749,None,366.3546749,None,366.3546749,None,366.3546749,None,366.3546749,None,366.3546749,None,366.6436153,368.2448637,366.6436153,368.2448637,368.2773194,None,368.2773194,None,368.2773194,None,368.2773194,None,368.2773194,None,368.2773194,None,368.2773194,None,368.2773194,None,368.2773194,None,12,97,25,52,97,60,370.7929828,None,6,2.1580493,370.7929828,None,370.7929828,None,370.7929828,None,370.7929828,None,,None,None,,None,None,None,None,None,None,None,None,None,None,None,None,None,None,,,,,,,,None,None,None,None,-0.2,2,None,None,None,None,None,None,None,None,None,None,None,None,,None,None,None,None,None,None,None,None,None,None,None,None,None,None,None,None,None,None,None,None,373.0152837,None,,,,,,,,,,,,,,233,f,22,2023_Mar_21_1053,RL,2021.2.3,59.98890206
0,0,27,0,,,,,,,,,,,,,,,None,None,None,None,None,374.7195163,None,374.7195163,None,374.7195163,None,374.7195163,None,i,0.5790517,374.7195163,None,374.7195163,None,375.338591,None,375.338591,None,375.338591,None,375.338591,None,375.338591,None,375.338591,None,375.6330928,None,375.6330928,None,376.751463,None,376.751463,None,376.751463,None,376.751463,None,376.751463,None,376.751463,None,376.751463,None,376.751463,None,376.751463,None,19,96,38,50,38,57,379.2662266,None,4,2.5412947,379.2662266,None,379.2662266,None,379.2662266,None,379.2662266,None,,None,None,,None,None,None,None,None,None,None,None,None,None,None,None,None,None,,,,,,,,None,None,None,None,0.2,2,None,None,None,None,None,None,None,None,None,None,None,None,,None,None,None,None,None,None,None,None,None,None,None,None,None,None,None,None,None,None,None,None,381.8700745,None,,,,,,,,,,,,,,233,f,22,2023_Mar_21_1053,RL,2021.2.3,59.98890206
1,0,28,0,,,,,,,,,,,,,,,None,None,None,None,None,383.4097019,None,383.4097019,None,383.4097019,None,383.4097019,None,j,0.6488787,383.4097019,None,383.4097019,None,384.1179498,None,384.1179498,None,384.1179498,None,384.1179498,None,384.1179498,None,384.1179498,None,384.4058957,385.8570744,384.4058957,385.8570744,385.8940568,None,385.8940568,None,385.8940568,None,385.8940568,None,385.8940568,None,385.8940568,None,385.8940568,None,385.8940568,None,385.8940568,None,20,101,32,43,43,65,None,None,None,None,None,None,None,None,None,None,None,None,,None,None,,None,None,None,None,None,None,None,None,None,None,None,None,None,None,,,,,,,,None,None,None,None,-0.6,1,388.4360307,None,388.4360307,None,388.4360307,None,388.4360307,None,388.4360307,None,388.4360307,None,35,388.4360307,None,388.4360307,None,0.0149995,None,388.4360307,None,1,1.6830058,394.1518365,None,394.1518365,None,394.1518365,None,394.1518365,None,None,None,395.8618222,None,0.098958333,-0.274739583,1,0,0,5.6859612,tijiao_random_2,,,,,,,233,f,22,2023_Mar_21_1053,RL,2021.2.3,59.98890206
0,0,29,0,,,,,,,,,,,,,,,None,None,None,None,None,397.3847521,None,397.3847521,None,397.3847521,None,397.3847521,None,r,0.2741484,397.3847521,None,397.3847521,None,397.7045119,None,397.7045119,None,397.7045119,None,397.7045119,None,397.7045119,None,397.7045119,None,397.9987671,None,397.9987671,None,399.7535366,None,399.7535366,None,399.7535366,None,399.7535366,None,399.7535366,None,399.7535366,None,399.7535366,None,399.7535366,None,399.7535366,None,26,96,33,46,26,46,None,None,None,None,None,None,None,None,None,None,None,None,,None,None,,None,None,None,None,None,None,None,None,None,None,None,None,None,None,,,,,,,,None,None,None,None,-0.2,1,402.2907362,None,402.2907362,None,402.2907362,None,402.2907362,None,402.2907362,None,402.2907362,None,45,402.2907362,None,402.2907362,None,0.00255445,None,402.2907362,None,1,3.3650903,407.8962635,None,407.8962635,None,407.8962635,None,407.8962635,None,None,None,411.2937407,None,-0.10546875,-0.291666667,1,0,0,5.5743993,tijiao_random_2,,,,,,,233,f,22,2023_Mar_21_1053,RL,2021.2.3,59.98890206
1,0,30,0,,,,,,,,,,,,,,,None,None,None,None,None,412.9960716,None,412.9960716,None,412.9960716,None,412.9960716,None,f,0.3527211,412.9960716,None,412.9960716,None,413.3981642,None,413.3981642,None,413.3981642,None,413.3981642,None,413.3981642,None,413.3981642,None,413.6931466,None,413.6931466,None,414.8083483,None,414.8083483,None,414.8083483,None,414.8083483,None,414.8083483,None,414.8083483,None,414.8083483,None,414.8083483,None,414.8083483,None,26,85,35,49,85,68,417.3342143,None,5,2.3012258,417.3342143,None,417.3342143,None,417.3342143,None,417.3342143,None,,None,None,,None,None,None,None,None,None,None,None,None,None,None,None,None,None,,,,,,,,None,None,None,None,0.6,3,None,None,None,None,None,None,None,None,None,None,None,None,,None,None,None,None,None,None,None,None,None,None,None,None,None,None,None,None,None,None,None,None,419.6847541,None,,,,,,,,,,,,,,233,f,22,2023_Mar_21_1053,RL,2021.2.3,59.98890206
0,0,31,0,,,,,,,,,,,,,,,None,None,None,None,None,421.4823898,None,421.4823898,None,421.4823898,None,421.4823898,None,j,0.3662133,421.4823898,None,421.4823898,None,421.88368,None,421.88368,None,421.88368,None,421.88368,None,421.88368,None,421.88368,None,422.1821107,None,422.1821107,None,423.9628338,None,423.9628338,None,423.9628338,None,423.9628338,None,423.9628338,None,423.9628338,None,423.9628338,None,423.9628338,None,423.9628338,None,31,81,39,44,44,46,426.4815613,None,4,2.2723027,426.4815613,None,426.4815613,None,426.4815613,None,426.4815613,None,,None,None,,None,None,None,None,None,None,None,None,None,None,None,None,None,None,,,,,,,,None,None,None,None,-0.2,3,None,None,None,None,None,None,None,None,None,None,None,None,,None,None,None,None,None,None,None,None,None,None,None,None,None,None,None,None,None,None,None,None,428.8200068,None,,,,,,,,,,,,,,233,f,22,2023_Mar_21_1053,RL,2021.2.3,59.98890206
1,0,32,0,,,,,,,,,,,,,,,None,None,None,None,None,430.3413379,None,430.3413379,None,430.3413379,None,430.3413379,None,i,0.2776434,430.3413379,None,430.3413379,None,430.6618182,None,430.6618182,None,430.6618182,None,430.6618182,None,430.6618182,None,430.6618182,None,430.9549924,None,430.9549924,None,432.5526116,None,432.5526116,None,432.5526116,None,432.5526116,None,432.5526116,None,432.5526116,None,432.5526116,None,432.5526116,None,432.5526116,None,21,83,43,52,43,61,435.0761549,None,3,3.3704735,435.0761549,None,435.0761549,None,435.0761549,None,435.0761549,None,,None,None,,None,None,None,None,None,None,None,None,None,None,None,None,None,None,,,,,,,,None,None,None,None,0.6,3,None,None,None,None,None,None,None,None,None,None,None,None,,None,None,None,None,None,None,None,None,None,None,None,None,None,None,None,None,None,None,None,None,438.493461,None,,,,,,,,,,,,,,233,f,22,2023_Mar_21_1053,RL,2021.2.3,59.98890206
0,0,33,0,,,,,,,,,,,,,,,None,None,None,None,None,440.2820847,None,440.2820847,None,440.2820847,None,440.2820847,None,i,0.4267636,440.2820847,None,440.2820847,None,440.7524099,None,440.7524099,None,440.7524099,None,440.7524099,None,440.7524099,None,440.7524099,None,441.0452316,None,441.0452316,None,442.2765881,None,442.2765881,None,442.2765881,None,442.2765881,None,442.2765881,None,442.2765881,None,442.2765881,None,442.2765881,None,442.2765881,None,33,81,45,57,45,48,None,None,None,None,None,None,None,None,None,None,None,None,,None,None,,None,None,None,None,None,None,None,None,None,None,None,None,None,None,,,,,,,,None,None,None,None,0.6,1,444.8171627,None,444.8171627,None,444.8171627,None,444.8171627,None,444.8171627,None,444.8171627,None,35,444.8171627,None,444.8171627,None,0.00501895,None,444.8171627,None,1.846354167,2.2318341,449.956824,None,449.956824,None,449.956824,None,449.956824,None,None,None,452.2026626,None,0.130208333,-0.270833333,1,0,0,5.1089753,tijiao_random_2,,,,,,,233,f,22,2023_Mar_21_1053,RL,2021.2.3,59.98890206
1,0,34,0,,,,,,,,,,,,,,,None,None,None,None,None,453.7917697,None,453.7917697,None,453.7917697,None,453.7917697,None,f,0.2877927,453.7917697,None,453.7917697,None,454.1272747,None,454.1272747,None,454.1272747,None,454.1272747,None,454.1272747,None,454.1272747,None,454.4212421,455.6554754,454.4212421,455.6554754,455.6862142,None,455.6862142,None,455.6862142,None,455.6862142,None,455.6862142,None,455.6862142,None,455.6862142,None,455.6862142,None,455.6862142,None,38,87,44,51,87,68,458.2045573,None,5,2.571598,458.2045573,None,458.2045573,None,458.2045573,None,458.2045573,None,,None,None,,None,None,None,None,None,None,None,None,None,None,None,None,None,None,,,,,,,,None,None,None,None,-0.6,2,None,None,None,None,None,None,None,None,None,None,None,None,,None,None,None,None,None,None,None,None,None,None,None,None,None,None,None,None,None,None,None,None,460.8532213,None,,,,,,,,,,,,,,233,f,22,2023_Mar_21_1053,RL,2021.2.3,59.98890206
0,0,35,0,,,,,,,,,,,,,,,None,None,None,None,None,462.780195,None,462.780195,None,462.780195,None,462.780195,None,f,0.4889522,462.780195,None,462.780195,None,463.3155795,None,463.3155795,None,463.3155795,None,463.3155795,None,463.3155795,None,463.3155795,None,463.61115,None,463.61115,None,465.3095006,None,465.3095006,None,465.3095006,None,465.3095006,None,465.3095006,None,465.3095006,None,465.3095006,None,465.3095006,None,465.3095006,None,38,88,50,46,88,66,None,None,None,None,None,None,None,None,None,None,None,None,66,467.8381966,None,66,467.8381966,None,467.8381966,None,467.8381966,None,467.8381966,None,467.8381966,None,467.8381966,None,467.8381966,None,0.095052083,-0.290364583,1,0,0,4.4040839,tijiao,0.0003791,None,467.8381966,None,0.2,0,None,None,None,None,None,None,None,None,None,None,None,None,,None,None,None,None,None,None,None,None,1.924479167,1.9026249,472.3056731,None,472.3056731,None,472.3056731,None,472.3056731,None,None,None,474.2178334,None,,,,,,,,,,,,,,233,f,22,2023_Mar_21_1053,RL,2021.2.3,59.98890206
1,0,36,0,,,,,,,,,,,,,,,None,None,None,None,None,476.2232881,None,476.2232881,None,476.2232881,None,476.2232881,None,None,,476.2232881,None,476.2232881,None,None,None,None,None,None,None,None,None,None,None,None,None,None,None,None,None,None,None,None,None,None,None,None,None,None,None,None,None,None,None,None,None,None,None,39,87,44,47,0,**,None,None,None,None,None,None,None,None,None,None,None,None,,None,None,,None,None,None,None,None,None,None,None,None,None,None,None,None,None,,,,,,,,None,None,None,None,0.2,0,None,None,None,None,None,None,None,None,None,None,None,None,,None,None,None,None,None,None,None,None,None,None,None,None,None,None,None,None,None,None,477.8138342,None,483.8252098,None,,,,,,,,,,,,,,233,f,22,2023_Mar_21_1053,RL,2021.2.3,59.98890206
0,0,37,0,,,,,,,,,,,,,,,None,None,None,None,None,485.6792471,None,485.6792471,None,485.6792471,None,485.6792471,None,f,0.2902612,485.6792471,None,485.6792471,None,486.016655,None,486.016655,None,486.016655,None,486.016655,None,486.016655,None,486.016655,None,486.3100074,None,486.3100074,None,488.3137591,None,488.3137591,None,488.3137591,None,488.3137591,None,488.3137591,None,488.3137591,None,488.3137591,None,488.3137591,None,488.3137591,None,30,85,43,47,85,31,None,None,None,None,None,None,None,None,None,None,None,None,,None,None,,None,None,None,None,None,None,None,None,None,None,None,None,None,None,,,,,,,,None,None,None,None,-0.2,1,490.8542931,None,490.8542931,None,490.8542931,None,490.8542931,None,490.8542931,None,490.8542931,None,85,490.8542931,None,490.8542931,None,0.0161539,None,490.8542931,None,2.966145833,1.4943201,494.4233487,None,494.4233487,None,494.4233487,None,494.4233487,None,None,None,495.9328707,None,-0.110677083,-0.296875,1,0,0,3.5369754,tijiao_random_2,,,,,,,233,f,22,2023_Mar_21_1053,RL,2021.2.3,59.98890206
1,0,38,0,,,,,,,,,,,,,,,None,None,None,None,None,497.5377215,None,497.5377215,None,497.5377215,None,497.5377215,None,f,0.3016261,497.5377215,None,497.5377215,None,497.8887857,None,497.8887857,None,497.8887857,None,497.8887857,None,497.8887857,None,497.8887857,None,498.1849731,None,498.1849731,None,500.0668312,None,500.0668312,None,500.0668312,None,500.0668312,None,500.0668312,None,500.0668312,None,500.0668312,None,500.0668312,None,500.0668312,None,36,81,50,60,81,57,502.5840577,None,5,2.5907166,502.5840577,None,502.5840577,None,502.5840577,None,502.5840577,None,,None,None,,None,None,None,None,None,None,None,None,None,None,None,None,None,None,,,,,,,,None,None,None,None,-0.6,3,None,None,None,None,None,None,None,None,None,None,None,None,,None,None,None,None,None,None,None,None,None,None,None,None,None,None,None,None,None,None,None,None,505.2387445,None,,,,,,,,,,,,,,233,f,22,2023_Mar_21_1053,RL,2021.2.3,59.98890206
0,0,39,0,,,,,,,,,,,,,,,None,None,None,None,None,506.7776268,None,506.7776268,None,506.7776268,None,506.7776268,None,f,0.2920661,506.7776268,None,506.7776268,None,507.1154365,None,507.1154365,None,507.1154365,None,507.1154365,None,507.1154365,None,507.1154365,None,507.4080571,None,507.4080571,None,508.7063025,None,508.7063025,None,508.7063025,None,508.7063025,None,508.7063025,None,508.7063025,None,508.7063025,None,508.7063025,None,508.7063025,None,38,77,49,51,77,61,None,None,None,None,None,None,None,None,None,None,None,None,80,511.2421759,None,80,511.2421759,None,511.2421759,None,511.2421759,None,511.2421759,None,511.2421759,None,511.2421759,None,511.2421759,None,0.126302083,-0.2890625,1,0,0,6.249106,tijiao,0.01014045,None,511.2421759,None,0.6,0,None,None,None,None,None,None,None,None,None,None,None,None,,None,None,None,None,None,None,None,None,2.8359375,1.1793805,517.5373597,None,517.5373597,None,517.5373597,None,517.5373597,None,None,None,518.7471842,None,,,,,,,,,,,,,,233,f,22,2023_Mar_21_1053,RL,2021.2.3,59.98890206
1,0,40,0,,,,,,,,,,,,,,,None,None,None,None,None,520.4206005,None,520.4206005,None,520.4206005,None,520.4206005,None,f,0.3199135,520.4206005,None,520.4206005,None,520.7900246,None,520.7900246,None,520.7900246,None,520.7900246,None,520.7900246,None,520.7900246,None,521.084204,None,521.084204,None,522.1492218,None,522.1492218,None,522.1492218,None,522.1492218,None,522.1492218,None,522.1492218,None,522.1492218,None,522.1492218,None,522.1492218,None,41,76,48,56,76,65,None,None,None,None,None,None,None,None,None,None,None,None,,None,None,,None,None,None,None,None,None,None,None,None,None,None,None,None,None,,,,,,,,None,None,None,None,-0.2,1,524.6994242,None,524.6994242,None,524.6994242,None,524.6994242,None,524.6994242,None,524.6994242,None,76,524.6994242,None,524.6994242,None,0.0112177,None,524.6994242,None,2.9921875,2.1101187,529.0661178,None,529.0661178,None,529.0661178,None,529.0661178,None,None,None,531.1908017,None,-0.00390625,-0.286458333,1,0,0,4.3319122,tijiao_random_2,,,,,,,233,f,22,2023_Mar_21_1053,RL,2021.2.3,59.98890206
0,0,41,0,,,,,,,,,,,,,,,None,None,None,None,None,533.1969089,None,533.1969089,None,533.1969089,None,533.1969089,None,f,0.3537794,533.1969089,None,533.1969089,None,533.5973395,None,533.5973395,None,533.5973395,None,533.5973395,None,533.5973395,None,533.5973395,None,533.8931794,535.0273436,533.8931794,535.0273436,535.0577737,None,535.0577737,None,535.0577737,None,535.0577737,None,535.0577737,None,535.0577737,None,535.0577737,None,535.0577737,None,535.0577737,None,39,77,52,49,77,62,537.5840248,None,5,2.3672004,537.5840248,None,537.5840248,None,537.5840248,None,537.5840248,None,,None,None,,None,None,None,None,None,None,None,None,None,None,None,None,None,None,,,,,,,,None,None,None,None,-0.2,2,None,None,None,None,None,None,None,None,None,None,None,None,,None,None,None,None,None,None,None,None,None,None,None,None,None,None,None,None,None,None,None,None,540.0148963,None,,,,,,,,,,,,,,233,f,22,2023_Mar_21_1053,RL,2021.2.3,59.98890206
1,0,42,0,,,,,,,,,,,,,,,None,None,None,None,None,541.6861544,None,541.6861544,None,541.6861544,None,541.6861544,None,j,0.4048827,541.6861544,None,541.6861544,None,542.143171,None,542.143171,None,542.143171,None,542.143171,None,542.143171,None,542.143171,None,542.4324228,544.2167719,542.4324228,544.2167719,544.2473146,None,544.2473146,None,544.2473146,None,544.2473146,None,544.2473146,None,544.2473146,None,544.2473146,None,544.2473146,None,544.2473146,None,47,70,52,36,36,46,None,None,None,None,None,None,None,None,None,None,None,None,,None,None,,None,None,None,None,None,None,None,None,None,None,None,None,None,None,,,,,,,,None,None,None,None,0.6,1,546.7973447,None,546.7973447,None,546.7973447,None,546.7973447,None,546.7973447,None,546.7973447,None,36,546.7973447,None,546.7973447,None,0.0121681,None,546.7973447,None,3.044270833,1.5477622,550.8811534,None,550.8811534,None,550.8811534,None,550.8811534,None,None,None,552.446151,None,0.069010417,-0.286458333,1,0,0,4.0490658,tijiao_random_2,,,,,,,233,f,22,2023_Mar_21_1053,RL,2021.2.3,59.98890206
0,0,43,0,,,,,,,,,,,,,,,None,None,None,None,None,554.3938087,None,554.3938087,None,554.3938087,None,554.3938087,None,i,0.3069975,554.3938087,None,554.3938087,None,554.7475087,None,554.7475087,None,554.7475087,None,554.7475087,None,554.7475087,None,554.7475087,None,555.0409705,557.0424355,555.0409705,557.0424355,557.0738508,None,557.0738508,None,557.0738508,None,557.0738508,None,557.0738508,None,557.0738508,None,557.0738508,None,557.0738508,None,557.0738508,None,47,64,56,35,56,70,None,None,None,None,None,None,None,None,None,None,None,None,,None,None,,None,None,None,None,None,None,None,None,None,None,None,None,None,None,,,,,,,,None,None,None,None,-0.6,1,559.6168047,None,559.6168047,None,559.6168047,None,559.6168047,None,559.6168047,None,559.6168047,None,60,559.6168047,None,559.6168047,None,0.00226005,None,559.6168047,None,1.078125,1.4119059,565.2381143,None,565.2381143,None,565.2381143,None,565.2381143,None,None,None,566.665111,None,-0.018229167,-0.294270833,1,0,0,5.5907002,tijiao_random_2,,,,,,,233,f,22,2023_Mar_21_1053,RL,2021.2.3,59.98890206
1,0,44,0,,,,,,,,,,,,,,,None,None,None,None,None,568.6375273,None,568.6375273,None,568.6375273,None,568.6375273,None,f,0.3137098,568.6375273,None,568.6375273,None,568.9912066,None,568.9912066,None,568.9912066,None,568.9912066,None,568.9912066,None,568.9912066,None,569.2845054,None,569.2845054,None,570.815068,None,570.815068,None,570.815068,None,570.815068,None,570.815068,None,570.815068,None,570.815068,None,570.815068,None,570.815068,None,33,70,56,42,70,47,None,None,None,None,None,None,None,None,None,None,None,None,,None,None,,None,None,None,None,None,None,None,None,None,None,None,None,None,None,,,,,,,,None,None,None,None,0.2,1,573.3675043,None,573.3675043,None,573.3675043,None,573.3675043,None,573.3675043,None,573.3675043,None,47,573.3675043,None,573.3675043,None,0.0107846,None,573.3675043,None,1.846354167,1.9145365,578.0634523,None,578.0634523,None,578.0634523,None,578.0634523,None,None,None,579.991368,None,-0.134114583,-0.30078125,1,0,0,4.6654245,tijiao_random_2,,,,,,,233,f,22,2023_Mar_21_1053,RL,2021.2.3,59.98890206
0,0,45,0,,,,,,,,,,,,,,,None,None,None,None,None,581.9473649,None,581.9473649,None,581.9473649,None,581.9473649,None,f,0.5236074,581.9473649,None,581.9473649,None,582.5174757,None,582.5174757,None,582.5174757,None,582.5174757,None,582.5174757,None,582.5174757,None,582.8106064,None,582.8106064,None,584.6978752,None,584.6978752,None,584.6978752,None,584.6978752,None,584.6978752,None,584.6978752,None,584.6978752,None,584.6978752,None,584.6978752,None,37,72,48,42,72,42,587.2100099,None,5,3.4744332,587.2100099,None,587.2100099,None,587.2100099,None,587.2100099,None,,None,None,,None,None,None,None,None,None,None,None,None,None,None,None,None,None,,,,,,,,None,None,None,None,-0.6,3,None,None,None,None,None,None,None,None,None,None,None,None,,None,None,None,None,None,None,None,None,None,None,None,None,None,None,None,None,None,None,None,None,590.7517731,None,,,,,,,,,,,,,,233,f,22,2023_Mar_21_1053,RL,2021.2.3,59.98890206
1,0,46,0,,,,,,,,,,,,,,,None,None,None,None,None,592.2879207,None,592.2879207,None,592.2879207,None,592.2879207,None,f,0.4530722,592.2879207,None,592.2879207,None,592.7877703,None,592.7877703,None,592.7877703,None,592.7877703,None,592.7877703,None,592.7877703,None,593.0842255,None,593.0842255,None,594.1817714,None,594.1817714,None,594.1817714,None,594.1817714,None,594.1817714,None,594.1817714,None,594.1817714,None,594.1817714,None,594.1817714,None,41,66,40,45,66,63,596.7084471,None,4,2.0658725,596.7084471,None,596.7084471,None,596.7084471,None,596.7084471,None,,None,None,,None,None,None,None,None,None,None,None,None,None,None,None,None,None,,,,,,,,None,None,None,None,0.2,2,None,None,None,None,None,None,None,None,None,None,None,None,,None,None,None,None,None,None,None,None,None,None,None,None,None,None,None,None,None,None,None,None,598.8330626,None,,,,,,,,,,,,,,233,f,22,2023_Mar_21_1053,RL,2021.2.3,59.98890206
0,0,47,0,,,,,,,,,,,,,,,None,None,None,None,None,600.6086976,None,600.6086976,None,600.6086976,None,600.6086976,None,f,0.9723948,600.6086976,None,600.6086976,None,601.6287139,None,601.6287139,None,601.6287139,None,601.6287139,None,601.6287139,None,601.6287139,None,601.9236707,None,601.9236707,None,602.7710209,None,602.7710209,None,602.7710209,None,602.7710209,None,602.7710209,None,602.7710209,None,602.7710209,None,602.7710209,None,602.7710209,None,40,72,39,44,72,67,None,None,None,None,None,None,None,None,None,None,None,None,,None,None,,None,None,None,None,None,None,None,None,None,None,None,None,None,None,,,,,,,,None,None,None,None,0.2,1,605.3158253,None,605.3158253,None,605.3158253,None,605.3158253,None,605.3158253,None,605.3158253,None,67,605.3158253,None,605.3158253,None,0.00182015,None,605.3158253,None,1.078125,1.6307486,609.3682066,None,609.3682066,None,609.3682066,None,609.3682066,None,None,None,611.0290284,None,0.005208333,-0.28515625,1,0,0,4.0223054,tijiao_random_2,,,,,,,233,f,22,2023_Mar_21_1053,RL,2021.2.3,59.98890206
1,0,48,0,,,,,,,,,,,,,,,None,None,None,None,None,612.9692773,None,612.9692773,None,612.9692773,None,612.9692773,None,f,0.4720919,612.9692773,None,612.9692773,None,613.4891856,None,613.4891856,None,613.4891856,None,613.4891856,None,613.4891856,None,613.4891856,None,613.7823048,615.2495254,613.7823048,615.2495254,615.2803019,None,615.2803019,None,615.2803019,None,615.2803019,None,615.2803019,None,615.2803019,None,615.2803019,None,615.2803019,None,615.2803019,None,35,62,37,33,62,40,None,None,None,None,None,None,None,None,None,None,None,None,67,617.8180772,None,67,617.8180772,None,617.8180772,None,617.8180772,None,617.8180772,None,617.8180772,None,617.8180772,None,617.8180772,None,-0.052083333,-0.248697917,1,0,0,5.4305763,tijiao,0.00922615,None,617.8180772,None,-0.2,0,None,None,None,None,None,None,None,None,None,None,None,None,,None,None,None,None,None,None,None,None,1.859375,0.8045129,623.8361432,None,623.8361432,None,623.8361432,None,623.8361432,None,None,None,624.6553678,None,,,,,,,,,,,,,,233,f,22,2023_Mar_21_1053,RL,2021.2.3,59.98890206
0,0,49,0,,,,,,,,,,,,,,,None,None,None,None,None,626.3603559,None,626.3603559,None,626.3603559,None,626.3603559,None,f,0.4312564,626.3603559,None,626.3603559,None,626.8319605,None,626.8319605,None,626.8319605,None,626.8319605,None,626.8319605,None,626.8319605,None,627.1246089,628.575743,627.1246089,628.575743,628.6091778,None,628.6091778,None,628.6091778,None,628.6091778,None,628.6091778,None,628.6091778,None,628.6091778,None,628.6091778,None,628.6091778,None,39,66,30,48,66,70,None,None,None,None,None,None,None,None,None,None,None,None,,None,None,,None,None,None,None,None,None,None,None,None,None,None,None,None,None,,,,,,,,None,None,None,None,0.2,1,631.1578578,None,631.1578578,None,631.1578578,None,631.1578578,None,631.1578578,None,631.1578578,None,70,631.1578578,None,631.1578578,None,0.0103019,None,631.1578578,None,1,2.1573894,636.7719942,None,636.7719942,None,636.7719942,None,636.7719942,None,None,None,638.9573173,None,-0.061197917,-0.3046875,1,0,0,5.5819553,tijiao_random_2,,,,,,,233,f,22,2023_Mar_21_1053,RL,2021.2.3,59.98890206
1,0,50,0,,,,,,,,,,,,,,,None,None,None,None,None,640.5547104,None,640.5547104,None,640.5547104,None,640.5547104,None,f,0.3267039,640.5547104,None,640.5547104,None,640.9231465,None,640.9231465,None,640.9231465,None,640.9231465,None,640.9231465,None,640.9231465,None,641.2177446,None,641.2177446,None,642.0643207,None,642.0643207,None,642.0643207,None,642.0643207,None,642.0643207,None,642.0643207,None,642.0643207,None,642.0643207,None,642.0643207,None,46,76,34,44,76,70,None,None,None,None,None,None,None,None,None,None,None,None,,None,None,,None,None,None,None,None,None,None,None,None,None,None,None,None,None,,,,,,,,None,None,None,None,-0.6,1,644.6155437,None,644.6155437,None,644.6155437,None,644.6155437,None,644.6155437,None,644.6155437,None,25,644.6155437,None,644.6155437,None,0.0117951,None,644.6155437,None,1,1.3385838,653.4660098,None,653.4660098,None,653.4660098,None,653.4660098,None,None,None,654.8097524,None,0.09375,-0.303385417,1,0,0,8.8019358,tijiao_random_2,,,,,,,233,f,22,2023_Mar_21_1053,RL,2021.2.3,59.98890206
0,0,51,0,,,,,,,,,,,,,,,None,None,None,None,None,656.749511,None,656.749511,None,656.749511,None,656.749511,None,f,0.2620449,656.749511,None,656.749511,None,657.051364,None,657.051364,None,657.051364,None,657.051364,None,657.051364,None,657.051364,None,657.345455,None,657.345455,None,658.4983595,None,658.4983595,None,658.4983595,None,658.4983595,None,658.4983595,None,658.4983595,None,658.4983595,None,658.4983595,None,658.4983595,None,37,58,27,42,58,66,None,None,None,None,None,None,None,None,None,None,None,None,,None,None,,None,None,None,None,None,None,None,None,None,None,None,None,None,None,,,,,,,,None,None,None,None,-0.6,1,661.0453709,None,661.0453709,None,661.0453709,None,661.0453709,None,661.0453709,None,661.0453709,None,65,661.0453709,None,661.0453709,None,0.0105537,None,661.0453709,None,1,1.4789414,667.1090762,None,667.1090762,None,667.1090762,None,667.1090762,None,None,None,668.6024932,None,0.044270833,-0.330729167,1,0,0,6.0322977,tijiao_random_2,,,,,,,233,f,22,2023_Mar_21_1053,RL,2021.2.3,59.98890206
1,0,52,0,,,,,,,,,,,,,,,None,None,None,None,None,670.2413334,None,670.2413334,None,670.2413334,None,670.2413334,None,f,0.4701878,670.2413334,None,670.2413334,None,670.7610257,None,670.7610257,None,670.7610257,None,670.7610257,None,670.7610257,None,670.7610257,None,671.0550151,None,671.0550151,None,672.7720785,None,672.7720785,None,672.7720785,None,672.7720785,None,672.7720785,None,672.7720785,None,672.7720785,None,672.7720785,None,672.7720785,None,44,61,37,44,61,74,675.296756,None,4,2.1658316,675.296756,None,675.296756,None,675.296756,None,675.296756,None,,None,None,,None,None,None,None,None,None,None,None,None,None,None,None,None,None,,,,,,,,None,None,None,None,-0.6,2,None,None,None,None,None,None,None,None,None,None,None,None,,None,None,None,None,None,None,None,None,None,None,None,None,None,None,None,None,None,None,None,None,677.5155229,None,,,,,,,,,,,,,,233,f,22,2023_Mar_21_1053,RL,2021.2.3,59.98890206
0,0,53,0,,,,,,,,,,,,,,,None,None,None,None,None,679.3636405,None,679.3636405,None,679.3636405,None,679.3636405,None,i,0.329228,679.3636405,None,679.3636405,None,679.7349909,None,679.7349909,None,679.7349909,None,679.7349909,None,679.7349909,None,679.7349909,None,680.0277607,681.4623639,680.0277607,681.4623639,681.4943497,None,681.4943497,None,681.4943497,None,681.4943497,None,681.4943497,None,681.4943497,None,681.4943497,None,681.4943497,None,681.4943497,None,40,73,31,49,31,67,684.0186987,None,2,2.4823493,684.0186987,None,684.0186987,None,684.0186987,None,684.0186987,None,,None,None,,None,None,None,None,None,None,None,None,None,None,None,None,None,None,,,,,,,,None,None,None,None,-0.6,2,None,None,None,None,None,None,None,None,None,None,None,None,,None,None,None,None,None,None,None,None,None,None,None,None,None,None,None,None,None,None,None,None,686.5503794,None,,,,,,,,,,,,,,233,f,22,2023_Mar_21_1053,RL,2021.2.3,59.98890206
1,0,54,0,,,,,,,,,,,,,,,None,None,None,None,None,688.1042709,None,688.1042709,None,688.1042709,None,688.1042709,None,f,0.4083986,688.1042709,None,688.1042709,None,688.5570325,None,688.5570325,None,688.5570325,None,688.5570325,None,688.5570325,None,688.5570325,None,688.8506042,None,688.8506042,None,690.1819942,None,690.1819942,None,690.1819942,None,690.1819942,None,690.1819942,None,690.1819942,None,690.1819942,None,690.1819942,None,690.1819942,None,37,72,42,44,72,61,None,None,None,None,None,None,None,None,None,None,None,None,65,692.7114102,None,65,692.7114102,None,692.7114102,None,692.7114102,None,692.7114102,None,692.7114102,None,692.7114102,None,692.7114102,None,-0.096354167,-0.303385417,1,0,0,4.487808,tijiao,5.63E-05,None,692.7114102,None,-0.6,0,None,None,None,None,None,None,None,None,None,None,None,None,,None,None,None,None,None,None,None,None,3.03125,1.880804,697.2449069,None,697.2449069,None,697.2449069,None,697.2449069,None,None,None,699.140749,None,,,,,,,,,,,,,,233,f,22,2023_Mar_21_1053,RL,2021.2.3,59.98890206
0,0,55,0,,,,,,,,,,,,,,,None,None,None,None,None,700.8138258,None,700.8138258,None,700.8138258,None,700.8138258,None,f,0.4889777,700.8138258,None,700.8138258,None,701.3484843,None,701.3484843,None,701.3484843,None,701.3484843,None,701.3484843,None,701.3484843,None,701.6428295,None,701.6428295,None,702.7742784,None,702.7742784,None,702.7742784,None,702.7742784,None,702.7742784,None,702.7742784,None,702.7742784,None,702.7742784,None,702.7742784,None,36,77,48,49,77,60,None,None,None,None,None,None,None,None,None,None,None,None,76,705.3109251,None,76,705.3109251,None,705.3109251,None,705.3109251,None,705.3109251,None,705.3109251,None,705.3109251,None,705.3109251,None,-0.108072917,-0.30078125,1,0,0,5.6644013,tijiao,0.00897715,None,705.3109251,None,-0.2,0,None,None,None,None,None,None,None,None,None,None,None,None,,None,None,None,None,None,None,None,None,2.953125,1.2799296,711.0206885,None,711.0206885,None,711.0206885,None,711.0206885,None,None,None,712.3162801,None,,,,,,,,,,,,,,233,f,22,2023_Mar_21_1053,RL,2021.2.3,59.98890206
1,0,56,0,,,,,,,,,,,,,,,None,None,None,None,None,714.0215632,None,714.0215632,None,714.0215632,None,714.0215632,None,f,0.2812577,714.0215632,None,714.0215632,None,714.3439211,None,714.3439211,None,714.3439211,None,714.3439211,None,714.3439211,None,714.3439211,None,714.6352357,None,714.6352357,None,715.9489336,None,715.9489336,None,715.9489336,None,715.9489336,None,715.9489336,None,715.9489336,None,715.9489336,None,715.9489336,None,715.9489336,None,35,62,45,47,62,62,718.4681498,None,4,2.4891182,718.4681498,None,718.4681498,None,718.4681498,None,718.4681498,None,,None,None,,None,None,None,None,None,None,None,None,None,None,None,None,None,None,,,,,,,,None,None,None,None,0.2,2,None,None,None,None,None,None,None,None,None,None,None,None,,None,None,None,None,None,None,None,None,None,None,None,None,None,None,None,None,None,None,None,None,721.0150422,None,,,,,,,,,,,,,,233,f,22,2023_Mar_21_1053,RL,2021.2.3,59.98890206
0,0,57,0,,,,,,,,,,,,,,,None,None,None,None,None,722.8120621,None,722.8120621,None,722.8120621,None,722.8120621,None,f,0.4708392,722.8120621,None,722.8120621,None,723.3315829,None,723.3315829,None,723.3315829,None,723.3315829,None,723.3315829,None,723.3315829,None,723.6248359,725.4929179,723.6248359,725.4929179,725.528748,None,725.528748,None,725.528748,None,725.528748,None,725.528748,None,725.528748,None,725.528748,None,725.528748,None,725.528748,None,33,71,48,45,71,72,None,None,None,None,None,None,None,None,None,None,None,None,75,728.0592699,None,75,728.0592699,None,728.0592699,None,728.0592699,None,728.0592699,None,728.0592699,None,728.0592699,None,728.0592699,None,0.111979167,-0.272135417,1,0,0,3.9145551,tijiao,0.01054905,None,728.0592699,None,-0.6,0,None,None,None,None,None,None,None,None,None,None,None,None,,None,None,None,None,None,None,None,None,3.942708333,1.8083171,732.0142581,None,732.0142581,None,732.0142581,None,732.0142581,None,None,None,733.8463791,None,,,,,,,,,,,,,,233,f,22,2023_Mar_21_1053,RL,2021.2.3,59.98890206
1,0,58,0,,,,,,,,,,,,,,,None,None,None,None,None,735.5537984,None,735.5537984,None,735.5537984,None,735.5537984,None,f,0.419364,735.5537984,None,735.5537984,None,736.0217237,None,736.0217237,None,736.0217237,None,736.0217237,None,736.0217237,None,736.0217237,None,736.316985,737.3512435,736.316985,737.3512435,737.3846336,None,737.3846336,None,737.3846336,None,737.3846336,None,737.3846336,None,737.3846336,None,737.3846336,None,737.3846336,None,737.3846336,None,31,70,41,52,70,65,739.901742,None,5,2.2882726,739.901742,None,739.901742,None,739.901742,None,739.901742,None,,None,None,,None,None,None,None,None,None,None,None,None,None,None,None,None,None,,,,,,,,None,None,None,None,0.6,2,None,None,None,None,None,None,None,None,None,None,None,None,,None,None,None,None,None,None,None,None,None,None,None,None,None,None,None,None,None,None,None,None,742.2544486,None,,,,,,,,,,,,,,233,f,22,2023_Mar_21_1053,RL,2021.2.3,59.98890206
0,0,59,0,,,,,,,,,,,,,,,None,None,None,None,None,743.9263528,None,743.9263528,None,743.9263528,None,743.9263528,None,f,0.5166998,743.9263528,None,743.9263528,None,744.4975595,None,744.4975595,None,744.4975595,None,744.4975595,None,744.4975595,None,744.4975595,None,744.7893945,745.8067827,744.7893945,745.8067827,745.839133,None,745.839133,None,745.839133,None,745.839133,None,745.839133,None,745.839133,None,745.839133,None,745.839133,None,745.839133,None,32,74,56,40,74,59,None,None,None,None,None,None,None,None,None,None,None,None,76,748.3647122,None,76,748.3647122,None,748.3647122,None,748.3647122,None,748.3647122,None,748.3647122,None,748.3647122,None,748.3647122,None,0.127604167,-0.265625,1,0,0,3.7386963,tijiao,0.0020903,None,748.3647122,None,-0.6,0,None,None,None,None,None,None,None,None,None,None,None,None,,None,None,None,None,None,None,None,None,3.994791667,1.4185167,752.147767,None,752.147767,None,752.147767,None,752.147767,None,None,None,753.5972158,None,,,,,,,,,,,,,,233,f,22,2023_Mar_21_1053,RL,2021.2.3,59.98890206
1,0,60,0,,,,,,,,,,,,,,,None,None,None,None,None,755.3845986,None,755.3845986,None,755.3845986,None,755.3845986,None,f,0.3887248,755.3845986,None,755.3845986,None,755.8199256,None,755.8199256,None,755.8199256,None,755.8199256,None,755.8199256,None,755.8199256,None,756.1141251,757.3982963,756.1141251,757.3982963,757.430797,None,757.430797,None,757.430797,None,757.430797,None,757.430797,None,757.430797,None,757.430797,None,757.430797,None,757.430797,None,32,68,57,35,68,69,None,None,None,None,None,None,None,None,None,None,None,None,69,759.9663003,None,69,759.9663003,None,759.9663003,None,759.9663003,None,759.9663003,None,759.9663003,None,759.9663003,None,759.9663003,None,0.055989583,-0.311197917,1,0,0,5.0301786,tijiao,0.00861795,None,759.9663003,None,0.2,0,None,None,None,None,None,None,None,None,None,None,None,None,,None,None,None,None,None,None,None,None,5.0234375,0.8969185,765.0481009,None,765.0481009,None,765.0481009,None,765.0481009,None,None,None,765.9720093,None,,,,,,,,,,,,,,233,f,22,2023_Mar_21_1053,RL,2021.2.3,59.98890206
0,0,61,0,,,,,,,,,,,,,,,None,None,None,None,None,767.8590352,None,767.8590352,None,767.8590352,None,767.8590352,None,f,0.5341728,767.8590352,None,767.8590352,None,768.4450583,None,768.4450583,None,768.4450583,None,768.4450583,None,768.4450583,None,768.4450583,None,768.7397628,None,768.7397628,None,769.986749,None,769.986749,None,769.986749,None,769.986749,None,769.986749,None,769.986749,None,769.986749,None,769.986749,None,769.986749,None,37,71,55,43,71,69,None,None,None,None,None,None,None,None,None,None,None,None,,None,None,,None,None,None,None,None,None,None,None,None,None,None,None,None,None,,,,,,,,None,None,None,None,-0.6,1,772.5414555,None,772.5414555,None,772.5414555,None,772.5414555,None,772.5414555,None,772.5414555,None,25,772.5414555,None,772.5414555,None,0.0092074,None,772.5414555,None,2.028645833,1.2515802,778.8978372,None,778.8978372,None,778.8978372,None,778.8978372,None,None,None,780.164162,None,-0.010416667,-0.283854167,1,0,0,6.3145601,tijiao_random_2,,,,,,,233,f,22,2023_Mar_21_1053,RL,2021.2.3,59.98890206
1,0,62,0,,,,,,,,,,,,,,,None,None,None,None,None,781.9353978,None,781.9353978,None,781.9353978,None,781.9353978,None,f,0.2979707,781.9353978,None,781.9353978,None,782.2738925,None,782.2738925,None,782.2738925,None,782.2738925,None,782.2738925,None,782.2738925,None,782.5490694,783.6167116,782.5490694,783.6167116,783.6682925,None,783.6682925,None,783.6682925,None,783.6682925,None,783.6682925,None,783.6682925,None,783.6682925,None,783.6682925,None,783.6682925,None,40,60,50,46,60,70,None,None,None,None,None,None,None,None,None,None,None,None,76,786.1996773,None,76,786.1996773,None,786.1996773,None,786.1996773,None,786.1996773,None,786.1996773,None,786.1996773,None,786.1996773,None,-0.005208333,-0.274739583,1,0,0,6.2319354,tijiao,0.00992995,None,786.1996773,None,-0.2,0,None,None,None,None,None,None,None,None,None,None,None,None,,None,None,None,None,None,None,None,None,4.098958333,1.469255,792.4755583,None,792.4755583,None,792.4755583,None,792.4755583,None,None,None,793.9715274,None,,,,,,,,,,,,,,233,f,22,2023_Mar_21_1053,RL,2021.2.3,59.98890206
0,0,63,0,,,,,,,,,,,,,,,None,None,None,None,None,795.6627332,None,795.6627332,None,795.6627332,None,795.6627332,None,f,0.3906723,795.6627332,None,795.6627332,None,796.0993279,None,796.0993279,None,796.0993279,None,796.0993279,None,796.0993279,None,796.0993279,None,796.3752489,798.1934361,796.3752489,798.1934361,798.2421689,None,798.2421689,None,798.2421689,None,798.2421689,None,798.2421689,None,798.2421689,None,798.2421689,None,798.2421689,None,798.2421689,None,37,65,53,43,65,73,800.7654082,None,3,3.2493522,800.7654082,None,800.7654082,None,800.7654082,None,800.7654082,None,,None,None,,None,None,None,None,None,None,None,None,None,None,None,None,None,None,,,,,,,,None,None,None,None,0.2,3,None,None,None,None,None,None,None,None,None,None,None,None,,None,None,None,None,None,None,None,None,None,None,None,None,None,None,None,None,None,None,None,None,804.0665546,None,,,,,,,,,,,,,,233,f,22,2023_Mar_21_1053,RL,2021.2.3,59.98890206
1,0,64,0,,,,,,,,,,,,,,,None,None,None,None,None,805.7524095,None,805.7524095,None,805.7524095,None,805.7524095,None,f,0.0310869,805.7524095,None,805.7524095,None,805.8384497,None,805.8384497,None,805.8384497,None,805.8384497,None,805.8384497,None,805.8384497,None,806.1321121,None,806.1321121,None,807.8977541,None,807.8977541,None,807.8977541,None,807.8977541,None,807.8977541,None,807.8977541,None,807.8977541,None,807.8977541,None,807.8977541,None,35,58,51,39,58,78,810.4212569,None,3,1.9669692,810.4212569,None,810.4212569,None,810.4212569,None,810.4212569,None,,None,None,,None,None,None,None,None,None,None,None,None,None,None,None,None,None,,,,,,,,None,None,None,None,-0.6,3,None,None,None,None,None,None,None,None,None,None,None,None,,None,None,None,None,None,None,None,None,None,None,None,None,None,None,None,None,None,None,None,None,812.4370193,None,,,,,,,,,,,,,,233,f,22,2023_Mar_21_1053,RL,2021.2.3,59.98890206
0,0,65,0,,,,,,,,,,,,,,,None,None,None,None,None,814.0586433,None,814.0586433,None,814.0586433,None,814.0586433,None,r,0.264858,814.0586433,None,814.0586433,None,814.3752922,None,814.3752922,None,814.3752922,None,814.3752922,None,814.3752922,None,814.3752922,None,814.671346,None,814.671346,None,816.1396638,None,816.1396638,None,816.1396638,None,816.1396638,None,816.1396638,None,816.1396638,None,816.1396638,None,816.1396638,None,816.1396638,None,37,65,51,32,37,68,818.6533422,None,3,1.5417655,818.6533422,None,818.6533422,None,818.6533422,None,818.6533422,None,,None,None,,None,None,None,None,None,None,None,None,None,None,None,None,None,None,,,,,,,,None,None,None,None,0.2,2,None,None,None,None,None,None,None,None,None,None,None,None,,None,None,None,None,None,None,None,None,None,None,None,None,None,None,None,None,None,None,None,None,820.2461194,None,,,,,,,,,,,,,,233,f,22,2023_Mar_21_1053,RL,2021.2.3,59.98890206
1,0,66,0,,,,,,,,,,,,,,,None,None,None,None,None,822.2310034,None,822.2310034,None,822.2310034,None,822.2310034,None,f,0.4728363,822.2310034,None,822.2310034,None,822.7486798,None,822.7486798,None,822.7486798,None,822.7486798,None,822.7486798,None,822.7486798,None,823.0439686,None,823.0439686,None,824.1077596,None,824.1077596,None,824.1077596,None,824.1077596,None,824.1077596,None,824.1077596,None,824.1077596,None,824.1077596,None,824.1077596,None,34,67,52,37,67,69,None,None,None,None,None,None,None,None,None,None,None,None,,None,None,,None,None,None,None,None,None,None,None,None,None,None,None,None,None,,,,,,,,None,None,None,None,0.2,1,826.6592468,None,826.6592468,None,826.6592468,None,826.6592468,None,826.6592468,None,826.6592468,None,69,826.6592468,None,826.6592468,None,0.0128581,None,826.6592468,None,1.950520833,2.2719903,830.4065918,None,830.4065918,None,830.4065918,None,830.4065918,None,None,None,832.6982416,None,-0.055989583,-0.2734375,1,0,0,3.7166861,tijiao_random_2,,,,,,,233,f,22,2023_Mar_21_1053,RL,2021.2.3,59.98890206
0,0,67,0,,,,,,,,,,,,,,,None,None,None,None,None,834.4551928,None,834.4551928,None,834.4551928,None,834.4551928,None,f,0.0886831,834.4551928,None,834.4551928,None,834.5915954,None,834.5915954,None,834.5915954,None,834.5915954,None,834.5915954,None,834.5915954,None,834.8853199,836.1030246,834.8853199,836.1030246,836.140191,None,836.140191,None,836.140191,None,836.140191,None,836.140191,None,836.140191,None,836.140191,None,836.140191,None,836.140191,None,37,70,55,42,70,58,None,None,None,None,None,None,None,None,None,None,None,None,67,838.6940706,None,67,838.6940706,None,838.6940706,None,838.6940706,None,838.6940706,None,838.6940706,None,838.6940706,None,838.6940706,None,0.059895833,-0.265625,1,0,0,4.2611004,tijiao,0.00686335,None,838.6940706,None,-0.2,0,None,None,None,None,None,None,None,None,None,None,None,None,,None,None,None,None,None,None,None,None,2.875,1.2449158,842.9987533,None,842.9987533,None,842.9987533,None,842.9987533,None,None,None,844.2577866,None,,,,,,,,,,,,,,233,f,22,2023_Mar_21_1053,RL,2021.2.3,59.98890206
1,0,68,0,,,,,,,,,,,,,,,None,None,None,None,None,845.762526,None,845.762526,None,845.762526,None,845.762526,None,f,0.332239,845.762526,None,845.762526,None,846.1371807,None,846.1371807,None,846.1371807,None,846.1371807,None,846.1371807,None,846.1371807,None,846.4265966,None,846.4265966,None,847.4760012,None,847.4760012,None,847.4760012,None,847.4760012,None,847.4760012,None,847.4760012,None,847.4760012,None,847.4760012,None,847.4760012,None,37,63,60,43,63,72,850.0000593,None,4,2.9692171,850.0000593,None,850.0000593,None,850.0000593,None,850.0000593,None,,None,None,,None,None,None,None,None,None,None,None,None,None,None,None,None,None,,,,,,,,None,None,None,None,-0.6,2,None,None,None,None,None,None,None,None,None,None,None,None,,None,None,None,None,None,None,None,None,None,None,None,None,None,None,None,None,None,None,None,None,853.0278117,None,,,,,,,,,,,,,,233,f,22,2023_Mar_21_1053,RL,2021.2.3,59.98890206
0,0,69,0,,,,,,,,,,,,,,,None,None,None,None,None,854.8360314,None,854.8360314,None,854.8360314,None,854.8360314,None,f,0.2892384,854.8360314,None,854.8360314,None,855.1749917,None,855.1749917,None,855.1749917,None,855.1749917,None,855.1749917,None,855.1749917,None,855.4663814,857.1341683,855.4663814,857.1341683,857.1664413,None,857.1664413,None,857.1664413,None,857.1664413,None,857.1664413,None,857.1664413,None,857.1664413,None,857.1664413,None,857.1664413,None,28,64,59,39,64,64,None,None,None,None,None,None,None,None,None,None,None,None,,None,None,,None,None,None,None,None,None,None,None,None,None,None,None,None,None,,,,,,,,None,None,None,None,0.6,1,859.7072416,None,859.7072416,None,859.7072416,None,859.7072416,None,859.7072416,None,859.7072416,None,36,859.7072416,None,859.7072416,None,0.00299375,None,859.7072416,None,1,1.2030639,864.4964319,None,864.4964319,None,864.4964319,None,864.4964319,None,None,None,865.7259425,None,0.013020833,-0.264322917,1,0,0,4.757209,tijiao_random_2,,,,,,,233,f,22,2023_Mar_21_1053,RL,2021.2.3,59.98890206
1,0,70,0,,,,,,,,,,,,,,,None,None,None,None,None,867.36125,None,867.36125,None,867.36125,None,867.36125,None,f,0.2936262,867.36125,None,867.36125,None,867.6985613,None,867.6985613,None,867.6985613,None,867.6985613,None,867.6985613,None,867.6985613,None,867.9916482,None,867.9916482,None,868.8562688,None,868.8562688,None,868.8562688,None,868.8562688,None,868.8562688,None,868.8562688,None,868.8562688,None,868.8562688,None,868.8562688,None,29,62,60,37,62,63,871.3810733,None,4,2.0533594,871.3810733,None,871.3810733,None,871.3810733,None,871.3810733,None,,None,None,,None,None,None,None,None,None,None,None,None,None,None,None,None,None,,,,,,,,None,None,None,None,-0.2,2,None,None,None,None,None,None,None,None,None,None,None,None,,None,None,None,None,None,None,None,None,None,None,None,None,None,None,None,None,None,None,None,None,873.495071,None,,,,,,,,,,,,,,233,f,22,2023_Mar_21_1053,RL,2021.2.3,59.98890206
0,0,71,0,,,,,,,,,,,,,,,None,None,None,None,None,875.4024369,None,875.4024369,None,875.4024369,None,875.4024369,None,f,0.282562,875.4024369,None,875.4024369,None,875.7339542,None,875.7339542,None,875.7339542,None,875.7339542,None,875.7339542,None,875.7339542,None,876.0307182,None,876.0307182,None,877.6502591,None,877.6502591,None,877.6502591,None,877.6502591,None,877.6502591,None,877.6502591,None,877.6502591,None,877.6502591,None,877.6502591,None,33,69,55,32,69,78,None,None,None,None,None,None,None,None,None,None,None,None,67,880.1739029,None,67,880.1739029,None,880.1739029,None,880.1739029,None,880.1739029,None,880.1739029,None,880.1739029,None,880.1739029,None,0.0234375,-0.3046875,1,0,0,3.5885554,tijiao,0.0009729,None,880.1739029,None,0.2,0,None,None,None,None,None,None,None,None,None,None,None,None,,None,None,None,None,None,None,None,None,3.96875,1.4174963,883.8064878,None,883.8064878,None,883.8064878,None,883.8064878,None,None,None,885.2517954,None,,,,,,,,,,,,,,233,f,22,2023_Mar_21_1053,RL,2021.2.3,59.98890206
1,0,72,0,,,,,,,,,,,,,,,None,None,None,None,None,886.8082042,None,886.8082042,None,886.8082042,None,886.8082042,None,f,0.4270435,886.8082042,None,886.8082042,None,887.2875778,None,887.2875778,None,887.2875778,None,887.2875778,None,887.2875778,None,887.2875778,None,887.5721619,888.5559581,887.5721619,888.5559581,888.5903807,None,888.5903807,None,888.5903807,None,888.5903807,None,888.5903807,None,888.5903807,None,888.5903807,None,888.5903807,None,888.5903807,None,21,72,49,38,72,72,891.1070741,None,4,2.4200574,891.1070741,None,891.1070741,None,891.1070741,None,891.1070741,None,,None,None,,None,None,None,None,None,None,None,None,None,None,None,None,None,None,,,,,,,,None,None,None,None,0.2,3,None,None,None,None,None,None,None,None,None,None,None,None,,None,None,None,None,None,None,None,None,None,None,None,None,None,None,None,None,None,None,None,None,893.5816028,None,,,,,,,,,,,,,,233,f,22,2023_Mar_21_1053,RL,2021.2.3,59.98890206
0,0,73,0,,,,,,,,,,,,,,,None,None,None,None,None,895.5308998,None,895.5308998,None,895.5308998,None,895.5308998,None,f,0.5343653,895.5308998,None,895.5308998,None,896.1168656,None,896.1168656,None,896.1168656,None,896.1168656,None,896.1168656,None,896.1168656,None,896.4113334,897.6456052,896.4113334,897.6456052,897.6774356,None,897.6774356,None,897.6774356,None,897.6774356,None,897.6774356,None,897.6774356,None,897.6774356,None,897.6774356,None,897.6774356,None,31,73,48,44,73,78,900.1939846,None,4,1.7380443,900.1939846,None,900.1939846,None,900.1939846,None,900.1939846,None,,None,None,,None,None,None,None,None,None,None,None,None,None,None,None,None,None,,,,,,,,None,None,None,None,-0.2,3,None,None,None,None,None,None,None,None,None,None,None,None,,None,None,None,None,None,None,None,None,None,None,None,None,None,None,None,None,None,None,None,None,901.9917389,None,,,,,,,,,,,,,,233,f,22,2023_Mar_21_1053,RL,2021.2.3,59.98890206
1,0,74,0,,,,,,,,,,,,,,,None,None,None,None,None,903.7527972,None,903.7527972,None,903.7527972,None,903.7527972,None,f,0.412411,903.7527972,None,903.7527972,None,904.2073703,None,904.2073703,None,904.2073703,None,904.2073703,None,904.2073703,None,904.2073703,None,904.5004746,905.5680812,904.5004746,905.5680812,905.6018449,None,905.6018449,None,905.6018449,None,905.6018449,None,905.6018449,None,905.6018449,None,905.6018449,None,905.6018449,None,905.6018449,None,27,69,42,43,69,81,None,None,None,None,None,None,None,None,None,None,None,None,76,908.1286536,None,76,908.1286536,None,908.1286536,None,908.1286536,None,908.1286536,None,908.1286536,None,908.1286536,None,908.1286536,None,0.015625,-0.299479167,1,0,0,4.6699564,tijiao,0.01621385,None,908.1286536,None,-0.2,0,None,None,None,None,None,None,None,None,None,None,None,None,,None,None,None,None,None,None,None,None,3.96875,1.1362284,912.843218,None,912.843218,None,912.843218,None,912.843218,None,None,None,914.0050227,None,,,,,,,,,,,,,,233,f,22,2023_Mar_21_1053,RL,2021.2.3,59.98890206
0,0,75,0,,,,,,,,,,,,,,,915.7250812,None,q,915.7250812,None,970.3462588,None,970.3462588,None,970.3462588,None,970.3462588,None,r,0.5583499,970.3462588,None,970.3462588,None,970.9492615,None,970.9492615,None,970.9492615,None,970.9492615,None,970.9492615,None,970.9492615,None,971.2467866,None,971.2467866,None,972.9617033,None,972.9617033,None,972.9617033,None,972.9617033,None,972.9617033,None,972.9617033,None,972.9617033,None,972.9617033,None,972.9617033,None,34,61,43,43,34,76,975.4876245,None,2,2.3002984,975.4876245,None,975.4876245,None,975.4876245,None,975.4876245,None,,None,None,,None,None,None,None,None,None,None,None,None,None,None,None,None,None,,,,,,,,None,None,None,None,-0.6,2,None,None,None,None,None,None,None,None,None,None,None,None,,None,None,None,None,None,None,None,None,None,None,None,None,None,None,None,None,None,None,None,None,977.8408209,None,,,,,,,,54.590482,,,,,,233,f,22,2023_Mar_21_1053,RL,2021.2.3,59.98890206
1,0,76,0,,,,,,,,,,,,,,,None,None,None,None,None,979.7569385,None,979.7569385,None,979.7569385,None,979.7569385,None,f,0.2877703,979.7569385,None,979.7569385,None,980.0914588,None,980.0914588,None,980.0914588,None,980.0914588,None,980.0914588,None,980.0914588,None,980.3862718,None,980.3862718,None,982.2358347,None,982.2358347,None,982.2358347,None,982.2358347,None,982.2358347,None,982.2358347,None,982.2358347,None,982.2358347,None,982.2358347,None,34,75,50,34,75,66,None,None,None,None,None,None,None,None,None,None,None,None,,None,None,,None,None,None,None,None,None,None,None,None,None,None,None,None,None,,,,,,,,None,None,None,None,0.2,1,984.7753261,None,984.7753261,None,984.7753261,None,984.7753261,None,984.7753261,None,984.7753261,None,66,984.7753261,None,984.7753261,None,0.00562035,None,984.7753261,None,2.979166667,2.1927459,988.2821471,None,988.2821471,None,988.2821471,None,988.2821471,None,None,None,990.4930272,None,0.098958333,-0.28125,1,0,0,3.4760455,tijiao_random_2,,,,,,,233,f,22,2023_Mar_21_1053,RL,2021.2.3,59.98890206
0,0,77,0,,,,,,,,,,,,,,,None,None,None,None,None,992.364659,None,992.364659,None,992.364659,None,992.364659,None,f,0.3901274,992.364659,None,992.364659,None,992.8035199,None,992.8035199,None,992.8035199,None,992.8035199,None,992.8035199,None,992.8035199,None,993.0952037,None,993.0952037,None,994.342139,None,994.342139,None,994.342139,None,994.342139,None,994.342139,None,994.342139,None,994.342139,None,994.342139,None,994.342139,None,33,84,46,45,84,80,996.8622218,None,5,2.0063997,996.8622218,None,996.8622218,None,996.8622218,None,996.8622218,None,,None,None,,None,None,None,None,None,None,None,None,None,None,None,None,None,None,,,,,,,,None,None,None,None,0.2,2,None,None,None,None,None,None,None,None,None,None,None,None,,None,None,None,None,None,None,None,None,None,None,None,None,None,None,None,None,None,None,None,None,998.9321663,None,,,,,,,,,,,,,,233,f,22,2023_Mar_21_1053,RL,2021.2.3,59.98890206
1,0,78,0,,,,,,,,,,,,,,,None,None,None,None,None,1000.905566,None,1000.905566,None,1000.905566,None,1000.905566,None,f,0.409325,1000.905566,None,1000.905566,None,1001.358627,None,1001.358627,None,1001.358627,None,1001.358627,None,1001.358627,None,1001.358627,None,1001.651128,None,1001.651128,None,1002.648155,None,1002.648155,None,1002.648155,None,1002.648155,None,1002.648155,None,1002.648155,None,1002.648155,None,1002.648155,None,1002.648155,None,29,70,56,41,70,56,1005.166904,None,5,1.6390686,1005.166904,None,1005.166904,None,1005.166904,None,1005.166904,None,,None,None,,None,None,None,None,None,None,None,None,None,None,None,None,None,None,,,,,,,,None,None,None,None,0.6,3,None,None,None,None,None,None,None,None,None,None,None,None,,None,None,None,None,None,None,None,None,None,None,None,None,None,None,None,None,None,None,None,None,1006.856447,None,,,,,,,,,,,,,,233,f,22,2023_Mar_21_1053,RL,2021.2.3,59.98890206
0,0,79,0,,,,,,,,,,,,,,,None,None,None,None,None,1008.442474,None,1008.442474,None,1008.442474,None,1008.442474,None,r,0.702519,1008.442474,None,1008.442474,None,1009.193736,None,1009.193736,None,1009.193736,None,1009.193736,None,1009.193736,None,1009.193736,None,1009.490194,None,1009.490194,None,1010.971994,None,1010.971994,None,1010.971994,None,1010.971994,None,1010.971994,None,1010.971994,None,1010.971994,None,1010.971994,None,1010.971994,None,38,79,51,44,38,76,1013.490727,None,3,2.4379454,1013.490727,None,1013.490727,None,1013.490727,None,1013.490727,None,,None,None,,None,None,None,None,None,None,None,None,None,None,None,None,None,None,,,,,,,,None,None,None,None,-0.6,2,None,None,None,None,None,None,None,None,None,None,None,None,,None,None,None,None,None,None,None,None,None,None,None,None,None,None,None,None,None,None,None,None,1016.005739,None,,,,,,,,,,,,,,233,f,22,2023_Mar_21_1053,RL,2021.2.3,59.98890206
1,0,80,0,,,,,,,,,,,,,,,None,None,None,None,None,1017.615428,None,1017.615428,None,1017.615428,None,1017.615428,None,f,0.4095443,1017.615428,None,1017.615428,None,1018.069134,None,1018.069134,None,1018.069134,None,1018.069134,None,1018.069134,None,1018.069134,None,1018.363005,None,1018.363005,None,1019.859789,None,1019.859789,None,1019.859789,None,1019.859789,None,1019.859789,None,1019.859789,None,1019.859789,None,1019.859789,None,1019.859789,None,40,68,53,41,68,27,None,None,None,None,None,None,None,None,None,None,None,None,68,1022.40047,None,68,1022.40047,None,1022.40047,None,1022.40047,None,1022.40047,None,1022.40047,None,1022.40047,None,1022.40047,None,-0.061197917,-0.3046875,1,0,0,5.5459048,tijiao,0.00795895,None,1022.40047,None,0.6,0,None,None,None,None,None,None,None,None,None,None,None,None,,None,None,None,None,None,None,None,None,3.005208333,1.3163702,1027.990511,None,1027.990511,None,1027.990511,None,1027.990511,None,None,None,1029.319054,None,,,,,,,,,,,,,,233,f,22,2023_Mar_21_1053,RL,2021.2.3,59.98890206
0,0,81,0,,,,,,,,,,,,,,,None,None,None,None,None,1030.841324,None,1030.841324,None,1030.841324,None,1030.841324,None,f,0.413932,1030.841324,None,1030.841324,None,1031.296097,None,1031.296097,None,1031.296097,None,1031.296097,None,1031.296097,None,1031.296097,None,1031.588618,1033.539879,1031.588618,1033.539879,1033.57367,None,1033.57367,None,1033.57367,None,1033.57367,None,1033.57367,None,1033.57367,None,1033.57367,None,1033.57367,None,1033.57367,None,40,74,50,47,74,79,None,None,None,None,None,None,None,None,None,None,None,None,,None,None,,None,None,None,None,None,None,None,None,None,None,None,None,None,None,,,,,,,,None,None,None,None,0.2,1,1036.124517,None,1036.124517,None,1036.124517,None,1036.124517,None,1036.124517,None,1036.124517,None,79,1036.124517,None,1036.124517,None,0.0088298,None,1036.124517,None,1.9765625,1.1384853,1039.767126,None,1039.767126,None,1039.767126,None,1039.767126,None,None,None,1040.926416,None,0.018229167,-0.299479167,1,0,0,3.6129776,tijiao_random_2,,,,,,,233,f,22,2023_Mar_21_1053,RL,2021.2.3,59.98890206
1,0,82,0,,,,,,,,,,,,,,,None,None,None,None,None,1042.582817,None,1042.582817,None,1042.582817,None,1042.582817,None,i,0.3123383,1042.582817,None,1042.582817,None,1042.936434,None,1042.936434,None,1042.936434,None,1042.936434,None,1042.936434,None,1042.936434,None,1043.230066,None,1043.230066,None,1045.127389,None,1045.127389,None,1045.127389,None,1045.127389,None,1045.127389,None,1045.127389,None,1045.127389,None,1045.127389,None,1045.127389,None,38,67,50,59,50,71,None,None,None,None,None,None,None,None,None,None,None,None,,None,None,,None,None,None,None,None,None,None,None,None,None,None,None,None,None,,,,,,,,None,None,None,None,0.6,1,1047.684262,None,1047.684262,None,1047.684262,None,1047.684262,None,1047.684262,None,1047.684262,None,75,1047.684262,None,1047.684262,None,0.0071335,None,1047.684262,None,3.018229167,1.2798734,1053.194829,None,1053.194829,None,1053.194829,None,1053.194829,None,None,None,1054.487424,None,-0.069010417,-0.295572917,1,0,0,5.4788516,tijiao_random_2,,,,,,,233,f,22,2023_Mar_21_1053,RL,2021.2.3,59.98890206
0,0,83,0,,,,,,,,,,,,,,,None,None,None,None,None,1056.376233,None,1056.376233,None,1056.376233,None,1056.376233,None,f,0.2592098,1056.376233,None,1056.376233,None,1056.68468,None,1056.68468,None,1056.68468,None,1056.68468,None,1056.68468,None,1056.68468,None,1056.973183,None,1056.973183,None,1058.743941,None,1058.743941,None,1058.743941,None,1058.743941,None,1058.743941,None,1058.743941,None,1058.743941,None,1058.743941,None,1058.743941,None,47,65,47,53,65,48,None,None,None,None,None,None,None,None,None,None,None,None,,None,None,,None,None,None,None,None,None,None,None,None,None,None,None,None,None,,,,,,,,None,None,None,None,0.2,1,1061.280778,None,1061.280778,None,1061.280778,None,1061.280778,None,1061.280778,None,1061.280778,None,48,1061.280778,None,1061.280778,None,0.00316565,None,1061.280778,None,2.927083333,2.1332578,1065.331414,None,1065.331414,None,1065.331414,None,1065.331414,None,None,None,1067.479509,None,-0.092447917,-0.278645833,1,0,0,4.0230509,tijiao_random_2,,,,,,,233,f,22,2023_Mar_21_1053,RL,2021.2.3,59.98890206
1,0,84,0,,,,,,,,,,,,,,,None,None,None,None,None,1069.485732,None,1069.485732,None,1069.485732,None,1069.485732,None,f,0.3195549,1069.485732,None,1069.485732,None,1069.853508,None,1069.853508,None,1069.853508,None,1069.853508,None,1069.853508,None,1069.853508,None,1070.148862,None,1070.148862,None,1071.663652,None,1071.663652,None,1071.663652,None,1071.663652,None,1071.663652,None,1071.663652,None,1071.663652,None,1071.663652,None,1071.663652,None,41,56,45,50,56,70,None,None,None,None,None,None,None,None,None,None,None,None,70,1074.201401,None,70,1074.201401,None,1074.201401,None,1074.201401,None,1074.201401,None,1074.201401,None,1074.201401,None,1074.201401,None,0.01953125,-0.309895833,1,0,0,4.1120503,tijiao,0.00894935,None,1074.201401,None,0.6,0,None,None,None,None,None,None,None,None,None,None,None,None,,None,None,None,None,None,None,None,None,3.994791667,0.9750458,1078.355142,None,1078.355142,None,1078.355142,None,1078.355142,None,None,None,1079.352982,None,,,,,,,,,,,,,,233,f,22,2023_Mar_21_1053,RL,2021.2.3,59.98890206
0,0,85,0,,,,,,,,,,,,,,,None,None,None,None,None,1080.942769,None,1080.942769,None,1080.942769,None,1080.942769,None,f,0.4026051,1080.942769,None,1080.942769,None,1081.394735,None,1081.394735,None,1081.394735,None,1081.394735,None,1081.394735,None,1081.394735,None,1081.690131,None,1081.690131,None,1083.221367,None,1083.221367,None,1083.221367,None,1083.221367,None,1083.221367,None,1083.221367,None,1083.221367,None,1083.221367,None,1083.221367,None,44,65,45,50,65,40,1085.746928,None,3,2.1186877,1085.746928,None,1085.746928,None,1085.746928,None,1085.746928,None,,None,None,,None,None,None,None,None,None,None,None,None,None,None,None,None,None,,,,,,,,None,None,None,None,0.6,2,None,None,None,None,None,None,None,None,None,None,None,None,,None,None,None,None,None,None,None,None,None,None,None,None,None,None,None,None,None,None,None,None,1087.932459,None,,,,,,,,,,,,,,233,f,22,2023_Mar_21_1053,RL,2021.2.3,59.98890206
1,0,86,0,,,,,,,,,,,,,,,None,None,None,None,None,1089.54897,None,1089.54897,None,1089.54897,None,1089.54897,None,f,1.1964639,1089.54897,None,1089.54897,None,1090.785907,None,1090.785907,None,1090.785907,None,1090.785907,None,1090.785907,None,1090.785907,None,1091.079995,1092.414177,1091.079995,1092.414177,1092.446677,None,1092.446677,None,1092.446677,None,1092.446677,None,1092.446677,None,1092.446677,None,1092.446677,None,1092.446677,None,1092.446677,None,38,57,44,41,57,82,1094.962417,None,2,4.025825,1094.962417,None,1094.962417,None,1094.962417,None,1094.962417,None,,None,None,,None,None,None,None,None,None,None,None,None,None,None,None,None,None,,,,,,,,None,None,None,None,0.2,3,None,None,None,None,None,None,None,None,None,None,None,None,,None,None,None,None,None,None,None,None,None,None,None,None,None,None,None,None,None,None,None,None,1099.046541,None,,,,,,,,,,,,,,233,f,22,2023_Mar_21_1053,RL,2021.2.3,59.98890206
0,0,87,0,,,,,,,,,,,,,,,None,None,None,None,None,1100.756766,None,1100.756766,None,1100.756766,None,1100.756766,None,f,0.0787761,1100.756766,None,1100.756766,None,1100.882469,None,1100.882469,None,1100.882469,None,1100.882469,None,1100.882469,None,1100.882469,None,1101.170374,None,1101.170374,None,1102.267354,None,1102.267354,None,1102.267354,None,1102.267354,None,1102.267354,None,1102.267354,None,1102.267354,None,1102.267354,None,1102.267354,None,41,62,46,47,62,82,None,None,None,None,None,None,None,None,None,None,None,None,82,1104.796469,None,82,1104.796469,None,1104.796469,None,1104.796469,None,1104.796469,None,1104.796469,None,1104.796469,None,1104.796469,None,-0.096354167,-0.264322917,1,0,0,5.6889944,tijiao,0.0009915,None,1104.796469,None,0.2,0,None,None,None,None,None,None,None,None,None,None,None,None,,None,None,None,None,None,None,None,None,3.005208333,1.5181446,1110.528586,None,1110.528586,None,1110.528586,None,1110.528586,None,None,None,1112.060733,None,,,,,,,,,,,,,,233,f,22,2023_Mar_21_1053,RL,2021.2.3,59.98890206
1,0,88,0,,,,,,,,,,,,,,,None,None,None,None,None,1114.033386,None,1114.033386,None,1114.033386,None,1114.033386,None,f,0.4022242,1114.033386,None,1114.033386,None,1114.48558,None,1114.48558,None,1114.48558,None,1114.48558,None,1114.48558,None,1114.48558,None,1114.779763,None,1114.779763,None,1116.211868,None,1116.211868,None,1116.211868,None,1116.211868,None,1116.211868,None,1116.211868,None,1116.211868,None,1116.211868,None,1116.211868,None,50,54,52,38,54,80,None,None,None,None,None,None,None,None,None,None,None,None,50,1118.740477,None,50,1118.740477,None,1118.740477,None,1118.740477,None,1118.740477,None,1118.740477,None,1118.740477,None,1118.740477,None,-0.104166667,-0.272135417,1,0,0,5.4047794,tijiao,0.0001357,None,1118.740477,None,-0.6,0,None,None,None,None,None,None,None,None,None,None,None,None,,None,None,None,None,None,None,None,None,1.9375,1.211824,1124.19368,None,1124.19368,None,1124.19368,None,1124.19368,None,None,None,1125.419948,None,,,,,,,,,,,,,,233,f,22,2023_Mar_21_1053,RL,2021.2.3,59.98890206
0,0,89,0,,,,,,,,,,,,,,,None,None,None,None,None,1126.941646,None,1126.941646,None,1126.941646,None,1126.941646,None,f,0.3240591,1126.941646,None,1126.941646,None,1127.310865,None,1127.310865,None,1127.310865,None,1127.310865,None,1127.310865,None,1127.310865,None,1127.605311,None,1127.605311,None,1129.60349,None,1129.60349,None,1129.60349,None,1129.60349,None,1129.60349,None,1129.60349,None,1129.60349,None,1129.60349,None,1129.60349,None,49,59,46,36,59,26,1132.128909,None,5,2.1998317,1132.128909,None,1132.128909,None,1132.128909,None,1132.128909,None,,None,None,,None,None,None,None,None,None,None,None,None,None,None,None,None,None,,,,,,,,None,None,None,None,0.2,3,None,None,None,None,None,None,None,None,None,None,None,None,,None,None,None,None,None,None,None,None,None,None,None,None,None,None,None,None,None,None,None,None,1134.381201,None,,,,,,,,,,,,,,233,f,22,2023_Mar_21_1053,RL,2021.2.3,59.98890206
1,0,90,0,,,,,,,,,,,,,,,None,None,None,None,None,1136.098534,None,1136.098534,None,1136.098534,None,1136.098534,None,f,0.5972328,1136.098534,None,1136.098534,None,1136.734146,None,1136.734146,None,1136.734146,None,1136.734146,None,1136.734146,None,1136.734146,None,1137.028595,None,1137.028595,None,1138.026999,None,1138.026999,None,1138.026999,None,1138.026999,None,1138.026999,None,1138.026999,None,1138.026999,None,1138.026999,None,1138.026999,None,45,52,46,45,52,58,None,None,None,None,None,None,None,None,None,None,None,None,65,1140.562405,None,65,1140.562405,None,1140.562405,None,1140.562405,None,1140.562405,None,1140.562405,None,1140.562405,None,1140.562405,None,0.010416667,-0.26953125,1,0,0,4.4306159,tijiao,0.00994505,None,1140.562405,None,-0.6,0,None,None,None,None,None,None,None,None,None,None,None,None,,None,None,None,None,None,None,None,None,3.994791667,1.035452,1145.035762,None,1145.035762,None,1145.035762,None,1145.035762,None,None,None,1146.099535,None,,,,,,,,,,,,,,233,f,22,2023_Mar_21_1053,RL,2021.2.3,59.98890206
0,0,91,0,,,,,,,,,,,,,,,None,None,None,None,None,1147.757113,None,1147.757113,None,1147.757113,None,1147.757113,None,f,0.4299777,1147.757113,None,1147.757113,None,1148.227672,None,1148.227672,None,1148.227672,None,1148.227672,None,1148.227672,None,1148.227672,None,1148.520193,None,1148.520193,None,1149.470569,None,1149.470569,None,1149.470569,None,1149.470569,None,1149.470569,None,1149.470569,None,1149.470569,None,1149.470569,None,1149.470569,None,40,52,55,46,52,76,1151.988558,None,2,2.4049119,1151.988558,None,1151.988558,None,1151.988558,None,1151.988558,None,,None,None,,None,None,None,None,None,None,None,None,None,None,None,None,None,None,,,,,,,,None,None,None,None,0.6,2,None,None,None,None,None,None,None,None,None,None,None,None,,None,None,None,None,None,None,None,None,None,None,None,None,None,None,None,None,None,None,None,None,1154.444941,None,,,,,,,,,,,,,,233,f,22,2023_Mar_21_1053,RL,2021.2.3,59.98890206
1,0,92,0,,,,,,,,,,,,,,,None,None,None,None,None,1156.146026,None,1156.146026,None,1156.146026,None,1156.146026,None,r,0.4008586,1156.146026,None,1156.146026,None,1156.59713,None,1156.59713,None,1156.59713,None,1156.59713,None,1156.59713,None,1156.59713,None,1156.892067,1158.826907,1156.892067,1158.826907,1158.857527,None,1158.857527,None,1158.857527,None,1158.857527,None,1158.857527,None,1158.857527,None,1158.857527,None,1158.857527,None,1158.857527,None,47,56,45,40,47,57,1161.381217,None,3,2.736855,1161.381217,None,1161.381217,None,1161.381217,None,1161.381217,None,,None,None,,None,None,None,None,None,None,None,None,None,None,None,None,None,None,,,,,,,,None,None,None,None,-0.6,2,None,None,None,None,None,None,None,None,None,None,None,None,,None,None,None,None,None,None,None,None,None,None,None,None,None,None,None,None,None,None,None,None,1164.180088,None,,,,,,,,,,,,,,233,f,22,2023_Mar_21_1053,RL,2021.2.3,59.98890206
0,0,93,0,,,,,,,,,,,,,,,None,None,None,None,None,1166.169899,None,1166.169899,None,1166.169899,None,1166.169899,None,f,0.3276111,1166.169899,None,1166.169899,None,1166.54046,None,1166.54046,None,1166.54046,None,1166.54046,None,1166.54046,None,1166.54046,None,1166.815926,1168.100089,1166.815926,1168.100089,1168.154162,None,1168.154162,None,1168.154162,None,1168.154162,None,1168.154162,None,1168.154162,None,1168.154162,None,1168.154162,None,1168.154162,None,49,66,55,37,66,83,None,None,None,None,None,None,None,None,None,None,None,None,65,1170.698655,None,65,1170.698655,None,1170.698655,None,1170.698655,None,1170.698655,None,1170.698655,None,1170.698655,None,1170.698655,None,-0.00390625,-0.291666667,1,0,0,4.2681747,tijiao,0.01421805,None,1170.698655,None,0.6,0,None,None,None,None,None,None,None,None,None,None,None,None,,None,None,None,None,None,None,None,None,2.0546875,1.0826115,1175.013319,None,1175.013319,None,1175.013319,None,1175.013319,None,None,None,1176.121688,None,,,,,,,,,,,,,,233,f,22,2023_Mar_21_1053,RL,2021.2.3,59.98890206
1,0,94,0,,,,,,,,,,,,,,,None,None,None,None,None,1177.961311,None,1177.961311,None,1177.961311,None,1177.961311,None,f,0.4157862,1177.961311,None,1177.961311,None,1178.428648,None,1178.428648,None,1178.428648,None,1178.428648,None,1178.428648,None,1178.428648,None,1178.724204,None,1178.724204,None,1180.494979,None,1180.494979,None,1180.494979,None,1180.494979,None,1180.494979,None,1180.494979,None,1180.494979,None,1180.494979,None,1180.494979,None,45,64,52,42,64,87,None,None,None,None,None,None,None,None,None,None,None,None,,None,None,,None,None,None,None,None,None,None,None,None,None,None,None,None,None,,,,,,,,None,None,None,None,0.2,1,1183.032218,None,1183.032218,None,1183.032218,None,1183.032218,None,1183.032218,None,1183.032218,None,87,1183.032218,None,1183.032218,None,0.00241535,None,1183.032218,None,1,1.6752239,1187.026536,None,1187.026536,None,1187.026536,None,1187.026536,None,None,None,1188.729142,None,-0.061197917,-0.247395833,1,0,0,3.4053776,tijiao_random_2,,,,,,,233,f,22,2023_Mar_21_1053,RL,2021.2.3,59.98890206
0,0,95,0,,,,,,,,,,,,,,,None,None,None,None,None,1190.670152,None,1190.670152,None,1190.670152,None,1190.670152,None,j,0.3969655,1190.670152,None,1190.670152,None,1191.106817,None,1191.106817,None,1191.106817,None,1191.106817,None,1191.106817,None,1191.106817,None,1191.399659,None,1191.399659,None,1193.064737,None,1193.064737,None,1193.064737,None,1193.064737,None,1193.064737,None,1193.064737,None,1193.064737,None,1193.064737,None,1193.064737,None,34,59,60,28,28,54,1195.589344,None,2,2.3352671,1195.589344,None,1195.589344,None,1195.589344,None,1195.589344,None,,None,None,,None,None,None,None,None,None,None,None,None,None,None,None,None,None,,,,,,,,None,None,None,None,-0.2,2,None,None,None,None,None,None,None,None,None,None,None,None,,None,None,None,None,None,None,None,None,None,None,None,None,None,None,None,None,None,None,None,None,1197.989211,None,,,,,,,,,,,,,,233,f,22,2023_Mar_21_1053,RL,2021.2.3,59.98890206
1,0,96,0,,,,,,,,,,,,,,,None,None,None,None,None,1199.776525,None,1199.776525,None,1199.776525,None,1199.776525,None,i,0.3808757,1199.776525,None,1199.776525,None,1200.210827,None,1200.210827,None,1200.210827,None,1200.210827,None,1200.210827,None,1200.210827,None,1200.505842,None,1200.505842,None,1202.103605,None,1202.103605,None,1202.103605,None,1202.103605,None,1202.103605,None,1202.103605,None,1202.103605,None,1202.103605,None,1202.103605,None,36,59,49,28,49,69,1204.621383,None,2,1.8250305,1204.621383,None,1204.621383,None,1204.621383,None,1204.621383,None,,None,None,,None,None,None,None,None,None,None,None,None,None,None,None,None,None,,,,,,,,None,None,None,None,-0.2,3,None,None,None,None,None,None,None,None,None,None,None,None,,None,None,None,None,None,None,None,None,None,None,None,None,None,None,None,None,None,None,None,None,1206.505999,None,,,,,,,,,,,,,,233,f,22,2023_Mar_21_1053,RL,2021.2.3,59.98890206
0,0,97,0,,,,,,,,,,,,,,,None,None,None,None,None,1208.015963,None,1208.015963,None,1208.015963,None,1208.015963,None,f,0.5712281,1208.015963,None,1208.015963,None,1208.635963,None,1208.635963,None,1208.635963,None,1208.635963,None,1208.635963,None,1208.635963,None,1208.911803,1209.879161,1208.911803,1209.879161,1209.92683,None,1209.92683,None,1209.92683,None,1209.92683,None,1209.92683,None,1209.92683,None,1209.92683,None,1209.92683,None,1209.92683,None,26,60,52,33,60,43,1212.445259,None,4,2.1723639,1212.445259,None,1212.445259,None,1212.445259,None,1212.445259,None,,None,None,,None,None,None,None,None,None,None,None,None,None,None,None,None,None,,,,,,,,None,None,None,None,0.6,3,None,None,None,None,None,None,None,None,None,None,None,None,,None,None,None,None,None,None,None,None,None,None,None,None,None,None,None,None,None,None,None,None,1214.666508,None,,,,,,,,,,,,,,233,f,22,2023_Mar_21_1053,RL,2021.2.3,59.98890206
