trials.thisRepN,trials.thisTrialN,trials.thisN,trials.thisIndex,instru_img1.started,instru_resp.started,instru_resp.keys,instru_resp.rt,instru_img2.started,instru_resp2.started,instru_resp2.keys,instru_resp2.rt,fixbefore_2.started,rest_response.keys,red.started,green.started,yellow.started,blue.started,choose_bandit.started,Fixation.started,choose_bandit.keys,choose_bandit.rt,black.started,red_2.started,green_2.started,yellow_2.started,blue_2.started,fixation_2.started,docs.started,wait_playerB.started,docs.stopped,wait_playerB.stopped,black.stopped,red_2.stopped,green_2.stopped,yellow_2.stopped,blue_2.stopped,fixation_2.stopped,black_com.started,reward_sub.started,palyerb.started,reward__sub.started,compare.started,red_compare.started,green_com.started,yellow_com.started,blue_com.started,rewardyellow,rewardred,rewardblue,rewardgreen,subchoose,playerb,slider.response,slider.rt,expectself.text,value_expect_self,tijiao_click.x,tijiao_click.y,tijiao_click.leftButton,tijiao_click.midButton,tijiao_click.rightButton,tijiao_click.time,tijiao_click.clicked_name,random_whicharm,whether_ask,jiantou_random.started,expect_red.started,expect_green.started,expect_yellow.started,expect_blue.started,expect_random_2.started,expect_random_3.started,tijiao_random_2.started,tijiao_random.started,check_2.started,expect_random_3.text,tijiao_random.x,tijiao_random.y,tijiao_random.leftButton,tijiao_random.midButton,tijiao_random.rightButton,tijiao_random.time,tijiao_random.clicked_name,slider_2.started,image_7.started,confi.started,notconfi.started,slider_2.response,slider_2.rt,intertrialfix.started,intertrialfix.stopped,image_3.started,slider.started,text.started,image_4.started,image_5.started,expectself.started,expect_self_black.started,expect_self.started,expect_self_red.started,expect_self_green.started,expect_self_yellow.started,expect_self_blue.started,tijiao.started,tijiao_click.started,check.started,rest_image.started,rest_response.started,rest_response.rt,image.started,key_resp.started,key_resp.keys,participant,Gender,Age,date,expName,psychopyVersion,frameRate
,,,,50.0972902,50.0972902,space,17.0194811,,,,,,,,,,,,,,,,,,,,,,,,,,,,,,,,,,,,,,,,,,,,,,,,,,,,,,,,,,,,,,,,,,,,,,,,,,,,,,,,,,,,,,,,,,,,,,,,,,,,,,,,,,234,f,18,2023-03-21_10h54.02.254,RL,2022.2.4,60.16036347
,,,,,,,,67.1546707,67.1546707,s,31.1140846,,,,,,,,,,,,,,,,,,,,,,,,,,,,,,,,,,,,,,,,,,,,,,,,,,,,,,,,,,,,,,,,,,,,,,,,,,,,,,,,,,,,,,,,,,,,,,,,,,,,,,234,f,18,2023-03-21_10h54.02.254,RL,2022.2.4,60.16036347
1,0,0,0,,,,,,,,,98.2967385,None,99.3110526,99.3110526,99.3110526,99.3110526,99.3110526,99.3110526,i,0.3268888,99.678622,99.678622,99.678622,99.678622,99.678622,99.678622,99.9590709,99.9590709,101.886521,101.886521,101.9060301,101.9060301,101.9060301,101.9060301,101.9060301,101.9060301,101.9060301,101.9060301,101.9060301,101.9060301,101.9060301,101.9060301,101.9060301,101.9060301,101.9060301,72,56,45,44,45,24,None,None,,,[],[],[],[],[],[],[],0.6,1,104.4257992,104.4257992,104.4257992,104.4257992,104.4257992,104.4257992,104.4257992,104.4257992,0.0060878,104.4257992,19,[0.09907407407407408],[-0.31203703703703706],[1],[0],[0],[6.912276000002748],['tijiao_random_2'],111.3567853,111.3567853,111.3567853,111.3567853,3.064814815,3.3488048,114.752664,116.6297776,,,,,,,,,,,,,,,,,,,,,,234,f,18,2023-03-21_10h54.02.254,RL,2022.2.4,60.16036347
0,0,1,0,,,,,,,,,,None,116.6297776,116.6297776,116.6297776,116.6297776,116.6297776,116.6297776,f,0.2733258,116.934971,116.934971,116.934971,116.934971,116.934971,116.934971,117.2284883,117.2284883,118.5248328,118.5248328,118.5415198,118.5415198,118.5415198,118.5415198,118.5415198,118.5415198,118.5415198,118.5415198,118.5415198,118.5415198,118.5415198,118.5415198,118.5415198,118.5415198,118.5415198,78,56,53,43,56,67,None,None,,,[],[],[],[],[],[],[],0.2,1,121.0591427,121.0591427,121.0591427,121.0591427,121.0591427,121.0591427,121.0591427,121.0591427,0.006561,121.0591427,56,[-0.017592592592592594],[-0.29074074074074074],[1],[0],[0],[9.390158900001552],['tijiao_random_2'],130.4625394,130.4625394,130.4625394,130.4625394,3.064814815,2.9357912,133.4166245,135.1294007,,,,,,,,,,,,,,,,,,,,,,234,f,18,2023-03-21_10h54.02.254,RL,2022.2.4,60.16036347
1,0,2,0,,,,,,,,,,None,135.1294007,135.1294007,135.1294007,135.1294007,135.1294007,135.1294007,i,0.2518007,135.4144649,135.4144649,135.4144649,135.4144649,135.4144649,135.4144649,135.711352,135.711352,137.290215,137.290215,137.290215,137.290215,137.290215,137.290215,137.290215,137.290215,137.290215,137.290215,137.290215,137.290215,137.290215,137.290215,137.290215,137.290215,137.290215,74,57,46,47,46,59,2,2.2761658,,,[],[],[],[],[],[],[],0.6,3,,,,,,,,,,,,[],[],[],[],[],[],[],,,,,None,None,142.1004339,144.0217383,139.7998261,139.7998261,139.7998261,139.7998261,139.7998261,,,,,,,,,,,,,,,,,234,f,18,2023-03-21_10h54.02.254,RL,2022.2.4,60.16036347
0,0,3,0,,,,,,,,,,None,144.0217383,144.0217383,144.0217383,144.0217383,144.0217383,144.0217383,j,0.2310011,144.2760537,144.2760537,144.2760537,144.2760537,144.2760537,144.2760537,144.5705447,144.5705447,145.4514016,145.4514016,145.4680511,145.4680511,145.4680511,145.4680511,145.4680511,145.4680511,145.4680511,145.4680511,145.4680511,145.4680511,145.4680511,145.4680511,145.4680511,145.4680511,145.4680511,65,63,49,44,44,27,5,2.3923814,,,[],[],[],[],[],[],[],-0.6,2,,,,,,,,,,,,[],[],[],[],[],[],[],,,,,None,None,150.396847,152.2822621,147.9770002,147.9770002,147.9770002,147.9770002,147.9770002,,,,,,,,,,,,,,,,,234,f,18,2023-03-21_10h54.02.254,RL,2022.2.4,60.16036347
1,0,4,0,,,,,,,,,,None,152.2822621,152.2822621,152.2822621,152.2822621,152.2822621,152.2822621,r,0.268412,152.5820319,152.5820319,152.5820319,152.5820319,152.5820319,152.5820319,152.8810764,152.8810764,153.8285985,153.8285985,153.8451376,153.8451376,153.8451376,153.8451376,153.8451376,153.8451376,153.8451376,153.8451376,153.8451376,153.8451376,153.8451376,153.8451376,153.8451376,153.8451376,153.8451376,62,70,52,41,62,47,None,None,70,70,[0.0787037037037037],[-0.28703703703703703],[1],[0],[0],[5.059115199997905],['tijiao'],0.6,0,,,,,,,,,,,,[],[],[],[],[],[],[],161.4364012,161.4364012,161.4364012,161.4364012,5.972222222,5.1050065,166.5592098,168.138858,,,,,,156.3595469,156.3595469,156.3595469,156.3595469,156.3595469,156.3595469,156.3595469,156.3595469,0.0069743,156.3595469,,,,,,,234,f,18,2023-03-21_10h54.02.254,RL,2022.2.4,60.16036347
0,0,5,0,,,,,,,,,,None,168.138858,168.138858,168.138858,168.138858,168.138858,168.138858,r,0.2327576,168.3887783,168.3887783,168.3887783,168.3887783,168.3887783,168.3887783,168.6880084,168.6880084,170.0671174,170.0671174,170.0671174,170.0671174,170.0671174,170.0671174,170.0671174,170.0671174,170.0671174,170.0671174,170.0671174,170.0671174,170.0671174,170.0671174,170.0671174,170.0671174,170.0671174,68,70,52,44,68,28,6,2.3089849,,,[],[],[],[],[],[],[],0.2,2,,,,,,,,,,,,[],[],[],[],[],[],[],,,,,None,None,174.9101712,176.799069,172.5767837,172.5767837,172.5767837,172.5767837,172.5767837,,,,,,,,,,,,,,,,,234,f,18,2023-03-21_10h54.02.254,RL,2022.2.4,60.16036347
1,0,6,0,,,,,,,,,,None,176.799069,176.799069,176.799069,176.799069,176.799069,176.799069,r,0.2804698,177.0983822,177.0983822,177.0983822,177.0983822,177.0983822,177.0983822,177.3975873,177.3975873,179.1258024,179.1258024,179.1258024,179.1258024,179.1258024,179.1258024,179.1258024,179.1258024,179.1258024,179.1258024,179.1258024,179.1258024,179.1258024,179.1258024,179.1258024,179.1258024,179.1258024,68,64,43,50,68,52,6,1.4289593,,,[],[],[],[],[],[],[],-0.6,3,,,,,,,,,,,,[],[],[],[],[],[],[],,,,,None,None,183.0915051,184.7605217,181.6350571,181.6350571,181.6350571,181.6350571,181.6350571,,,,,,,,,,,,,,,,,234,f,18,2023-03-21_10h54.02.254,RL,2022.2.4,60.16036347
0,0,7,0,,,,,,,,,,None,184.7605217,184.7605217,184.7605217,184.7605217,184.7605217,184.7605217,r,0.3077028,185.0932787,185.0932787,185.0932787,185.0932787,185.0932787,185.0932787,185.3921069,185.3921069,186.6222355,186.6222355,186.6222355,186.6222355,186.6222355,186.6222355,186.6222355,186.6222355,186.6222355,186.6222355,186.6222355,186.6222355,186.6222355,186.6222355,186.6222355,186.6222355,186.6222355,61,66,42,42,61,39,None,None,68,68,[0.03611111111111111],[-0.29907407407407405],[1],[0],[0],[5.741776799986837],['tijiao'],-0.2,0,,,,,,,,,,,,[],[],[],[],[],[],[],194.8945637,194.8945637,194.8945637,194.8945637,10.01851852,1.3979806,196.3117071,198.0906552,,,,,,189.1323581,189.1323581,189.1323581,189.1323581,189.1323581,189.1323581,189.1323581,189.1323581,0.0056672,189.1323581,,,,,,,234,f,18,2023-03-21_10h54.02.254,RL,2022.2.4,60.16036347
1,0,8,0,,,,,,,,,,None,198.0906552,198.0906552,198.0906552,198.0906552,198.0906552,198.0906552,r,0.2445752,198.3570711,198.3570711,198.3570711,198.3570711,198.3570711,198.3570711,198.6562346,198.6562346,199.7530816,199.7530816,199.7530816,199.7530816,199.7530816,199.7530816,199.7530816,199.7530816,199.7530816,199.7530816,199.7530816,199.7530816,199.7530816,199.7530816,199.7530816,199.7530816,199.7530816,71,63,45,44,71,66,None,None,,,[],[],[],[],[],[],[],0.2,1,202.2703574,202.2703574,202.2703574,202.2703574,202.2703574,202.2703574,202.2703574,202.2703574,0.0058078,202.2703574,56,[0.04814814814814815],[-0.29907407407407405],[1],[0],[0],[7.014202400008799],['tijiao_random_2'],209.2989537,209.2989537,209.2989537,209.2989537,4.925925926,1.9202426,211.2372531,213.1829697,,,,,,,,,,,,,,,,,,,,,,234,f,18,2023-03-21_10h54.02.254,RL,2022.2.4,60.16036347
0,0,9,0,,,,,,,,,,None,213.1829697,213.1829697,213.1829697,213.1829697,213.1829697,213.1829697,r,0.2184066,213.4326929,213.4326929,213.4326929,213.4326929,213.4326929,213.4326929,213.7317983,213.7317983,215.5599566,215.5599566,215.5599566,215.5599566,215.5599566,215.5599566,215.5599566,215.5599566,215.5599566,215.5599566,215.5599566,215.5599566,215.5599566,215.5599566,215.5599566,215.5599566,215.5599566,69,71,40,50,69,28,6,1.5447805,,,[],[],[],[],[],[],[],0.6,2,,,,,,,,,,,,[],[],[],[],[],[],[],,,,,None,None,219.6396175,221.260969,218.0691626,218.0691626,218.0691626,218.0691626,218.0691626,,,,,,,,,,,,,,,,,234,f,18,2023-03-21_10h54.02.254,RL,2022.2.4,60.16036347
1,0,10,0,,,,,,,,,,None,221.260969,221.260969,221.260969,221.260969,221.260969,221.260969,r,0.2638025,221.5442783,221.5442783,221.5442783,221.5442783,221.5442783,221.5442783,221.8430343,221.8430343,223.4381052,223.4381052,223.4381052,223.4381052,223.4381052,223.4381052,223.4381052,223.4381052,223.4381052,223.4381052,223.4381052,223.4381052,223.4381052,223.4381052,223.4381052,223.4381052,223.4381052,74,64,37,45,74,16,7,1.3794205,,,[],[],[],[],[],[],[],-0.2,3,,,,,,,,,,,,[],[],[],[],[],[],[],,,,,None,None,227.3529549,229.3554451,225.947703,225.947703,225.947703,225.947703,225.947703,,,,,,,,,,,,,,,,,234,f,18,2023-03-21_10h54.02.254,RL,2022.2.4,60.16036347
0,0,11,0,,,,,,,,,,None,229.3554451,229.3554451,229.3554451,229.3554451,229.3554451,229.3554451,r,0.3322117,229.7048031,229.7048031,229.7048031,229.7048031,229.7048031,229.7048031,230.0040136,230.0040136,231.9319348,231.9319348,231.9319348,231.9319348,231.9319348,231.9319348,231.9319348,231.9319348,231.9319348,231.9319348,231.9319348,231.9319348,231.9319348,231.9319348,231.9319348,231.9319348,231.9319348,77,54,41,44,77,54,7,1.2625037,,,[],[],[],[],[],[],[],0.6,3,,,,,,,,,,,,[],[],[],[],[],[],[],,,,,None,None,235.7303149,237.6164164,234.4411442,234.4411442,234.4411442,234.4411442,234.4411442,,,,,,,,,,,,,,,,,234,f,18,2023-03-21_10h54.02.254,RL,2022.2.4,60.16036347
1,0,12,0,,,,,,,,,,None,237.6164164,237.6164164,237.6164164,237.6164164,237.6164164,237.6164164,r,0.229734,237.8664418,237.8664418,237.8664418,237.8664418,237.8664418,237.8664418,238.1651488,238.1651488,239.9934036,239.9934036,239.9934036,239.9934036,239.9934036,239.9934036,239.9934036,239.9934036,239.9934036,239.9934036,239.9934036,239.9934036,239.9934036,239.9934036,239.9934036,239.9934036,239.9934036,81,58,37,54,81,47,7,1.0816596,,,[],[],[],[],[],[],[],0.2,3,,,,,,,,,,,,[],[],[],[],[],[],[],,,,,None,None,243.6065746,245.179215,242.5020843,242.5020843,242.5020843,242.5020843,242.5020843,,,,,,,,,,,,,,,,,234,f,18,2023-03-21_10h54.02.254,RL,2022.2.4,60.16036347
0,0,13,0,,,,,,,,,,None,245.179215,245.179215,245.179215,245.179215,245.179215,245.179215,r,0.2448739,245.4452977,245.4452977,245.4452977,245.4452977,245.4452977,245.4452977,245.7444248,245.7444248,247.2570032,247.2570032,247.2570032,247.2570032,247.2570032,247.2570032,247.2570032,247.2570032,247.2570032,247.2570032,247.2570032,247.2570032,247.2570032,247.2570032,247.2570032,247.2570032,247.2570032,77,64,26,54,77,58,7,0.979685,,,[],[],[],[],[],[],[],0.6,2,,,,,,,,,,,,[],[],[],[],[],[],[],,,,,None,None,250.7707407,252.575456,249.7660954,249.7660954,249.7660954,249.7660954,249.7660954,,,,,,,,,,,,,,,,,234,f,18,2023-03-21_10h54.02.254,RL,2022.2.4,60.16036347
1,0,14,0,,,,,,,,,,None,252.575456,252.575456,252.575456,252.575456,252.575456,252.575456,r,0.7115054,253.307096,253.307096,253.307096,253.307096,253.307096,253.307096,253.6062885,253.6062885,254.9359075,254.9359075,254.9359075,254.9359075,254.9359075,254.9359075,254.9359075,254.9359075,254.9359075,254.9359075,254.9359075,254.9359075,254.9359075,254.9359075,254.9359075,254.9359075,254.9359075,73,62,28,46,73,53,None,None,,,[],[],[],[],[],[],[],0.2,1,257.4526165,257.4526165,257.4526165,257.4526165,257.4526165,257.4526165,257.4526165,257.4526165,0.0054766,257.4526165,57,[0.06851851851851852],[-0.28055555555555556],[1],[0],[0],[4.721370300001581],['tijiao_random_2'],262.1862263,262.1862263,262.1862263,262.1862263,8.12037037,2.0713629,264.2762663,266.1052189,,,,,,,,,,,,,,,,,,,,,,234,f,18,2023-03-21_10h54.02.254,RL,2022.2.4,60.16036347
0,0,15,0,,,,,,,,,,None,266.1052189,266.1052189,266.1052189,266.1052189,266.1052189,266.1052189,r,0.2344524,266.3715908,266.3715908,266.3715908,266.3715908,266.3715908,266.3715908,266.6708302,266.6708302,267.7676075,267.7676075,267.7676075,267.7676075,267.7676075,267.7676075,267.7676075,267.7676075,267.7676075,267.7676075,267.7676075,267.7676075,267.7676075,267.7676075,267.7676075,267.7676075,267.7676075,69,64,29,46,69,32,None,None,69,69,[0.10740740740740741],[-0.31851851851851853],[1],[0],[0],[7.550672400000622],['tijiao'],0.2,0,,,,,,,,,,,,[],[],[],[],[],[],[],277.8511401,277.8511401,277.8511401,277.8511401,9.009259259,2.0136818,279.8833762,281.5796439,,,,,,270.2796915,270.2796915,270.2796915,270.2796915,270.2796915,270.2796915,270.2796915,270.2796915,0.0075331,270.2796915,,,,,,,234,f,18,2023-03-21_10h54.02.254,RL,2022.2.4,60.16036347
1,0,16,0,,,,,,,,,,None,281.5796439,281.5796439,281.5796439,281.5796439,281.5796439,281.5796439,r,0.2613588,281.8638316,281.8638316,281.8638316,281.8638316,281.8638316,281.8638316,282.1616336,282.1616336,282.9926643,282.9926643,282.9926643,282.9926643,282.9926643,282.9926643,282.9926643,282.9926643,282.9926643,282.9926643,282.9926643,282.9926643,282.9926643,282.9926643,282.9926643,282.9926643,282.9926643,74,68,23,51,74,55,None,None,78,78,[0.16944444444444445],[-0.27314814814814814],[1],[0],[0],[7.9007486999908],['tijiao'],0.6,0,,,,,,,,,,,,[],[],[],[],[],[],[],293.4256264,293.4256264,293.4256264,293.4256264,8.944444444,1.714433,295.1584378,296.7383053,,,,,,285.5045527,285.5045527,285.5045527,285.5045527,285.5045527,285.5045527,285.5045527,285.5045527,0.0073387,285.5045527,,,,,,,234,f,18,2023-03-21_10h54.02.254,RL,2022.2.4,60.16036347
0,0,17,0,,,,,,,,,,None,296.7383053,296.7383053,296.7383053,296.7383053,296.7383053,296.7383053,r,0.3242842,297.0875724,297.0875724,297.0875724,297.0875724,297.0875724,297.0875724,297.3865705,297.3865705,299.1652986,299.1652986,299.1652986,299.1652986,299.1652986,299.1652986,299.1652986,299.1652986,299.1652986,299.1652986,299.1652986,299.1652986,299.1652986,299.1652986,299.1652986,299.1652986,299.1652986,67,70,29,38,67,48,4,2.8913632,,,[],[],[],[],[],[],[],-0.2,2,,,,,,,,,,,,[],[],[],[],[],[],[],,,,,None,None,304.5928214,306.5282419,301.6740584,301.6740584,301.6740584,301.6740584,301.6740584,,,,,,,,,,,,,,,,,234,f,18,2023-03-21_10h54.02.254,RL,2022.2.4,60.16036347
1,0,18,0,,,,,,,,,,None,306.5282419,306.5282419,306.5282419,306.5282419,306.5282419,306.5282419,j,0.3254276,306.8775947,306.8775947,306.8775947,306.8775947,306.8775947,306.8775947,307.1768583,307.1768583,308.6060529,308.6060529,308.6060529,308.6060529,308.6060529,308.6060529,308.6060529,308.6060529,308.6060529,308.6060529,308.6060529,308.6060529,308.6060529,308.6060529,308.6060529,308.6060529,308.6060529,71,65,26,49,49,44,None,None,,,[],[],[],[],[],[],[],0.6,1,311.1235718,311.1235718,311.1235718,311.1235718,311.1235718,311.1235718,311.1235718,311.1235718,0.0059213,311.1235718,45,[0.0824074074074074],[-0.29259259259259257],[1],[0],[0],[4.920032399997581],['tijiao_random_2'],316.0575883,316.0575883,316.0575883,316.0575883,6.814814815,1.9533913,318.0290777,319.5593663,,,,,,,,,,,,,,,,,,,,,,234,f,18,2023-03-21_10h54.02.254,RL,2022.2.4,60.16036347
0,0,19,0,,,,,,,,,,None,319.5593663,319.5593663,319.5593663,319.5593663,319.5593663,319.5593663,r,0.2380303,319.8260263,319.8260263,319.8260263,319.8260263,319.8260263,319.8260263,320.1246489,320.1246489,321.4544272,321.4544272,321.4544272,321.4544272,321.4544272,321.4544272,321.4544272,321.4544272,321.4544272,321.4544272,321.4544272,321.4544272,321.4544272,321.4544272,321.4544272,321.4544272,321.4544272,63,60,21,51,63,53,None,None,68,68,[0.09722222222222222],[-0.25277777777777777],[1],[0],[0],[4.761649699998088],['tijiao'],0.2,0,,,,,,,,,,,,[],[],[],[],[],[],[],328.745301,328.745301,328.745301,328.745301,7.953703704,1.6645361,330.4288148,332.2912924,,,,,,323.9648839,323.9648839,323.9648839,323.9648839,323.9648839,323.9648839,323.9648839,323.9648839,0.0056974,323.9648839,,,,,,,234,f,18,2023-03-21_10h54.02.254,RL,2022.2.4,60.16036347
1,0,20,0,,,,,,,,,,None,332.2912924,332.2912924,332.2912924,332.2912924,332.2912924,332.2912924,r,0.2395741,332.5575975,332.5575975,332.5575975,332.5575975,332.5575975,332.5575975,332.8563866,332.8563866,334.5518147,334.5518147,334.5518147,334.5518147,334.5518147,334.5518147,334.5518147,334.5518147,334.5518147,334.5518147,334.5518147,334.5518147,334.5518147,334.5518147,334.5518147,334.5518147,334.5518147,66,74,21,49,66,61,None,None,65,65,[0.15],[-0.3175925925925926],[1],[0],[0],[6.438495599999442],['tijiao'],-0.2,0,,,,,,,,,,,,[],[],[],[],[],[],[],343.5223343,343.5223343,343.5223343,343.5223343,6.037037037,1.8803781,345.4210203,347.150385,,,,,,337.064039,337.064039,337.064039,337.064039,337.064039,337.064039,337.064039,337.064039,0.0067458,337.064039,,,,,,,234,f,18,2023-03-21_10h54.02.254,RL,2022.2.4,60.16036347
0,0,21,0,,,,,,,,,,None,347.150385,347.150385,347.150385,347.150385,347.150385,347.150385,r,0.2471819,347.4170369,347.4170369,347.4170369,347.4170369,347.4170369,347.4170369,347.716062,347.716062,349.1454491,349.1454491,349.1454491,349.1454491,349.1454491,349.1454491,349.1454491,349.1454491,349.1454491,349.1454491,349.1454491,349.1454491,349.1454491,349.1454491,349.1454491,349.1454491,349.1454491,64,63,14,50,64,31,6,1.1627182,,,[],[],[],[],[],[],[],-0.2,2,,,,,,,,,,,,[],[],[],[],[],[],[],,,,,None,None,352.8423655,354.4475377,351.6546291,351.6546291,351.6546291,351.6546291,351.6546291,,,,,,,,,,,,,,,,,234,f,18,2023-03-21_10h54.02.254,RL,2022.2.4,60.16036347
1,0,22,0,,,,,,,,,,None,354.4475377,354.4475377,354.4475377,354.4475377,354.4475377,354.4475377,f,0.2886558,354.7636048,354.7636048,354.7636048,354.7636048,354.7636048,354.7636048,355.0628203,355.0628203,355.9931627,355.9931627,355.9931627,355.9931627,355.9931627,355.9931627,355.9931627,355.9931627,355.9931627,355.9931627,355.9931627,355.9931627,355.9931627,355.9931627,355.9931627,355.9931627,355.9931627,75,61,8,44,61,30,None,None,,,[],[],[],[],[],[],[],-0.6,1,358.5106912,358.5106912,358.5106912,358.5106912,358.5106912,358.5106912,358.5106912,358.5106912,0.0058778,358.5106912,68,[0.011111111111111112],[-0.26296296296296295],[1],[0],[0],[6.898214899993036],['tijiao_random_2'],365.4230902,365.4230902,365.4230902,365.4230902,7.148148148,2.9012751,368.3422443,369.9884351,,,,,,,,,,,,,,,,,,,,,,234,f,18,2023-03-21_10h54.02.254,RL,2022.2.4,60.16036347
0,0,23,0,,,,,,,,,,None,369.9884351,369.9884351,369.9884351,369.9884351,369.9884351,369.9884351,i,0.2482591,370.2551543,370.2551543,370.2551543,370.2551543,370.2551543,370.2551543,370.5535249,370.5535249,371.6174489,371.6174489,371.6174489,371.6174489,371.6174489,371.6174489,371.6174489,371.6174489,371.6174489,371.6174489,371.6174489,371.6174489,371.6174489,371.6174489,371.6174489,371.6174489,371.6174489,65,61,19,35,19,47,2,1.7442596,,,[],[],[],[],[],[],[],-0.6,2,,,,,,,,,,,,[],[],[],[],[],[],[],,,,,None,None,375.8972329,377.4679188,374.1264978,374.1264978,374.1264978,374.1264978,374.1264978,,,,,,,,,,,,,,,,,234,f,18,2023-03-21_10h54.02.254,RL,2022.2.4,60.16036347
1,0,24,0,,,,,,,,,,None,377.4679188,377.4679188,377.4679188,377.4679188,377.4679188,377.4679188,r,0.4289562,377.917045,377.917045,377.917045,377.917045,377.917045,377.917045,378.2159188,378.2159188,379.8118123,379.8118123,379.8118123,379.8118123,379.8118123,379.8118123,379.8118123,379.8118123,379.8118123,379.8118123,379.8118123,379.8118123,379.8118123,379.8118123,379.8118123,379.8118123,379.8118123,64,68,8,45,64,51,5,2.4592191,,,[],[],[],[],[],[],[],-0.2,3,,,,,,,,,,,,[],[],[],[],[],[],[],,,,,None,None,384.8071242,386.7592213,382.3207902,382.3207902,382.3207902,382.3207902,382.3207902,,,,,,,,,,,,,,,,,234,f,18,2023-03-21_10h54.02.254,RL,2022.2.4,60.16036347
0,0,25,0,,,,,,,,,,None,386.7592213,386.7592213,386.7592213,386.7592213,386.7592213,386.7592213,r,0.3472137,387.1252966,387.1252966,387.1252966,387.1252966,387.1252966,387.1252966,387.4241823,387.4241823,388.4383028,388.4383028,388.4383028,388.4383028,388.4383028,388.4383028,388.4383028,388.4383028,388.4383028,388.4383028,388.4383028,388.4383028,388.4383028,388.4383028,388.4383028,388.4383028,388.4383028,75,65,8,49,75,53,None,None,,,[],[],[],[],[],[],[],0.2,1,390.9561854,390.9561854,390.9561854,390.9561854,390.9561854,390.9561854,390.9561854,390.9561854,0.0056863,390.9561854,19,[0.09444444444444444],[-0.2564814814814815],[1],[0],[0],[7.112555599989719],['tijiao_random_2'],398.0826284,398.0826284,398.0826284,398.0826284,6.935185185,2.1045408,400.2051428,402.1338153,,,,,,,,,,,,,,,,,,,,,,234,f,18,2023-03-21_10h54.02.254,RL,2022.2.4,60.16036347
1,0,26,0,,,,,,,,,,None,402.1338153,402.1338153,402.1338153,402.1338153,402.1338153,402.1338153,r,0.2039551,402.3669944,402.3669944,402.3669944,402.3669944,402.3669944,402.3669944,402.6662009,402.6662009,404.3946162,404.3946162,404.3946162,404.3946162,404.3946162,404.3946162,404.3946162,404.3946162,404.3946162,404.3946162,404.3946162,404.3946162,404.3946162,404.3946162,404.3946162,404.3946162,404.3946162,61,65,18,36,61,55,4,1.9607383,,,[],[],[],[],[],[],[],0.6,2,,,,,,,,,,,,[],[],[],[],[],[],[],,,,,None,None,408.8904809,410.4277588,406.9039846,406.9039846,406.9039846,406.9039846,406.9039846,,,,,,,,,,,,,,,,,234,f,18,2023-03-21_10h54.02.254,RL,2022.2.4,60.16036347
0,0,27,0,,,,,,,,,,None,410.4277588,410.4277588,410.4277588,410.4277588,410.4277588,410.4277588,r,0.2929029,410.7441536,410.7441536,410.7441536,410.7441536,410.7441536,410.7441536,411.0433197,411.0433197,412.2067795,412.2067795,412.2067795,412.2067795,412.2067795,412.2067795,412.2067795,412.2067795,412.2067795,412.2067795,412.2067795,412.2067795,412.2067795,412.2067795,412.2067795,412.2067795,412.2067795,65,66,9,41,65,52,4,1.9608723,,,[],[],[],[],[],[],[],-0.6,3,,,,,,,,,,,,[],[],[],[],[],[],[],,,,,None,None,416.7032286,418.3067021,414.7154788,414.7154788,414.7154788,414.7154788,414.7154788,,,,,,,,,,,,,,,,,234,f,18,2023-03-21_10h54.02.254,RL,2022.2.4,60.16036347
1,0,28,0,,,,,,,,,,None,418.3067021,418.3067021,418.3067021,418.3067021,418.3067021,418.3067021,r,0.2760617,418.6060351,418.6060351,418.6060351,418.6060351,418.6060351,418.6060351,418.9050393,418.9050393,420.6671182,420.6671182,420.6671182,420.6671182,420.6671182,420.6671182,420.6671182,420.6671182,420.6671182,420.6671182,420.6671182,420.6671182,420.6671182,420.6671182,420.6671182,420.6671182,420.6671182,61,66,19,47,61,40,None,None,60,60,[0.08611111111111111],[-0.3101851851851852],[1],[0],[0],[4.844208199996501],['tijiao'],-0.6,0,,,,,,,,,,,,[],[],[],[],[],[],[],428.0436418,428.0436418,428.0436418,428.0436418,5.916666667,2.6924666,430.7548128,432.5011483,,,,,,423.1769964,423.1769964,423.1769964,423.1769964,423.1769964,423.1769964,423.1769964,423.1769964,0.0056667,423.1769964,,,,,,,234,f,18,2023-03-21_10h54.02.254,RL,2022.2.4,60.16036347
0,0,29,0,,,,,,,,,,None,432.5011483,432.5011483,432.5011483,432.5011483,432.5011483,432.5011483,r,0.269366,432.8006089,432.8006089,432.8006089,432.8006089,432.8006089,432.8006089,433.0994138,433.0994138,434.2465352,434.2465352,434.2465352,434.2465352,434.2465352,434.2465352,434.2465352,434.2465352,434.2465352,434.2465352,434.2465352,434.2465352,434.2465352,434.2465352,434.2465352,434.2465352,434.2465352,52,69,12,38,52,22,3,1.9436294,,,[],[],[],[],[],[],[],-0.2,3,,,,,,,,,,,,[],[],[],[],[],[],[],,,,,None,None,438.7265182,440.3795504,436.7558075,436.7558075,436.7558075,436.7558075,436.7558075,,,,,,,,,,,,,,,,,234,f,18,2023-03-21_10h54.02.254,RL,2022.2.4,60.16036347
1,0,30,0,,,,,,,,,,None,440.3795504,440.3795504,440.3795504,440.3795504,440.3795504,440.3795504,i,0.2396283,440.6458913,440.6458913,440.6458913,440.6458913,440.6458913,440.6458913,440.9451094,440.9451094,442.3078867,442.3078867,442.3078867,442.3078867,442.3078867,442.3078867,442.3078867,442.3078867,442.3078867,442.3078867,442.3078867,442.3078867,442.3078867,442.3078867,442.3078867,442.3078867,442.3078867,50,68,24,29,24,48,2,2.0273405,,,[],[],[],[],[],[],[],0.2,2,,,,,,,,,,,,[],[],[],[],[],[],[],,,,,None,None,446.868352,448.5406575,444.8169862,444.8169862,444.8169862,444.8169862,444.8169862,,,,,,,,,,,,,,,,,234,f,18,2023-03-21_10h54.02.254,RL,2022.2.4,60.16036347
0,0,31,0,,,,,,,,,,None,448.5406575,448.5406575,448.5406575,448.5406575,448.5406575,448.5406575,f,0.2408431,448.8069616,448.8069616,448.8069616,448.8069616,448.8069616,448.8069616,449.10605,449.10605,451.0008936,451.0008936,451.0008936,451.0008936,451.0008936,451.0008936,451.0008936,451.0008936,451.0008936,451.0008936,451.0008936,451.0008936,451.0008936,451.0008936,451.0008936,451.0008936,451.0008936,47,76,18,41,76,53,5,1.9106076,,,[],[],[],[],[],[],[],0.2,2,,,,,,,,,,,,[],[],[],[],[],[],[],,,,,None,None,455.4478324,457.3332224,453.5104052,453.5104052,453.5104052,453.5104052,453.5104052,,,,,,,,,,,,,,,,,234,f,18,2023-03-21_10h54.02.254,RL,2022.2.4,60.16036347
1,0,32,0,,,,,,,,,,None,457.3332224,457.3332224,457.3332224,457.3332224,457.3332224,457.3332224,f,0.2359089,457.5996513,457.5996513,457.5996513,457.5996513,457.5996513,457.5996513,457.8986027,457.8986027,459.5773903,459.5773903,459.5773903,459.5773903,459.5773903,459.5773903,459.5773903,459.5773903,459.5773903,459.5773903,459.5773903,459.5773903,459.5773903,459.5773903,459.5773903,459.5773903,459.5773903,43,71,16,45,71,37,4,1.5451968,,,[],[],[],[],[],[],[],0.6,2,,,,,,,,,,,,[],[],[],[],[],[],[],,,,,None,None,463.6578814,465.5442983,462.0865109,462.0865109,462.0865109,462.0865109,462.0865109,,,,,,,,,,,,,,,,,234,f,18,2023-03-21_10h54.02.254,RL,2022.2.4,60.16036347
0,0,33,0,,,,,,,,,,None,465.5442983,465.5442983,465.5442983,465.5442983,465.5442983,465.5442983,f,0.3879432,465.9603768,465.9603768,465.9603768,465.9603768,465.9603768,465.9603768,466.2590426,466.2590426,467.8548539,467.8548539,467.8713125,467.8713125,467.8713125,467.8713125,467.8713125,467.8713125,467.8713125,467.8713125,467.8713125,467.8713125,467.8713125,467.8713125,467.8713125,467.8713125,467.8713125,51,68,21,39,68,43,4,2.2935837,,,[],[],[],[],[],[],[],0.2,3,,,,,,,,,,,,[],[],[],[],[],[],[],,,,,None,None,472.6985698,474.5031202,470.3802805,470.3802805,470.3802805,470.3802805,470.3802805,,,,,,,,,,,,,,,,,234,f,18,2023-03-21_10h54.02.254,RL,2022.2.4,60.16036347
1,0,34,0,,,,,,,,,,None,474.5031202,474.5031202,474.5031202,474.5031202,474.5031202,474.5031202,f,0.2413718,474.7697063,474.7697063,474.7697063,474.7697063,474.7697063,474.7697063,475.0682386,475.0682386,476.1323986,476.1323986,476.1323986,476.1323986,476.1323986,476.1323986,476.1323986,476.1323986,476.1323986,476.1323986,476.1323986,476.1323986,476.1323986,476.1323986,476.1323986,476.1323986,476.1323986,43,69,19,41,69,30,None,None,70,70,[0.11851851851851852],[-0.2972222222222222],[1],[0],[0],[6.106966400009696],['tijiao'],0.2,0,,,,,,,,,,,,[],[],[],[],[],[],[],484.7711439,484.7711439,484.7711439,484.7711439,6.953703704,1.5803984,486.3701514,488.1493264,,,,,,478.6433939,478.6433939,478.6433939,478.6433939,478.6433939,478.6433939,478.6433939,478.6433939,0.0068896,478.6433939,,,,,,,234,f,18,2023-03-21_10h54.02.254,RL,2022.2.4,60.16036347
0,0,35,0,,,,,,,,,,None,488.1493264,488.1493264,488.1493264,488.1493264,488.1493264,488.1493264,f,0.2515742,488.4322649,488.4322649,488.4322649,488.4322649,488.4322649,488.4322649,488.731356,488.731356,490.3764643,490.3764643,490.3764643,490.3764643,490.3764643,490.3764643,490.3764643,490.3764643,490.3764643,490.3764643,490.3764643,490.3764643,490.3764643,490.3764643,490.3764643,490.3764643,490.3764643,45,72,22,42,72,35,6,2.8414461,,,[],[],[],[],[],[],[],0.6,3,,,,,,,,,,,,[],[],[],[],[],[],[],,,,,None,None,495.7516924,497.5736623,492.8859134,492.8859134,492.8859134,492.8859134,492.8859134,,,,,,,,,,,,,,,,,234,f,18,2023-03-21_10h54.02.254,RL,2022.2.4,60.16036347
1,0,36,0,,,,,,,,,,None,497.5736623,497.5736623,497.5736623,497.5736623,497.5736623,497.5736623,f,0.3942077,497.989455,497.989455,497.989455,497.989455,497.989455,497.989455,498.2886886,498.2886886,499.5018776,499.5018776,499.5018776,499.5018776,499.5018776,499.5018776,499.5018776,499.5018776,499.5018776,499.5018776,499.5018776,499.5018776,499.5018776,499.5018776,499.5018776,499.5018776,499.5018776,37,68,21,27,68,36,None,None,69,69,[0.13333333333333333],[-0.2657407407407407],[1],[0],[0],[4.9938877999957185],['tijiao'],-0.2,0,,,,,,,,,,,,[],[],[],[],[],[],[],507.0258158,507.0258158,507.0258158,507.0258158,8.12037037,1.6477811,508.6921528,510.4385139,,,,,,502.0118794,502.0118794,502.0118794,502.0118794,502.0118794,502.0118794,502.0118794,502.0118794,0.0054552,502.0118794,,,,,,,234,f,18,2023-03-21_10h54.02.254,RL,2022.2.4,60.16036347
0,0,37,0,,,,,,,,,,None,510.4385139,510.4385139,510.4385139,510.4385139,510.4385139,510.4385139,f,0.2978034,510.7546931,510.7546931,510.7546931,510.7546931,510.7546931,510.7546931,511.0537392,511.0537392,513.0482506,513.0482506,513.0482506,513.0482506,513.0482506,513.0482506,513.0482506,513.0482506,513.0482506,513.0482506,513.0482506,513.0482506,513.0482506,513.0482506,513.0482506,513.0482506,513.0482506,45,75,15,38,75,17,None,None,78,78,[0.03425925925925926],[-0.2824074074074074],[1],[0],[0],[4.709597299995949],['tijiao'],-0.6,0,,,,,,,,,,,,[],[],[],[],[],[],[],520.2892418,520.2892418,520.2892418,520.2892418,9,1.2822266,521.5902288,523.5361023,,,,,,515.5598415,515.5598415,515.5598415,515.5598415,515.5598415,515.5598415,515.5598415,515.5598415,0.0074793,515.5598415,,,,,,,234,f,18,2023-03-21_10h54.02.254,RL,2022.2.4,60.16036347
1,0,38,0,,,,,,,,,,None,523.5361023,523.5361023,523.5361023,523.5361023,523.5361023,523.5361023,f,0.177709,523.7356832,523.7356832,523.7356832,523.7356832,523.7356832,523.7356832,524.0348935,524.0348935,525.3810759,525.3810759,525.3810759,525.3810759,525.3810759,525.3810759,525.3810759,525.3810759,525.3810759,525.3810759,525.3810759,525.3810759,525.3810759,525.3810759,525.3810759,525.3810759,525.3810759,38,68,19,33,68,21,3,1.5779872,,,[],[],[],[],[],[],[],-0.6,3,,,,,,,,,,,,[],[],[],[],[],[],[],,,,,None,None,529.4939895,531.1153215,527.8901026,527.8901026,527.8901026,527.8901026,527.8901026,,,,,,,,,,,,,,,,,234,f,18,2023-03-21_10h54.02.254,RL,2022.2.4,60.16036347
0,0,39,0,,,,,,,,,,None,531.1153215,531.1153215,531.1153215,531.1153215,531.1153215,531.1153215,f,0.3113228,531.4481176,531.4481176,531.4481176,531.4481176,531.4481176,531.4481176,531.746922,531.746922,532.9769933,532.9769933,532.9769933,532.9769933,532.9769933,532.9769933,532.9769933,532.9769933,532.9769933,532.9769933,532.9769933,532.9769933,532.9769933,532.9769933,532.9769933,532.9769933,532.9769933,32,70,11,35,70,51,None,None,70,70,"[-0.05740740740740741, -0.02962962962962963]","[-0.22407407407407406, -0.30277777777777776]","[1, 1]","[0, 0]","[0, 0]","[3.9946486999979243, 5.208624399994733]",['tijiao'],0.6,0,,,,,,,,,,,,[],[],[],[],[],[],[],540.7177045,540.7177045,540.7177045,540.7177045,8.009259259,3.192867,543.9293673,545.7750334,,,,,,535.4887286,535.4887286,535.4887286,535.4887286,535.4887286,535.4887286,535.4887286,535.4887286,0.0069444,535.4887286,,,,,,,234,f,18,2023-03-21_10h54.02.254,RL,2022.2.4,60.16036347
1,0,40,0,,,,,,,,,,None,545.7750334,545.7750334,545.7750334,545.7750334,545.7750334,545.7750334,f,0.2577109,546.0585309,546.0585309,546.0585309,546.0585309,546.0585309,546.0585309,546.3574672,546.3574672,547.703605,547.703605,547.703605,547.703605,547.703605,547.703605,547.703605,547.703605,547.703605,547.703605,547.703605,547.703605,547.703605,547.703605,547.703605,547.703605,547.703605,41,76,14,32,76,51,4,2.8914494,,,[],[],[],[],[],[],[],-0.2,3,,,,,,,,,,,,[],[],[],[],[],[],[],,,,,None,None,553.1289894,555.1327975,550.2127419,550.2127419,550.2127419,550.2127419,550.2127419,,,,,,,,,,,,,,,,,234,f,18,2023-03-21_10h54.02.254,RL,2022.2.4,60.16036347
0,0,41,0,,,,,,,,,,None,555.1327975,555.1327975,555.1327975,555.1327975,555.1327975,555.1327975,f,0.3561034,555.5158466,555.5158466,555.5158466,555.5158466,555.5158466,555.5158466,555.8147465,555.8147465,557.3939871,557.3939871,557.3939871,557.3939871,557.3939871,557.3939871,557.3939871,557.3939871,557.3939871,557.3939871,557.3939871,557.3939871,557.3939871,557.3939871,557.3939871,557.3939871,557.3939871,33,85,17,32,85,56,None,None,,,[],[],[],[],[],[],[],0.2,1,559.9136601,559.9136601,559.9136601,559.9136601,559.9136601,559.9136601,559.9136601,559.9136601,0.005957,559.9136601,19,[0.05092592592592592],[-0.29814814814814816],[1],[0],[0],[5.6986590000014985],['tijiao_random_2'],565.6255727,565.6255727,565.6255727,565.6255727,8.064814815,2.0206332,567.6646349,569.4940561,,,,,,,,,,,,,,,,,,,,,,234,f,18,2023-03-21_10h54.02.254,RL,2022.2.4,60.16036347
1,0,42,0,,,,,,,,,,None,569.4940561,569.4940561,569.4940561,569.4940561,569.4940561,569.4940561,f,0.401141,569.9264965,569.9264965,569.9264965,569.9264965,569.9264965,569.9264965,570.2255903,570.2255903,572.0375484,572.0375484,572.0375484,572.0375484,572.0375484,572.0375484,572.0375484,572.0375484,572.0375484,572.0375484,572.0375484,572.0375484,572.0375484,572.0375484,572.0375484,572.0375484,572.0375484,35,81,20,44,81,60,6,2.5090592,,,[],[],[],[],[],[],[],0.6,2,,,,,,,,,,,,[],[],[],[],[],[],[],,,,,None,None,577.0821124,578.8684289,574.5464649,574.5464649,574.5464649,574.5464649,574.5464649,,,,,,,,,,,,,,,,,234,f,18,2023-03-21_10h54.02.254,RL,2022.2.4,60.16036347
0,0,43,0,,,,,,,,,,None,578.8684289,578.8684289,578.8684289,578.8684289,578.8684289,578.8684289,f,0.2679006,579.1678363,579.1678363,579.1678363,579.1678363,579.1678363,579.1678363,579.4671654,579.4671654,581.1954201,581.1954201,581.1954201,581.1954201,581.1954201,581.1954201,581.1954201,581.1954201,581.1954201,581.1954201,581.1954201,581.1954201,581.1954201,581.1954201,581.1954201,581.1954201,581.1954201,39,78,12,38,78,44,6,1.3445486,,,[],[],[],[],[],[],[],0.6,2,,,,,,,,,,,,[],[],[],[],[],[],[],,,,,None,None,585.0740768,586.647034,583.7048215,583.7048215,583.7048215,583.7048215,583.7048215,,,,,,,,,,,,,,,,,234,f,18,2023-03-21_10h54.02.254,RL,2022.2.4,60.16036347
1,0,44,0,,,,,,,,,,None,586.647034,586.647034,586.647034,586.647034,586.647034,586.647034,f,0.3725508,587.0462384,587.0462384,587.0462384,587.0462384,587.0462384,587.0462384,587.3455305,587.3455305,589.1738916,589.1738916,589.1738916,589.1738916,589.1738916,589.1738916,589.1738916,589.1738916,589.1738916,589.1738916,589.1738916,589.1738916,589.1738916,589.1738916,589.1738916,589.1738916,589.1738916,31,84,19,43,84,43,None,None,80,80,[-0.001851851851851852],[-0.3175925925925926],[1],[0],[0],[4.4287194999924395],['tijiao'],0.2,0,,,,,,,,,,,,[],[],[],[],[],[],[],596.1330446,596.1330446,596.1330446,596.1330446,8.083333333,3.0437834,599.1954828,601.0079847,,,,,,591.683963,591.683963,591.683963,591.683963,591.683963,591.683963,591.683963,591.683963,0.0061492,591.683963,,,,,,,234,f,18,2023-03-21_10h54.02.254,RL,2022.2.4,60.16036347
0,0,45,0,,,,,,,,,,None,601.0079847,601.0079847,601.0079847,601.0079847,601.0079847,601.0079847,f,0.6738844,601.7063705,601.7063705,601.7063705,601.7063705,601.7063705,601.7063705,602.0054881,602.0054881,603.7673258,603.7673258,603.7673258,603.7673258,603.7673258,603.7673258,603.7673258,603.7673258,603.7673258,603.7673258,603.7673258,603.7673258,603.7673258,603.7673258,603.7673258,603.7673258,603.7673258,40,85,12,34,85,57,None,None,,,[],[],[],[],[],[],[],-0.6,1,606.2846155,606.2846155,606.2846155,606.2846155,606.2846155,606.2846155,606.2846155,606.2846155,0.0055644,606.2846155,65,[0.06759259259259259],[-0.28425925925925927],[1],[0],[0],[8.327934800006915],['tijiao_random_2'],614.6248744,614.6248744,614.6248744,614.6248744,4.925925926,2.9685598,617.6118021,619.1252053,,,,,,,,,,,,,,,,,,,,,,234,f,18,2023-03-21_10h54.02.254,RL,2022.2.4,60.16036347
1,0,46,0,,,,,,,,,,None,619.1252053,619.1252053,619.1252053,619.1252053,619.1252053,619.1252053,f,0.4233351,619.574258,619.574258,619.574258,619.574258,619.574258,619.574258,619.8731235,619.8731235,621.6520328,621.6520328,621.6520328,621.6520328,621.6520328,621.6520328,621.6520328,621.6520328,621.6520328,621.6520328,621.6520328,621.6520328,621.6520328,621.6520328,621.6520328,621.6520328,621.6520328,45,88,19,41,88,45,6,2.2431096,,,[],[],[],[],[],[],[],0.2,2,,,,,,,,,,,,[],[],[],[],[],[],[],,,,,None,None,626.4316656,628.4163731,624.1609074,624.1609074,624.1609074,624.1609074,624.1609074,,,,,,,,,,,,,,,,,234,f,18,2023-03-21_10h54.02.254,RL,2022.2.4,60.16036347
0,0,47,0,,,,,,,,,,None,628.4163731,628.4163731,628.4163731,628.4163731,628.4163731,628.4163731,f,0.442412,628.8823849,628.8823849,628.8823849,628.8823849,628.8823849,628.8823849,629.1813393,629.1813393,630.311557,630.311557,630.311557,630.311557,630.311557,630.311557,630.311557,630.311557,630.311557,630.311557,630.311557,630.311557,630.311557,630.311557,630.311557,630.311557,630.311557,37,81,32,38,81,44,6,0.7802934,,,[],[],[],[],[],[],[],0.6,3,,,,,,,,,,,,[],[],[],[],[],[],[],,,,,None,None,633.6272799,635.4639455,632.8206357,632.8206357,632.8206357,632.8206357,632.8206357,,,,,,,,,,,,,,,,,234,f,18,2023-03-21_10h54.02.254,RL,2022.2.4,60.16036347
1,0,48,0,,,,,,,,,,None,635.4639455,635.4639455,635.4639455,635.4639455,635.4639455,635.4639455,f,0.4883991,635.980624,635.980624,635.980624,635.980624,635.980624,635.980624,636.2783639,636.2783639,638.2065052,638.2065052,638.2065052,638.2065052,638.2065052,638.2065052,638.2065052,638.2065052,638.2065052,638.2065052,638.2065052,638.2065052,638.2065052,638.2065052,638.2065052,638.2065052,638.2065052,42,75,30,37,75,33,None,None,,,[],[],[],[],[],[],[],-0.2,1,640.7238173,640.7238173,640.7238173,640.7238173,640.7238173,640.7238173,640.7238173,640.7238173,0.0059185,640.7238173,78,[0.046296296296296294],[-0.287962962962963],[1],[0],[0],[4.98689220000233],['tijiao_random_2'],645.7254772,645.7254772,645.7254772,645.7254772,8.074074074,1.753325,647.4967572,649.2928737,,,,,,,,,,,,,,,,,,,,,,234,f,18,2023-03-21_10h54.02.254,RL,2022.2.4,60.16036347
0,0,49,0,,,,,,,,,,None,649.2928737,649.2928737,649.2928737,649.2928737,649.2928737,649.2928737,f,0.2409563,649.559349,649.559349,649.559349,649.559349,649.559349,649.559349,649.8583554,649.8583554,651.736499,651.736499,651.736499,651.736499,651.736499,651.736499,651.736499,651.736499,651.736499,651.736499,651.736499,651.736499,651.736499,651.736499,651.736499,651.736499,651.736499,34,77,18,46,77,59,None,None,74,74,[-0.06018518518518518],[-0.27685185185185185],[1],[0],[0],[5.873591299998225],['tijiao'],-0.6,0,,,,,,,,,,,,[],[],[],[],[],[],[],660.1442119,660.1442119,660.1442119,660.1442119,9.185185185,1.6115109,661.7746319,663.3545334,,,,,,654.2485367,654.2485367,654.2485367,654.2485367,654.2485367,654.2485367,654.2485367,654.2485367,0.0072239,654.2485367,,,,,,,234,f,18,2023-03-21_10h54.02.254,RL,2022.2.4,60.16036347
1,0,50,0,,,,,,,,,,None,663.3545334,663.3545334,663.3545334,663.3545334,663.3545334,663.3545334,f,0.2397553,663.6208758,663.6208758,663.6208758,663.6208758,663.6208758,663.6208758,663.919943,663.919943,665.1328649,665.1328649,665.1328649,665.1328649,665.1328649,665.1328649,665.1328649,665.1328649,665.1328649,665.1328649,665.1328649,665.1328649,665.1328649,665.1328649,665.1328649,665.1328649,665.1328649,42,78,27,50,78,63,5,2.2764057,,,[],[],[],[],[],[],[],0.6,2,,,,,,,,,,,,[],[],[],[],[],[],[],,,,,None,None,669.9432017,671.881272,667.6423553,667.6423553,667.6423553,667.6423553,667.6423553,,,,,,,,,,,,,,,,,234,f,18,2023-03-21_10h54.02.254,RL,2022.2.4,60.16036347
0,0,51,0,,,,,,,,,,None,671.881272,671.881272,671.881272,671.881272,671.881272,671.881272,f,1.0280177,672.928837,672.928837,672.928837,672.928837,672.928837,672.928837,673.2274921,673.2274921,674.9396075,674.9396075,674.9560854,674.9560854,674.9560854,674.9560854,674.9560854,674.9560854,674.9560854,674.9560854,674.9560854,674.9560854,674.9560854,674.9560854,674.9560854,674.9560854,674.9560854,40,72,27,46,72,60,None,None,70,70,"[0.028703703703703703, 0.04259259259259259]","[-0.35185185185185186, -0.2574074074074074]","[1, 1]","[0, 0]","[0, 0]","[5.359783800013247, 5.975044700011495]",['tijiao'],0.2,0,,,,,,,,,,,,[],[],[],[],[],[],[],683.4614249,683.4614249,683.4614249,683.4614249,7.027777778,2.2623997,685.7423371,687.4887865,,,,,,677.4664348,677.4664348,677.4664348,677.4664348,677.4664348,677.4664348,677.4664348,677.4664348,0.0054731,677.4664348,,,,,,,234,f,18,2023-03-21_10h54.02.254,RL,2022.2.4,60.16036347
1,0,52,0,,,,,,,,,,None,687.4887865,687.4887865,687.4887865,687.4887865,687.4887865,687.4887865,f,0.2209106,687.7386497,687.7386497,687.7386497,687.7386497,687.7386497,687.7386497,688.0370715,688.0370715,689.1010739,689.1010739,689.1010739,689.1010739,689.1010739,689.1010739,689.1010739,689.1010739,689.1010739,689.1010739,689.1010739,689.1010739,689.1010739,689.1010739,689.1010739,689.1010739,689.1010739,40,66,25,49,66,67,None,None,,,[],[],[],[],[],[],[],-0.6,1,691.6176105,691.6176105,691.6176105,691.6176105,691.6176105,691.6176105,691.6176105,691.6176105,0.0056289,691.6176105,70,[-0.007407407407407408],[-0.28888888888888886],[1],[0],[0],[6.748788600001717],['tijiao_random_2'],698.3792091,698.3792091,698.3792091,698.3792091,4.166666667,2.171025,700.5685433,702.1648541,,,,,,,,,,,,,,,,,,,,,,234,f,18,2023-03-21_10h54.02.254,RL,2022.2.4,60.16036347
0,0,53,0,,,,,,,,,,None,702.1648541,702.1648541,702.1648541,702.1648541,702.1648541,702.1648541,r,0.2291019,702.4147672,702.4147672,702.4147672,702.4147672,702.4147672,702.4147672,702.7140961,702.7140961,704.4588738,704.4588738,704.4588738,704.4588738,704.4588738,704.4588738,704.4588738,704.4588738,704.4588738,704.4588738,704.4588738,704.4588738,704.4588738,704.4588738,704.4588738,704.4588738,704.4588738,31,62,22,49,31,56,None,None,30,30,"[-0.07685185185185185, -0.003703703703703704]","[-0.35648148148148145, -0.2759259259259259]","[1, 1]","[0, 0]","[0, 0]","[5.29348450001271, 5.958173999999417]",['tijiao'],0.6,0,,,,,,,,,,,,[],[],[],[],[],[],[],712.9472209,712.9472209,712.9472209,712.9472209,7.861111111,1.7970687,714.7632062,716.6756405,,,,,,706.9695004,706.9695004,706.9695004,706.9695004,706.9695004,706.9695004,706.9695004,706.9695004,0.0050609,706.9695004,,,,,,,234,f,18,2023-03-21_10h54.02.254,RL,2022.2.4,60.16036347
1,0,54,0,,,,,,,,,,None,716.6756405,716.6756405,716.6756405,716.6756405,716.6756405,716.6756405,f,0.2782015,716.9754804,716.9754804,716.9754804,716.9754804,716.9754804,716.9754804,717.2742714,717.2742714,718.3380433,718.3380433,718.3380433,718.3380433,718.3380433,718.3380433,718.3380433,718.3380433,718.3380433,718.3380433,718.3380433,718.3380433,718.3380433,718.3380433,718.3380433,718.3380433,718.3380433,50,56,37,45,56,57,None,None,50,50,[0.0962962962962963],[-0.25555555555555554],[1],[0],[0],[6.073006799997529],['tijiao'],0.2,0,,,,,,,,,,,,[],[],[],[],[],[],[],726.9436528,726.9436528,726.9436528,726.9436528,5.925925926,3.1593256,730.1211925,731.8842335,,,,,,720.848815,720.848815,720.848815,720.848815,720.848815,720.848815,720.848815,720.848815,0.0067269,720.848815,,,,,,,234,f,18,2023-03-21_10h54.02.254,RL,2022.2.4,60.16036347
0,0,55,0,,,,,,,,,,None,731.8842335,731.8842335,731.8842335,731.8842335,731.8842335,731.8842335,j,0.2927104,732.2002747,732.2002747,732.2002747,732.2002747,732.2002747,732.2002747,732.4991109,732.4991109,733.9453142,733.9453142,733.9453142,733.9453142,733.9453142,733.9453142,733.9453142,733.9453142,733.9453142,733.9453142,733.9453142,733.9453142,733.9453142,733.9453142,733.9453142,733.9453142,733.9453142,48,65,32,44,44,62,None,None,,,[],[],[],[],[],[],[],-0.6,1,736.4624139,736.4624139,736.4624139,736.4624139,736.4624139,736.4624139,736.4624139,736.4624139,0.0057829,736.4624139,30,[0.020370370370370372],[-0.27685185185185185],[1],[0],[0],[3.5076793000043835],['tijiao_random_2'],739.9824964,739.9824964,739.9824964,739.9824964,7.083333333,1.6054415,741.6066203,743.1533779,,,,,,,,,,,,,,,,,,,,,,234,f,18,2023-03-21_10h54.02.254,RL,2022.2.4,60.16036347
1,0,56,0,,,,,,,,,,None,743.1533779,743.1533779,743.1533779,743.1533779,743.1533779,743.1533779,f,0.2625294,743.4366424,743.4366424,743.4366424,743.4366424,743.4366424,743.4366424,743.7353124,743.7353124,745.7301058,745.7301058,745.7301058,745.7301058,745.7301058,745.7301058,745.7301058,745.7301058,745.7301058,745.7301058,745.7301058,745.7301058,745.7301058,745.7301058,745.7301058,745.7301058,745.7301058,55,61,38,51,61,47,None,None,,,[],[],[],[],[],[],[],-0.6,1,748.2470443,748.2470443,748.2470443,748.2470443,748.2470443,748.2470443,748.2470443,748.2470443,0.00549,748.2470443,35,[-0.009259259259259259],[-0.26666666666666666],[1],[0],[0],[5.219547900007456],['tijiao_random_2'],753.4790394,753.4790394,753.4790394,753.4790394,4.185185185,1.7881139,755.2858757,757.2815087,,,,,,,,,,,,,,,,,,,,,,234,f,18,2023-03-21_10h54.02.254,RL,2022.2.4,60.16036347
0,0,57,0,,,,,,,,,,None,757.2815087,757.2815087,757.2815087,757.2815087,757.2815087,757.2815087,f,0.3007889,757.614662,757.614662,757.614662,757.614662,757.614662,757.614662,757.9133909,757.9133909,759.5255008,759.5255008,759.5255008,759.5255008,759.5255008,759.5255008,759.5255008,759.5255008,759.5255008,759.5255008,759.5255008,759.5255008,759.5255008,759.5255008,759.5255008,759.5255008,759.5255008,53,67,40,50,67,53,5,1.8111247,,,[],[],[],[],[],[],[],-0.6,3,,,,,,,,,,,,[],[],[],[],[],[],[],,,,,None,None,763.8700804,765.5424708,762.0346217,762.0346217,762.0346217,762.0346217,762.0346217,,,,,,,,,,,,,,,,,234,f,18,2023-03-21_10h54.02.254,RL,2022.2.4,60.16036347
1,0,58,0,,,,,,,,,,None,765.5424708,765.5424708,765.5424708,765.5424708,765.5424708,765.5424708,f,0.300655,765.8750468,765.8750468,765.8750468,765.8750468,765.8750468,765.8750468,766.1742668,766.1742668,767.8358347,767.8358347,767.8358347,767.8358347,767.8358347,767.8358347,767.8358347,767.8358347,767.8358347,767.8358347,767.8358347,767.8358347,767.8358347,767.8358347,767.8358347,767.8358347,767.8358347,46,58,41,48,58,47,3,1.9444465,,,[],[],[],[],[],[],[],-0.2,3,,,,,,,,,,,,[],[],[],[],[],[],[],,,,,None,None,772.3157672,774.2021229,770.3451501,770.3451501,770.3451501,770.3451501,770.3451501,,,,,,,,,,,,,,,,,234,f,18,2023-03-21_10h54.02.254,RL,2022.2.4,60.16036347
0,0,59,0,,,,,,,,,,None,774.2021229,774.2021229,774.2021229,774.2021229,774.2021229,774.2021229,f,0.2786705,774.5017047,774.5017047,774.5017047,774.5017047,774.5017047,774.5017047,774.8007763,774.8007763,775.6484474,775.6484474,775.6484474,775.6484474,775.6484474,775.6484474,775.6484474,775.6484474,775.6484474,775.6484474,775.6484474,775.6484474,775.6484474,775.6484474,775.6484474,775.6484474,775.6484474,54,58,35,51,58,51,None,None,,,[],[],[],[],[],[],[],-0.6,1,778.1646004,778.1646004,778.1646004,778.1646004,778.1646004,778.1646004,778.1646004,778.1646004,0.0053964,778.1646004,25,[-0.028703703703703703],[-0.3037037037037037],[1],[0],[0],[6.598933500004932],['tijiao_random_2'],784.7767501,784.7767501,784.7767501,784.7767501,5.037037037,2.3205858,787.1157446,789.094448,,,,,,,,,,,,,,,,,,,,,,234,f,18,2023-03-21_10h54.02.254,RL,2022.2.4,60.16036347
1,0,60,0,,,,,,,,,,None,789.094448,789.094448,789.094448,789.094448,789.094448,789.094448,i,0.2300751,789.3469342,789.3469342,789.3469342,789.3469342,789.3469342,789.3469342,789.6431699,789.6431699,790.4745124,790.4745124,790.4745124,790.4745124,790.4745124,790.4745124,790.4745124,790.4745124,790.4745124,790.4745124,790.4745124,790.4745124,790.4745124,790.4745124,790.4745124,790.4745124,790.4745124,48,64,35,62,35,61,None,None,20,20,[0.06018518518518518],[-0.28703703703703703],[1],[0],[0],[4.876221700003953],['tijiao'],0.6,0,,,,,,,,,,,,[],[],[],[],[],[],[],797.8817699,797.8817699,797.8817699,797.8817699,4.962962963,2.0638366,799.9643799,801.8767045,,,,,,792.9857497,792.9857497,792.9857497,792.9857497,792.9857497,792.9857497,792.9857497,792.9857497,0.0071284,792.9857497,,,,,,,234,f,18,2023-03-21_10h54.02.254,RL,2022.2.4,60.16036347
0,0,61,0,,,,,,,,,,None,801.8767045,801.8767045,801.8767045,801.8767045,801.8767045,801.8767045,f,0.2542188,802.1612947,802.1612947,802.1612947,802.1612947,802.1612947,802.1612947,802.4585661,802.4585661,804.3365525,804.3365525,804.3533312,804.3533312,804.3533312,804.3533312,804.3533312,804.3533312,804.3533312,804.3533312,804.3533312,804.3533312,804.3533312,804.3533312,804.3533312,804.3533312,804.3533312,46,64,29,62,64,66,None,None,,,[],[],[],[],[],[],[],0.2,1,806.872463,806.872463,806.872463,806.872463,806.872463,806.872463,806.872463,806.872463,0.005625,806.872463,30,[-0.0712962962962963],[-0.27685185185185185],[1],[0],[0],[6.147348099999363],['tijiao_random_2'],813.0350456,813.0350456,813.0350456,813.0350456,8.212962963,1.2054551,814.2583253,816.2207324,,,,,,,,,,,,,,,,,,,,,,234,f,18,2023-03-21_10h54.02.254,RL,2022.2.4,60.16036347
1,0,62,0,,,,,,,,,,None,816.2207324,816.2207324,816.2207324,816.2207324,816.2207324,816.2207324,f,0.2117399,816.4538951,816.4538951,816.4538951,816.4538951,816.4538951,816.4538951,816.7528309,816.7528309,818.6310239,818.6310239,818.6310239,818.6310239,818.6310239,818.6310239,818.6310239,818.6310239,818.6310239,818.6310239,818.6310239,818.6310239,818.6310239,818.6310239,818.6310239,818.6310239,818.6310239,51,61,35,58,61,56,2,1.4624846,,,[],[],[],[],[],[],[],0.2,2,,,,,,,,,,,,[],[],[],[],[],[],[],,,,,None,None,822.6268991,824.2151431,821.1400904,821.1400904,821.1400904,821.1400904,821.1400904,,,,,,,,,,,,,,,,,234,f,18,2023-03-21_10h54.02.254,RL,2022.2.4,60.16036347
0,0,63,0,,,,,,,,,,None,824.2151431,824.2151431,824.2151431,824.2151431,824.2151431,824.2151431,f,0.6072719,824.8477913,824.8477913,824.8477913,824.8477913,824.8477913,824.8477913,825.1466516,825.1466516,826.5428487,826.5428487,826.5428487,826.5428487,826.5428487,826.5428487,826.5428487,826.5428487,826.5428487,826.5428487,826.5428487,826.5428487,826.5428487,826.5428487,826.5428487,826.5428487,826.5428487,48,58,36,55,58,69,1,0.8802741,,,[],[],[],[],[],[],[],-0.2,3,,,,,,,,,,,,[],[],[],[],[],[],[],,,,,None,None,829.9589363,831.6450164,829.0518681,829.0518681,829.0518681,829.0518681,829.0518681,,,,,,,,,,,,,,,,,234,f,18,2023-03-21_10h54.02.254,RL,2022.2.4,60.16036347
1,0,64,0,,,,,,,,,,None,831.6450164,831.6450164,831.6450164,831.6450164,831.6450164,831.6450164,r,0.3146079,831.9784468,831.9784468,831.9784468,831.9784468,831.9784468,831.9784468,832.277049,832.277049,834.0059023,834.0059023,834.0059023,834.0059023,834.0059023,834.0059023,834.0059023,834.0059023,834.0059023,834.0059023,834.0059023,834.0059023,834.0059023,834.0059023,834.0059023,834.0059023,834.0059023,52,61,37,62,52,34,3,1.7947783,,,[],[],[],[],[],[],[],0.6,2,,,,,,,,,,,,[],[],[],[],[],[],[],,,,,None,None,838.3345721,839.9390214,836.5147806,836.5147806,836.5147806,836.5147806,836.5147806,,,,,,,,,,,,,,,,,234,f,18,2023-03-21_10h54.02.254,RL,2022.2.4,60.16036347
0,0,65,0,,,,,,,,,,None,839.9390214,839.9390214,839.9390214,839.9390214,839.9390214,839.9390214,r,0.4523843,840.4218948,840.4218948,840.4218948,840.4218948,840.4218948,840.4218948,840.7209356,840.7209356,841.6517619,841.6517619,841.6517619,841.6517619,841.6517619,841.6517619,841.6517619,841.6517619,841.6517619,841.6517619,841.6517619,841.6517619,841.6517619,841.6517619,841.6517619,841.6517619,841.6517619,56,60,39,54,56,50,None,None,55,55,[-0.044444444444444446],[-0.31203703703703706],[1],[0],[0],[4.279613999999128],['tijiao'],-0.6,0,,,,,,,,,,,,[],[],[],[],[],[],[],848.460626,848.460626,848.460626,848.460626,8.074074074,1.8315836,850.310083,852.022599,,,,,,844.161647,844.161647,844.161647,844.161647,844.161647,844.161647,844.161647,844.161647,0.0052364,844.161647,,,,,,,234,f,18,2023-03-21_10h54.02.254,RL,2022.2.4,60.16036347
1,0,66,0,,,,,,,,,,None,852.022599,852.022599,852.022599,852.022599,852.022599,852.022599,r,0.3212971,852.3744111,852.3744111,852.3744111,852.3744111,852.3744111,852.3744111,852.6713955,852.6713955,854.0007776,854.0007776,854.0007776,854.0007776,854.0007776,854.0007776,854.0007776,854.0007776,854.0007776,854.0007776,854.0007776,854.0007776,854.0007776,854.0007776,854.0007776,854.0007776,854.0007776,53,55,36,48,53,56,None,None,,,[],[],[],[],[],[],[],0.2,1,856.5178105,856.5178105,856.5178105,856.5178105,856.5178105,856.5178105,856.5178105,856.5178105,0.0054017,856.5178105,30,[0.11944444444444445],[-0.28055555555555556],[1],[0],[0],[8.427808599997661],['tijiao_random_2'],864.958223,864.958223,864.958223,864.958223,4.962962963,2.2210307,867.1974373,869.1595354,,,,,,,,,,,,,,,,,,,,,,234,f,18,2023-03-21_10h54.02.254,RL,2022.2.4,60.16036347
0,0,67,0,,,,,,,,,,None,869.1595354,869.1595354,869.1595354,869.1595354,869.1595354,869.1595354,f,0.3128873,869.4925782,869.4925782,869.4925782,869.4925782,869.4925782,869.4925782,869.7912027,869.7912027,871.3206411,871.3206411,871.3206411,871.3206411,871.3206411,871.3206411,871.3206411,871.3206411,871.3206411,871.3206411,871.3206411,871.3206411,871.3206411,871.3206411,871.3206411,871.3206411,871.3206411,54,57,34,51,57,52,2,1.9102002,,,[],[],[],[],[],[],[],0.6,2,,,,,,,,,,,,[],[],[],[],[],[],[],,,,,None,None,875.7670594,877.5202343,873.8297408,873.8297408,873.8297408,873.8297408,873.8297408,,,,,,,,,,,,,,,,,234,f,18,2023-03-21_10h54.02.254,RL,2022.2.4,60.16036347
1,0,68,0,,,,,,,,,,None,877.5202343,877.5202343,877.5202343,877.5202343,877.5202343,877.5202343,j,0.3469409,877.8861974,877.8861974,877.8861974,877.8861974,877.8861974,877.8861974,878.1851102,878.1851102,879.7972283,879.7972283,879.7972283,879.7972283,879.7972283,879.7972283,879.7972283,879.7972283,879.7972283,879.7972283,879.7972283,879.7972283,879.7972283,879.7972283,879.7972283,879.7972283,879.7972283,51,54,42,49,49,45,None,None,,,[],[],[],[],[],[],[],-0.2,1,882.3164962,882.3164962,882.3164962,882.3164962,882.3164962,882.3164962,882.3164962,882.3164962,0.0050696,882.3164962,58,[-0.021296296296296296],[-0.2814814814814815],[1],[0],[0],[5.2676617999968585],['tijiao_random_2'],887.5985458,887.5985458,887.5985458,887.5985458,8.074074074,1.8874881,889.5029795,891.4486943,,,,,,,,,,,,,,,,,,,,,,234,f,18,2023-03-21_10h54.02.254,RL,2022.2.4,60.16036347
0,0,69,0,,,,,,,,,,None,891.4486943,891.4486943,891.4486943,891.4486943,891.4486943,891.4486943,f,0.3146384,891.78166,891.78166,891.78166,891.78166,891.78166,891.78166,892.0807562,892.0807562,893.6429367,893.6429367,893.6429367,893.6429367,893.6429367,893.6429367,893.6429367,893.6429367,893.6429367,893.6429367,893.6429367,893.6429367,893.6429367,893.6429367,893.6429367,893.6429367,893.6429367,56,45,51,50,45,64,1,1.761209,,,[],[],[],[],[],[],[],0.2,3,,,,,,,,,,,,[],[],[],[],[],[],[],,,,,None,None,897.9399645,899.6431129,896.1518779,896.1518779,896.1518779,896.1518779,896.1518779,,,,,,,,,,,,,,,,,234,f,18,2023-03-21_10h54.02.254,RL,2022.2.4,60.16036347
1,0,70,0,,,,,,,,,,None,899.6431129,899.6431129,899.6431129,899.6431129,899.6431129,899.6431129,i,0.7575329,900.4248443,900.4248443,900.4248443,900.4248443,900.4248443,900.4248443,900.7234722,900.7234722,902.0033995,902.0033995,902.0200696,902.0200696,902.0200696,902.0200696,902.0200696,902.0200696,902.0200696,902.0200696,902.0200696,902.0200696,902.0200696,902.0200696,902.0200696,902.0200696,902.0200696,49,47,48,51,48,61,None,None,45,45,[-0.08981481481481482],[-0.2657407407407407],[1],[0],[0],[6.040780700001051],['tijiao'],0.2,0,,,,,,,,,,,,[],[],[],[],[],[],[],910.5905715,910.5905715,910.5905715,910.5905715,7.12962963,2.1970729,912.8065389,914.3861334,,,,,,904.5304733,904.5304733,904.5304733,904.5304733,904.5304733,904.5304733,904.5304733,904.5304733,0.0060034,904.5304733,,,,,,,234,f,18,2023-03-21_10h54.02.254,RL,2022.2.4,60.16036347
0,0,71,0,,,,,,,,,,None,914.3861334,914.3861334,914.3861334,914.3861334,914.3861334,914.3861334,f,0.2543331,914.669036,914.669036,914.669036,914.669036,914.669036,914.669036,914.9682222,914.9682222,916.1481033,916.1481033,916.1481033,916.1481033,916.1481033,916.1481033,916.1481033,916.1481033,916.1481033,916.1481033,916.1481033,916.1481033,916.1481033,916.1481033,916.1481033,916.1481033,916.1481033,59,49,44,55,49,64,None,None,45,45,[0.06388888888888888],[-0.27870370370370373],[1],[0],[0],[4.21312260000559],['tijiao'],-0.2,0,,,,,,,,,,,,[],[],[],[],[],[],[],922.8926642,922.8926642,922.8926642,922.8926642,7.027777778,2.3276207,925.238918,926.8849465,,,,,,918.6585494,918.6585494,918.6585494,918.6585494,918.6585494,918.6585494,918.6585494,918.6585494,0.0052468,918.6585494,,,,,,,234,f,18,2023-03-21_10h54.02.254,RL,2022.2.4,60.16036347
1,0,72,0,,,,,,,,,,None,926.8849465,926.8849465,926.8849465,926.8849465,926.8849465,926.8849465,j,0.2481625,927.1518189,927.1518189,927.1518189,927.1518189,927.1518189,927.1518189,927.4507985,927.4507985,929.1960977,929.1960977,929.1960977,929.1960977,929.1960977,929.1960977,929.1960977,929.1960977,929.1960977,929.1960977,929.1960977,929.1960977,929.1960977,929.1960977,929.1960977,929.1960977,929.1960977,53,50,37,56,56,71,2,2.4928166,,,[],[],[],[],[],[],[],-0.2,3,,,,,,,,,,,,[],[],[],[],[],[],[],,,,,None,None,934.223404,935.893997,931.7052052,931.7052052,931.7052052,931.7052052,931.7052052,,,,,,,,,,,,,,,,,234,f,18,2023-03-21_10h54.02.254,RL,2022.2.4,60.16036347
0,0,73,0,,,,,,,,,,None,935.893997,935.893997,935.893997,935.893997,935.893997,935.893997,i,0.5957012,936.509584,936.509584,936.509584,936.509584,936.509584,936.509584,936.8081135,936.8081135,937.955282,937.955282,937.955282,937.955282,937.955282,937.955282,937.955282,937.955282,937.955282,937.955282,937.955282,937.955282,937.955282,937.955282,937.955282,937.955282,937.955282,49,45,47,57,47,59,2,1.7940225,,,[],[],[],[],[],[],[],-0.2,3,,,,,,,,,,,,[],[],[],[],[],[],[],,,,,None,None,942.283192,943.9223223,940.4645597,940.4645597,940.4645597,940.4645597,940.4645597,,,,,,,,,,,,,,,,,234,f,18,2023-03-21_10h54.02.254,RL,2022.2.4,60.16036347
1,0,74,0,,,,,,,,,,None,943.9223223,943.9223223,943.9223223,943.9223223,943.9223223,943.9223223,r,0.3242506,944.2717921,944.2717921,944.2717921,944.2717921,944.2717921,944.2717921,944.5706892,944.5706892,946.1165532,946.1165532,946.1165532,946.1165532,946.1165532,946.1165532,946.1165532,946.1165532,946.1165532,946.1165532,946.1165532,946.1165532,946.1165532,946.1165532,946.1165532,946.1165532,946.1165532,53,42,62,57,53,59,2,1.5117087,,,[],[],[],[],[],[],[],0.6,2,,,,,,,,,,,,[],[],[],[],[],[],[],,,,,None,None,950.1624984,951.9833256,948.625629,948.625629,948.625629,948.625629,948.625629,,,,,,,,,,,,,,,,,234,f,18,2023-03-21_10h54.02.254,RL,2022.2.4,60.16036347
0,0,75,0,,,,,,,,,,q,991.2109604,991.2109604,991.2109604,991.2109604,991.2109604,991.2109604,f,0.8031294,992.043792,992.043792,992.043792,992.043792,992.043792,992.043792,992.340377,992.340377,993.686512,993.686512,993.686512,993.686512,993.686512,993.686512,993.686512,993.686512,993.686512,993.686512,993.686512,993.686512,993.686512,993.686512,993.686512,993.686512,993.686512,45,46,61,53,46,39,4,1.8939108,,,[],[],[],[],[],[],[],0.2,2,,,,,,,,,,,,[],[],[],[],[],[],[],,,,,None,None,998.1139316,1000.085638,996.1955438,996.1955438,996.1955438,996.1955438,996.1955438,,,,,,,,,,,951.9833256,951.9833256,39.2062852,,,,234,f,18,2023-03-21_10h54.02.254,RL,2022.2.4,60.16036347
1,0,76,0,,,,,,,,,,None,1000.085638,1000.085638,1000.085638,1000.085638,1000.085638,1000.085638,j,0.2305224,1000.337378,1000.337378,1000.337378,1000.337378,1000.337378,1000.337378,1000.634305,1000.634305,1002.362591,1002.362591,1002.362591,1002.362591,1002.362591,1002.362591,1002.362591,1002.362591,1002.362591,1002.362591,1002.362591,1002.362591,1002.362591,1002.362591,1002.362591,1002.362591,1002.362591,49,42,60,59,59,52,4,1.8776094,,,[],[],[],[],[],[],[],0.6,2,,,,,,,,,,,,[],[],[],[],[],[],[],,,,,None,None,1006.776423,1008.645703,1004.872176,1004.872176,1004.872176,1004.872176,1004.872176,,,,,,,,,,,,,,,,,234,f,18,2023-03-21_10h54.02.254,RL,2022.2.4,60.16036347
0,0,77,0,,,,,,,,,,None,1008.645703,1008.645703,1008.645703,1008.645703,1008.645703,1008.645703,f,0.246578,1008.913565,1008.913565,1008.913565,1008.913565,1008.913565,1008.913565,1009.210871,1009.210871,1010.291461,1010.291461,1010.291461,1010.291461,1010.291461,1010.291461,1010.291461,1010.291461,1010.291461,1010.291461,1010.291461,1010.291461,1010.291461,1010.291461,1010.291461,1010.291461,1010.291461,51,44,66,59,44,56,2,2.1769676,,,[],[],[],[],[],[],[],-0.2,3,,,,,,,,,,,,[],[],[],[],[],[],[],,,,,None,None,1015.001871,1016.889456,1012.800125,1012.800125,1012.800125,1012.800125,1012.800125,,,,,,,,,,,,,,,,,234,f,18,2023-03-21_10h54.02.254,RL,2022.2.4,60.16036347
1,0,78,0,,,,,,,,,,None,1016.889456,1016.889456,1016.889456,1016.889456,1016.889456,1016.889456,r,0.2788144,1017.189579,1017.189579,1017.189579,1017.189579,1017.189579,1017.189579,1017.488154,1017.488154,1018.651834,1018.651834,1018.651834,1018.651834,1018.651834,1018.651834,1018.651834,1018.651834,1018.651834,1018.651834,1018.651834,1018.651834,1018.651834,1018.651834,1018.651834,1018.651834,1018.651834,46,39,62,51,46,45,None,None,45,45,[0.025925925925925925],[-0.2796296296296296],[1],[0],[0],[6.441219200001797],['tijiao'],0.6,0,,,,,,,,,,,,[],[],[],[],[],[],[],1027.622091,1027.622091,1027.622091,1027.622091,8.805555556,2.5115369,1030.152525,1032.098345,,,,,,1021.162209,1021.162209,1021.162209,1021.162209,1021.162209,1021.162209,1021.162209,1021.162209,0.005056,1021.162209,,,,,,,234,f,18,2023-03-21_10h54.02.254,RL,2022.2.4,60.16036347
0,0,79,0,,,,,,,,,,None,1032.098345,1032.098345,1032.098345,1032.098345,1032.098345,1032.098345,i,0.2993861,1032.431219,1032.431219,1032.431219,1032.431219,1032.431219,1032.431219,1032.730028,1032.730028,1033.610839,1033.610839,1033.610839,1033.610839,1033.610839,1033.610839,1033.610839,1033.610839,1033.610839,1033.610839,1033.610839,1033.610839,1033.610839,1033.610839,1033.610839,1033.610839,1033.610839,49,44,64,56,64,33,None,None,60,60,[0.041666666666666664],[-0.3314814814814815],[1],[0],[0],[4.9604735000029905],['tijiao'],0.2,0,,,,,,,,,,,,[],[],[],[],[],[],[],1041.105242,1041.105242,1041.105242,1041.105242,8.203703704,1.4464388,1042.56877,1044.131798,,,,,,1036.122404,1036.122404,1036.122404,1036.122404,1036.122404,1036.122404,1036.122404,1036.122404,0.0070001,1036.122404,,,,,,,234,f,18,2023-03-21_10h54.02.254,RL,2022.2.4,60.16036347
1,0,80,0,,,,,,,,,,None,1044.131798,1044.131798,1044.131798,1044.131798,1044.131798,1044.131798,i,0.3190884,1044.481409,1044.481409,1044.481409,1044.481409,1044.481409,1044.481409,1044.780274,1044.780274,1046.775174,1046.775174,1046.775174,1046.775174,1046.775174,1046.775174,1046.775174,1046.775174,1046.775174,1046.775174,1046.775174,1046.775174,1046.775174,1046.775174,1046.775174,1046.775174,1046.775174,54,50,66,54,66,33,5,2.7584432,,,[],[],[],[],[],[],[],-0.2,3,,,,,,,,,,,,[],[],[],[],[],[],[],,,,,None,None,1052.068925,1053.971927,1049.283763,1049.283763,1049.283763,1049.283763,1049.283763,,,,,,,,,,,,,,,,,234,f,18,2023-03-21_10h54.02.254,RL,2022.2.4,60.16036347
0,0,81,0,,,,,,,,,,None,1053.971927,1053.971927,1053.971927,1053.971927,1053.971927,1053.971927,i,0.2553804,1054.254933,1054.254933,1054.254933,1054.254933,1054.254933,1054.254933,1054.553969,1054.553969,1055.368355,1055.368355,1055.385021,1055.385021,1055.385021,1055.385021,1055.385021,1055.385021,1055.385021,1055.385021,1055.385021,1055.385021,1055.385021,1055.385021,1055.385021,1055.385021,1055.385021,49,51,63,63,63,34,5,3.0407461,,,[],[],[],[],[],[],[],0.6,2,,,,,,,,,,,,[],[],[],[],[],[],[],,,,,None,None,1060.961414,1062.631599,1057.893968,1057.893968,1057.893968,1057.893968,1057.893968,,,,,,,,,,,,,,,,,234,f,18,2023-03-21_10h54.02.254,RL,2022.2.4,60.16036347
1,0,82,0,,,,,,,,,,None,1062.631599,1062.631599,1062.631599,1062.631599,1062.631599,1062.631599,i,0.2654479,1062.914841,1062.914841,1062.914841,1062.914841,1062.914841,1062.914841,1063.213699,1063.213699,1065.174932,1065.174932,1065.174932,1065.174932,1065.174932,1065.174932,1065.174932,1065.174932,1065.174932,1065.174932,1065.174932,1065.174932,1065.174932,1065.174932,1065.174932,1065.174932,1065.174932,47,55,62,51,62,44,6,2.0771806,,,[],[],[],[],[],[],[],0.6,2,,,,,,,,,,,,[],[],[],[],[],[],[],,,,,None,None,1069.78457,1071.590431,1067.684159,1067.684159,1067.684159,1067.684159,1067.684159,,,,,,,,,,,,,,,,,234,f,18,2023-03-21_10h54.02.254,RL,2022.2.4,60.16036347
0,0,83,0,,,,,,,,,,None,1071.590431,1071.590431,1071.590431,1071.590431,1071.590431,1071.590431,i,0.7119228,1072.322308,1072.322308,1072.322308,1072.322308,1072.322308,1072.322308,1072.621166,1072.621166,1073.91775,1073.91775,1073.91775,1073.91775,1073.91775,1073.91775,1073.91775,1073.91775,1073.91775,1073.91775,1073.91775,1073.91775,1073.91775,1073.91775,1073.91775,1073.91775,1073.91775,46,44,71,49,71,47,7,2.0599035,,,[],[],[],[],[],[],[],-0.6,2,,,,,,,,,,,,[],[],[],[],[],[],[],,,,,None,None,1078.512249,1080.482737,1076.426483,1076.426483,1076.426483,1076.426483,1076.426483,,,,,,,,,,,,,,,,,234,f,18,2023-03-21_10h54.02.254,RL,2022.2.4,60.16036347
1,0,84,0,,,,,,,,,,None,1080.482737,1080.482737,1080.482737,1080.482737,1080.482737,1080.482737,i,0.4006557,1080.915383,1080.915383,1080.915383,1080.915383,1080.915383,1080.915383,1081.214609,1081.214609,1082.061946,1082.061946,1082.061946,1082.061946,1082.061946,1082.061946,1082.061946,1082.061946,1082.061946,1082.061946,1082.061946,1082.061946,1082.061946,1082.061946,1082.061946,1082.061946,1082.061946,40,43,76,46,76,43,5,2.5756686,,,[],[],[],[],[],[],[],0.2,3,,,,,,,,,,,,[],[],[],[],[],[],[],,,,,None,None,1087.171226,1088.809854,1084.571024,1084.571024,1084.571024,1084.571024,1084.571024,,,,,,,,,,,,,,,,,234,f,18,2023-03-21_10h54.02.254,RL,2022.2.4,60.16036347
0,0,85,0,,,,,,,,,,None,1088.809854,1088.809854,1088.809854,1088.809854,1088.809854,1088.809854,i,0.2956669,1089.126571,1089.126571,1089.126571,1089.126571,1089.126571,1089.126571,1089.42539,1089.42539,1091.253289,1091.253289,1091.253289,1091.253289,1091.253289,1091.253289,1091.253289,1091.253289,1091.253289,1091.253289,1091.253289,1091.253289,1091.253289,1091.253289,1091.253289,1091.253289,1091.253289,38,46,75,46,75,42,None,None,72,72,[0.05185185185185185],[-0.27037037037037037],[1],[0],[0],[6.022716799998307],['tijiao'],-0.2,0,,,,,,,,,,,,[],[],[],[],[],[],[],1099.809036,1099.809036,1099.809036,1099.809036,8.824074074,3.9244257,1103.751866,1105.630866,,,,,,1093.765463,1093.765463,1093.765463,1093.765463,1093.765463,1093.765463,1093.765463,1093.765463,0.0076361,1093.765463,,,,,,,234,f,18,2023-03-21_10h54.02.254,RL,2022.2.4,60.16036347
1,0,86,0,,,,,,,,,,None,1105.630866,1105.630866,1105.630866,1105.630866,1105.630866,1105.630866,i,0.2913566,1105.946978,1105.946978,1105.946978,1105.946978,1105.946978,1105.946978,1106.246228,1106.246228,1107.409466,1107.409466,1107.409466,1107.409466,1107.409466,1107.409466,1107.409466,1107.409466,1107.409466,1107.409466,1107.409466,1107.409466,1107.409466,1107.409466,1107.409466,1107.409466,1107.409466,43,52,70,45,70,37,6,1.6113282,,,[],[],[],[],[],[],[],0.6,3,,,,,,,,,,,,[],[],[],[],[],[],[],,,,,None,None,1111.558451,1113.509533,1109.918333,1109.918333,1109.918333,1109.918333,1109.918333,,,,,,,,,,,,,,,,,234,f,18,2023-03-21_10h54.02.254,RL,2022.2.4,60.16036347
0,0,87,0,,,,,,,,,,None,1113.509533,1113.509533,1113.509533,1113.509533,1113.509533,1113.509533,i,0.2385137,1113.775788,1113.775788,1113.775788,1113.775788,1113.775788,1113.775788,1114.074941,1114.074941,1115.288159,1115.288159,1115.288159,1115.288159,1115.288159,1115.288159,1115.288159,1115.288159,1115.288159,1115.288159,1115.288159,1115.288159,1115.288159,1115.288159,1115.288159,1115.288159,1115.288159,45,50,68,42,68,44,None,None,,,[],[],[],[],[],[],[],-0.6,1,1117.805273,1117.805273,1117.805273,1117.805273,1117.805273,1117.805273,1117.805273,1117.805273,0.005359,1117.805273,30,[0.1175925925925926],[-0.262037037037037],[1],[0],[0],[8.111326500002178],['tijiao_random_2'],1125.929296,1125.929296,1125.929296,1125.929296,5.12037037,4.0488545,1129.996927,1131.609781,,,,,,,,,,,,,,,,,,,,,,234,f,18,2023-03-21_10h54.02.254,RL,2022.2.4,60.16036347
1,0,88,0,,,,,,,,,,None,1131.609781,1131.609781,1131.609781,1131.609781,1131.609781,1131.609781,j,0.2545896,1131.893736,1131.893736,1131.893736,1131.893736,1131.893736,1131.893736,1132.192105,1132.192105,1133.156127,1133.156127,1133.156127,1133.156127,1133.156127,1133.156127,1133.156127,1133.156127,1133.156127,1133.156127,1133.156127,1133.156127,1133.156127,1133.156127,1133.156127,1133.156127,1133.156127,29,40,72,45,45,32,4,2.0770112,,,[],[],[],[],[],[],[],0.6,3,,,,,,,,,,,,[],[],[],[],[],[],[],,,,,None,None,1137.766815,1139.737919,1135.665238,1135.665238,1135.665238,1135.665238,1135.665238,,,,,,,,,,,,,,,,,234,f,18,2023-03-21_10h54.02.254,RL,2022.2.4,60.16036347
0,0,89,0,,,,,,,,,,None,1139.737919,1139.737919,1139.737919,1139.737919,1139.737919,1139.737919,i,0.3081493,1140.070613,1140.070613,1140.070613,1140.070613,1140.070613,1140.070613,1140.369836,1140.369836,1141.566506,1141.566506,1141.566506,1141.566506,1141.566506,1141.566506,1141.566506,1141.566506,1141.566506,1141.566506,1141.566506,1141.566506,1141.566506,1141.566506,1141.566506,1141.566506,1141.566506,45,45,73,44,73,38,5,4.0215649,,,[],[],[],[],[],[],[],-0.2,2,,,,,,,,,,,,[],[],[],[],[],[],[],,,,,None,None,1148.122035,1149.677581,1144.075147,1144.075147,1144.075147,1144.075147,1144.075147,,,,,,,,,,,,,,,,,234,f,18,2023-03-21_10h54.02.254,RL,2022.2.4,60.16036347
1,0,90,0,,,,,,,,,,None,1149.677581,1149.677581,1149.677581,1149.677581,1149.677581,1149.677581,i,0.2925748,1149.993631,1149.993631,1149.993631,1149.993631,1149.993631,1149.993631,1150.292718,1150.292718,1151.140242,1151.140242,1151.140242,1151.140242,1151.140242,1151.140242,1151.140242,1151.140242,1151.140242,1151.140242,1151.140242,1151.140242,1151.140242,1151.140242,1151.140242,1151.140242,1151.140242,38,53,76,37,76,55,None,None,,,[],[],[],[],[],[],[],-0.2,1,1153.658319,1153.658319,1153.658319,1153.658319,1153.658319,1153.658319,1153.658319,1153.658319,0.0053964,1153.658319,50,[0.12685185185185185],[-0.29074074074074074],[1],[0],[0],[4.852807899995241],['tijiao_random_2'],1158.524727,1158.524727,1158.524727,1158.524727,7.074074074,2.2031944,1160.746756,1162.259554,,,,,,,,,,,,,,,,,,,,,,234,f,18,2023-03-21_10h54.02.254,RL,2022.2.4,60.16036347
0,0,91,0,,,,,,,,,,None,1162.259554,1162.259554,1162.259554,1162.259554,1162.259554,1162.259554,i,0.2866285,1162.578713,1162.578713,1162.578713,1162.578713,1162.578713,1162.578713,1162.874943,1162.874943,1163.955526,1163.955526,1163.955526,1163.955526,1163.955526,1163.955526,1163.955526,1163.955526,1163.955526,1163.955526,1163.955526,1163.955526,1163.955526,1163.955526,1163.955526,1163.955526,1163.955526,41,54,69,47,69,27,6,2.7250499,,,[],[],[],[],[],[],[],-0.6,3,,,,,,,,,,,,[],[],[],[],[],[],[],,,,,None,None,1169.214834,1170.95254,1166.464097,1166.464097,1166.464097,1166.464097,1166.464097,,,,,,,,,,,,,,,,,234,f,18,2023-03-21_10h54.02.254,RL,2022.2.4,60.16036347
1,0,92,0,,,,,,,,,,None,1170.95254,1170.95254,1170.95254,1170.95254,1170.95254,1170.95254,i,0.3116333,1171.285559,1171.285559,1171.285559,1171.285559,1171.285559,1171.285559,1171.584408,1171.584408,1172.69806,1172.69806,1172.69806,1172.69806,1172.69806,1172.69806,1172.69806,1172.69806,1172.69806,1172.69806,1172.69806,1172.69806,1172.69806,1172.69806,1172.69806,1172.69806,1172.69806,34,43,75,45,75,25,7,3.3734296,,,[],[],[],[],[],[],[],-0.6,2,,,,,,,,,,,,[],[],[],[],[],[],[],,,,,None,None,1178.60561,1180.310168,1175.207248,1175.207248,1175.207248,1175.207248,1175.207248,,,,,,,,,,,,,,,,,234,f,18,2023-03-21_10h54.02.254,RL,2022.2.4,60.16036347
0,0,93,0,,,,,,,,,,None,1180.310168,1180.310168,1180.310168,1180.310168,1180.310168,1180.310168,i,0.2665805,1180.610141,1180.610141,1180.610141,1180.610141,1180.610141,1180.610141,1180.909049,1180.909049,1182.205512,1182.205512,1182.205512,1182.205512,1182.205512,1182.205512,1182.205512,1182.205512,1182.205512,1182.205512,1182.205512,1182.205512,1182.205512,1182.205512,1182.205512,1182.205512,1182.205512,34,42,69,39,69,33,6,1.6613147,,,[],[],[],[],[],[],[],-0.2,2,,,,,,,,,,,,[],[],[],[],[],[],[],,,,,None,None,1186.402863,1188.388363,1184.714732,1184.714732,1184.714732,1184.714732,1184.714732,,,,,,,,,,,,,,,,,234,f,18,2023-03-21_10h54.02.254,RL,2022.2.4,60.16036347
1,0,94,0,,,,,,,,,,None,1188.388363,1188.388363,1188.388363,1188.388363,1188.388363,1188.388363,i,0.4542584,1188.871102,1188.871102,1188.871102,1188.871102,1188.871102,1188.871102,1189.169936,1189.169936,1190.084176,1190.084176,1190.084176,1190.084176,1190.084176,1190.084176,1190.084176,1190.084176,1190.084176,1190.084176,1190.084176,1190.084176,1190.084176,1190.084176,1190.084176,1190.084176,1190.084176,34,43,72,46,72,42,5,1.8104052,,,[],[],[],[],[],[],[],0.2,3,,,,,,,,,,,,[],[],[],[],[],[],[],,,,,None,None,1194.430954,1196.383121,1192.593267,1192.593267,1192.593267,1192.593267,1192.593267,,,,,,,,,,,,,,,,,234,f,18,2023-03-21_10h54.02.254,RL,2022.2.4,60.16036347
0,0,95,0,,,,,,,,,,None,1196.383121,1196.383121,1196.383121,1196.383121,1196.383121,1196.383121,i,0.4398252,1196.849523,1196.849523,1196.849523,1196.849523,1196.849523,1196.849523,1197.147873,1197.147873,1199.092696,1199.092696,1199.092696,1199.092696,1199.092696,1199.092696,1199.092696,1199.092696,1199.092696,1199.092696,1199.092696,1199.092696,1199.092696,1199.092696,1199.092696,1199.092696,1199.092696,31,44,65,37,65,45,4,2.1767155,,,[],[],[],[],[],[],[],0.2,2,,,,,,,,,,,,[],[],[],[],[],[],[],,,,,None,None,1203.803761,1205.475118,1201.602039,1201.602039,1201.602039,1201.602039,1201.602039,,,,,,,,,,,,,,,,,234,f,18,2023-03-21_10h54.02.254,RL,2022.2.4,60.16036347
1,0,96,0,,,,,,,,,,None,1205.475118,1205.475118,1205.475118,1205.475118,1205.475118,1205.475118,i,0.2633381,1205.758414,1205.758414,1205.758414,1205.758414,1205.758414,1205.758414,1206.057101,1206.057101,1207.120794,1207.120794,1207.120794,1207.120794,1207.120794,1207.120794,1207.120794,1207.120794,1207.120794,1207.120794,1207.120794,1207.120794,1207.120794,1207.120794,1207.120794,1207.120794,1207.120794,45,41,64,39,64,69,None,None,60,60,[0.07222222222222222],[-0.3],[1],[0],[0],[4.728803000005428],['tijiao'],0.2,0,,,,,,,,,,,,[],[],[],[],[],[],[],1214.381481,1214.381481,1214.381481,1214.381481,8.12037037,1.0799478,1215.480228,1217.043645,,,,,,1209.630804,1209.630804,1209.630804,1209.630804,1209.630804,1209.630804,1209.630804,1209.630804,0.0049657,1209.630804,,,,,,,234,f,18,2023-03-21_10h54.02.254,RL,2022.2.4,60.16036347
0,0,97,0,,,,,,,,,,None,1217.043645,1217.043645,1217.043645,1217.043645,1217.043645,1217.043645,j,0.2867285,1217.36003,1217.36003,1217.36003,1217.36003,1217.36003,1217.36003,1217.658785,1217.658785,1218.971476,1218.971476,1218.988541,1218.988541,1218.988541,1218.988541,1218.988541,1218.988541,1218.988541,1218.988541,1218.988541,1218.988541,1218.988541,1218.988541,1218.988541,1218.988541,1218.988541,40,43,69,42,42,60,None,None,,,[],[],[],[],[],[],[],-0.2,1,1221.505557,1221.505557,1221.505557,1221.505557,1221.505557,1221.505557,1221.505557,1221.505557,0.0059258,1221.505557,50,[0.08611111111111111],[-0.29074074074074074],[1],[0],[0],[5.368872999999439],['tijiao_random_2'],1226.887198,1226.887198,1226.887198,1226.887198,5.111111111,1.9552467,1228.860686,1230.523455,,,,,,,,,,,,,,,,,,,,,,234,f,18,2023-03-21_10h54.02.254,RL,2022.2.4,60.16036347
1,0,98,0,,,,,,,,,,None,1230.523455,1230.523455,1230.523455,1230.523455,1230.523455,1230.523455,f,0.2725749,1230.82303,1230.82303,1230.82303,1230.82303,1230.82303,1230.82303,1231.122131,1231.122131,1232.352067,1232.352067,1232.352067,1232.352067,1232.352067,1232.352067,1232.352067,1232.352067,1232.352067,1232.352067,1232.352067,1232.352067,1232.352067,1232.352067,1232.352067,1232.352067,1232.352067,51,40,66,56,40,46,None,None,,,[],[],[],[],[],[],[],-0.2,1,1234.869383,1234.869383,1234.869383,1234.869383,1234.869383,1234.869383,1234.869383,1234.869383,0.0066187,1234.869383,42,[-0.04259259259259259],[-0.2851851851851852],[1],[0],[0],[8.525911400007317],['tijiao_random_2'],1243.410431,1243.410431,1243.410431,1243.410431,7.138888889,1.572673,1244.999795,1246.646011,,,,,,,,,,,,,,,,,,,,,,234,f,18,2023-03-21_10h54.02.254,RL,2022.2.4,60.16036347
0,0,99,0,,,,,,,,,,None,1246.646011,1246.646011,1246.646011,1246.646011,1246.646011,1246.646011,r,0.2120506,1246.881313,1246.881313,1246.881313,1246.881313,1246.881313,1246.881313,1247.178162,1247.178162,1249.106376,1249.106376,1249.106376,1249.106376,1249.106376,1249.106376,1249.106376,1249.106376,1249.106376,1249.106376,1249.106376,1249.106376,1249.106376,1249.106376,1249.106376,1249.106376,1249.106376,52,43,70,34,52,44,3,2.110251,,,[],[],[],[],[],[],[],-0.6,3,,,,,,,,,,,,[],[],[],[],[],[],[],,,,,None,None,1253.750465,1255.538271,1251.615425,1251.615425,1251.615425,1251.615425,1251.615425,,,,,,,,,,,,,,,,,234,f,18,2023-03-21_10h54.02.254,RL,2022.2.4,60.16036347
1,0,100,0,,,,,,,,,,None,1255.538271,1255.538271,1255.538271,1255.538271,1255.538271,1255.538271,i,0.2499139,1255.822104,1255.822104,1255.822104,1255.822104,1255.822104,1255.822104,1256.12024,1256.12024,1257.499834,1257.499834,1257.499834,1257.499834,1257.499834,1257.499834,1257.499834,1257.499834,1257.499834,1257.499834,1257.499834,1257.499834,1257.499834,1257.499834,1257.499834,1257.499834,1257.499834,48,39,69,39,69,66,None,None,75,75,[-0.1037037037037037],[-0.2814814814814815],[1],[0],[0],[4.5292533000028925],['tijiao'],-0.6,0,,,,,,,,,,,,[],[],[],[],[],[],[],1264.560993,1264.560993,1264.560993,1264.560993,6.916666667,2.2441096,1266.823855,1268.370292,,,,,,1260.010711,1260.010711,1260.010711,1260.010711,1260.010711,1260.010711,1260.010711,1260.010711,0.0051751,1260.010711,,,,,,,234,f,18,2023-03-21_10h54.02.254,RL,2022.2.4,60.16036347
0,0,101,0,,,,,,,,,,None,1268.370292,1268.370292,1268.370292,1268.370292,1268.370292,1268.370292,i,0.3290882,1268.719779,1268.719779,1268.719779,1268.719779,1268.719779,1268.719779,1269.018634,1269.018634,1270.414834,1270.414834,1270.414834,1270.414834,1270.414834,1270.414834,1270.414834,1270.414834,1270.414834,1270.414834,1270.414834,1270.414834,1270.414834,1270.414834,1270.414834,1270.414834,1270.414834,49,46,75,49,75,72,6,2.4429313,,,[],[],[],[],[],[],[],0.6,2,,,,,,,,,,,,[],[],[],[],[],[],[],,,,,None,None,1275.392299,1277.278907,1272.924058,1272.924058,1272.924058,1272.924058,1272.924058,,,,,,,,,,,,,,,,,234,f,18,2023-03-21_10h54.02.254,RL,2022.2.4,60.16036347
1,0,102,0,,,,,,,,,,None,1277.278907,1277.278907,1277.278907,1277.278907,1277.278907,1277.278907,i,0.2462831,1277.545682,1277.545682,1277.545682,1277.545682,1277.545682,1277.545682,1277.844662,1277.844662,1279.091175,1279.091175,1279.091175,1279.091175,1279.091175,1279.091175,1279.091175,1279.091175,1279.091175,1279.091175,1279.091175,1279.091175,1279.091175,1279.091175,1279.091175,1279.091175,1279.091175,51,48,72,39,72,52,None,None,70,70,[0.1398148148148148],[-0.2962962962962963],[1],[0],[0],[4.078533499996411],['tijiao'],0.2,0,,,,,,,,,,,,[],[],[],[],[],[],[],1285.701282,1285.701282,1285.701282,1285.701282,9.101851852,1.6809377,1287.400941,1289.246516,,,,,,1281.603097,1281.603097,1281.603097,1281.603097,1281.603097,1281.603097,1281.603097,1281.603097,0.0070363,1281.603097,,,,,,,234,f,18,2023-03-21_10h54.02.254,RL,2022.2.4,60.16036347
0,0,103,0,,,,,,,,,,None,1289.246516,1289.246516,1289.246516,1289.246516,1289.246516,1289.246516,i,0.2505679,1289.529841,1289.529841,1289.529841,1289.529841,1289.529841,1289.529841,1289.82867,1289.82867,1291.174912,1291.174912,1291.174912,1291.174912,1291.174912,1291.174912,1291.174912,1291.174912,1291.174912,1291.174912,1291.174912,1291.174912,1291.174912,1291.174912,1291.174912,1291.174912,1291.174912,53,35,73,48,73,36,None,None,,,[],[],[],[],[],[],[],-0.6,1,1293.69171,1293.69171,1293.69171,1293.69171,1293.69171,1293.69171,1293.69171,1293.69171,0.0056172,1293.69171,35,"[0.29259259259259257, 0.1574074074074074]","[-0.25833333333333336, -0.30462962962962964]","[1, 1]","[0, 0]","[0, 0]","[4.737319500010926, 5.518369900004473]",['tijiao_random_2'],1299.223598,1299.223598,1299.223598,1299.223598,8.027777778,1.5396054,1300.78074,1302.443923,,,,,,,,,,,,,,,,,,,,,,234,f,18,2023-03-21_10h54.02.254,RL,2022.2.4,60.16036347
1,0,104,0,,,,,,,,,,None,1302.443923,1302.443923,1302.443923,1302.443923,1302.443923,1302.443923,i,0.2802121,1302.74377,1302.74377,1302.74377,1302.74377,1302.74377,1302.74377,1303.042329,1303.042329,1304.455336,1304.455336,1304.455336,1304.455336,1304.455336,1304.455336,1304.455336,1304.455336,1304.455336,1304.455336,1304.455336,1304.455336,1304.455336,1304.455336,1304.455336,1304.455336,1304.455336,47,42,70,46,70,50,4,2.8249091,,,[],[],[],[],[],[],[],0.2,2,,,,,,,,,,,,[],[],[],[],[],[],[],,,,,None,None,1309.814926,1311.601916,1306.96444,1306.96444,1306.96444,1306.96444,1306.96444,,,,,,,,,,,,,,,,,234,f,18,2023-03-21_10h54.02.254,RL,2022.2.4,60.16036347
0,0,105,0,,,,,,,,,,None,1311.601916,1311.601916,1311.601916,1311.601916,1311.601916,1311.601916,i,0.7117352,1312.335092,1312.335092,1312.335092,1312.335092,1312.335092,1312.335092,1312.632939,1312.632939,1313.929442,1313.929442,1313.929442,1313.929442,1313.929442,1313.929442,1313.929442,1313.929442,1313.929442,1313.929442,1313.929442,1313.929442,1313.929442,1313.929442,1313.929442,1313.929442,1313.929442,39,41,82,45,82,70,6,1.777563,,,[],[],[],[],[],[],[],0.6,2,,,,,,,,,,,,[],[],[],[],[],[],[],,,,,None,None,1318.241052,1320.162191,1316.438491,1316.438491,1316.438491,1316.438491,1316.438491,,,,,,,,,,,,,,,,,234,f,18,2023-03-21_10h54.02.254,RL,2022.2.4,60.16036347
1,0,106,0,,,,,,,,,,None,1320.162191,1320.162191,1320.162191,1320.162191,1320.162191,1320.162191,i,0.2822458,1320.461727,1320.461727,1320.461727,1320.461727,1320.461727,1320.461727,1320.760781,1320.760781,1321.94095,1321.94095,1321.94095,1321.94095,1321.94095,1321.94095,1321.94095,1321.94095,1321.94095,1321.94095,1321.94095,1321.94095,1321.94095,1321.94095,1321.94095,1321.94095,1321.94095,45,40,72,35,72,54,5,1.7279102,,,[],[],[],[],[],[],[],-0.6,2,,,,,,,,,,,,[],[],[],[],[],[],[],,,,,None,None,1326.203403,1328.057498,1324.44977,1324.44977,1324.44977,1324.44977,1324.44977,,,,,,,,,,,,,,,,,234,f,18,2023-03-21_10h54.02.254,RL,2022.2.4,60.16036347
0,0,107,0,,,,,,,,,,None,1328.057498,1328.057498,1328.057498,1328.057498,1328.057498,1328.057498,i,0.4678343,1328.556356,1328.556356,1328.556356,1328.556356,1328.556356,1328.556356,1328.85546,1328.85546,1330.151883,1330.151883,1330.151883,1330.151883,1330.151883,1330.151883,1330.151883,1330.151883,1330.151883,1330.151883,1330.151883,1330.151883,1330.151883,1330.151883,1330.151883,1330.151883,1330.151883,53,44,80,42,80,64,None,None,,,[],[],[],[],[],[],[],-0.6,1,1332.668901,1332.668901,1332.668901,1332.668901,1332.668901,1332.668901,1332.668901,1332.668901,0.0057997,1332.668901,38,[0.125],[-0.2898148148148148],[1],[0],[0],[7.4129895999940345],['tijiao_random_2'],1340.094666,1340.094666,1340.094666,1340.094666,5.944444444,1.905252,1342.018603,1343.731307,,,,,,,,,,,,,,,,,,,,,,234,f,18,2023-03-21_10h54.02.254,RL,2022.2.4,60.16036347
1,0,108,0,,,,,,,,,,None,1343.731307,1343.731307,1343.731307,1343.731307,1343.731307,1343.731307,i,0.283163,1344.048881,1344.048881,1344.048881,1344.048881,1344.048881,1344.048881,1344.346434,1344.346434,1346.20797,1346.20797,1346.20797,1346.20797,1346.20797,1346.20797,1346.20797,1346.20797,1346.20797,1346.20797,1346.20797,1346.20797,1346.20797,1346.20797,1346.20797,1346.20797,1346.20797,53,39,78,46,78,50,None,None,,,[],[],[],[],[],[],[],0.6,1,1348.726402,1348.726402,1348.726402,1348.726402,1348.726402,1348.726402,1348.726402,1348.726402,0.0053671,1348.726402,50,[0.04814814814814815],[-0.34629629629629627],[1],[0],[0],[5.565757400006987],['tijiao_random_2'],1354.308389,1354.308389,1354.308389,1354.308389,8.175925926,1.1925008,1355.514625,1357.128096,,,,,,,,,,,,,,,,,,,,,,234,f,18,2023-03-21_10h54.02.254,RL,2022.2.4,60.16036347
0,0,109,0,,,,,,,,,,None,1357.128096,1357.128096,1357.128096,1357.128096,1357.128096,1357.128096,i,0.3278395,1357.477359,1357.477359,1357.477359,1357.477359,1357.477359,1357.477359,1357.776532,1357.776532,1359.421838,1359.421838,1359.421838,1359.421838,1359.421838,1359.421838,1359.421838,1359.421838,1359.421838,1359.421838,1359.421838,1359.421838,1359.421838,1359.421838,1359.421838,1359.421838,1359.421838,53,46,65,38,65,55,3,2.4426107,,,[],[],[],[],[],[],[],-0.6,2,,,,,,,,,,,,[],[],[],[],[],[],[],,,,,None,None,1364.39822,1366.186407,1361.931068,1361.931068,1361.931068,1361.931068,1361.931068,,,,,,,,,,,,,,,,,234,f,18,2023-03-21_10h54.02.254,RL,2022.2.4,60.16036347
1,0,110,0,,,,,,,,,,None,1366.186407,1366.186407,1366.186407,1366.186407,1366.186407,1366.186407,i,0.3096497,1366.519755,1366.519755,1366.519755,1366.519755,1366.519755,1366.519755,1366.818173,1366.818173,1367.682752,1367.682752,1367.682752,1367.682752,1367.682752,1367.682752,1367.682752,1367.682752,1367.682752,1367.682752,1367.682752,1367.682752,1367.682752,1367.682752,1367.682752,1367.682752,1367.682752,50,42,67,41,67,36,None,None,,,[],[],[],[],[],[],[],-0.2,1,1370.200556,1370.200556,1370.200556,1370.200556,1370.200556,1370.200556,1370.200556,1370.200556,0.0057201,1370.200556,40,"[-0.07777777777777778, -0.062037037037037036]","[-0.2490740740740741, -0.2824074074074074]","[1, 1]","[0, 0]","[0, 0]","[3.988804100008565, 5.467646000004606]",['tijiao_random_2'],1375.682811,1375.682811,1375.682811,1375.682811,8.037037037,3.3006565,1379.000641,1380.962802,,,,,,,,,,,,,,,,,,,,,,234,f,18,2023-03-21_10h54.02.254,RL,2022.2.4,60.16036347
0,0,111,0,,,,,,,,,,None,1380.962802,1380.962802,1380.962802,1380.962802,1380.962802,1380.962802,i,0.3627294,1381.345555,1381.345555,1381.345555,1381.345555,1381.345555,1381.345555,1381.644378,1381.644378,1382.625163,1382.625163,1382.625163,1382.625163,1382.625163,1382.625163,1382.625163,1382.625163,1382.625163,1382.625163,1382.625163,1382.625163,1382.625163,1382.625163,1382.625163,1382.625163,1382.625163,55,42,73,38,73,34,5,1.9773494,,,[],[],[],[],[],[],[],0.6,2,,,,,,,,,,,,[],[],[],[],[],[],[],,,,,None,None,1387.136453,1388.991146,1385.134313,1385.134313,1385.134313,1385.134313,1385.134313,,,,,,,,,,,,,,,,,234,f,18,2023-03-21_10h54.02.254,RL,2022.2.4,60.16036347
1,0,112,0,,,,,,,,,,None,1388.991146,1388.991146,1388.991146,1388.991146,1388.991146,1388.991146,i,0.5110103,1389.523413,1389.523413,1389.523413,1389.523413,1389.523413,1389.523413,1389.822004,1389.822004,1391.800123,1391.800123,1391.800123,1391.800123,1391.800123,1391.800123,1391.800123,1391.800123,1391.800123,1391.800123,1391.800123,1391.800123,1391.800123,1391.800123,1391.800123,1391.800123,1391.800123,52,50,86,40,86,44,None,None,79,79,[0.09074074074074075],[-0.3194444444444444],[1],[0],[0],[6.604945500002941],['tijiao'],0.6,0,,,,,,,,,,,,[],[],[],[],[],[],[],1400.936624,1400.936624,1400.936624,1400.936624,10.01851852,1.9629568,1402.918581,1404.681546,,,,,,1394.311682,1394.311682,1394.311682,1394.311682,1394.311682,1394.311682,1394.311682,1394.311682,0.0068557,1394.311682,,,,,,,234,f,18,2023-03-21_10h54.02.254,RL,2022.2.4,60.16036347
0,0,113,0,,,,,,,,,,None,1404.681546,1404.681546,1404.681546,1404.681546,1404.681546,1404.681546,i,0.3101167,1405.014163,1405.014163,1405.014163,1405.014163,1405.014163,1405.014163,1405.313081,1405.313081,1406.991772,1406.991772,1406.991772,1406.991772,1406.991772,1406.991772,1406.991772,1406.991772,1406.991772,1406.991772,1406.991772,1406.991772,1406.991772,1406.991772,1406.991772,1406.991772,1406.991772,61,52,79,47,79,65,None,None,,,[],[],[],[],[],[],[],-0.6,1,1409.511256,1409.511256,1409.511256,1409.511256,1409.511256,1409.511256,1409.511256,1409.511256,0.0056173,1409.511256,55,[0.15185185185185185],[-0.30277777777777776],[1],[0],[0],[6.314936299997498],['tijiao_random_2'],1415.839666,1415.839666,1415.839666,1415.839666,4.981481481,2.35217,1418.210313,1419.740417,,,,,,,,,,,,,,,,,,,,,,234,f,18,2023-03-21_10h54.02.254,RL,2022.2.4,60.16036347
1,0,114,0,,,,,,,,,,None,1419.740417,1419.740417,1419.740417,1419.740417,1419.740417,1419.740417,i,0.2452367,1420.008179,1420.008179,1420.008179,1420.008179,1420.008179,1420.008179,1420.305882,1420.305882,1421.785145,1421.785145,1421.785145,1421.785145,1421.785145,1421.785145,1421.785145,1421.785145,1421.785145,1421.785145,1421.785145,1421.785145,1421.785145,1421.785145,1421.785145,1421.785145,1421.785145,58,50,76,49,76,56,None,None,75,75,[-0.02962962962962963],[-0.3212962962962963],[1],[0],[0],[4.84461879999435],['tijiao'],-0.2,0,,,,,,,,,,,,[],[],[],[],[],[],[],1429.16126,1429.16126,1429.16126,1429.16126,8.981481481,1.5297065,1430.70951,1432.505758,,,,,,1424.295223,1424.295223,1424.295223,1424.295223,1424.295223,1424.295223,1424.295223,1424.295223,0.0054269,1424.295223,,,,,,,234,f,18,2023-03-21_10h54.02.254,RL,2022.2.4,60.16036347
0,0,115,0,,,,,,,,,,None,1432.505758,1432.505758,1432.505758,1432.505758,1432.505758,1432.505758,i,0.2514484,1432.788813,1432.788813,1432.788813,1432.788813,1432.788813,1432.788813,1433.087744,1433.087744,1434.982481,1434.982481,1434.982481,1434.982481,1434.982481,1434.982481,1434.982481,1434.982481,1434.982481,1434.982481,1434.982481,1434.982481,1434.982481,1434.982481,1434.982481,1434.982481,1434.982481,58,51,80,50,80,56,None,None,,,[],[],[],[],[],[],[],0.6,1,1437.499568,1437.499568,1437.499568,1437.499568,1437.499568,1437.499568,1437.499568,1437.499568,0.0056328,1437.499568,60,[0.1712962962962963],[-0.2564814814814815],[1],[0],[0],[4.30512180000369],['tijiao_random_2'],1441.817647,1441.817647,1441.817647,1441.817647,6.925925926,1.4891418,1443.325024,1444.921812,,,,,,,,,,,,,,,,,,,,,,234,f,18,2023-03-21_10h54.02.254,RL,2022.2.4,60.16036347
1,0,116,0,,,,,,,,,,None,1444.921812,1444.921812,1444.921812,1444.921812,1444.921812,1444.921812,i,0.3036054,1445.25486,1445.25486,1445.25486,1445.25486,1445.25486,1445.25486,1445.553457,1445.553457,1446.949751,1446.949751,1446.966292,1446.966292,1446.966292,1446.966292,1446.966292,1446.966292,1446.966292,1446.966292,1446.966292,1446.966292,1446.966292,1446.966292,1446.966292,1446.966292,1446.966292,56,53,83,55,83,40,None,None,79,79,[0.11203703703703703],[-0.2722222222222222],[1],[0],[0],[3.8634665999998106],['tijiao'],0.6,0,,,,,,,,,,,,[],[],[],[],[],[],[],1453.359472,1453.359472,1453.359472,1453.359472,10.0462963,1.3988337,1454.777121,1456.290729,,,,,,1449.476358,1449.476358,1449.476358,1449.476358,1449.476358,1449.476358,1449.476358,1449.476358,0.0053103,1449.476358,,,,,,,234,f,18,2023-03-21_10h54.02.254,RL,2022.2.4,60.16036347
0,0,117,0,,,,,,,,,,None,1456.290729,1456.290729,1456.290729,1456.290729,1456.290729,1456.290729,i,0.2819186,1456.59067,1456.59067,1456.59067,1456.59067,1456.59067,1456.59067,1456.889352,1456.889352,1458.434873,1458.434873,1458.434873,1458.434873,1458.434873,1458.434873,1458.434873,1458.434873,1458.434873,1458.434873,1458.434873,1458.434873,1458.434873,1458.434873,1458.434873,1458.434873,1458.434873,49,59,84,49,84,60,None,None,80,80,"[0.2361111111111111, 0.16203703703703703]","[-0.2722222222222222, -0.28703703703703703]","[1, 1]","[0, 0]","[0, 0]","[3.6810757999919588, 4.229952299996512]",['tijiao'],-0.6,0,,,,,,,,,,,,[],[],[],[],[],[],[],1465.193993,1465.193993,1465.193993,1465.193993,10.12037037,0.950689,1466.163158,1467.709588,,,,,,1460.945178,1460.945178,1460.945178,1460.945178,1460.945178,1460.945178,1460.945178,1460.945178,0.0054231,1460.945178,,,,,,,234,f,18,2023-03-21_10h54.02.254,RL,2022.2.4,60.16036347
1,0,118,0,,,,,,,,,,None,1467.709588,1467.709588,1467.709588,1467.709588,1467.709588,1467.709588,i,0.2469283,1467.977637,1467.977637,1467.977637,1467.977637,1467.977637,1467.977637,1468.274861,1468.274861,1469.122476,1469.122476,1469.122476,1469.122476,1469.122476,1469.122476,1469.122476,1469.122476,1469.122476,1469.122476,1469.122476,1469.122476,1469.122476,1469.122476,1469.122476,1469.122476,1469.122476,54,49,83,45,83,53,None,None,,,[],[],[],[],[],[],[],0.6,1,1471.638912,1471.638912,1471.638912,1471.638912,1471.638912,1471.638912,1471.638912,1471.638912,0.0059344,1471.638912,55,[0.07407407407407407],[-0.32314814814814813],[1],[0],[0],[4.537912699990557],['tijiao_random_2'],1476.19161,1476.19161,1476.19161,1476.19161,6.944444444,3.0846228,1479.293677,1481.2559,,,,,,,,,,,,,,,,,,,,,,234,f,18,2023-03-21_10h54.02.254,RL,2022.2.4,60.16036347
0,0,119,0,,,,,,,,,,None,1481.2559,1481.2559,1481.2559,1481.2559,1481.2559,1481.2559,i,0.2362053,1481.522118,1481.522118,1481.522118,1481.522118,1481.522118,1481.522118,1481.821002,1481.821002,1483.550014,1483.550014,1483.550014,1483.550014,1483.550014,1483.550014,1483.550014,1483.550014,1483.550014,1483.550014,1483.550014,1483.550014,1483.550014,1483.550014,1483.550014,1483.550014,1483.550014,46,53,82,53,82,57,5,3.4732453,,,[],[],[],[],[],[],[],0.6,3,,,,,,,,,,,,[],[],[],[],[],[],[],,,,,None,None,1489.558877,1491.112122,1486.058701,1486.058701,1486.058701,1486.058701,1486.058701,,,,,,,,,,,,,,,,,234,f,18,2023-03-21_10h54.02.254,RL,2022.2.4,60.16036347
1,0,120,0,,,,,,,,,,None,1491.112122,1491.112122,1491.112122,1491.112122,1491.112122,1491.112122,i,0.2399853,1491.37861,1491.37861,1491.37861,1491.37861,1491.37861,1491.37861,1491.677747,1491.677747,1493.372993,1493.372993,1493.372993,1493.372993,1493.372993,1493.372993,1493.372993,1493.372993,1493.372993,1493.372993,1493.372993,1493.372993,1493.372993,1493.372993,1493.372993,1493.372993,1493.372993,55,56,82,45,82,46,4,1.8940657,,,[],[],[],[],[],[],[],0.6,3,,,,,,,,,,,,[],[],[],[],[],[],[],,,,,None,None,1497.800837,1499.33996,1495.882022,1495.882022,1495.882022,1495.882022,1495.882022,,,,,,,,,,,,,,,,,234,f,18,2023-03-21_10h54.02.254,RL,2022.2.4,60.16036347
0,0,121,0,,,,,,,,,,None,1499.33996,1499.33996,1499.33996,1499.33996,1499.33996,1499.33996,i,0.3588407,1499.723266,1499.723266,1499.723266,1499.723266,1499.723266,1499.723266,1500.021678,1500.021678,1501.168434,1501.168434,1501.168434,1501.168434,1501.168434,1501.168434,1501.168434,1501.168434,1501.168434,1501.168434,1501.168434,1501.168434,1501.168434,1501.168434,1501.168434,1501.168434,1501.168434,49,47,79,43,79,24,4,1.4955065,,,[],[],[],[],[],[],[],0.2,3,,,,,,,,,,,,[],[],[],[],[],[],[],,,,,None,None,1505.197812,1507.101902,1503.677654,1503.677654,1503.677654,1503.677654,1503.677654,,,,,,,,,,,,,,,,,234,f,18,2023-03-21_10h54.02.254,RL,2022.2.4,60.16036347
1,0,122,0,,,,,,,,,,None,1507.101902,1507.101902,1507.101902,1507.101902,1507.101902,1507.101902,i,0.4682421,1507.601389,1507.601389,1507.601389,1507.601389,1507.601389,1507.601389,1507.899889,1507.899889,1508.830655,1508.830655,1508.830655,1508.830655,1508.830655,1508.830655,1508.830655,1508.830655,1508.830655,1508.830655,1508.830655,1508.830655,1508.830655,1508.830655,1508.830655,1508.830655,1508.830655,51,48,87,48,87,60,None,None,,,[],[],[],[],[],[],[],0.6,1,1511.348158,1511.348158,1511.348158,1511.348158,1511.348158,1511.348158,1511.348158,1511.348158,0.005785,1511.348158,60,[0.15],[-0.3148148148148148],[1],[0],[0],[3.340819899996859],['tijiao_random_2'],1514.701518,1514.701518,1514.701518,1514.701518,8.101851852,2.4369289,1517.156924,1518.670391,,,,,,,,,,,,,,,,,,,,,,234,f,18,2023-03-21_10h54.02.254,RL,2022.2.4,60.16036347
0,0,123,0,,,,,,,,,,None,1518.670391,1518.670391,1518.670391,1518.670391,1518.670391,1518.670391,i,0.2734045,1518.970444,1518.970444,1518.970444,1518.970444,1518.970444,1518.970444,1519.26882,1519.26882,1520.582244,1520.582244,1520.582244,1520.582244,1520.582244,1520.582244,1520.582244,1520.582244,1520.582244,1520.582244,1520.582244,1520.582244,1520.582244,1520.582244,1520.582244,1520.582244,1520.582244,45,56,78,50,78,63,None,None,79,79,[0.14629629629629629],[-0.2824074074074074],[1],[0],[0],[5.276449299999513],['tijiao'],0.2,0,,,,,,,,,,,,[],[],[],[],[],[],[],1528.387728,1528.387728,1528.387728,1528.387728,9.12962963,1.7982505,1530.204602,1531.767928,,,,,,1523.092371,1523.092371,1523.092371,1523.092371,1523.092371,1523.092371,1523.092371,1523.092371,0.0056738,1523.092371,,,,,,,234,f,18,2023-03-21_10h54.02.254,RL,2022.2.4,60.16036347
1,0,124,0,,,,,,,,,,None,1531.767928,1531.767928,1531.767928,1531.767928,1531.767928,1531.767928,i,0.2721752,1532.068007,1532.068007,1532.068007,1532.068007,1532.068007,1532.068007,1532.366662,1532.366662,1533.363845,1533.363845,1533.363845,1533.363845,1533.363845,1533.363845,1533.363845,1533.363845,1533.363845,1533.363845,1533.363845,1533.363845,1533.363845,1533.363845,1533.363845,1533.363845,1533.363845,43,65,74,50,74,48,None,None,72,72,[0.1638888888888889],[-0.25462962962962965],[1],[0],[0],[5.3591879999876255],['tijiao'],-0.6,0,,,,,,,,,,,,[],[],[],[],[],[],[],1541.253813,1541.253813,1541.253813,1541.253813,9.055555556,1.3650802,1542.637768,1544.300295,,,,,,1535.873954,1535.873954,1535.873954,1535.873954,1535.873954,1535.873954,1535.873954,1535.873954,0.0065606,1535.873954,,,,,,,234,f,18,2023-03-21_10h54.02.254,RL,2022.2.4,60.16036347
0,0,125,0,,,,,,,,,,None,1544.300295,1544.300295,1544.300295,1544.300295,1544.300295,1544.300295,i,0.2473229,1544.566751,1544.566751,1544.566751,1544.566751,1544.566751,1544.566751,1544.865866,1544.865866,1545.879715,1545.879715,1545.879715,1545.879715,1545.879715,1545.879715,1545.879715,1545.879715,1545.879715,1545.879715,1545.879715,1545.879715,1545.879715,1545.879715,1545.879715,1545.879715,1545.879715,45,50,82,56,82,49,6,1.9607716,,,[],[],[],[],[],[],[],0.6,2,,,,,,,,,,,,[],[],[],[],[],[],[],,,,,None,None,1550.373328,1552.328317,1548.388891,1548.388891,1548.388891,1548.388891,1548.388891,,,,,,,,,,,,,,,,,234,f,18,2023-03-21_10h54.02.254,RL,2022.2.4,60.16036347
1,0,126,0,,,,,,,,,,None,1552.328317,1552.328317,1552.328317,1552.328317,1552.328317,1552.328317,i,0.4649618,1552.811238,1552.811238,1552.811238,1552.811238,1552.811238,1552.811238,1553.11014,1553.11014,1555.121375,1555.121375,1555.121375,1555.121375,1555.121375,1555.121375,1555.121375,1555.121375,1555.121375,1555.121375,1555.121375,1555.121375,1555.121375,1555.121375,1555.121375,1555.121375,1555.121375,53,70,85,52,85,53,5,2.459074,,,[],[],[],[],[],[],[],-0.6,2,,,,,,,,,,,,[],[],[],[],[],[],[],,,,,None,None,1560.113671,1561.80238,1557.630452,1557.630452,1557.630452,1557.630452,1557.630452,,,,,,,,,,,,,,,,,234,f,18,2023-03-21_10h54.02.254,RL,2022.2.4,60.16036347
0,0,127,0,,,,,,,,,,None,1561.80238,1561.80238,1561.80238,1561.80238,1561.80238,1561.80238,i,0.3373883,1562.169037,1562.169037,1562.169037,1562.169037,1562.169037,1562.169037,1562.467998,1562.467998,1564.046954,1564.046954,1564.046954,1564.046954,1564.046954,1564.046954,1564.046954,1564.046954,1564.046954,1564.046954,1564.046954,1564.046954,1564.046954,1564.046954,1564.046954,1564.046954,1564.046954,52,65,89,51,89,55,6,1.7280885,,,[],[],[],[],[],[],[],-0.2,3,,,,,,,,,,,,[],[],[],[],[],[],[],,,,,None,None,1568.307957,1570.080122,1566.555993,1566.555993,1566.555993,1566.555993,1566.555993,,,,,,,,,,,,,,,,,234,f,18,2023-03-21_10h54.02.254,RL,2022.2.4,60.16036347
