trials.thisRepN,trials.thisTrialN,trials.thisN,trials.thisIndex,instru_img1.started,instru_resp.started,instru_resp.keys,instru_resp.rt,instru_img2.started,instru_resp2.started,instru_resp2.keys,instru_resp2.rt,fixbefore_2.started,rest_response.keys,red.started,green.started,yellow.started,blue.started,choose_bandit.started,Fixation.started,choose_bandit.keys,choose_bandit.rt,black.started,red_2.started,green_2.started,yellow_2.started,blue_2.started,fixation_2.started,docs.started,wait_playerB.started,docs.stopped,wait_playerB.stopped,black.stopped,red_2.stopped,green_2.stopped,yellow_2.stopped,blue_2.stopped,fixation_2.stopped,black_com.started,reward_sub.started,palyerb.started,reward__sub.started,compare.started,red_compare.started,green_com.started,yellow_com.started,blue_com.started,rewardyellow,rewardred,rewardblue,rewardgreen,subchoose,playerb,slider.response,slider.rt,expectself.text,value_expect_self,tijiao_click.x,tijiao_click.y,tijiao_click.leftButton,tijiao_click.midButton,tijiao_click.rightButton,tijiao_click.time,tijiao_click.clicked_name,random_whicharm,whether_ask,jiantou_random.started,expect_red.started,expect_green.started,expect_yellow.started,expect_blue.started,expect_random_2.started,expect_random_3.started,tijiao_random_2.started,tijiao_random.started,check_2.started,expect_random_3.text,tijiao_random.x,tijiao_random.y,tijiao_random.leftButton,tijiao_random.midButton,tijiao_random.rightButton,tijiao_random.time,tijiao_random.clicked_name,slider_2.started,image_7.started,confi.started,notconfi.started,slider_2.response,slider_2.rt,intertrialfix.started,intertrialfix.stopped,image_3.started,slider.started,text.started,image_4.started,image_5.started,expectself.started,expect_self_black.started,expect_self.started,expect_self_red.started,expect_self_green.started,expect_self_yellow.started,expect_self_blue.started,tijiao.started,tijiao_click.started,check.started,rest_image.started,rest_response.started,rest_response.rt,image.started,key_resp.started,key_resp.keys,participant,Gender,Age,date,expName,psychopyVersion,frameRate
,,,,35.0910616,35.0910616,space,1.5760016,,,,,,,,,,,,,,,,,,,,,,,,,,,,,,,,,,,,,,,,,,,,,,,,,,,,,,,,,,,,,,,,,,,,,,,,,,,,,,,,,,,,,,,,,,,,,,,,,,,,,,,,,,235,f,21,2023-03-21_13h32.47.640,RL,2022.2.4,60.16582906
,,,,,,,,36.7087531,36.7087531,s,30.4236578,,,,,,,,,,,,,,,,,,,,,,,,,,,,,,,,,,,,,,,,,,,,,,,,,,,,,,,,,,,,,,,,,,,,,,,,,,,,,,,,,,,,,,,,,,,,,,,,,,,,,,235,f,21,2023-03-21_13h32.47.640,RL,2022.2.4,60.16582906
1,0,0,0,,,,,,,,,67.1623295,None,68.1798886,68.1798886,68.1798886,68.1798886,68.1798886,68.1798886,r,0.5466427,68.7663414,68.7663414,68.7663414,68.7663414,68.7663414,68.7663414,69.0567339,69.0567339,70.4025867,70.4025867,70.4203844,70.4203844,70.4203844,70.4203844,70.4203844,70.4203844,70.4203844,70.4203844,70.4203844,70.4203844,70.4203844,70.4203844,70.4203844,70.4203844,70.4203844,30,55,39,70,30,75,None,None,,,[],[],[],[],[],[],[],0.6,1,72.9427544,72.9427544,72.9427544,72.9427544,72.9427544,72.9427544,72.9427544,72.9427544,0.0069754,72.9427544,60,[-0.001851851851851852],[-0.287962962962963],[1],[0],[0],[4.551802300004056],['tijiao_random_2'],77.5100796,77.5100796,77.5100796,77.5100796,8,2.7359818,80.2924957,82.0042261,,,,,,,,,,,,,,,,,,,,,,235,f,21,2023-03-21_13h32.47.640,RL,2022.2.4,60.16582906
0,0,1,0,,,,,,,,,,None,82.0042261,82.0042261,82.0042261,82.0042261,82.0042261,82.0042261,i,0.9021972,82.9390312,82.9390312,82.9390312,82.9390312,82.9390312,82.9390312,83.2343281,83.2343281,84.3145805,84.3145805,84.3145805,84.3145805,84.3145805,84.3145805,84.3145805,84.3145805,84.3145805,84.3145805,84.3145805,84.3145805,84.3145805,84.3145805,84.3145805,84.3145805,84.3145805,35,45,38,66,38,77,None,None,,,[],[],[],[],[],[],[],0.2,1,86.8330731,86.8330731,86.8330731,86.8330731,86.8330731,86.8330731,86.8330731,86.8330731,0.0064849,86.8330731,40,"[0.03796296296296296, 0.008333333333333333]","[-0.22685185185185186, -0.2953703703703704]","[1, 1]","[0, 0]","[0, 0]","[8.857823800004553, 9.755921200005105]",['tijiao_random_2'],96.6021084,96.6021084,96.6021084,96.6021084,6,3.1341439,99.754825,101.6173033,,,,,,,,,,,,,,,,,,,,,,235,f,21,2023-03-21_13h32.47.640,RL,2022.2.4,60.16582906
1,0,2,0,,,,,,,,,,None,101.6173033,101.6173033,101.6173033,101.6173033,101.6173033,101.6173033,r,0.5902569,102.2332066,102.2332066,102.2332066,102.2332066,102.2332066,102.2332066,102.5315577,102.5315577,103.8949002,103.8949002,103.8949002,103.8949002,103.8949002,103.8949002,103.8949002,103.8949002,103.8949002,103.8949002,103.8949002,103.8949002,103.8949002,103.8949002,103.8949002,103.8949002,103.8949002,37,45,47,68,37,76,3,3.1741158,,,[],[],[],[],[],[],[],-0.2,2,,,,,,,,,,,,[],[],[],[],[],[],[],,,,,None,None,109.6030734,111.3076523,106.4045161,106.4045161,106.4045161,106.4045161,106.4045161,,,,,,,,,,,,,,,,,235,f,21,2023-03-21_13h32.47.640,RL,2022.2.4,60.16582906
0,0,3,0,,,,,,,,,,None,111.3076523,111.3076523,111.3076523,111.3076523,111.3076523,111.3076523,f,0.4464296,111.7780802,111.7780802,111.7780802,111.7780802,111.7780802,111.7780802,112.0726072,112.0726072,113.8509803,113.8509803,113.8676804,113.8676804,113.8676804,113.8676804,113.8676804,113.8676804,113.8676804,113.8676804,113.8676804,113.8676804,113.8676804,113.8676804,113.8676804,113.8676804,113.8676804,34,52,46,62,52,39,5,2.991321,,,[],[],[],[],[],[],[],-0.2,2,,,,,,,,,,,,[],[],[],[],[],[],[],,,,,None,None,119.393789,121.247322,116.3767412,116.3767412,116.3767412,116.3767412,116.3767412,,,,,,,,,,,,,,,,,235,f,21,2023-03-21_13h32.47.640,RL,2022.2.4,60.16582906
1,0,4,0,,,,,,,,,,None,121.247322,121.247322,121.247322,121.247322,121.247322,121.247322,f,0.5655739,121.8457605,121.8457605,121.8457605,121.8457605,121.8457605,121.8457605,122.145146,122.145146,123.3415671,123.3415671,123.3415671,123.3415671,123.3415671,123.3415671,123.3415671,123.3415671,123.3415671,123.3415671,123.3415671,123.3415671,123.3415671,123.3415671,123.3415671,123.3415671,123.3415671,37,39,42,54,39,80,None,None,,,[],[],[],[],[],[],[],-0.2,1,125.8601917,125.8601917,125.8601917,125.8601917,125.8601917,125.8601917,125.8601917,125.8601917,0.0053577,125.8601917,39,[0.024074074074074074],[-0.28888888888888886],[1],[0],[0],[6.381409299996449],['tijiao_random_2'],132.2546111,132.2546111,132.2546111,132.2546111,9.935185185,2.9691143,135.2414846,137.1038914,,,,,,,,,,,,,,,,,,,,,,235,f,21,2023-03-21_13h32.47.640,RL,2022.2.4,60.16582906
0,0,5,0,,,,,,,,,,None,137.1038914,137.1038914,137.1038914,137.1038914,137.1038914,137.1038914,f,0.8384103,137.9696815,137.9696815,137.9696815,137.9696815,137.9696815,137.9696815,138.2675819,138.2675819,139.9131478,139.9131478,139.9131478,139.9131478,139.9131478,139.9131478,139.9131478,139.9131478,139.9131478,139.9131478,139.9131478,139.9131478,139.9131478,139.9131478,139.9131478,139.9131478,139.9131478,33,39,39,64,39,61,2,2.4756354,,,[],[],[],[],[],[],[],-0.6,3,,,,,,,,,,,,[],[],[],[],[],[],[],,,,,None,None,144.9265908,146.9269898,142.4224532,142.4224532,142.4224532,142.4224532,142.4224532,,,,,,,,,,,,,,,,,235,f,21,2023-03-21_13h32.47.640,RL,2022.2.4,60.16582906
1,0,6,0,,,,,,,,,,None,146.9269898,146.9269898,146.9269898,146.9269898,146.9269898,146.9269898,r,0.5856217,147.542362,147.542362,147.542362,147.542362,147.542362,147.542362,147.8416516,147.8416516,149.2711066,149.2711066,149.2711066,149.2711066,149.2711066,149.2711066,149.2711066,149.2711066,149.2711066,149.2711066,149.2711066,149.2711066,149.2711066,149.2711066,149.2711066,149.2711066,149.2711066,36,44,39,58,36,72,2,2.2267976,,,[],[],[],[],[],[],[],0.6,3,,,,,,,,,,,,[],[],[],[],[],[],[],,,,,None,None,154.0348434,155.7030979,151.7802614,151.7802614,151.7802614,151.7802614,151.7802614,,,,,,,,,,,,,,,,,235,f,21,2023-03-21_13h32.47.640,RL,2022.2.4,60.16582906
0,0,7,0,,,,,,,,,,None,155.7030979,155.7030979,155.7030979,155.7030979,155.7030979,155.7030979,i,0.6411802,156.3684185,156.3684185,156.3684185,156.3684185,156.3684185,156.3684185,156.6672222,156.6672222,158.1630631,158.1630631,158.1799056,158.1799056,158.1799056,158.1799056,158.1799056,158.1799056,158.1799056,158.1799056,158.1799056,158.1799056,158.1799056,158.1799056,158.1799056,158.1799056,158.1799056,33,53,40,67,40,75,2,3.1068694,,,[],[],[],[],[],[],[],0.2,2,,,,,,,,,,,,[],[],[],[],[],[],[],,,,,None,None,163.82348,165.7756676,160.6892374,160.6892374,160.6892374,160.6892374,160.6892374,,,,,,,,,,,,,,,,,235,f,21,2023-03-21_13h32.47.640,RL,2022.2.4,60.16582906
1,0,8,0,,,,,,,,,,None,165.7756676,165.7756676,165.7756676,165.7756676,165.7756676,165.7756676,j,0.4289646,166.2297859,166.2297859,166.2297859,166.2297859,166.2297859,166.2297859,166.5239816,166.5239816,167.3383974,167.3383974,167.3549441,167.3549441,167.3549441,167.3549441,167.3549441,167.3549441,167.3549441,167.3549441,167.3549441,167.3549441,167.3549441,167.3549441,167.3549441,167.3549441,167.3549441,35,49,40,57,57,69,4,4.1713201,,,[],[],[],[],[],[],[],0.2,3,,,,,,,,,,,,[],[],[],[],[],[],[],,,,,None,None,174.0623227,175.6485861,169.8641264,169.8641264,169.8641264,169.8641264,169.8641264,,,,,,,,,,,,,,,,,235,f,21,2023-03-21_13h32.47.640,RL,2022.2.4,60.16582906
0,0,9,0,,,,,,,,,,None,175.6485861,175.6485861,175.6485861,175.6485861,175.6485861,175.6485861,j,0.5399335,176.2141908,176.2141908,176.2141908,176.2141908,176.2141908,176.2141908,176.5130756,176.5130756,177.5770637,177.5770637,177.5770637,177.5770637,177.5770637,177.5770637,177.5770637,177.5770637,177.5770637,177.5770637,177.5770637,177.5770637,177.5770637,177.5770637,177.5770637,177.5770637,177.5770637,42,55,28,69,69,64,None,None,43,43,[0.03611111111111111],[-0.2898148148148148],[1],[0],[0],[6.622976899991045],['tijiao'],0.2,0,,,,,,,,,,,,[],[],[],[],[],[],[],186.7303601,186.7303601,186.7303601,186.7303601,5.037037037,3.5917887,190.341,192.1538068,,,,,,180.0909603,180.0909603,180.0909603,180.0909603,180.0909603,180.0909603,180.0909603,180.0909603,0.0057562,180.0909603,,,,,,,235,f,21,2023-03-21_13h32.47.640,RL,2022.2.4,60.16582906
1,0,10,0,,,,,,,,,,None,192.1538068,192.1538068,192.1538068,192.1538068,192.1538068,192.1538068,j,0.6190831,192.8022595,192.8022595,192.8022595,192.8022595,192.8022595,192.8022595,193.1015677,193.1015677,194.3312963,194.3312963,194.3312963,194.3312963,194.3312963,194.3312963,194.3312963,194.3312963,194.3312963,194.3312963,194.3312963,194.3312963,194.3312963,194.3312963,194.3312963,194.3312963,194.3312963,42,54,47,61,61,72,None,None,66,66,[0.07685185185185185],[-0.2537037037037037],[1],[0],[0],[6.473347899998771],['tijiao'],-0.2,0,,,,,,,,,,,,[],[],[],[],[],[],[],203.3368166,203.3368166,203.3368166,203.3368166,6.925925926,3.6577118,207.0127096,208.8415494,,,,,,196.8413109,196.8413109,196.8413109,196.8413109,196.8413109,196.8413109,196.8413109,196.8413109,0.0051894,196.8413109,,,,,,,235,f,21,2023-03-21_13h32.47.640,RL,2022.2.4,60.16582906
0,0,11,0,,,,,,,,,,None,208.8415494,208.8415494,208.8415494,208.8415494,208.8415494,208.8415494,f,0.4589482,209.3238968,209.3238968,209.3238968,209.3238968,209.3238968,209.3238968,209.6231004,209.6231004,210.7198361,210.7198361,210.7198361,210.7198361,210.7198361,210.7198361,210.7198361,210.7198361,210.7198361,210.7198361,210.7198361,210.7198361,210.7198361,210.7198361,210.7198361,210.7198361,210.7198361,35,52,53,67,52,28,5,1.2461924,,,[],[],[],[],[],[],[],-0.6,2,,,,,,,,,,,,[],[],[],[],[],[],[],,,,,None,None,214.5014876,216.1052009,213.2287715,213.2287715,213.2287715,213.2287715,213.2287715,,,,,,,,,,,,,,,,,235,f,21,2023-03-21_13h32.47.640,RL,2022.2.4,60.16582906
1,0,12,0,,,,,,,,,,None,216.1052009,216.1052009,216.1052009,216.1052009,216.1052009,216.1052009,r,0.6668536,216.8038942,216.8038942,216.8038942,216.8038942,216.8038942,216.8038942,217.1023002,217.1023002,218.4988806,218.4988806,218.4988806,218.4988806,218.4988806,218.4988806,218.4988806,218.4988806,218.4988806,218.4988806,218.4988806,218.4988806,218.4988806,218.4988806,218.4988806,218.4988806,218.4988806,35,62,54,68,35,48,None,None,38,38,[0.05555555555555555],[-0.2518518518518518],[1],[0],[0],[11.99136849999195],['tijiao'],-0.6,0,,,,,,,,,,,,[],[],[],[],[],[],[],233.0234525,233.0234525,233.0234525,233.0234525,9.092592593,2.2592007,235.3016462,237.2309933,,,,,,221.0092621,221.0092621,221.0092621,221.0092621,221.0092621,221.0092621,221.0092621,221.0092621,0.0060441,221.0092621,,,,,,,235,f,21,2023-03-21_13h32.47.640,RL,2022.2.4,60.16582906
0,0,13,0,,,,,,,,,,None,237.2309933,237.2309933,237.2309933,237.2309933,237.2309933,237.2309933,j,0.3508412,237.6134729,237.6134729,237.6134729,237.6134729,237.6134729,237.6134729,237.9127111,237.9127111,238.7266133,238.7266133,238.7266133,238.7266133,238.7266133,238.7266133,238.7266133,238.7266133,238.7266133,238.7266133,238.7266133,238.7266133,238.7266133,238.7266133,238.7266133,238.7266133,238.7266133,33,47,56,70,70,71,6,1.095821,,,[],[],[],[],[],[],[],0.2,2,,,,,,,,,,,,[],[],[],[],[],[],[],,,,,None,None,242.3581369,244.1284829,241.2356592,241.2356592,241.2356592,241.2356592,241.2356592,,,,,,,,,,,,,,,,,235,f,21,2023-03-21_13h32.47.640,RL,2022.2.4,60.16582906
1,0,14,0,,,,,,,,,,None,244.1284829,244.1284829,244.1284829,244.1284829,244.1284829,244.1284829,j,0.6751259,244.8269703,244.8269703,244.8269703,244.8269703,244.8269703,244.8269703,245.1257549,245.1257549,247.0041528,247.0041528,247.0041528,247.0041528,247.0041528,247.0041528,247.0041528,247.0041528,247.0041528,247.0041528,247.0041528,247.0041528,247.0041528,247.0041528,247.0041528,247.0041528,247.0041528,25,52,61,72,72,70,6,2.0434467,,,[],[],[],[],[],[],[],-0.6,2,,,,,,,,,,,,[],[],[],[],[],[],[],,,,,None,None,251.5821099,253.286705,249.5134526,249.5134526,249.5134526,249.5134526,249.5134526,,,,,,,,,,,,,,,,,235,f,21,2023-03-21_13h32.47.640,RL,2022.2.4,60.16582906
0,0,15,0,,,,,,,,,,None,253.286705,253.286705,253.286705,253.286705,253.286705,253.286705,i,0.8526703,254.1681952,254.1681952,254.1681952,254.1681952,254.1681952,254.1681952,254.4672413,254.4672413,255.9633423,255.9633423,255.9633423,255.9633423,255.9633423,255.9633423,255.9633423,255.9633423,255.9633423,255.9633423,255.9633423,255.9633423,255.9633423,255.9633423,255.9633423,255.9633423,255.9633423,24,56,57,55,57,42,None,None,65,65,[0.014814814814814815],[-0.29259259259259257],[1],[0],[0],[4.2131374000018695],['tijiao'],0.6,0,,,,,,,,,,,,[],[],[],[],[],[],[],262.7071284,262.7071284,262.7071284,262.7071284,9.055555556,1.4309967,264.1564693,266.1352476,,,,,,258.4732167,258.4732167,258.4732167,258.4732167,258.4732167,258.4732167,258.4732167,258.4732167,0.0054104,258.4732167,,,,,,,235,f,21,2023-03-21_13h32.47.640,RL,2022.2.4,60.16582906
1,0,16,0,,,,,,,,,,None,266.1352476,266.1352476,266.1352476,266.1352476,266.1352476,266.1352476,j,0.3972867,266.5509539,266.5509539,266.5509539,266.5509539,266.5509539,266.5509539,266.8504085,266.8504085,268.7116916,268.7116916,268.7116916,268.7116916,268.7116916,268.7116916,268.7116916,268.7116916,268.7116916,268.7116916,268.7116916,268.7116916,268.7116916,268.7116916,268.7116916,268.7116916,268.7116916,23,57,53,65,65,65,7,2.0937526,,,[],[],[],[],[],[],[],0.6,3,,,,,,,,,,,,[],[],[],[],[],[],[],,,,,None,None,273.3386724,274.8947023,271.2207641,271.2207641,271.2207641,271.2207641,271.2207641,,,,,,,,,,,,,,,,,235,f,21,2023-03-21_13h32.47.640,RL,2022.2.4,60.16582906
0,0,17,0,,,,,,,,,,None,274.8947023,274.8947023,274.8947023,274.8947023,274.8947023,274.8947023,j,0.9820275,275.9090804,275.9090804,275.9090804,275.9090804,275.9090804,275.9090804,276.2079156,276.2079156,278.1693089,278.1693089,278.1693089,278.1693089,278.1693089,278.1693089,278.1693089,278.1693089,278.1693089,278.1693089,278.1693089,278.1693089,278.1693089,278.1693089,278.1693089,278.1693089,278.1693089,21,60,52,60,60,73,6,3.1075646,,,[],[],[],[],[],[],[],0.2,3,,,,,,,,,,,,[],[],[],[],[],[],[],,,,,None,None,283.8100812,285.5155822,280.6784662,280.6784662,280.6784662,280.6784662,280.6784662,,,,,,,,,,,,,,,,,235,f,21,2023-03-21_13h32.47.640,RL,2022.2.4,60.16582906
1,0,18,0,,,,,,,,,,None,285.5155822,285.5155822,285.5155822,285.5155822,285.5155822,285.5155822,i,0.5504046,286.0977055,286.0977055,286.0977055,286.0977055,286.0977055,286.0977055,286.3969394,286.3969394,287.2943876,287.2943876,287.2943876,287.2943876,287.2943876,287.2943876,287.2943876,287.2943876,287.2943876,287.2943876,287.2943876,287.2943876,287.2943876,287.2943876,287.2943876,287.2943876,287.2943876,26,51,57,62,57,63,5,2.6421575,,,[],[],[],[],[],[],[],0.2,3,,,,,,,,,,,,[],[],[],[],[],[],[],,,,,None,None,292.4730616,294.2750707,289.8034536,289.8034536,289.8034536,289.8034536,289.8034536,,,,,,,,,,,,,,,,,235,f,21,2023-03-21_13h32.47.640,RL,2022.2.4,60.16582906
0,0,19,0,,,,,,,,,,None,294.2750707,294.2750707,294.2750707,294.2750707,294.2750707,294.2750707,i,0.4475536,294.7407159,294.7407159,294.7407159,294.7407159,294.7407159,294.7407159,295.039896,295.039896,296.1864253,296.1864253,296.1864253,296.1864253,296.1864253,296.1864253,296.1864253,296.1864253,296.1864253,296.1864253,296.1864253,296.1864253,296.1864253,296.1864253,296.1864253,296.1864253,296.1864253,25,62,64,62,64,66,None,None,,,[],[],[],[],[],[],[],0.6,1,298.7033112,298.7033112,298.7033112,298.7033112,298.7033112,298.7033112,298.7033112,298.7033112,0.0057624,298.7033112,70,[-0.009259259259259259],[-0.3],[1],[0],[0],[6.632717100001173],['tijiao_random_2'],305.3486105,305.3486105,305.3486105,305.3486105,9.009259259,2.0208781,307.388359,308.9850797,,,,,,,,,,,,,,,,,,,,,,235,f,21,2023-03-21_13h32.47.640,RL,2022.2.4,60.16582906
1,0,20,0,,,,,,,,,,None,308.9850797,308.9850797,308.9850797,308.9850797,308.9850797,308.9850797,j,0.4984443,309.5033821,309.5033821,309.5033821,309.5033821,309.5033821,309.5033821,309.7996266,309.7996266,311.6113796,311.6113796,311.6280725,311.6280725,311.6280725,311.6280725,311.6280725,311.6280725,311.6280725,311.6280725,311.6280725,311.6280725,311.6280725,311.6280725,311.6280725,311.6280725,311.6280725,20,56,54,64,64,78,4,2.9913401,,,[],[],[],[],[],[],[],-0.6,3,,,,,,,,,,,,[],[],[],[],[],[],[],,,,,None,None,317.1528238,319.1405609,314.1369228,314.1369228,314.1369228,314.1369228,314.1369228,,,,,,,,,,,,,,,,,235,f,21,2023-03-21_13h32.47.640,RL,2022.2.4,60.16582906
0,0,21,0,,,,,,,,,,None,319.1405609,319.1405609,319.1405609,319.1405609,319.1405609,319.1405609,i,0.6960365,319.8579977,319.8579977,319.8579977,319.8579977,319.8579977,319.8579977,320.154745,320.154745,321.2018653,321.2018653,321.2018653,321.2018653,321.2018653,321.2018653,321.2018653,321.2018653,321.2018653,321.2018653,321.2018653,321.2018653,321.2018653,321.2018653,321.2018653,321.2018653,321.2018653,22,51,52,65,52,34,6,0.9970402,,,[],[],[],[],[],[],[],0.2,3,,,,,,,,,,,,[],[],[],[],[],[],[],,,,,None,None,324.7320697,326.4704124,323.7108147,323.7108147,323.7108147,323.7108147,323.7108147,,,,,,,,,,,,,,,,,235,f,21,2023-03-21_13h32.47.640,RL,2022.2.4,60.16582906
1,0,22,0,,,,,,,,,,None,326.4704124,326.4704124,326.4704124,326.4704124,326.4704124,326.4704124,f,0.4944991,326.9861347,326.9861347,326.9861347,326.9861347,326.9861347,326.9861347,327.2853916,327.2853916,329.1963253,329.1963253,329.1963253,329.1963253,329.1963253,329.1963253,329.1963253,329.1963253,329.1963253,329.1963253,329.1963253,329.1963253,329.1963253,329.1963253,329.1963253,329.1963253,329.1963253,25,58,62,64,58,72,None,None,,,[],[],[],[],[],[],[],-0.6,1,331.7136853,331.7136853,331.7136853,331.7136853,331.7136853,331.7136853,331.7136853,331.7136853,0.0058381,331.7136853,37,[0.010185185185185186],[-0.2675925925925926],[1],[0],[0],[7.646004599999287],['tijiao_random_2'],339.3732177,339.3732177,339.3732177,339.3732177,9.148148148,1.904319,341.2957022,342.9921561,,,,,,,,,,,,,,,,,,,,,,235,f,21,2023-03-21_13h32.47.640,RL,2022.2.4,60.16582906
0,0,23,0,,,,,,,,,,None,342.9921561,342.9921561,342.9921561,342.9921561,342.9921561,342.9921561,j,0.4964203,343.5093074,343.5093074,343.5093074,343.5093074,343.5093074,343.5093074,343.8064892,343.8064892,345.4358417,345.4358417,345.4358417,345.4358417,345.4358417,345.4358417,345.4358417,345.4358417,345.4358417,345.4358417,345.4358417,345.4358417,345.4358417,345.4358417,345.4358417,345.4358417,345.4358417,37,55,45,68,68,61,6,0.5809018,,,[],[],[],[],[],[],[],-0.6,2,,,,,,,,,,,,[],[],[],[],[],[],[],,,,,None,None,348.5499416,350.4881709,347.9447767,347.9447767,347.9447767,347.9447767,347.9447767,,,,,,,,,,,,,,,,,235,f,21,2023-03-21_13h32.47.640,RL,2022.2.4,60.16582906
1,0,24,0,,,,,,,,,,None,350.4881709,350.4881709,350.4881709,350.4881709,350.4881709,350.4881709,j,0.6267351,351.1372335,351.1372335,351.1372335,351.1372335,351.1372335,351.1372335,351.4358876,351.4358876,352.4664437,352.4664437,352.4664437,352.4664437,352.4664437,352.4664437,352.4664437,352.4664437,352.4664437,352.4664437,352.4664437,352.4664437,352.4664437,352.4664437,352.4664437,352.4664437,352.4664437,31,52,51,66,66,81,None,None,,,[],[],[],[],[],[],[],-0.6,1,354.9845308,354.9845308,354.9845308,354.9845308,354.9845308,354.9845308,354.9845308,354.9845308,0.0055143,354.9845308,30,[0.01574074074074074],[-0.2796296296296296],[1],[0],[0],[5.366834500004188],['tijiao_random_2'],360.363742,360.363742,360.363742,360.363742,9.12962963,1.6900686,362.0722792,363.7020756,,,,,,,,,,,,,,,,,,,,,,235,f,21,2023-03-21_13h32.47.640,RL,2022.2.4,60.16582906
0,0,25,0,,,,,,,,,,None,363.7020756,363.7020756,363.7020756,363.7020756,363.7020756,363.7020756,f,0.4289891,364.1513752,364.1513752,364.1513752,364.1513752,364.1513752,364.1513752,364.450617,364.450617,366.3453697,366.3453697,366.3453697,366.3453697,366.3453697,366.3453697,366.3453697,366.3453697,366.3453697,366.3453697,366.3453697,366.3453697,366.3453697,366.3453697,366.3453697,366.3453697,366.3453697,41,56,54,64,56,70,None,None,62,62,[-0.06388888888888888],[-0.3101851851851852],[1],[0],[0],[10.16223980000359],['tijiao'],-0.6,0,,,,,,,,,,,,[],[],[],[],[],[],[],379.0411941,379.0411941,379.0411941,379.0411941,8.814814815,2.2431339,381.3033217,383.2490781,,,,,,368.8565179,368.8565179,368.8565179,368.8565179,368.8565179,368.8565179,368.8565179,368.8565179,0.0068833,368.8565179,,,,,,,235,f,21,2023-03-21_13h32.47.640,RL,2022.2.4,60.16582906
1,0,26,0,,,,,,,,,,None,383.2490781,383.2490781,383.2490781,383.2490781,383.2490781,383.2490781,j,0.3876799,383.664762,383.664762,383.664762,383.664762,383.664762,383.664762,383.9639805,383.9639805,385.8090708,385.8090708,385.8090708,385.8090708,385.8090708,385.8090708,385.8090708,385.8090708,385.8090708,385.8090708,385.8090708,385.8090708,385.8090708,385.8090708,385.8090708,385.8090708,385.8090708,33,54,51,78,78,63,7,2.1104159,,,[],[],[],[],[],[],[],0.6,2,,,,,,,,,,,,[],[],[],[],[],[],[],,,,,None,None,390.4531524,392.2078255,388.3176922,388.3176922,388.3176922,388.3176922,388.3176922,,,,,,,,,,,,,,,,,235,f,21,2023-03-21_13h32.47.640,RL,2022.2.4,60.16582906
0,0,27,0,,,,,,,,,,None,392.2078255,392.2078255,392.2078255,392.2078255,392.2078255,392.2078255,j,0.5347351,392.7734365,392.7734365,392.7734365,392.7734365,392.7734365,392.7734365,393.0722831,393.0722831,393.9866058,393.9866058,393.9866058,393.9866058,393.9866058,393.9866058,393.9866058,393.9866058,393.9866058,393.9866058,393.9866058,393.9866058,393.9866058,393.9866058,393.9866058,393.9866058,393.9866058,36,60,55,69,69,57,7,1.7112287,,,[],[],[],[],[],[],[],0.2,2,,,,,,,,,,,,[],[],[],[],[],[],[],,,,,None,None,398.2319925,400.2192058,396.4958006,396.4958006,396.4958006,396.4958006,396.4958006,,,,,,,,,,,,,,,,,235,f,21,2023-03-21_13h32.47.640,RL,2022.2.4,60.16582906
1,0,28,0,,,,,,,,,,None,400.2192058,400.2192058,400.2192058,400.2192058,400.2192058,400.2192058,i,0.6953337,400.9358651,400.9358651,400.9358651,400.9358651,400.9358651,400.9358651,401.2334365,401.2334365,402.778807,402.778807,402.778807,402.778807,402.778807,402.778807,402.778807,402.778807,402.778807,402.778807,402.778807,402.778807,402.778807,402.778807,402.778807,402.778807,402.778807,41,55,57,69,57,73,None,None,,,[],[],[],[],[],[],[],-0.2,1,405.2979337,405.2979337,405.2979337,405.2979337,405.2979337,405.2979337,405.2979337,405.2979337,0.0055265,405.2979337,56,"[0.037037037037037035, 0.03611111111111111]","[-0.2462962962962963, -0.2824074074074074]","[1, 1]","[0, 0]","[0, 0]","[3.8217447999923024, 4.486621399992146]",['tijiao_random_2'],409.7976166,409.7976166,409.7976166,409.7976166,8.925925926,1.5717229,411.3878076,413.0840518,,,,,,,,,,,,,,,,,,,,,,235,f,21,2023-03-21_13h32.47.640,RL,2022.2.4,60.16582906
0,0,29,0,,,,,,,,,,None,413.0840518,413.0840518,413.0840518,413.0840518,413.0840518,413.0840518,j,0.6027846,413.7166062,413.7166062,413.7166062,413.7166062,413.7166062,413.7166062,414.0153801,414.0153801,415.8932174,415.8932174,415.8932174,415.8932174,415.8932174,415.8932174,415.8932174,415.8932174,415.8932174,415.8932174,415.8932174,415.8932174,415.8932174,415.8932174,415.8932174,415.8932174,415.8932174,39,54,56,75,75,65,None,None,73,73,[-0.012037037037037037],[-0.3111111111111111],[1],[0],[0],[5.176201800000854],['tijiao'],0.2,0,,,,,,,,,,,,[],[],[],[],[],[],[],423.6022349,423.6022349,423.6022349,423.6022349,9.861111111,1.8117354,425.432818,427.0293623,,,,,,418.4038772,418.4038772,418.4038772,418.4038772,418.4038772,418.4038772,418.4038772,418.4038772,0.0060002,418.4038772,,,,,,,235,f,21,2023-03-21_13h32.47.640,RL,2022.2.4,60.16582906
1,0,30,0,,,,,,,,,,None,427.0293623,427.0293623,427.0293623,427.0293623,427.0293623,427.0293623,j,0.5033404,427.5616337,427.5616337,427.5616337,427.5616337,427.5616337,427.5616337,427.8605275,427.8605275,429.8221549,429.8221549,429.8221549,429.8221549,429.8221549,429.8221549,429.8221549,429.8221549,429.8221549,429.8221549,429.8221549,429.8221549,429.8221549,429.8221549,429.8221549,429.8221549,429.8221549,34,54,59,71,71,57,6,1.6777089,,,[],[],[],[],[],[],[],-0.2,2,,,,,,,,,,,,[],[],[],[],[],[],[],,,,,None,None,434.0337583,435.7556482,432.3308724,432.3308724,432.3308724,432.3308724,432.3308724,,,,,,,,,,,,,,,,,235,f,21,2023-03-21_13h32.47.640,RL,2022.2.4,60.16582906
0,0,31,0,,,,,,,,,,None,435.7556482,435.7556482,435.7556482,435.7556482,435.7556482,435.7556482,j,0.6571421,436.4374925,436.4374925,436.4374925,436.4374925,436.4374925,436.4374925,436.7367127,436.7367127,437.8500325,437.8500325,437.8500325,437.8500325,437.8500325,437.8500325,437.8500325,437.8500325,437.8500325,437.8500325,437.8500325,437.8500325,437.8500325,437.8500325,437.8500325,437.8500325,437.8500325,37,38,53,65,65,55,6,1.8610383,,,[],[],[],[],[],[],[],0.2,2,,,,,,,,,,,,[],[],[],[],[],[],[],,,,,None,None,442.2471504,443.8501792,440.3593262,440.3593262,440.3593262,440.3593262,440.3593262,,,,,,,,,,,,,,,,,235,f,21,2023-03-21_13h32.47.640,RL,2022.2.4,60.16582906
1,0,32,0,,,,,,,,,,None,443.8501792,443.8501792,443.8501792,443.8501792,443.8501792,443.8501792,i,0.9782108,444.8478989,444.8478989,444.8478989,444.8478989,444.8478989,444.8478989,445.1471227,445.1471227,446.493033,446.493033,446.493033,446.493033,446.493033,446.493033,446.493033,446.493033,446.493033,446.493033,446.493033,446.493033,446.493033,446.493033,446.493033,446.493033,446.493033,36,50,69,73,69,69,None,None,71,71,[-0.005555555555555556],[-0.27870370370370373],[1],[0],[0],[6.324736299997312],['tijiao'],0.6,0,,,,,,,,,,,,[],[],[],[],[],[],[],455.3465607,455.3465607,455.3465607,455.3465607,10.00925926,2.2465745,457.6120542,459.3579232,,,,,,449.003637,449.003637,449.003637,449.003637,449.003637,449.003637,449.003637,449.003637,0.0051208,449.003637,,,,,,,235,f,21,2023-03-21_13h32.47.640,RL,2022.2.4,60.16582906
0,0,33,0,,,,,,,,,,None,459.3579232,459.3579232,459.3579232,459.3579232,459.3579232,459.3579232,j,0.3398803,459.7239196,459.7239196,459.7239196,459.7239196,459.7239196,459.7239196,460.0231213,460.0231213,461.2365126,461.2365126,461.2365126,461.2365126,461.2365126,461.2365126,461.2365126,461.2365126,461.2365126,461.2365126,461.2365126,461.2365126,461.2365126,461.2365126,461.2365126,461.2365126,461.2365126,29,51,66,76,76,79,None,None,65,65,[-0.046296296296296294],[-0.26944444444444443],[1],[0],[0],[7.00565620000998],['tijiao'],0.2,0,,,,,,,,,,,,[],[],[],[],[],[],[],470.7717375,470.7717375,470.7717375,470.7717375,8.074074074,2.5946074,473.3854911,474.9154114,,,,,,463.746902,463.746902,463.746902,463.746902,463.746902,463.746902,463.746902,463.746902,0.0053221,463.746902,,,,,,,235,f,21,2023-03-21_13h32.47.640,RL,2022.2.4,60.16582906
1,0,34,0,,,,,,,,,,None,474.9154114,474.9154114,474.9154114,474.9154114,474.9154114,474.9154114,j,0.3113295,475.2481958,475.2481958,475.2481958,475.2481958,475.2481958,475.2481958,475.5472948,475.5472948,476.6272589,476.6272589,476.6444479,476.6444479,476.6444479,476.6444479,476.6444479,476.6444479,476.6444479,476.6444479,476.6444479,476.6444479,476.6444479,476.6444479,476.6444479,476.6444479,476.6444479,29,48,57,79,79,69,7,1.860949,,,[],[],[],[],[],[],[],0.6,2,,,,,,,,,,,,[],[],[],[],[],[],[],,,,,None,None,481.0380339,482.6775119,479.1531319,479.1531319,479.1531319,479.1531319,479.1531319,,,,,,,,,,,,,,,,,235,f,21,2023-03-21_13h32.47.640,RL,2022.2.4,60.16582906
0,0,35,0,,,,,,,,,,None,482.6775119,482.6775119,482.6775119,482.6775119,482.6775119,482.6775119,r,0.9647914,483.6756644,483.6756644,483.6756644,483.6756644,483.6756644,483.6756644,483.9745292,483.9745292,485.8191091,485.8191091,485.8191091,485.8191091,485.8191091,485.8191091,485.8191091,485.8191091,485.8191091,485.8191091,485.8191091,485.8191091,485.8191091,485.8191091,485.8191091,485.8191091,485.8191091,39,47,61,77,39,75,None,None,,,[],[],[],[],[],[],[],0.2,1,488.3372165,488.3372165,488.3372165,488.3372165,488.3372165,488.3372165,488.3372165,488.3372165,0.0056839,488.3372165,61,[0.025925925925925925],[-0.2611111111111111],[1],[0],[0],[5.716855100006796],['tijiao_random_2'],494.0681639,494.0681639,494.0681639,494.0681639,7.861111111,2.1372172,496.2232484,498.1684895,,,,,,,,,,,,,,,,,,,,,,235,f,21,2023-03-21_13h32.47.640,RL,2022.2.4,60.16582906
1,0,36,0,,,,,,,,,,None,498.1684895,498.1684895,498.1684895,498.1684895,498.1684895,498.1684895,j,0.4481686,498.6350025,498.6350025,498.6350025,498.6350025,498.6350025,498.6350025,498.9334447,498.9334447,499.7811031,499.7811031,499.7811031,499.7811031,499.7811031,499.7811031,499.7811031,499.7811031,499.7811031,499.7811031,499.7811031,499.7811031,499.7811031,499.7811031,499.7811031,499.7811031,499.7811031,37,54,62,75,75,68,None,None,68,68,[0.07777777777777778],[-0.31296296296296294],[1],[0],[0],[6.754602099987096],['tijiao'],-0.2,0,,,,,,,,,,,,[],[],[],[],[],[],[],509.0670793,509.0670793,509.0670793,509.0670793,8.935185185,2.1798269,511.2652513,512.9284387,,,,,,502.2926807,502.2926807,502.2926807,502.2926807,502.2926807,502.2926807,502.2926807,502.2926807,0.0068766,502.2926807,,,,,,,235,f,21,2023-03-21_13h32.47.640,RL,2022.2.4,60.16582906
0,0,37,0,,,,,,,,,,None,512.9284387,512.9284387,512.9284387,512.9284387,512.9284387,512.9284387,j,0.2536391,513.2112247,513.2112247,513.2112247,513.2112247,513.2112247,513.2112247,513.5101395,513.5101395,514.8734048,514.8734048,514.8734048,514.8734048,514.8734048,514.8734048,514.8734048,514.8734048,514.8734048,514.8734048,514.8734048,514.8734048,514.8734048,514.8734048,514.8734048,514.8734048,514.8734048,39,50,63,76,76,65,6,1.5276361,,,[],[],[],[],[],[],[],0.6,2,,,,,,,,,,,,[],[],[],[],[],[],[],,,,,None,None,518.9347802,520.4745499,517.3827184,517.3827184,517.3827184,517.3827184,517.3827184,,,,,,,,,,,,,,,,,235,f,21,2023-03-21_13h32.47.640,RL,2022.2.4,60.16582906
1,0,38,0,,,,,,,,,,None,520.4745499,520.4745499,520.4745499,520.4745499,520.4745499,520.4745499,j,0.5792928,521.0730966,521.0730966,521.0730966,521.0730966,521.0730966,521.0730966,521.3724292,521.3724292,523.0008389,523.0008389,523.0008389,523.0008389,523.0008389,523.0008389,523.0008389,523.0008389,523.0008389,523.0008389,523.0008389,523.0008389,523.0008389,523.0008389,523.0008389,523.0008389,523.0008389,41,54,57,75,75,74,7,2.0271365,,,[],[],[],[],[],[],[],-0.2,3,,,,,,,,,,,,[],[],[],[],[],[],[],,,,,None,None,527.5615456,529.3004395,525.5101574,525.5101574,525.5101574,525.5101574,525.5101574,,,,,,,,,,,,,,,,,235,f,21,2023-03-21_13h32.47.640,RL,2022.2.4,60.16582906
0,0,39,0,,,,,,,,,,None,529.3004395,529.3004395,529.3004395,529.3004395,529.3004395,529.3004395,j,0.6040545,529.9330634,529.9330634,529.9330634,529.9330634,529.9330634,529.9330634,530.2311906,530.2311906,531.8268218,531.8268218,531.8268218,531.8268218,531.8268218,531.8268218,531.8268218,531.8268218,531.8268218,531.8268218,531.8268218,531.8268218,531.8268218,531.8268218,531.8268218,531.8268218,531.8268218,43,52,70,75,75,73,7,1.7276545,,,[],[],[],[],[],[],[],-0.6,3,,,,,,,,,,,,[],[],[],[],[],[],[],,,,,None,None,536.0908622,537.9101531,534.3358424,534.3358424,534.3358424,534.3358424,534.3358424,,,,,,,,,,,,,,,,,235,f,21,2023-03-21_13h32.47.640,RL,2022.2.4,60.16582906
1,0,40,0,,,,,,,,,,None,537.9101531,537.9101531,537.9101531,537.9101531,537.9101531,537.9101531,j,0.5143482,538.4424802,538.4424802,538.4424802,538.4424802,538.4424802,538.4424802,538.7412558,538.7412558,539.8551338,539.8551338,539.8551338,539.8551338,539.8551338,539.8551338,539.8551338,539.8551338,539.8551338,539.8551338,539.8551338,539.8551338,539.8551338,539.8551338,539.8551338,539.8551338,539.8551338,34,57,68,74,74,59,None,None,,,[],[],[],[],[],[],[],-0.6,1,542.3716116,542.3716116,542.3716116,542.3716116,542.3716116,542.3716116,542.3716116,542.3716116,0.0055837,542.3716116,35,[0.03425925925925926],[-0.2777777777777778],[1],[0],[0],[4.089270399999805],['tijiao_random_2'],546.4738088,546.4738088,546.4738088,546.4738088,10.07407407,1.356591,547.848851,549.6943625,,,,,,,,,,,,,,,,,,,,,,235,f,21,2023-03-21_13h32.47.640,RL,2022.2.4,60.16582906
0,0,41,0,,,,,,,,,,None,549.6943625,549.6943625,549.6943625,549.6943625,549.6943625,549.6943625,j,0.4280746,550.1460621,550.1460621,550.1460621,550.1460621,550.1460621,550.1460621,550.4430371,550.4430371,551.3239389,551.3239389,551.3239389,551.3239389,551.3239389,551.3239389,551.3239389,551.3239389,551.3239389,551.3239389,551.3239389,551.3239389,551.3239389,551.3239389,551.3239389,551.3239389,551.3239389,41,62,67,77,77,70,7,1.8770351,,,[],[],[],[],[],[],[],0.6,2,,,,,,,,,,,,[],[],[],[],[],[],[],,,,,None,None,555.7346318,557.7228681,553.8326597,553.8326597,553.8326597,553.8326597,553.8326597,,,,,,,,,,,,,,,,,235,f,21,2023-03-21_13h32.47.640,RL,2022.2.4,60.16582906
1,0,42,0,,,,,,,,,,None,557.7228681,557.7228681,557.7228681,557.7228681,557.7228681,557.7228681,j,0.4499451,558.2055013,558.2055013,558.2055013,558.2055013,558.2055013,558.2055013,558.5044354,558.5044354,559.7008991,559.7008991,559.7008991,559.7008991,559.7008991,559.7008991,559.7008991,559.7008991,559.7008991,559.7008991,559.7008991,559.7008991,559.7008991,559.7008991,559.7008991,559.7008991,559.7008991,42,67,70,70,70,74,6,2.1090661,,,[],[],[],[],[],[],[],0.6,3,,,,,,,,,,,,[],[],[],[],[],[],[],,,,,None,None,564.3541703,566.2994167,562.2098499,562.2098499,562.2098499,562.2098499,562.2098499,,,,,,,,,,,,,,,,,235,f,21,2023-03-21_13h32.47.640,RL,2022.2.4,60.16582906
0,0,43,0,,,,,,,,,,None,566.2994167,566.2994167,566.2994167,566.2994167,566.2994167,566.2994167,j,0.4892421,566.8150489,566.8150489,566.8150489,566.8150489,566.8150489,566.8150489,567.1142276,567.1142276,568.4106014,568.4106014,568.4106014,568.4106014,568.4106014,568.4106014,568.4106014,568.4106014,568.4106014,568.4106014,568.4106014,568.4106014,568.4106014,568.4106014,568.4106014,568.4106014,568.4106014,40,60,68,69,69,56,None,None,,,[],[],[],[],[],[],[],-0.2,1,570.9279566,570.9279566,570.9279566,570.9279566,570.9279566,570.9279566,570.9279566,570.9279566,0.0054465,570.9279566,56,[-0.05],[-0.30462962962962964],[1],[0],[0],[4.20475649999571],['tijiao_random_2'],575.1476195,575.1476195,575.1476195,575.1476195,9.861111111,2.5688602,577.7343579,579.3306848,,,,,,,,,,,,,,,,,,,,,,235,f,21,2023-03-21_13h32.47.640,RL,2022.2.4,60.16582906
1,0,44,0,,,,,,,,,,None,579.3306848,579.3306848,579.3306848,579.3306848,579.3306848,579.3306848,j,0.2730905,579.6325628,579.6325628,579.6325628,579.6325628,579.6325628,579.6325628,579.9292096,579.9292096,581.142255,581.142255,581.142255,581.142255,581.142255,581.142255,581.142255,581.142255,581.142255,581.142255,581.142255,581.142255,581.142255,581.142255,581.142255,581.142255,581.142255,32,61,66,76,76,76,6,1.7946208,,,[],[],[],[],[],[],[],-0.2,2,,,,,,,,,,,,[],[],[],[],[],[],[],,,,,None,None,585.4708461,587.474909,583.6517123,583.6517123,583.6517123,583.6517123,583.6517123,,,,,,,,,,,,,,,,,235,f,21,2023-03-21_13h32.47.640,RL,2022.2.4,60.16582906
0,0,45,0,,,,,,,,,,None,587.474909,587.474909,587.474909,587.474909,587.474909,587.474909,j,0.4843543,587.9906314,587.9906314,587.9906314,587.9906314,587.9906314,587.9906314,588.289615,588.289615,589.3862704,589.3862704,589.3862704,589.3862704,589.3862704,589.3862704,589.3862704,589.3862704,589.3862704,589.3862704,589.3862704,589.3862704,589.3862704,589.3862704,589.3862704,589.3862704,589.3862704,31,63,65,66,66,47,None,None,,,[],[],[],[],[],[],[],0.2,1,591.9031079,591.9031079,591.9031079,591.9031079,591.9031079,591.9031079,591.9031079,591.9031079,0.0055147,591.9031079,62,[0.07685185185185185],[-0.26481481481481484],[1],[0],[0],[4.770942800008925],['tijiao_random_2'],596.6881494,596.6881494,596.6881494,596.6881494,7.981481481,1.4718149,598.1779537,600.0739357,,,,,,,,,,,,,,,,,,,,,,235,f,21,2023-03-21_13h32.47.640,RL,2022.2.4,60.16582906
1,0,46,0,,,,,,,,,,None,600.0739357,600.0739357,600.0739357,600.0739357,600.0739357,600.0739357,i,0.4163841,600.523395,600.523395,600.523395,600.523395,600.523395,600.523395,600.821961,600.821961,602.2351132,602.2351132,602.2351132,602.2351132,602.2351132,602.2351132,602.2351132,602.2351132,602.2351132,602.2351132,602.2351132,602.2351132,602.2351132,602.2351132,602.2351132,602.2351132,602.2351132,28,63,60,68,60,62,5,1.7779401,,,[],[],[],[],[],[],[],-0.6,3,,,,,,,,,,,,[],[],[],[],[],[],[],,,,,None,None,606.547364,608.434416,604.7441862,604.7441862,604.7441862,604.7441862,604.7441862,,,,,,,,,,,,,,,,,235,f,21,2023-03-21_13h32.47.640,RL,2022.2.4,60.16582906
0,0,47,0,,,,,,,,,,None,608.434416,608.434416,608.434416,608.434416,608.434416,608.434416,i,0.2770059,608.7340914,608.7340914,608.7340914,608.7340914,608.7340914,608.7340914,609.0331709,609.0331709,610.4289159,610.4289159,610.4289159,610.4289159,610.4289159,610.4289159,610.4289159,610.4289159,610.4289159,610.4289159,610.4289159,610.4289159,610.4289159,610.4289159,610.4289159,610.4289159,610.4289159,53,59,57,71,57,57,None,None,69,69,[0.09444444444444444],[-0.2777777777777778],[1],[0],[0],[7.735536199994385],['tijiao'],0.2,0,,,,,,,,,,,,[],[],[],[],[],[],[],620.6979952,620.6979952,620.6979952,620.6979952,9.12037037,2.011165,622.7276769,624.4074606,,,,,,612.939186,612.939186,612.939186,612.939186,612.939186,612.939186,612.939186,612.939186,0.006023,612.939186,,,,,,,235,f,21,2023-03-21_13h32.47.640,RL,2022.2.4,60.16582906
1,0,48,0,,,,,,,,,,None,624.4074606,624.4074606,624.4074606,624.4074606,624.4074606,624.4074606,j,0.3077477,624.7407027,624.7407027,624.7407027,624.7407027,624.7407027,624.7407027,625.0390721,625.0390721,626.4188252,626.4188252,626.4188252,626.4188252,626.4188252,626.4188252,626.4188252,626.4188252,626.4188252,626.4188252,626.4188252,626.4188252,626.4188252,626.4188252,626.4188252,626.4188252,626.4188252,39,65,66,74,74,77,None,None,,,[],[],[],[],[],[],[],-0.2,1,628.9355397,628.9355397,628.9355397,628.9355397,628.9355397,628.9355397,628.9355397,628.9355397,0.0054694,628.9355397,55,[0.12314814814814815],[-0.26944444444444443],[1],[0],[0],[4.2057045999972615],['tijiao_random_2'],633.1550824,633.1550824,633.1550824,633.1550824,7.805555556,1.3388217,634.5122,636.4910336,,,,,,,,,,,,,,,,,,,,,,235,f,21,2023-03-21_13h32.47.640,RL,2022.2.4,60.16582906
0,0,49,0,,,,,,,,,,None,636.4910336,636.4910336,636.4910336,636.4910336,636.4910336,636.4910336,j,0.4515848,636.973639,636.973639,636.973639,636.973639,636.973639,636.973639,637.2727186,637.2727186,638.6023325,638.6023325,638.6023325,638.6023325,638.6023325,638.6023325,638.6023325,638.6023325,638.6023325,638.6023325,638.6023325,638.6023325,638.6023325,638.6023325,638.6023325,638.6023325,638.6023325,44,55,68,81,81,79,None,None,,,[],[],[],[],[],[],[],0.2,1,641.1197765,641.1197765,641.1197765,641.1197765,641.1197765,641.1197765,641.1197765,641.1197765,0.006034,641.1197765,60,[0.012037037037037037],[-0.29814814814814816],[1],[0],[0],[6.631432499998482],['tijiao_random_2'],647.763821,647.763821,647.763821,647.763821,7.824074074,2.4869599,650.2692498,651.8824441,,,,,,,,,,,,,,,,,,,,,,235,f,21,2023-03-21_13h32.47.640,RL,2022.2.4,60.16582906
1,0,50,0,,,,,,,,,,None,651.8824441,651.8824441,651.8824441,651.8824441,651.8824441,651.8824441,j,0.5553085,652.4645966,652.4645966,652.4645966,652.4645966,652.4645966,652.4645966,652.7638097,652.7638097,653.6114058,653.6114058,653.6114058,653.6114058,653.6114058,653.6114058,653.6114058,653.6114058,653.6114058,653.6114058,653.6114058,653.6114058,653.6114058,653.6114058,653.6114058,653.6114058,653.6114058,43,58,69,75,75,78,5,1.6774964,,,[],[],[],[],[],[],[],0.6,2,,,,,,,,,,,,[],[],[],[],[],[],[],,,,,None,None,657.8229684,659.4618897,656.1203461,656.1203461,656.1203461,656.1203461,656.1203461,,,,,,,,,,,,,,,,,235,f,21,2023-03-21_13h32.47.640,RL,2022.2.4,60.16582906
0,0,51,0,,,,,,,,,,None,659.4618897,659.4618897,659.4618897,659.4618897,659.4618897,659.4618897,j,0.5571581,660.0454076,660.0454076,660.0454076,660.0454076,660.0454076,660.0454076,660.3430231,660.3430231,661.5229597,661.5229597,661.5229597,661.5229597,661.5229597,661.5229597,661.5229597,661.5229597,661.5229597,661.5229597,661.5229597,661.5229597,661.5229597,661.5229597,661.5229597,661.5229597,661.5229597,44,61,64,83,83,50,None,None,,,[],[],[],[],[],[],[],-0.6,1,664.0392306,664.0392306,664.0392306,664.0392306,664.0392306,664.0392306,664.0392306,664.0392306,0.0057422,664.0392306,30,[0.044444444444444446],[-0.2777777777777778],[1],[0],[0],[7.513342400008696],['tijiao_random_2'],671.5649959,671.5649959,671.5649959,671.5649959,9.018518519,2.3373946,673.9212552,675.7673016,,,,,,,,,,,,,,,,,,,,,,235,f,21,2023-03-21_13h32.47.640,RL,2022.2.4,60.16582906
1,0,52,0,,,,,,,,,,None,675.7673016,675.7673016,675.7673016,675.7673016,675.7673016,675.7673016,j,0.3054895,676.1007536,676.1007536,676.1007536,676.1007536,676.1007536,676.1007536,676.3992195,676.3992195,677.379716,677.379716,677.379716,677.379716,677.379716,677.379716,677.379716,677.379716,677.379716,677.379716,677.379716,677.379716,677.379716,677.379716,677.379716,677.379716,677.379716,57,63,63,80,80,69,None,None,78,78,[0.049074074074074076],[-0.29444444444444445],[1],[0],[0],[4.710189100005664],['tijiao'],-0.6,0,,,,,,,,,,,,[],[],[],[],[],[],[],684.6246976,684.6246976,684.6246976,684.6246976,10.15740741,2.0935743,686.7363005,688.3662891,,,,,,679.8912137,679.8912137,679.8912137,679.8912137,679.8912137,679.8912137,679.8912137,679.8912137,0.0069434,679.8912137,,,,,,,235,f,21,2023-03-21_13h32.47.640,RL,2022.2.4,60.16582906
0,0,53,0,,,,,,,,,,None,688.3662891,688.3662891,688.3662891,688.3662891,688.3662891,688.3662891,j,0.2873939,688.6828805,688.6828805,688.6828805,688.6828805,688.6828805,688.6828805,688.9815907,688.9815907,690.9760193,690.9760193,690.9760193,690.9760193,690.9760193,690.9760193,690.9760193,690.9760193,690.9760193,690.9760193,690.9760193,690.9760193,690.9760193,690.9760193,690.9760193,690.9760193,690.9760193,49,59,71,88,88,74,None,None,,,[],[],[],[],[],[],[],0.6,1,693.4931277,693.4931277,693.4931277,693.4931277,693.4931277,693.4931277,693.4931277,693.4931277,0.0060133,693.4931277,88,[-0.05],[-0.2777777777777778],[1],[0],[0],[5.9165967000008095],['tijiao_random_2'],699.4218436,699.4218436,699.4218436,699.4218436,10.00925926,1.9559117,701.3964318,703.3088874,,,,,,,,,,,,,,,,,,,,,,235,f,21,2023-03-21_13h32.47.640,RL,2022.2.4,60.16582906
1,0,54,0,,,,,,,,,,None,703.3088874,703.3088874,703.3088874,703.3088874,703.3088874,703.3088874,j,0.4439456,703.7747566,703.7747566,703.7747566,703.7747566,703.7747566,703.7747566,704.0738178,704.0738178,705.9515717,705.9515717,705.9515717,705.9515717,705.9515717,705.9515717,705.9515717,705.9515717,705.9515717,705.9515717,705.9515717,705.9515717,705.9515717,705.9515717,705.9515717,705.9515717,705.9515717,45,62,72,89,89,80,7,2.442813,,,[],[],[],[],[],[],[],-0.2,2,,,,,,,,,,,,[],[],[],[],[],[],[],,,,,None,None,710.9271072,712.633386,708.4610664,708.4610664,708.4610664,708.4610664,708.4610664,,,,,,,,,,,,,,,,,235,f,21,2023-03-21_13h32.47.640,RL,2022.2.4,60.16582906
0,0,55,0,,,,,,,,,,None,712.633386,712.633386,712.633386,712.633386,712.633386,712.633386,j,0.3345568,712.9993608,712.9993608,712.9993608,712.9993608,712.9993608,712.9993608,713.2982849,713.2982849,714.3121593,714.3121593,714.3121593,714.3121593,714.3121593,714.3121593,714.3121593,714.3121593,714.3121593,714.3121593,714.3121593,714.3121593,714.3121593,714.3121593,714.3121593,714.3121593,714.3121593,49,60,73,82,82,71,None,None,,,[],[],[],[],[],[],[],0.2,1,716.8306429,716.8306429,716.8306429,716.8306429,716.8306429,716.8306429,716.8306429,716.8306429,0.0055169,716.8306429,60,[-0.024074074074074074],[-0.2740740740740741],[1],[0],[0],[4.901559500009171],['tijiao_random_2'],721.7457488,721.7457488,721.7457488,721.7457488,8.990740741,2.0049011,723.7687216,725.3986165,,,,,,,,,,,,,,,,,,,,,,235,f,21,2023-03-21_13h32.47.640,RL,2022.2.4,60.16582906
1,0,56,0,,,,,,,,,,None,725.3986165,725.3986165,725.3986165,725.3986165,725.3986165,725.3986165,i,0.3607489,725.7816348,725.7816348,725.7816348,725.7816348,725.7816348,725.7816348,726.0799219,726.0799219,727.3433255,727.3433255,727.3603117,727.3603117,727.3603117,727.3603117,727.3603117,727.3603117,727.3603117,727.3603117,727.3603117,727.3603117,727.3603117,727.3603117,727.3603117,727.3603117,727.3603117,43,58,66,70,66,39,6,3.2403031,,,[],[],[],[],[],[],[],-0.2,2,,,,,,,,,,,,[],[],[],[],[],[],[],,,,,None,None,733.1341679,734.7396114,729.8690828,729.8690828,729.8690828,729.8690828,729.8690828,,,,,,,,,,,,,,,,,235,f,21,2023-03-21_13h32.47.640,RL,2022.2.4,60.16582906
0,0,57,0,,,,,,,,,,None,734.7396114,734.7396114,734.7396114,734.7396114,734.7396114,734.7396114,j,0.380308,735.13945,735.13945,735.13945,735.13945,735.13945,735.13945,735.4382045,735.4382045,736.9669501,736.9669501,736.9669501,736.9669501,736.9669501,736.9669501,736.9669501,736.9669501,736.9669501,736.9669501,736.9669501,736.9669501,736.9669501,736.9669501,736.9669501,736.9669501,736.9669501,42,58,70,79,79,41,7,1.9276681,,,[],[],[],[],[],[],[],-0.2,2,,,,,,,,,,,,[],[],[],[],[],[],[],,,,,None,None,741.4281751,743.2830727,739.475908,739.475908,739.475908,739.475908,739.475908,,,,,,,,,,,,,,,,,235,f,21,2023-03-21_13h32.47.640,RL,2022.2.4,60.16582906
1,0,58,0,,,,,,,,,,None,743.2830727,743.2830727,743.2830727,743.2830727,743.2830727,743.2830727,j,0.4472217,743.7493886,743.7493886,743.7493886,743.7493886,743.7493886,743.7493886,744.0479864,744.0479864,745.9592899,745.9592899,745.9592899,745.9592899,745.9592899,745.9592899,745.9592899,745.9592899,745.9592899,745.9592899,745.9592899,745.9592899,745.9592899,745.9592899,745.9592899,745.9592899,745.9592899,55,58,76,83,83,68,7,2.2099099,,,[],[],[],[],[],[],[],-0.6,2,,,,,,,,,,,,[],[],[],[],[],[],[],,,,,None,None,750.703256,752.3585552,748.468349,748.468349,748.468349,748.468349,748.468349,,,,,,,,,,,,,,,,,235,f,21,2023-03-21_13h32.47.640,RL,2022.2.4,60.16582906
0,0,59,0,,,,,,,,,,None,752.3585552,752.3585552,752.3585552,752.3585552,752.3585552,752.3585552,j,0.4274971,752.8076123,752.8076123,752.8076123,752.8076123,752.8076123,752.8076123,753.1067596,753.1067596,754.1867005,754.1867005,754.1867005,754.1867005,754.1867005,754.1867005,754.1867005,754.1867005,754.1867005,754.1867005,754.1867005,754.1867005,754.1867005,754.1867005,754.1867005,754.1867005,754.1867005,58,58,72,79,79,43,6,3.0078402,,,[],[],[],[],[],[],[],0.2,2,,,,,,,,,,,,[],[],[],[],[],[],[],,,,,None,None,759.7283788,761.5663063,756.6955683,756.6955683,756.6955683,756.6955683,756.6955683,,,,,,,,,,,,,,,,,235,f,21,2023-03-21_13h32.47.640,RL,2022.2.4,60.16582906
1,0,60,0,,,,,,,,,,None,761.5663063,761.5663063,761.5663063,761.5663063,761.5663063,761.5663063,j,0.3647895,761.9491595,761.9491595,761.9491595,761.9491595,761.9491595,761.9491595,762.24837,762.24837,763.1459362,763.1459362,763.1459362,763.1459362,763.1459362,763.1459362,763.1459362,763.1459362,763.1459362,763.1459362,763.1459362,763.1459362,763.1459362,763.1459362,763.1459362,763.1459362,763.1459362,62,60,69,75,75,43,6,2.1269767,,,[],[],[],[],[],[],[],0.6,3,,,,,,,,,,,,[],[],[],[],[],[],[],,,,,None,None,767.8064319,769.54476,765.6548742,765.6548742,765.6548742,765.6548742,765.6548742,,,,,,,,,,,,,,,,,235,f,21,2023-03-21_13h32.47.640,RL,2022.2.4,60.16582906
0,0,61,0,,,,,,,,,,None,769.54476,769.54476,769.54476,769.54476,769.54476,769.54476,i,0.3236991,769.8944636,769.8944636,769.8944636,769.8944636,769.8944636,769.8944636,770.1929152,770.1929152,771.0574044,771.0574044,771.0574044,771.0574044,771.0574044,771.0574044,771.0574044,771.0574044,771.0574044,771.0574044,771.0574044,771.0574044,771.0574044,771.0574044,771.0574044,771.0574044,771.0574044,50,65,71,86,71,39,6,2.6587908,,,[],[],[],[],[],[],[],-0.2,2,,,,,,,,,,,,[],[],[],[],[],[],[],,,,,None,None,776.2501656,777.7557705,773.5667635,773.5667635,773.5667635,773.5667635,773.5667635,,,,,,,,,,,,,,,,,235,f,21,2023-03-21_13h32.47.640,RL,2022.2.4,60.16582906
1,0,62,0,,,,,,,,,,None,777.7557705,777.7557705,777.7557705,777.7557705,777.7557705,777.7557705,i,0.3940625,778.1725534,778.1725534,778.1725534,778.1725534,778.1725534,778.1725534,778.4707672,778.4707672,779.7666735,779.7666735,779.783708,779.783708,779.783708,779.783708,779.783708,779.783708,779.783708,779.783708,779.783708,779.783708,779.783708,779.783708,779.783708,779.783708,779.783708,51,48,70,78,70,72,5,2.70854,,,[],[],[],[],[],[],[],0.6,2,,,,,,,,,,,,[],[],[],[],[],[],[],,,,,None,None,785.0254521,786.8975719,782.2928482,782.2928482,782.2928482,782.2928482,782.2928482,,,,,,,,,,,,,,,,,235,f,21,2023-03-21_13h32.47.640,RL,2022.2.4,60.16582906
0,0,63,0,,,,,,,,,,None,786.8975719,786.8975719,786.8975719,786.8975719,786.8975719,786.8975719,j,0.3358219,787.2636443,787.2636443,787.2636443,787.2636443,787.2636443,787.2636443,787.5626445,787.5626445,788.809153,788.809153,788.809153,788.809153,788.809153,788.809153,788.809153,788.809153,788.809153,788.809153,788.809153,788.809153,788.809153,788.809153,788.809153,788.809153,788.809153,54,60,74,80,80,70,None,None,,,[],[],[],[],[],[],[],0.6,1,791.3276802,791.3276802,791.3276802,791.3276802,791.3276802,791.3276802,791.3276802,791.3276802,0.0052662,791.3276802,80,[-0.030555555555555555],[-0.2638888888888889],[1],[0],[0],[7.295902300000307],['tijiao_random_2'],798.6375756,798.6375756,798.6375756,798.6375756,9.87037037,2.2359352,800.8915018,802.5381899,,,,,,,,,,,,,,,,,,,,,,235,f,21,2023-03-21_13h32.47.640,RL,2022.2.4,60.16582906
1,0,64,0,,,,,,,,,,None,802.5381899,802.5381899,802.5381899,802.5381899,802.5381899,802.5381899,j,0.2441964,802.8046982,802.8046982,802.8046982,802.8046982,802.8046982,802.8046982,803.1033691,803.1033691,804.3334903,804.3334903,804.3334903,804.3334903,804.3334903,804.3334903,804.3334903,804.3334903,804.3334903,804.3334903,804.3334903,804.3334903,804.3334903,804.3334903,804.3334903,804.3334903,804.3334903,46,45,69,82,82,59,None,None,83,83,[0.04814814814814815],[-0.2935185185185185],[1],[0],[0],[5.227545800007647],['tijiao'],0.6,0,,,,,,,,,,,,[],[],[],[],[],[],[],812.0896559,812.0896559,812.0896559,812.0896559,10.08333333,2.0800024,814.1885555,815.885006,,,,,,806.8437713,806.8437713,806.8437713,806.8437713,806.8437713,806.8437713,806.8437713,806.8437713,0.0046113,806.8437713,,,,,,,235,f,21,2023-03-21_13h32.47.640,RL,2022.2.4,60.16582906
0,0,65,0,,,,,,,,,,None,815.885006,815.885006,815.885006,815.885006,815.885006,815.885006,j,0.2724872,816.1848128,816.1848128,816.1848128,816.1848128,816.1848128,816.1848128,816.4837389,816.4837389,817.4307709,817.4307709,817.4307709,817.4307709,817.4307709,817.4307709,817.4307709,817.4307709,817.4307709,817.4307709,817.4307709,817.4307709,817.4307709,817.4307709,817.4307709,817.4307709,817.4307709,51,48,65,74,74,50,None,None,80,80,[-0.06574074074074074],[-0.29259259259259257],[1],[0],[0],[4.293835099990247],['tijiao'],0.2,0,,,,,,,,,,,,[],[],[],[],[],[],[],824.2579138,824.2579138,824.2579138,824.2579138,9.009259259,2.5947793,826.8708153,828.7498849,,,,,,819.942818,819.942818,819.942818,819.942818,819.942818,819.942818,819.942818,819.942818,0.0077298,819.942818,,,,,,,235,f,21,2023-03-21_13h32.47.640,RL,2022.2.4,60.16582906
1,0,66,0,,,,,,,,,,None,828.7498849,828.7498849,828.7498849,828.7498849,828.7498849,828.7498849,j,0.2735414,829.0495961,829.0495961,829.0495961,829.0495961,829.0495961,829.0495961,829.3486791,829.3486791,830.1956882,830.1956882,830.212832,830.212832,830.212832,830.212832,830.212832,830.212832,830.212832,830.212832,830.212832,830.212832,830.212832,830.212832,830.212832,830.212832,830.212832,47,44,79,68,68,52,3,3.5229126,,,[],[],[],[],[],[],[],0.2,3,,,,,,,,,,,,[],[],[],[],[],[],[],,,,,None,None,836.2684024,838.1077434,832.7215376,832.7215376,832.7215376,832.7215376,832.7215376,,,,,,,,,,,,,,,,,235,f,21,2023-03-21_13h32.47.640,RL,2022.2.4,60.16582906
0,0,67,0,,,,,,,,,,None,838.1077434,838.1077434,838.1077434,838.1077434,838.1077434,838.1077434,j,0.3654451,838.4904145,838.4904145,838.4904145,838.4904145,838.4904145,838.4904145,838.7893942,838.7893942,839.8529759,839.8529759,839.8529759,839.8529759,839.8529759,839.8529759,839.8529759,839.8529759,839.8529759,839.8529759,839.8529759,839.8529759,839.8529759,839.8529759,839.8529759,839.8529759,839.8529759,52,42,74,68,68,47,4,2.0602705,,,[],[],[],[],[],[],[],0.2,3,,,,,,,,,,,,[],[],[],[],[],[],[],,,,,None,None,844.4488075,845.9696188,842.3625662,842.3625662,842.3625662,842.3625662,842.3625662,,,,,,,,,,,,,,,,,235,f,21,2023-03-21_13h32.47.640,RL,2022.2.4,60.16582906
1,0,68,0,,,,,,,,,,None,845.9696188,845.9696188,845.9696188,845.9696188,845.9696188,845.9696188,j,0.4548392,846.4523624,846.4523624,846.4523624,846.4523624,846.4523624,846.4523624,846.7510593,846.7510593,848.1634492,848.1634492,848.1634492,848.1634492,848.1634492,848.1634492,848.1634492,848.1634492,848.1634492,848.1634492,848.1634492,848.1634492,848.1634492,848.1634492,848.1634492,848.1634492,848.1634492,49,40,66,65,65,51,3,1.9768002,,,[],[],[],[],[],[],[],-0.2,3,,,,,,,,,,,,[],[],[],[],[],[],[],,,,,None,None,852.6738901,854.1803061,850.6730548,850.6730548,850.6730548,850.6730548,850.6730548,,,,,,,,,,,,,,,,,235,f,21,2023-03-21_13h32.47.640,RL,2022.2.4,60.16582906
0,0,69,0,,,,,,,,,,None,854.1803061,854.1803061,854.1803061,854.1803061,854.1803061,854.1803061,i,0.290163,854.4969329,854.4969329,854.4969329,854.4969329,854.4969329,854.4969329,854.7957852,854.7957852,856.756898,856.756898,856.756898,856.756898,856.756898,856.756898,856.756898,856.756898,856.756898,856.756898,856.756898,856.756898,856.756898,856.756898,856.756898,856.756898,856.756898,57,43,82,68,82,50,6,2.6583122,,,[],[],[],[],[],[],[],-0.6,3,,,,,,,,,,,,[],[],[],[],[],[],[],,,,,None,None,861.9487467,863.8537832,859.2660455,859.2660455,859.2660455,859.2660455,859.2660455,,,,,,,,,,,,,,,,,235,f,21,2023-03-21_13h32.47.640,RL,2022.2.4,60.16582906
1,0,70,0,,,,,,,,,,None,863.8537832,863.8537832,863.8537832,863.8537832,863.8537832,863.8537832,i,0.3417523,864.2202733,864.2202733,864.2202733,864.2202733,864.2202733,864.2202733,864.5192423,864.5192423,865.6659867,865.6659867,865.6659867,865.6659867,865.6659867,865.6659867,865.6659867,865.6659867,865.6659867,865.6659867,865.6659867,865.6659867,865.6659867,865.6659867,865.6659867,865.6659867,865.6659867,54,41,82,68,82,62,None,None,,,[],[],[],[],[],[],[],-0.6,1,868.1825721,868.1825721,868.1825721,868.1825721,868.1825721,868.1825721,868.1825721,868.1825721,0.0056486,868.1825721,40,[0.05648148148148148],[-0.28055555555555556],[1],[0],[0],[6.1665394000010565],['tijiao_random_2'],874.3631365,874.3631365,874.3631365,874.3631365,8.111111111,2.0870073,876.4686942,878.3148029,,,,,,,,,,,,,,,,,,,,,,235,f,21,2023-03-21_13h32.47.640,RL,2022.2.4,60.16582906
0,0,71,0,,,,,,,,,,None,878.3148029,878.3148029,878.3148029,878.3148029,878.3148029,878.3148029,i,0.2340724,878.5812188,878.5812188,878.5812188,878.5812188,878.5812188,878.5812188,878.8801058,878.8801058,880.4423109,880.4423109,880.4423109,880.4423109,880.4423109,880.4423109,880.4423109,880.4423109,880.4423109,880.4423109,880.4423109,880.4423109,880.4423109,880.4423109,880.4423109,880.4423109,880.4423109,63,47,81,68,81,29,6,1.9771169,,,[],[],[],[],[],[],[],-0.2,3,,,,,,,,,,,,[],[],[],[],[],[],[],,,,,None,None,884.9526362,886.5421818,882.9514291,882.9514291,882.9514291,882.9514291,882.9514291,,,,,,,,,,,,,,,,,235,f,21,2023-03-21_13h32.47.640,RL,2022.2.4,60.16582906
1,0,72,0,,,,,,,,,,None,886.5421818,886.5421818,886.5421818,886.5421818,886.5421818,886.5421818,i,0.258169,886.8253081,886.8253081,886.8253081,886.8253081,886.8253081,886.8253081,887.124016,887.124016,888.6364224,888.6364224,888.6364224,888.6364224,888.6364224,888.6364224,888.6364224,888.6364224,888.6364224,888.6364224,888.6364224,888.6364224,888.6364224,888.6364224,888.6364224,888.6364224,888.6364224,58,47,89,67,89,47,None,None,,,[],[],[],[],[],[],[],-0.6,1,891.1540073,891.1540073,891.1540073,891.1540073,891.1540073,891.1540073,891.1540073,891.1540073,0.0055175,891.1540073,40,[0.03148148148148148],[-0.29907407407407405],[1],[0],[0],[5.568298099999083],['tijiao_random_2'],896.7344964,896.7344964,896.7344964,896.7344964,8.046296296,2.2539108,899.0071834,900.9695476,,,,,,,,,,,,,,,,,,,,,,235,f,21,2023-03-21_13h32.47.640,RL,2022.2.4,60.16582906
0,0,73,0,,,,,,,,,,None,900.9695476,900.9695476,900.9695476,900.9695476,900.9695476,900.9695476,r,0.3549012,901.352073,901.352073,901.352073,901.352073,901.352073,901.352073,901.6507779,901.6507779,903.4129426,903.4129426,903.4129426,903.4129426,903.4129426,903.4129426,903.4129426,903.4129426,903.4129426,903.4129426,903.4129426,903.4129426,903.4129426,903.4129426,903.4129426,903.4129426,903.4129426,56,47,86,64,56,19,5,2.2265995,,,[],[],[],[],[],[],[],0.2,3,,,,,,,,,,,,[],[],[],[],[],[],[],,,,,None,None,908.174983,909.76219,905.9216884,905.9216884,905.9216884,905.9216884,905.9216884,,,,,,,,,,,,,,,,,235,f,21,2023-03-21_13h32.47.640,RL,2022.2.4,60.16582906
1,0,74,0,,,,,,,,,,None,909.76219,909.76219,909.76219,909.76219,909.76219,909.76219,i,0.4022162,910.194889,910.194889,910.194889,910.194889,910.194889,910.194889,910.4938052,910.4938052,912.0729585,912.0729585,912.0729585,912.0729585,912.0729585,912.0729585,912.0729585,912.0729585,912.0729585,912.0729585,912.0729585,912.0729585,912.0729585,912.0729585,912.0729585,912.0729585,912.0729585,49,40,89,68,89,57,5,1.8267254,,,[],[],[],[],[],[],[],0.6,3,,,,,,,,,,,,[],[],[],[],[],[],[],,,,,None,None,916.4336536,917.9895697,914.5818503,914.5818503,914.5818503,914.5818503,914.5818503,,,,,,,,,,,,,,,,,235,f,21,2023-03-21_13h32.47.640,RL,2022.2.4,60.16582906
0,0,75,0,,,,,,,,,,q,942.5225378,942.5225378,942.5225378,942.5225378,942.5225378,942.5225378,j,0.8869705,943.4399212,943.4399212,943.4399212,943.4399212,943.4399212,943.4399212,943.7364447,943.7364447,944.9659826,944.9659826,944.9830549,944.9830549,944.9830549,944.9830549,944.9830549,944.9830549,944.9830549,944.9830549,944.9830549,944.9830549,944.9830549,944.9830549,944.9830549,944.9830549,944.9830549,52,46,92,69,69,34,None,None,80,80,[0.05462962962962963],[-0.29444444444444445],[1],[0],[0],[4.761275600001682],['tijiao'],-0.6,0,,,,,,,,,,,,[],[],[],[],[],[],[],952.2758462,952.2758462,952.2758462,952.2758462,10.06481481,1.9950585,954.2895518,955.8196333,,,,,,947.4931476,947.4931476,947.4931476,947.4931476,947.4931476,947.4931476,947.4931476,947.4931476,0.0055419,947.4931476,917.9895697,917.9895697,24.5001262,,,,235,f,21,2023-03-21_13h32.47.640,RL,2022.2.4,60.16582906
1,0,76,0,,,,,,,,,,None,955.8196333,955.8196333,955.8196333,955.8196333,955.8196333,955.8196333,i,0.2961321,956.1361929,956.1361929,956.1361929,956.1361929,956.1361929,956.1361929,956.4350011,956.4350011,958.1636915,958.1636915,958.1636915,958.1636915,958.1636915,958.1636915,958.1636915,958.1636915,958.1636915,958.1636915,958.1636915,958.1636915,958.1636915,958.1636915,958.1636915,958.1636915,958.1636915,54,42,91,67,91,44,None,None,90,90,[-0.030555555555555555],[-0.2574074074074074],[1],[0],[0],[4.695211399986874],['tijiao'],0.2,0,,,,,,,,,,,,[],[],[],[],[],[],[],965.3902803,965.3902803,965.3902803,965.3902803,9.796296296,1.8780658,967.2876124,968.9007367,,,,,,960.673686,960.673686,960.673686,960.673686,960.673686,960.673686,960.673686,960.673686,0.0052188,960.673686,,,,,,,235,f,21,2023-03-21_13h32.47.640,RL,2022.2.4,60.16582906
0,0,77,0,,,,,,,,,,None,968.9007367,968.9007367,968.9007367,968.9007367,968.9007367,968.9007367,i,0.2499038,969.184127,969.184127,969.184127,969.184127,969.184127,969.184127,969.4828511,969.4828511,971.4107311,971.4107311,971.4107311,971.4107311,971.4107311,971.4107311,971.4107311,971.4107311,971.4107311,971.4107311,971.4107311,971.4107311,971.4107311,971.4107311,971.4107311,971.4107311,971.4107311,46,48,82,70,82,69,None,None,80,80,[0.08055555555555556],[-0.2861111111111111],[1],[0],[0],[5.29513319999387],['tijiao'],0.2,0,,,,,,,,,,,,[],[],[],[],[],[],[],979.2364761,979.2364761,979.2364761,979.2364761,8.962962963,2.9095554,982.1634498,983.8097651,,,,,,973.9208765,973.9208765,973.9208765,973.9208765,973.9208765,973.9208765,973.9208765,973.9208765,0.0062516,973.9208765,,,,,,,235,f,21,2023-03-21_13h32.47.640,RL,2022.2.4,60.16582906
1,0,78,0,,,,,,,,,,None,983.8097651,983.8097651,983.8097651,983.8097651,983.8097651,983.8097651,i,0.3201549,984.1610277,984.1610277,984.1610277,984.1610277,984.1610277,984.1610277,984.4586123,984.4586123,985.5220924,985.5220924,985.538574,985.538574,985.538574,985.538574,985.538574,985.538574,985.538574,985.538574,985.538574,985.538574,985.538574,985.538574,985.538574,985.538574,985.538574,51,39,83,56,83,41,6,1.6445577,,,[],[],[],[],[],[],[],-0.2,3,,,,,,,,,,,,[],[],[],[],[],[],[],,,,,None,None,989.7190549,991.522129,988.0479619,988.0479619,988.0479619,988.0479619,988.0479619,,,,,,,,,,,,,,,,,235,f,21,2023-03-21_13h32.47.640,RL,2022.2.4,60.16582906
0,0,79,0,,,,,,,,,,None,991.522129,991.522129,991.522129,991.522129,991.522129,991.522129,i,0.4186868,991.9718271,991.9718271,991.9718271,991.9718271,991.9718271,991.9718271,992.2707789,992.2707789,993.816417,993.816417,993.816417,993.816417,993.816417,993.816417,993.816417,993.816417,993.816417,993.816417,993.816417,993.816417,993.816417,993.816417,993.816417,993.816417,993.816417,51,43,90,52,90,67,6,2.1766649,,,[],[],[],[],[],[],[],0.6,3,,,,,,,,,,,,[],[],[],[],[],[],[],,,,,None,None,998.5296982,1000.065968,996.3255813,996.3255813,996.3255813,996.3255813,996.3255813,,,,,,,,,,,,,,,,,235,f,21,2023-03-21_13h32.47.640,RL,2022.2.4,60.16582906
1,0,80,0,,,,,,,,,,None,1000.065968,1000.065968,1000.065968,1000.065968,1000.065968,1000.065968,i,0.3101135,1000.399243,1000.399243,1000.399243,1000.399243,1000.399243,1000.399243,1000.697556,1000.697556,1002.426208,1002.426208,1002.442821,1002.442821,1002.442821,1002.442821,1002.442821,1002.442821,1002.442821,1002.442821,1002.442821,1002.442821,1002.442821,1002.442821,1002.442821,1002.442821,1002.442821,50,42,88,53,88,41,None,None,83,83,[0.04537037037037037],[-0.27037037037037037],[1],[0],[0],[9.230352099999436],['tijiao'],-0.6,0,,,,,,,,,,,,[],[],[],[],[],[],[],1014.206583,1014.206583,1014.206583,1014.206583,8.990740741,2.2945981,1016.519989,1018.415903,,,,,,1004.954581,1004.954581,1004.954581,1004.954581,1004.954581,1004.954581,1004.954581,1004.954581,0.0076666,1004.954581,,,,,,,235,f,21,2023-03-21_13h32.47.640,RL,2022.2.4,60.16582906
0,0,81,0,,,,,,,,,,None,1018.415903,1018.415903,1018.415903,1018.415903,1018.415903,1018.415903,i,0.2203594,1018.665283,1018.665283,1018.665283,1018.665283,1018.665283,1018.665283,1018.964348,1018.964348,1020.044621,1020.044621,1020.044621,1020.044621,1020.044621,1020.044621,1020.044621,1020.044621,1020.044621,1020.044621,1020.044621,1020.044621,1020.044621,1020.044621,1020.044621,1020.044621,1020.044621,60,46,77,62,77,66,None,None,78,78,[0.08333333333333333],[-0.2898148148148148],[1],[0],[0],[5.625690900007612],['tijiao'],0.2,0,,,,,,,,,,,,[],[],[],[],[],[],[],1028.200267,1028.200267,1028.200267,1028.200267,6.925925926,2.1795814,1030.398565,1032.377244,,,,,,1022.55483,1022.55483,1022.55483,1022.55483,1022.55483,1022.55483,1022.55483,1022.55483,0.0052811,1022.55483,,,,,,,235,f,21,2023-03-21_13h32.47.640,RL,2022.2.4,60.16582906
1,0,82,0,,,,,,,,,,None,1032.377244,1032.377244,1032.377244,1032.377244,1032.377244,1032.377244,i,0.2334762,1032.644122,1032.644122,1032.644122,1032.644122,1032.644122,1032.644122,1032.942679,1032.942679,1034.18972,1034.18972,1034.18972,1034.18972,1034.18972,1034.18972,1034.18972,1034.18972,1034.18972,1034.18972,1034.18972,1034.18972,1034.18972,1034.18972,1034.18972,1034.18972,1034.18972,58,37,70,63,70,33,None,None,70,70,[0.041666666666666664],[-0.29907407407407405],[1],[0],[0],[4.545685599994613],['tijiao'],0.2,0,,,,,,,,,,,,[],[],[],[],[],[],[],1041.264106,1041.264106,1041.264106,1041.264106,6.009259259,2.9630632,1044.244691,1045.923732,,,,,,1036.699891,1036.699891,1036.699891,1036.699891,1036.699891,1036.699891,1036.699891,1036.699891,0.0051255,1036.699891,,,,,,,235,f,21,2023-03-21_13h32.47.640,RL,2022.2.4,60.16582906
0,0,83,0,,,,,,,,,,None,1045.923732,1045.923732,1045.923732,1045.923732,1045.923732,1045.923732,i,0.2776774,1046.223645,1046.223645,1046.223645,1046.223645,1046.223645,1046.223645,1046.522705,1046.522705,1047.403364,1047.403364,1047.403364,1047.403364,1047.403364,1047.403364,1047.403364,1047.403364,1047.403364,1047.403364,1047.403364,1047.403364,1047.403364,1047.403364,1047.403364,1047.403364,1047.403364,55,45,77,67,77,41,None,None,,,[],[],[],[],[],[],[],-0.2,1,1049.923207,1049.923207,1049.923207,1049.923207,1049.923207,1049.923207,1049.923207,1049.923207,0.0060346,1049.923207,60,[0.0712962962962963],[-0.2898148148148148],[1],[0],[0],[4.3021738000097685],['tijiao_random_2'],1054.237974,1054.237974,1054.237974,1054.237974,6.990740741,2.5530697,1056.809809,1058.805447,,,,,,,,,,,,,,,,,,,,,,235,f,21,2023-03-21_13h32.47.640,RL,2022.2.4,60.16582906
1,0,84,0,,,,,,,,,,None,1058.805447,1058.805447,1058.805447,1058.805447,1058.805447,1058.805447,f,0.342059,1059.171397,1059.171397,1059.171397,1059.171397,1059.171397,1059.171397,1059.470625,1059.470625,1061.182411,1061.182411,1061.182411,1061.182411,1061.182411,1061.182411,1061.182411,1061.182411,1061.182411,1061.182411,1061.182411,1061.182411,1061.182411,1061.182411,1061.182411,1061.182411,1061.182411,45,39,84,65,39,43,2,1.9773421,,,[],[],[],[],[],[],[],-0.6,2,,,,,,,,,,,,[],[],[],[],[],[],[],,,,,None,None,1065.694128,1067.415273,1063.691617,1063.691617,1063.691617,1063.691617,1063.691617,,,,,,,,,,,,,,,,,235,f,21,2023-03-21_13h32.47.640,RL,2022.2.4,60.16582906
0,0,85,0,,,,,,,,,,None,1067.415273,1067.415273,1067.415273,1067.415273,1067.415273,1067.415273,i,0.5322875,1067.981136,1067.981136,1067.981136,1067.981136,1067.981136,1067.981136,1068.279919,1068.279919,1069.576092,1069.576092,1069.576092,1069.576092,1069.576092,1069.576092,1069.576092,1069.576092,1069.576092,1069.576092,1069.576092,1069.576092,1069.576092,1069.576092,1069.576092,1069.576092,1069.576092,54,39,81,68,81,35,None,None,80,80,[0.02962962962962963],[-0.2953703703703704],[1],[0],[0],[3.497271800006274],['tijiao'],0.2,0,,,,,,,,,,,,[],[],[],[],[],[],[],1075.603004,1075.603004,1075.603004,1075.603004,8.888888889,2.614068,1078.234691,1080.014186,,,,,,1072.087098,1072.087098,1072.087098,1072.087098,1072.087098,1072.087098,1072.087098,1072.087098,0.0066476,1072.087098,,,,,,,235,f,21,2023-03-21_13h32.47.640,RL,2022.2.4,60.16582906
1,0,86,0,,,,,,,,,,None,1080.014186,1080.014186,1080.014186,1080.014186,1080.014186,1080.014186,i,0.2113748,1080.248989,1080.248989,1080.248989,1080.248989,1080.248989,1080.248989,1080.546462,1080.546462,1082.158558,1082.158558,1082.158558,1082.158558,1082.158558,1082.158558,1082.158558,1082.158558,1082.158558,1082.158558,1082.158558,1082.158558,1082.158558,1082.158558,1082.158558,1082.158558,1082.158558,59,41,76,72,76,27,None,None,78,78,[0.10277777777777777],[-0.27314814814814814],[1],[0],[0],[4.595867999989423],['tijiao'],0.2,0,,,,,,,,,,,,[],[],[],[],[],[],[],1089.284431,1089.284431,1089.284431,1089.284431,7.87037037,1.9292448,1091.232699,1093.02863,,,,,,1084.668953,1084.668953,1084.668953,1084.668953,1084.668953,1084.668953,1084.668953,1084.668953,0.0050284,1084.668953,,,,,,,235,f,21,2023-03-21_13h32.47.640,RL,2022.2.4,60.16582906
0,0,87,0,,,,,,,,,,None,1093.02863,1093.02863,1093.02863,1093.02863,1093.02863,1093.02863,i,0.3060266,1093.361815,1093.361815,1093.361815,1093.361815,1093.361815,1093.361815,1093.660386,1093.660386,1095.02363,1095.02363,1095.02363,1095.02363,1095.02363,1095.02363,1095.02363,1095.02363,1095.02363,1095.02363,1095.02363,1095.02363,1095.02363,1095.02363,1095.02363,1095.02363,1095.02363,60,43,80,63,80,62,6,2.0268241,,,[],[],[],[],[],[],[],-0.2,3,,,,,,,,,,,,[],[],[],[],[],[],[],,,,,None,None,1099.584012,1101.123225,1097.532449,1097.532449,1097.532449,1097.532449,1097.532449,,,,,,,,,,,,,,,,,235,f,21,2023-03-21_13h32.47.640,RL,2022.2.4,60.16582906
1,0,88,0,,,,,,,,,,None,1101.123225,1101.123225,1101.123225,1101.123225,1101.123225,1101.123225,i,0.4571815,1101.605734,1101.605734,1101.605734,1101.605734,1101.605734,1101.605734,1101.904762,1101.904762,1102.951977,1102.951977,1102.951977,1102.951977,1102.951977,1102.951977,1102.951977,1102.951977,1102.951977,1102.951977,1102.951977,1102.951977,1102.951977,1102.951977,1102.951977,1102.951977,1102.951977,54,49,81,70,81,65,None,None,,,[],[],[],[],[],[],[],-0.6,1,1105.468348,1105.468348,1105.468348,1105.468348,1105.468348,1105.468348,1105.468348,1105.468348,0.005401,1105.468348,48,[-0.013888888888888888],[-0.2935185185185185],[1],[0],[0],[5.5852582000079565],['tijiao_random_2'],1111.068006,1111.068006,1111.068006,1111.068006,5.12962963,2.9015161,1113.987218,1115.89927,,,,,,,,,,,,,,,,,,,,,,235,f,21,2023-03-21_13h32.47.640,RL,2022.2.4,60.16582906
0,0,89,0,,,,,,,,,,None,1115.89927,1115.89927,1115.89927,1115.89927,1115.89927,1115.89927,i,0.2501462,1116.182904,1116.182904,1116.182904,1116.182904,1116.182904,1116.182904,1116.481759,1116.481759,1118.409692,1118.409692,1118.409692,1118.409692,1118.409692,1118.409692,1118.409692,1118.409692,1118.409692,1118.409692,1118.409692,1118.409692,1118.409692,1118.409692,1118.409692,1118.409692,1118.409692,53,45,85,63,85,67,5,2.2767308,,,[],[],[],[],[],[],[],0.6,2,,,,,,,,,,,,[],[],[],[],[],[],[],,,,,None,None,1123.221256,1125.141092,1120.918885,1120.918885,1120.918885,1120.918885,1120.918885,,,,,,,,,,,,,,,,,235,f,21,2023-03-21_13h32.47.640,RL,2022.2.4,60.16582906
1,0,90,0,,,,,,,,,,None,1125.141092,1125.141092,1125.141092,1125.141092,1125.141092,1125.141092,i,0.2790101,1125.440886,1125.440886,1125.440886,1125.440886,1125.440886,1125.440886,1125.739814,1125.739814,1126.637269,1126.637269,1126.637269,1126.637269,1126.637269,1126.637269,1126.637269,1126.637269,1126.637269,1126.637269,1126.637269,1126.637269,1126.637269,1126.637269,1126.637269,1126.637269,1126.637269,54,40,74,60,74,32,None,None,75,75,[0.022222222222222223],[-0.28425925925925927],[1],[0],[0],[3.8473964000004344],['tijiao'],-0.2,0,,,,,,,,,,,,[],[],[],[],[],[],[],1133.014308,1133.014308,1133.014308,1133.014308,8.916666667,1.5317837,1134.564415,1136.426835,,,,,,1129.147574,1129.147574,1129.147574,1129.147574,1129.147574,1129.147574,1129.147574,1129.147574,0.0055885,1129.147574,,,,,,,235,f,21,2023-03-21_13h32.47.640,RL,2022.2.4,60.16582906
0,0,91,0,,,,,,,,,,None,1136.426835,1136.426835,1136.426835,1136.426835,1136.426835,1136.426835,i,0.256981,1136.710164,1136.710164,1136.710164,1136.710164,1136.710164,1136.710164,1137.008992,1137.008992,1138.155849,1138.155849,1138.155849,1138.155849,1138.155849,1138.155849,1138.155849,1138.155849,1138.155849,1138.155849,1138.155849,1138.155849,1138.155849,1138.155849,1138.155849,1138.155849,1138.155849,48,37,77,69,77,73,None,None,78,78,[0.05092592592592592],[-0.2814814814814815],[1],[0],[0],[3.6459670000040205],['tijiao'],-0.2,0,,,,,,,,,,,,[],[],[],[],[],[],[],1144.334536,1144.334536,1144.334536,1144.334536,9.712962963,2.2282137,1146.581533,1148.444265,,,,,,1140.66725,1140.66725,1140.66725,1140.66725,1140.66725,1140.66725,1140.66725,1140.66725,0.0072188,1140.66725,,,,,,,235,f,21,2023-03-21_13h32.47.640,RL,2022.2.4,60.16582906
1,0,92,0,,,,,,,,,,None,1148.444265,1148.444265,1148.444265,1148.444265,1148.444265,1148.444265,i,0.2417717,1148.710807,1148.710807,1148.710807,1148.710807,1148.710807,1148.710807,1149.00948,1149.00948,1150.688214,1150.688214,1150.688214,1150.688214,1150.688214,1150.688214,1150.688214,1150.688214,1150.688214,1150.688214,1150.688214,1150.688214,1150.688214,1150.688214,1150.688214,1150.688214,1150.688214,51,39,81,74,81,63,None,None,80,80,[0.12962962962962962],[-0.2972222222222222],[1],[0],[0],[4.479135400004452],['tijiao'],-0.6,0,,,,,,,,,,,,[],[],[],[],[],[],[],1157.696928,1157.696928,1157.696928,1157.696928,9.416666667,2.4287101,1160.144417,1162.106715,,,,,,1153.198393,1153.198393,1153.198393,1153.198393,1153.198393,1153.198393,1153.198393,1153.198393,0.0053326,1153.198393,,,,,,,235,f,21,2023-03-21_13h32.47.640,RL,2022.2.4,60.16582906
0,0,93,0,,,,,,,,,,None,1162.106715,1162.106715,1162.106715,1162.106715,1162.106715,1162.106715,i,0.3187027,1162.456476,1162.456476,1162.456476,1162.456476,1162.456476,1162.456476,1162.755508,1162.755508,1163.852154,1163.852154,1163.852154,1163.852154,1163.852154,1163.852154,1163.852154,1163.852154,1163.852154,1163.852154,1163.852154,1163.852154,1163.852154,1163.852154,1163.852154,1163.852154,1163.852154,50,41,70,72,70,64,None,None,72,72,[-0.12962962962962962],[-0.262037037037037],[1],[0],[0],[8.584147600005963],['tijiao'],0.6,0,,,,,,,,,,,,[],[],[],[],[],[],[],1174.968622,1174.968622,1174.968622,1174.968622,7.175925926,1.8618456,1176.848928,1178.428961,,,,,,1166.362719,1166.362719,1166.362719,1166.362719,1166.362719,1166.362719,1166.362719,1166.362719,0.0052167,1166.362719,,,,,,,235,f,21,2023-03-21_13h32.47.640,RL,2022.2.4,60.16582906
1,0,94,0,,,,,,,,,,None,1178.428961,1178.428961,1178.428961,1178.428961,1178.428961,1178.428961,i,0.244583,1178.695658,1178.695658,1178.695658,1178.695658,1178.695658,1178.695658,1178.994088,1178.994088,1180.872583,1180.872583,1180.872583,1180.872583,1180.872583,1180.872583,1180.872583,1180.872583,1180.872583,1180.872583,1180.872583,1180.872583,1180.872583,1180.872583,1180.872583,1180.872583,1180.872583,52,36,69,78,69,71,4,2.0437714,,,[],[],[],[],[],[],[],-0.6,3,,,,,,,,,,,,[],[],[],[],[],[],[],,,,,None,None,1185.450423,1187.354415,1183.381846,1183.381846,1183.381846,1183.381846,1183.381846,,,,,,,,,,,,,,,,,235,f,21,2023-03-21_13h32.47.640,RL,2022.2.4,60.16582906
0,0,95,0,,,,,,,,,,None,1187.354415,1187.354415,1187.354415,1187.354415,1187.354415,1187.354415,j,0.3294635,1187.704138,1187.704138,1187.704138,1187.704138,1187.704138,1187.704138,1188.002846,1188.002846,1188.884258,1188.884258,1188.884258,1188.884258,1188.884258,1188.884258,1188.884258,1188.884258,1188.884258,1188.884258,1188.884258,1188.884258,1188.884258,1188.884258,1188.884258,1188.884258,1188.884258,56,39,76,80,80,71,None,None,78,78,[0.002777777777777778],[-0.27314814814814814],[1],[0],[0],[5.542621200002031],['tijiao'],-0.6,0,,,,,,,,,,,,[],[],[],[],[],[],[],1196.956767,1196.956767,1196.956767,1196.956767,7.981481481,2.3286495,1199.304218,1201.000589,,,,,,1191.394374,1191.394374,1191.394374,1191.394374,1191.394374,1191.394374,1191.394374,1191.394374,0.0051009,1191.394374,,,,,,,235,f,21,2023-03-21_13h32.47.640,RL,2022.2.4,60.16582906
1,0,96,0,,,,,,,,,,None,1201.000589,1201.000589,1201.000589,1201.000589,1201.000589,1201.000589,j,0.4183326,1201.449826,1201.449826,1201.449826,1201.449826,1201.449826,1201.449826,1201.748946,1201.748946,1203.028653,1203.028653,1203.028653,1203.028653,1203.028653,1203.028653,1203.028653,1203.028653,1203.028653,1203.028653,1203.028653,1203.028653,1203.028653,1203.028653,1203.028653,1203.028653,1203.028653,51,41,73,75,75,67,None,None,,,[],[],[],[],[],[],[],0.6,1,1205.545698,1205.545698,1205.545698,1205.545698,1205.545698,1205.545698,1205.545698,1205.545698,0.0059182,1205.545698,75,[0.05462962962962963],[-0.2740740740740741],[1],[0],[0],[4.17232420000073],['tijiao_random_2'],1209.731329,1209.731329,1209.731329,1209.731329,9.898148148,1.854752,1211.604339,1213.383537,,,,,,,,,,,,,,,,,,,,,,235,f,21,2023-03-21_13h32.47.640,RL,2022.2.4,60.16582906
0,0,97,0,,,,,,,,,,None,1213.383537,1213.383537,1213.383537,1213.383537,1213.383537,1213.383537,j,0.3169721,1213.733332,1213.733332,1213.733332,1213.733332,1213.733332,1213.733332,1214.032236,1214.032236,1215.527866,1215.527866,1215.527866,1215.527866,1215.527866,1215.527866,1215.527866,1215.527866,1215.527866,1215.527866,1215.527866,1215.527866,1215.527866,1215.527866,1215.527866,1215.527866,1215.527866,49,48,85,74,74,71,5,1.7780222,,,[],[],[],[],[],[],[],-0.2,2,,,,,,,,,,,,[],[],[],[],[],[],[],,,,,None,None,1219.839985,1221.67761,1218.037081,1218.037081,1218.037081,1218.037081,1218.037081,,,,,,,,,,,,,,,,,235,f,21,2023-03-21_13h32.47.640,RL,2022.2.4,60.16582906
1,0,98,0,,,,,,,,,,None,1221.67761,1221.67761,1221.67761,1221.67761,1221.67761,1221.67761,j,0.2996061,1222.010744,1222.010744,1222.010744,1222.010744,1222.010744,1222.010744,1222.309291,1222.309291,1223.439742,1223.439742,1223.439742,1223.439742,1223.439742,1223.439742,1223.439742,1223.439742,1223.439742,1223.439742,1223.439742,1223.439742,1223.439742,1223.439742,1223.439742,1223.439742,1223.439742,51,44,73,79,79,70,6,1.6284734,,,[],[],[],[],[],[],[],-0.6,3,,,,,,,,,,,,[],[],[],[],[],[],[],,,,,None,None,1227.602506,1229.27362,1225.948729,1225.948729,1225.948729,1225.948729,1225.948729,,,,,,,,,,,,,,,,,235,f,21,2023-03-21_13h32.47.640,RL,2022.2.4,60.16582906
0,0,99,0,,,,,,,,,,None,1229.27362,1229.27362,1229.27362,1229.27362,1229.27362,1229.27362,j,0.2816187,1229.572987,1229.572987,1229.572987,1229.572987,1229.572987,1229.572987,1229.872301,1229.872301,1231.218499,1231.218499,1231.218499,1231.218499,1231.218499,1231.218499,1231.218499,1231.218499,1231.218499,1231.218499,1231.218499,1231.218499,1231.218499,1231.218499,1231.218499,1231.218499,1231.218499,51,43,80,78,78,24,6,0.4812538,,,[],[],[],[],[],[],[],-0.6,2,,,,,,,,,,,,[],[],[],[],[],[],[],,,,,None,None,1234.236232,1235.738905,1233.727655,1233.727655,1233.727655,1233.727655,1233.727655,,,,,,,,,,,,,,,,,235,f,21,2023-03-21_13h32.47.640,RL,2022.2.4,60.16582906
1,0,100,0,,,,,,,,,,None,1235.738905,1235.738905,1235.738905,1235.738905,1235.738905,1235.738905,j,0.4984927,1236.254797,1236.254797,1236.254797,1236.254797,1236.254797,1236.254797,1236.554121,1236.554121,1237.933564,1237.933564,1237.933564,1237.933564,1237.933564,1237.933564,1237.933564,1237.933564,1237.933564,1237.933564,1237.933564,1237.933564,1237.933564,1237.933564,1237.933564,1237.933564,1237.933564,58,44,79,74,74,60,5,1.1131792,,,[],[],[],[],[],[],[],-0.2,2,,,,,,,,,,,,[],[],[],[],[],[],[],,,,,None,None,1241.583235,1243.417993,1240.442162,1240.442162,1240.442162,1240.442162,1240.442162,,,,,,,,,,,,,,,,,235,f,21,2023-03-21_13h32.47.640,RL,2022.2.4,60.16582906
0,0,101,0,,,,,,,,,,None,1243.417993,1243.417993,1243.417993,1243.417993,1243.417993,1243.417993,j,0.2391211,1243.684542,1243.684542,1243.684542,1243.684542,1243.684542,1243.684542,1243.983733,1243.983733,1245.861799,1245.861799,1245.861799,1245.861799,1245.861799,1245.861799,1245.861799,1245.861799,1245.861799,1245.861799,1245.861799,1245.861799,1245.861799,1245.861799,1245.861799,1245.861799,1245.861799,50,32,77,73,73,61,None,None,80,80,[0.05648148148148148],[-0.2861111111111111],[1],[0],[0],[3.6479511999932583],['tijiao'],0.6,0,,,,,,,,,,,,[],[],[],[],[],[],[],1252.039488,1252.039488,1252.039488,1252.039488,8.157407407,1.7806442,1253.838842,1255.801253,,,,,,1248.372202,1248.372202,1248.372202,1248.372202,1248.372202,1248.372202,1248.372202,1248.372202,0.0056687,1248.372202,,,,,,,235,f,21,2023-03-21_13h32.47.640,RL,2022.2.4,60.16582906
1,0,102,0,,,,,,,,,,None,1255.801253,1255.801253,1255.801253,1255.801253,1255.801253,1255.801253,i,0.3151074,1256.134095,1256.134095,1256.134095,1256.134095,1256.134095,1256.134095,1256.433068,1256.433068,1258.410869,1258.410869,1258.410869,1258.410869,1258.410869,1258.410869,1258.410869,1258.410869,1258.410869,1258.410869,1258.410869,1258.410869,1258.410869,1258.410869,1258.410869,1258.410869,1258.410869,48,43,79,75,79,64,None,None,81,81,[0.06944444444444445],[-0.28055555555555556],[1],[0],[0],[4.794775000002119],['tijiao'],0.6,0,,,,,,,,,,,,[],[],[],[],[],[],[],1265.735462,1265.735462,1265.735462,1265.735462,9.87962963,2.3954905,1268.149686,1270.095495,,,,,,1260.921247,1260.921247,1260.921247,1260.921247,1260.921247,1260.921247,1260.921247,1260.921247,0.0056067,1260.921247,,,,,,,235,f,21,2023-03-21_13h32.47.640,RL,2022.2.4,60.16582906
0,0,103,0,,,,,,,,,,None,1270.095495,1270.095495,1270.095495,1270.095495,1270.095495,1270.095495,i,0.2215578,1270.345184,1270.345184,1270.345184,1270.345184,1270.345184,1270.345184,1270.643883,1270.643883,1272.372758,1272.372758,1272.372758,1272.372758,1272.372758,1272.372758,1272.372758,1272.372758,1272.372758,1272.372758,1272.372758,1272.372758,1272.372758,1272.372758,1272.372758,1272.372758,1272.372758,49,40,94,67,94,62,7,1.5783759,,,[],[],[],[],[],[],[],0.2,2,,,,,,,,,,,,[],[],[],[],[],[],[],,,,,None,None,1276.487168,1278.422696,1274.881983,1274.881983,1274.881983,1274.881983,1274.881983,,,,,,,,,,,,,,,,,235,f,21,2023-03-21_13h32.47.640,RL,2022.2.4,60.16582906
1,0,104,0,,,,,,,,,,None,1278.422696,1278.422696,1278.422696,1278.422696,1278.422696,1278.422696,i,0.320834,1278.77212,1278.77212,1278.77212,1278.77212,1278.77212,1278.77212,1279.071491,1279.071491,1280.068342,1280.068342,1280.068342,1280.068342,1280.068342,1280.068342,1280.068342,1280.068342,1280.068342,1280.068342,1280.068342,1280.068342,1280.068342,1280.068342,1280.068342,1280.068342,1280.068342,55,44,79,64,79,65,None,None,,,[],[],[],[],[],[],[],-0.2,1,1282.585236,1282.585236,1282.585236,1282.585236,1282.585236,1282.585236,1282.585236,1282.585236,0.0057103,1282.585236,60,"[-0.03796296296296296, -0.026851851851851852]","[-0.24259259259259258, -0.26944444444444443]","[1, 1]","[0, 0]","[0, 0]","[4.189094500005012, 5.035979500011308]",['tijiao_random_2'],1287.636032,1287.636032,1287.636032,1287.636032,8.75,2.0206715,1289.674421,1291.437447,,,,,,,,,,,,,,,,,,,,,,235,f,21,2023-03-21_13h32.47.640,RL,2022.2.4,60.16582906
0,0,105,0,,,,,,,,,,None,1291.437447,1291.437447,1291.437447,1291.437447,1291.437447,1291.437447,i,0.2767735,1291.736852,1291.736852,1291.736852,1291.736852,1291.736852,1291.736852,1292.03598,1292.03598,1293.215731,1293.215731,1293.215731,1293.215731,1293.215731,1293.215731,1293.215731,1293.215731,1293.215731,1293.215731,1293.215731,1293.215731,1293.215731,1293.215731,1293.215731,1293.215731,1293.215731,46,49,78,68,78,26,None,None,80,80,"[0.05092592592592592, 0.05462962962962963]","[-0.37592592592592594, -0.28888888888888886]","[1, 1]","[0, 0]","[0, 0]","[3.648103400002583, 3.9466995000111638]",['tijiao'],-0.6,0,,,,,,,,,,,,[],[],[],[],[],[],[],1299.692575,1299.692575,1299.692575,1299.692575,9.638888889,1.2161289,1300.927303,1302.673301,,,,,,1295.726274,1295.726274,1295.726274,1295.726274,1295.726274,1295.726274,1295.726274,1295.726274,0.0052355,1295.726274,,,,,,,235,f,21,2023-03-21_13h32.47.640,RL,2022.2.4,60.16582906
1,0,106,0,,,,,,,,,,None,1302.673301,1302.673301,1302.673301,1302.673301,1302.673301,1302.673301,i,0.2538653,1302.956526,1302.956526,1302.956526,1302.956526,1302.956526,1302.956526,1303.255244,1303.255244,1304.83427,1304.83427,1304.83427,1304.83427,1304.83427,1304.83427,1304.83427,1304.83427,1304.83427,1304.83427,1304.83427,1304.83427,1304.83427,1304.83427,1304.83427,1304.83427,1304.83427,50,51,79,68,79,64,None,None,,,[],[],[],[],[],[],[],-0.2,1,1307.351107,1307.351107,1307.351107,1307.351107,1307.351107,1307.351107,1307.351107,1307.351107,0.0054913,1307.351107,58,[0.03148148148148148],[-0.26666666666666666],[1],[0],[0],[4.53782169999613],['tijiao_random_2'],1311.901806,1311.901806,1311.901806,1311.901806,9.074074074,1.9381097,1313.858484,1315.754287,,,,,,,,,,,,,,,,,,,,,,235,f,21,2023-03-21_13h32.47.640,RL,2022.2.4,60.16582906
0,0,107,0,,,,,,,,,,None,1315.754287,1315.754287,1315.754287,1315.754287,1315.754287,1315.754287,f,0.3038579,1316.086993,1316.086993,1316.086993,1316.086993,1316.086993,1316.086993,1316.386555,1316.386555,1318.264487,1318.264487,1318.264487,1318.264487,1318.264487,1318.264487,1318.264487,1318.264487,1318.264487,1318.264487,1318.264487,1318.264487,1318.264487,1318.264487,1318.264487,1318.264487,1318.264487,46,48,80,71,48,62,3,1.1628562,,,[],[],[],[],[],[],[],-0.2,3,,,,,,,,,,,,[],[],[],[],[],[],[],,,,,None,None,1321.961337,1323.732445,1320.773275,1320.773275,1320.773275,1320.773275,1320.773275,,,,,,,,,,,,,,,,,235,f,21,2023-03-21_13h32.47.640,RL,2022.2.4,60.16582906
1,0,108,0,,,,,,,,,,None,1323.732445,1323.732445,1323.732445,1323.732445,1323.732445,1323.732445,f,0.4823284,1324.248434,1324.248434,1324.248434,1324.248434,1324.248434,1324.248434,1324.547254,1324.547254,1326.375299,1326.375299,1326.375299,1326.375299,1326.375299,1326.375299,1326.375299,1326.375299,1326.375299,1326.375299,1326.375299,1326.375299,1326.375299,1326.375299,1326.375299,1326.375299,1326.375299,38,53,83,60,53,64,3,2.0434491,,,[],[],[],[],[],[],[],-0.6,2,,,,,,,,,,,,[],[],[],[],[],[],[],,,,,None,None,1330.952861,1332.857604,1328.884619,1328.884619,1328.884619,1328.884619,1328.884619,,,,,,,,,,,,,,,,,235,f,21,2023-03-21_13h32.47.640,RL,2022.2.4,60.16582906
0,0,109,0,,,,,,,,,,None,1332.857604,1332.857604,1332.857604,1332.857604,1332.857604,1332.857604,i,0.505322,1333.390102,1333.390102,1333.390102,1333.390102,1333.390102,1333.390102,1333.688592,1333.688592,1335.218136,1335.218136,1335.218136,1335.218136,1335.218136,1335.218136,1335.218136,1335.218136,1335.218136,1335.218136,1335.218136,1335.218136,1335.218136,1335.218136,1335.218136,1335.218136,1335.218136,42,39,81,63,81,56,None,None,78,78,[0.009259259259259259],[-0.2796296296296296],[1],[0],[0],[4.17965340000228],['tijiao'],-0.6,0,,,,,,,,,,,,[],[],[],[],[],[],[],1341.929909,1341.929909,1341.929909,1341.929909,8.916666667,1.79505,1343.743459,1345.556285,,,,,,1337.727938,1337.727938,1337.727938,1337.727938,1337.727938,1337.727938,1337.727938,1337.727938,0.006036,1337.727938,,,,,,,235,f,21,2023-03-21_13h32.47.640,RL,2022.2.4,60.16582906
1,0,110,0,,,,,,,,,,None,1345.556285,1345.556285,1345.556285,1345.556285,1345.556285,1345.556285,j,0.6497706,1346.238153,1346.238153,1346.238153,1346.238153,1346.238153,1346.238153,1346.53723,1346.53723,1348.116208,1348.116208,1348.116208,1348.116208,1348.116208,1348.116208,1348.116208,1348.116208,1348.116208,1348.116208,1348.116208,1348.116208,1348.116208,1348.116208,1348.116208,1348.116208,1348.116208,41,47,82,67,67,47,3,1.9941564,,,[],[],[],[],[],[],[],-0.6,3,,,,,,,,,,,,[],[],[],[],[],[],[],,,,,None,None,1352.646448,1354.415464,1350.624999,1350.624999,1350.624999,1350.624999,1350.624999,,,,,,,,,,,,,,,,,235,f,21,2023-03-21_13h32.47.640,RL,2022.2.4,60.16582906
0,0,111,0,,,,,,,,,,None,1354.415464,1354.415464,1354.415464,1354.415464,1354.415464,1354.415464,i,0.3220153,1354.76507,1354.76507,1354.76507,1354.76507,1354.76507,1354.76507,1355.063836,1355.063836,1356.360257,1356.360257,1356.360257,1356.360257,1356.360257,1356.360257,1356.360257,1356.360257,1356.360257,1356.360257,1356.360257,1356.360257,1356.360257,1356.360257,1356.360257,1356.360257,1356.360257,52,41,76,72,76,48,4,2.9743702,,,[],[],[],[],[],[],[],-0.6,3,,,,,,,,,,,,[],[],[],[],[],[],[],,,,,None,None,1361.869921,1363.67353,1358.869497,1358.869497,1358.869497,1358.869497,1358.869497,,,,,,,,,,,,,,,,,235,f,21,2023-03-21_13h32.47.640,RL,2022.2.4,60.16582906
1,0,112,0,,,,,,,,,,None,1363.67353,1363.67353,1363.67353,1363.67353,1363.67353,1363.67353,i,0.3433403,1364.039519,1364.039519,1364.039519,1364.039519,1364.039519,1364.039519,1364.338537,1364.338537,1365.684808,1365.684808,1365.684808,1365.684808,1365.684808,1365.684808,1365.684808,1365.684808,1365.684808,1365.684808,1365.684808,1365.684808,1365.684808,1365.684808,1365.684808,1365.684808,1365.684808,37,38,77,73,77,49,5,1.84432,,,[],[],[],[],[],[],[],0.2,2,,,,,,,,,,,,[],[],[],[],[],[],[],,,,,None,None,1370.064649,1371.934136,1368.193703,1368.193703,1368.193703,1368.193703,1368.193703,,,,,,,,,,,,,,,,,235,f,21,2023-03-21_13h32.47.640,RL,2022.2.4,60.16582906
0,0,113,0,,,,,,,,,,None,1371.934136,1371.934136,1371.934136,1371.934136,1371.934136,1371.934136,i,0.3741879,1372.334493,1372.334493,1372.334493,1372.334493,1372.334493,1372.334493,1372.632604,1372.632604,1374.444273,1374.444273,1374.444273,1374.444273,1374.444273,1374.444273,1374.444273,1374.444273,1374.444273,1374.444273,1374.444273,1374.444273,1374.444273,1374.444273,1374.444273,1374.444273,1374.444273,45,35,75,79,75,53,5,2.326281,,,[],[],[],[],[],[],[],-0.2,2,,,,,,,,,,,,[],[],[],[],[],[],[],,,,,None,None,1379.304661,1381.009534,1376.953516,1376.953516,1376.953516,1376.953516,1376.953516,,,,,,,,,,,,,,,,,235,f,21,2023-03-21_13h32.47.640,RL,2022.2.4,60.16582906
1,0,114,0,,,,,,,,,,None,1381.009534,1381.009534,1381.009534,1381.009534,1381.009534,1381.009534,i,0.2743108,1381.30921,1381.30921,1381.30921,1381.30921,1381.30921,1381.30921,1381.608231,1381.608231,1382.98766,1382.98766,1382.98766,1382.98766,1382.98766,1382.98766,1382.98766,1382.98766,1382.98766,1382.98766,1382.98766,1382.98766,1382.98766,1382.98766,1382.98766,1382.98766,1382.98766,42,33,84,75,84,55,None,None,85,85,[0.09814814814814815],[-0.26944444444444443],[1],[0],[0],[5.790162899997085],['tijiao'],0.6,0,,,,,,,,,,,,[],[],[],[],[],[],[],1391.308916,1391.308916,1391.308916,1391.308916,9.111111111,1.864367,1393.191884,1395.070759,,,,,,1385.49898,1385.49898,1385.49898,1385.49898,1385.49898,1385.49898,1385.49898,1385.49898,0.0070405,1385.49898,,,,,,,235,f,21,2023-03-21_13h32.47.640,RL,2022.2.4,60.16582906
0,0,115,0,,,,,,,,,,None,1395.070759,1395.070759,1395.070759,1395.070759,1395.070759,1395.070759,i,0.2786466,1395.370499,1395.370499,1395.370499,1395.370499,1395.370499,1395.370499,1395.669899,1395.669899,1396.700175,1396.700175,1396.700175,1396.700175,1396.700175,1396.700175,1396.700175,1396.700175,1396.700175,1396.700175,1396.700175,1396.700175,1396.700175,1396.700175,1396.700175,1396.700175,1396.700175,39,38,79,72,79,49,5,1.8111409,,,[],[],[],[],[],[],[],-0.6,3,,,,,,,,,,,,[],[],[],[],[],[],[],,,,,None,None,1401.044422,1403.032717,1399.209232,1399.209232,1399.209232,1399.209232,1399.209232,,,,,,,,,,,,,,,,,235,f,21,2023-03-21_13h32.47.640,RL,2022.2.4,60.16582906
1,0,116,0,,,,,,,,,,None,1403.032717,1403.032717,1403.032717,1403.032717,1403.032717,1403.032717,i,0.2472201,1403.299157,1403.299157,1403.299157,1403.299157,1403.299157,1403.299157,1403.598191,1403.598191,1404.5952,1404.5952,1404.5952,1404.5952,1404.5952,1404.5952,1404.5952,1404.5952,1404.5952,1404.5952,1404.5952,1404.5952,1404.5952,1404.5952,1404.5952,1404.5952,1404.5952,39,41,81,76,81,57,None,None,,,[],[],[],[],[],[],[],0.6,1,1407.111699,1407.111699,1407.111699,1407.111699,1407.111699,1407.111699,1407.111699,1407.111699,0.0051725,1407.111699,76,[0.08888888888888889],[-0.2898148148148148],[1],[0],[0],[5.402400899998611],['tijiao_random_2'],1412.527742,1412.527742,1412.527742,1412.527742,9.111111111,1.9380508,1414.483703,1416.129904,,,,,,,,,,,,,,,,,,,,,,235,f,21,2023-03-21_13h32.47.640,RL,2022.2.4,60.16582906
0,0,117,0,,,,,,,,,,None,1416.129904,1416.129904,1416.129904,1416.129904,1416.129904,1416.129904,j,0.4302946,1416.580012,1416.580012,1416.580012,1416.580012,1416.580012,1416.580012,1416.878306,1416.878306,1418.856426,1418.856426,1418.873025,1418.873025,1418.873025,1418.873025,1418.873025,1418.873025,1418.873025,1418.873025,1418.873025,1418.873025,1418.873025,1418.873025,1418.873025,1418.873025,1418.873025,45,43,79,79,79,55,None,None,,,[],[],[],[],[],[],[],-0.2,1,1421.391046,1421.391046,1421.391046,1421.391046,1421.391046,1421.391046,1421.391046,1421.391046,0.0056982,1421.391046,50,[0.10740740740740741],[-0.2777777777777778],[1],[0],[0],[6.498714699991979],['tijiao_random_2'],1427.902792,1427.902792,1427.902792,1427.902792,9.712962963,1.6217421,1429.543071,1431.388688,,,,,,,,,,,,,,,,,,,,,,235,f,21,2023-03-21_13h32.47.640,RL,2022.2.4,60.16582906
1,0,118,0,,,,,,,,,,None,1431.388688,1431.388688,1431.388688,1431.388688,1431.388688,1431.388688,j,0.4153098,1431.821188,1431.821188,1431.821188,1431.821188,1431.821188,1431.821188,1432.120381,1432.120381,1433.217027,1433.217027,1433.217027,1433.217027,1433.217027,1433.217027,1433.217027,1433.217027,1433.217027,1433.217027,1433.217027,1433.217027,1433.217027,1433.217027,1433.217027,1433.217027,1433.217027,33,39,80,68,68,60,5,2.2756639,,,[],[],[],[],[],[],[],0.2,3,,,,,,,,,,,,[],[],[],[],[],[],[],,,,,None,None,1438.027715,1439.699437,1435.726162,1435.726162,1435.726162,1435.726162,1435.726162,,,,,,,,,,,,,,,,,235,f,21,2023-03-21_13h32.47.640,RL,2022.2.4,60.16582906
0,0,119,0,,,,,,,,,,None,1439.699437,1439.699437,1439.699437,1439.699437,1439.699437,1439.699437,i,0.2761859,1440.001227,1440.001227,1440.001227,1440.001227,1440.001227,1440.001227,1440.297836,1440.297836,1442.175835,1442.175835,1442.175835,1442.175835,1442.175835,1442.175835,1442.175835,1442.175835,1442.175835,1442.175835,1442.175835,1442.175835,1442.175835,1442.175835,1442.175835,1442.175835,1442.175835,42,44,81,71,81,58,None,None,,,[],[],[],[],[],[],[],0.2,1,1444.693961,1444.693961,1444.693961,1444.693961,1444.693961,1444.693961,1444.693961,1444.693961,0.0052322,1444.693961,81,[0.06018518518518518],[-0.2537037037037037],[1],[0],[0],[3.8718802999937907],['tijiao_random_2'],1448.579537,1448.579537,1448.579537,1448.579537,10.07407407,1.8881387,1450.485768,1452.065628,,,,,,,,,,,,,,,,,,,,,,235,f,21,2023-03-21_13h32.47.640,RL,2022.2.4,60.16582906
1,0,120,0,,,,,,,,,,None,1452.065628,1452.065628,1452.065628,1452.065628,1452.065628,1452.065628,i,0.2520517,1452.348497,1452.348497,1452.348497,1452.348497,1452.348497,1452.348497,1452.647384,1452.647384,1454.425935,1454.425935,1454.425935,1454.425935,1454.425935,1454.425935,1454.425935,1454.425935,1454.425935,1454.425935,1454.425935,1454.425935,1454.425935,1454.425935,1454.425935,1454.425935,1454.425935,38,42,81,72,81,51,None,None,85,85,[0.028703703703703703],[-0.30462962962962964],[1],[0],[0],[4.545846299995901],['tijiao'],0.2,0,,,,,,,,,,,,[],[],[],[],[],[],[],1461.501474,1461.501474,1461.501474,1461.501474,9.990740741,1.896541,1463.417208,1465.096189,,,,,,1456.936124,1456.936124,1456.936124,1456.936124,1456.936124,1456.936124,1456.936124,1456.936124,0.005364,1456.936124,,,,,,,235,f,21,2023-03-21_13h32.47.640,RL,2022.2.4,60.16582906
0,0,121,0,,,,,,,,,,None,1465.096189,1465.096189,1465.096189,1465.096189,1465.096189,1465.096189,i,0.3235035,1465.44754,1465.44754,1465.44754,1465.44754,1465.44754,1465.44754,1465.745277,1465.745277,1467.29101,1467.29101,1467.29101,1467.29101,1467.29101,1467.29101,1467.29101,1467.29101,1467.29101,1467.29101,1467.29101,1467.29101,1467.29101,1467.29101,1467.29101,1467.29101,1467.29101,40,45,83,76,83,45,6,1.7610731,,,[],[],[],[],[],[],[],0.2,3,,,,,,,,,,,,[],[],[],[],[],[],[],,,,,None,None,1471.585617,1473.507183,1469.799825,1469.799825,1469.799825,1469.799825,1469.799825,,,,,,,,,,,,,,,,,235,f,21,2023-03-21_13h32.47.640,RL,2022.2.4,60.16582906
1,0,122,0,,,,,,,,,,None,1473.507183,1473.507183,1473.507183,1473.507183,1473.507183,1473.507183,i,0.3013891,1473.840094,1473.840094,1473.840094,1473.840094,1473.840094,1473.840094,1474.139063,1474.139063,1474.986446,1474.986446,1474.986446,1474.986446,1474.986446,1474.986446,1474.986446,1474.986446,1474.986446,1474.986446,1474.986446,1474.986446,1474.986446,1474.986446,1474.986446,1474.986446,1474.986446,35,46,86,70,86,59,None,None,,,[],[],[],[],[],[],[],0.2,1,1477.503493,1477.503493,1477.503493,1477.503493,1477.503493,1477.503493,1477.503493,1477.503493,0.0055653,1477.503493,86,[0.05555555555555555],[-0.2796296296296296],[1],[0],[0],[5.901022999998531],['tijiao_random_2'],1483.418555,1483.418555,1483.418555,1483.418555,9.925925926,1.3387543,1484.775629,1486.438348,,,,,,,,,,,,,,,,,,,,,,235,f,21,2023-03-21_13h32.47.640,RL,2022.2.4,60.16582906
0,0,123,0,,,,,,,,,,None,1486.438348,1486.438348,1486.438348,1486.438348,1486.438348,1486.438348,i,0.2313957,1486.688473,1486.688473,1486.688473,1486.688473,1486.688473,1486.688473,1486.987388,1486.987388,1488.067536,1488.067536,1488.067536,1488.067536,1488.067536,1488.067536,1488.067536,1488.067536,1488.067536,1488.067536,1488.067536,1488.067536,1488.067536,1488.067536,1488.067536,1488.067536,1488.067536,35,50,86,69,86,41,None,None,87,87,[0.046296296296296294],[-0.2861111111111111],[1],[0],[0],[3.58162500000617],['tijiao'],-0.6,0,,,,,,,,,,,,[],[],[],[],[],[],[],1494.178814,1494.178814,1494.178814,1494.178814,10.15740741,3.3766761,1497.573725,1499.220306,,,,,,1490.577718,1490.577718,1490.577718,1490.577718,1490.577718,1490.577718,1490.577718,1490.577718,0.0054912,1490.577718,,,,,,,235,f,21,2023-03-21_13h32.47.640,RL,2022.2.4,60.16582906
1,0,124,0,,,,,,,,,,None,1499.220306,1499.220306,1499.220306,1499.220306,1499.220306,1499.220306,i,0.3002271,1499.553407,1499.553407,1499.553407,1499.553407,1499.553407,1499.553407,1499.852177,1499.852177,1501.447685,1501.447685,1501.447685,1501.447685,1501.447685,1501.447685,1501.447685,1501.447685,1501.447685,1501.447685,1501.447685,1501.447685,1501.447685,1501.447685,1501.447685,1501.447685,1501.447685,38,47,100,68,100,54,None,None,96,96,[0.08888888888888889],[-0.25833333333333336],[1],[0],[0],[4.294316200001049],['tijiao'],0.6,0,,,,,,,,,,,,[],[],[],[],[],[],[],1508.27604,1508.27604,1508.27604,1508.27604,10.89814815,1.3960367,1509.690794,1511.503478,,,,,,1503.959517,1503.959517,1503.959517,1503.959517,1503.959517,1503.959517,1503.959517,1503.959517,0.0075304,1503.959517,,,,,,,235,f,21,2023-03-21_13h32.47.640,RL,2022.2.4,60.16582906
0,0,125,0,,,,,,,,,,None,1511.503478,1511.503478,1511.503478,1511.503478,1511.503478,1511.503478,i,0.2892654,1511.819784,1511.819784,1511.819784,1511.819784,1511.819784,1511.819784,1512.118643,1512.118643,1513.76404,1513.76404,1513.76404,1513.76404,1513.76404,1513.76404,1513.76404,1513.76404,1513.76404,1513.76404,1513.76404,1513.76404,1513.76404,1513.76404,1513.76404,1513.76404,1513.76404,37,38,88,67,88,47,None,None,,,[],[],[],[],[],[],[],0.6,1,1516.280828,1516.280828,1516.280828,1516.280828,1516.280828,1516.280828,1516.280828,1516.280828,0.0054933,1516.280828,78,[0.06574074074074074],[-0.2712962962962963],[1],[0],[0],[3.7738675000000512],['tijiao_random_2'],1520.067517,1520.067517,1520.067517,1520.067517,9.731481481,1.6218979,1521.707851,1523.354342,,,,,,,,,,,,,,,,,,,,,,235,f,21,2023-03-21_13h32.47.640,RL,2022.2.4,60.16582906
1,0,126,0,,,,,,,,,,None,1523.354342,1523.354342,1523.354342,1523.354342,1523.354342,1523.354342,i,0.3057896,1523.687246,1523.687246,1523.687246,1523.687246,1523.687246,1523.687246,1523.986259,1523.986259,1525.315941,1525.315941,1525.315941,1525.315941,1525.315941,1525.315941,1525.315941,1525.315941,1525.315941,1525.315941,1525.315941,1525.315941,1525.315941,1525.315941,1525.315941,1525.315941,1525.315941,34,36,88,65,88,46,7,2.3762094,,,[],[],[],[],[],[],[],0.6,2,,,,,,,,,,,,[],[],[],[],[],[],[],,,,,None,None,1530.226337,1531.814539,1527.825163,1527.825163,1527.825163,1527.825163,1527.825163,,,,,,,,,,,,,,,,,235,f,21,2023-03-21_13h32.47.640,RL,2022.2.4,60.16582906
0,0,127,0,,,,,,,,,,None,1531.814539,1531.814539,1531.814539,1531.814539,1531.814539,1531.814539,i,0.3385997,1532.180758,1532.180758,1532.180758,1532.180758,1532.180758,1532.180758,1532.479978,1532.479978,1533.942477,1533.942477,1533.942477,1533.942477,1533.942477,1533.942477,1533.942477,1533.942477,1533.942477,1533.942477,1533.942477,1533.942477,1533.942477,1533.942477,1533.942477,1533.942477,1533.942477,39,46,81,70,81,47,6,2.0102965,,,[],[],[],[],[],[],[],-0.6,2,,,,,,,,,,,,[],[],[],[],[],[],[],,,,,None,None,1538.485164,1540.042146,1536.451386,1536.451386,1536.451386,1536.451386,1536.451386,,,,,,,,,,,,,,,,,235,f,21,2023-03-21_13h32.47.640,RL,2022.2.4,60.16582906
1,0,128,0,,,,,,,,,,None,1540.042146,1540.042146,1540.042146,1540.042146,1540.042146,1540.042146,i,0.3503247,1540.424889,1540.424889,1540.424889,1540.424889,1540.424889,1540.424889,1540.724044,1540.724044,1542.651871,1542.651871,1542.651871,1542.651871,1542.651871,1542.651871,1542.651871,1542.651871,1542.651871,1542.651871,1542.651871,1542.651871,1542.651871,1542.651871,1542.651871,1542.651871,1542.651871,32,39,85,55,85,7,7,0.7141265,,,[],[],[],[],[],[],[],-0.2,3,,,,,,,,,,,,[],[],[],[],[],[],[],,,,,None,None,1545.899088,1547.504874,1545.161113,1545.161113,1545.161113,1545.161113,1545.161113,,,,,,,,,,,,,,,,,235,f,21,2023-03-21_13h32.47.640,RL,2022.2.4,60.16582906
