trials.thisRepN,trials.thisTrialN,trials.thisN,trials.thisIndex,instru_img1.started,instru_img1.stopped,instru_resp.keys,instru_resp.rt,instru_resp.started,instru_resp.stopped,instru_img2.started,instru_img2.stopped,instru_resp2.keys,instru_resp2.rt,instru_resp2.started,instru_resp2.stopped,fixbefore_2.started,fixbefore_2.stopped,rest_image.started,rest_image.stopped,rest_response.keys,rest_response.started,rest_response.stopped,red.started,red.stopped,green.started,green.stopped,yellow.started,yellow.stopped,blue.started,blue.stopped,choose_bandit.keys,choose_bandit.rt,choose_bandit.started,choose_bandit.stopped,Fixation.started,Fixation.stopped,black.started,black.stopped,red_2.started,red_2.stopped,green_2.started,green_2.stopped,yellow_2.started,yellow_2.stopped,blue_2.started,blue_2.stopped,fixation_2.started,fixation_2.stopped,docs.started,docs.stopped,wait_playerB.started,wait_playerB.stopped,black_com.started,black_com.stopped,reward_sub.started,reward_sub.stopped,palyerb.started,palyerb.stopped,reward__sub.started,reward__sub.stopped,compare.started,compare.stopped,red_compare.started,red_compare.stopped,green_com.started,green_com.stopped,yellow_com.started,yellow_com.stopped,blue_com.started,blue_com.stopped,rewardyellow,rewardred,rewardblue,rewardgreen,subchoose,playerb,image_3.started,image_3.stopped,slider.response,slider.rt,slider.started,slider.stopped,text.started,text.stopped,image_4.started,image_4.stopped,image_5.started,image_5.stopped,expectself.text,expectself.started,expectself.stopped,value_expect_self,expect_self_black.started,expect_self_black.stopped,expect_self.started,expect_self.stopped,expect_self_red.started,expect_self_red.stopped,expect_self_green.started,expect_self_green.stopped,expect_self_yellow.started,expect_self_yellow.stopped,expect_self_blue.started,expect_self_blue.stopped,tijiao.started,tijiao.stopped,tijiao_click.started,tijiao_click.stopped,check.started,check.stopped,random_whicharm,whether_ask,jiantou_random.started,jiantou_random.stopped,expect_red.started,expect_red.stopped,expect_green.started,expect_green.stopped,expect_yellow.started,expect_yellow.stopped,expect_blue.started,expect_blue.stopped,expect_random_2.started,expect_random_2.stopped,expect_random_3.text,expect_random_3.started,expect_random_3.stopped,tijiao_random_2.started,tijiao_random_2.stopped,tijiao_random.x,tijiao_random.y,tijiao_random.leftButton,tijiao_random.midButton,tijiao_random.rightButton,tijiao_random.time,tijiao_random.clicked_name,tijiao_random.started,tijiao_random.stopped,check_2.started,check_2.stopped,slider_2.response,slider_2.rt,slider_2.started,slider_2.stopped,image_7.started,image_7.stopped,confi.started,confi.stopped,notconfi.started,notconfi.stopped,bigx.started,bigx.stopped,intertrialfix.started,intertrialfix.stopped,tijiao_click.x,tijiao_click.y,tijiao_click.leftButton,tijiao_click.midButton,tijiao_click.rightButton,tijiao_click.time,tijiao_click.clicked_name,rest_response.rt,image.started,image.stopped,key_resp.keys,key_resp.started,key_resp.stopped,participant,Gender,Age,date,expName,psychopyVersion,frameRate
,,,,22.8075751,None,space,12.384578,22.8075751,None,,,,,,,,,,,,,,,,,,,,,,,,,,,,,,,,,,,,,,,,,,,,,,,,,,,,,,,,,,,,,,,,,,,,,,,,,,,,,,,,,,,,,,,,,,,,,,,,,,,,,,,,,,,,,,,,,,,,,,,,,,,,,,,,,,,,,,,,,,,,,,,,,,,,,,,,,,,,,,,236,f,22,2023_Mar_21_1332,RL,2021.2.3,59.93238428
,,,,,,,,,,35.2324788,None,s,12.4896863,35.2324788,None,,,,,,,,,,,,,,,,,,,,,,,,,,,,,,,,,,,,,,,,,,,,,,,,,,,,,,,,,,,,,,,,,,,,,,,,,,,,,,,,,,,,,,,,,,,,,,,,,,,,,,,,,,,,,,,,,,,,,,,,,,,,,,,,,,,,,,,,,,,,,,,,,,,,,,,,,236,f,22,2023_Mar_21_1332,RL,2021.2.3,59.93238428
1,0,0,0,,,,,,,,,,,,,47.7588023,None,None,None,None,None,None,48.7961333,None,48.7961333,None,48.7961333,None,48.7961333,None,i,0.6058869,48.7961333,None,48.7961333,None,49.4545389,None,49.4545389,None,49.4545389,None,49.4545389,None,49.4545389,None,49.4545389,None,49.7499729,None,49.7499729,None,50.7553636,None,50.7553636,None,50.7553636,None,50.7553636,None,50.7553636,None,50.7553636,None,50.7553636,None,50.7553636,None,50.7553636,None,42,71,46,55,46,43,None,None,None,None,None,None,None,None,None,None,None,None,,None,None,,None,None,None,None,None,None,None,None,None,None,None,None,None,None,None,None,None,None,-0.2,1,53.3142959,None,53.3142959,None,53.3142959,None,53.3142959,None,53.3142959,None,53.3142959,None,50,53.3142959,None,53.3142959,None,0.002604167,-0.309895833,1,0,0,5.7844266,tijiao_random_2,0.01358618,None,53.3142959,None,6.052083333,2.3660146,59.1376081,None,59.1376081,None,59.1376081,None,59.1376081,None,None,None,61.5385093,None,,,,,,,,,,,,,,236,f,22,2023_Mar_21_1332,RL,2021.2.3,59.93238428
0,0,1,0,,,,,,,,,,,,,,,None,None,None,None,None,63.3461906,None,63.3461906,None,63.3461906,None,63.3461906,None,i,0.3659552,63.3461906,None,63.3461906,None,63.7641394,None,63.7641394,None,63.7641394,None,63.7641394,None,63.7641394,None,63.7641394,None,64.0599374,None,64.0599374,None,65.7633144,None,65.7633144,None,65.7633144,None,65.7633144,None,65.7633144,None,65.7633144,None,65.7633144,None,65.7633144,None,65.7633144,None,40,70,44,60,44,42,None,None,None,None,None,None,None,None,None,None,None,None,,None,None,,None,None,None,None,None,None,None,None,None,None,None,None,None,None,None,None,None,None,0.2,1,68.3054231,None,68.3054231,None,68.3054231,None,68.3054231,None,68.3054231,None,68.3054231,None,44,68.3054231,None,68.3054231,None,0.06640625,-0.30859375,1,0,0,7.4377193,tijiao_random_2,0.01495458,None,68.3054231,None,10.86979167,0.8575472,75.7739946,None,75.7739946,None,75.7739946,None,75.7739946,None,None,None,76.6500142,None,,,,,,,,,,,,,,236,f,22,2023_Mar_21_1332,RL,2021.2.3,59.93238428
1,0,2,0,,,,,,,,,,,,,,,None,None,None,None,None,78.4563378,None,78.4563378,None,78.4563378,None,78.4563378,None,f,0.6059144,78.4563378,None,78.4563378,None,79.1113625,None,79.1113625,None,79.1113625,None,79.1113625,None,79.1113625,None,79.1113625,None,79.4036766,None,79.4036766,None,80.6785615,None,80.6785615,None,80.6785615,None,80.6785615,None,80.6785615,None,80.6785615,None,80.6785615,None,80.6785615,None,80.6785615,None,36,74,43,65,74,35,83.1912667,None,7,2.2885363,83.1912667,None,83.1912667,None,83.1912667,None,83.1912667,None,,None,None,,None,None,None,None,None,None,None,None,None,None,None,None,None,None,None,None,None,None,-0.6,2,None,None,None,None,None,None,None,None,None,None,None,None,,None,None,None,None,,,,,,,,None,None,None,None,None,None,None,None,None,None,None,None,None,None,None,None,85.5323057,None,,,,,,,,,,,,,,236,f,22,2023_Mar_21_1332,RL,2021.2.3,59.93238428
0,0,3,0,,,,,,,,,,,,,,,None,None,None,None,None,87.0630046,None,87.0630046,None,87.0630046,None,87.0630046,None,j,0.3894237,87.0630046,None,87.0630046,None,87.5091022,None,87.5091022,None,87.5091022,None,87.5091022,None,87.5091022,None,87.5091022,None,87.7931718,89.6944032,87.7931718,89.6944032,89.7270922,None,89.7270922,None,89.7270922,None,89.7270922,None,89.7270922,None,89.7270922,None,89.7270922,None,89.7270922,None,89.7270922,None,38,71,43,67,67,55,92.2456061,None,7,2.0064792,92.2456061,None,92.2456061,None,92.2456061,None,92.2456061,None,,None,None,,None,None,None,None,None,None,None,None,None,None,None,None,None,None,None,None,None,None,-0.2,3,None,None,None,None,None,None,None,None,None,None,None,None,,None,None,None,None,,,,,,,,None,None,None,None,None,None,None,None,None,None,None,None,None,None,None,None,94.3096355,None,,,,,,,,,,,,,,236,f,22,2023_Mar_21_1332,RL,2021.2.3,59.93238428
1,0,4,0,,,,,,,,,,,,,,,None,None,None,None,None,96.253067,None,96.253067,None,96.253067,None,96.253067,None,f,0.4403825,96.253067,None,96.253067,None,96.7379798,None,96.7379798,None,96.7379798,None,96.7379798,None,96.7379798,None,96.7379798,None,97.0330128,None,97.0330128,None,98.3850648,None,98.3850648,None,98.3850648,None,98.3850648,None,98.3850648,None,98.3850648,None,98.3850648,None,98.3850648,None,98.3850648,None,42,72,39,57,72,43,None,None,None,None,None,None,None,None,None,None,None,None,,None,None,,None,None,None,None,None,None,None,None,None,None,None,None,None,None,None,None,None,None,-0.6,1,100.923612,None,100.923612,None,100.923612,None,100.923612,None,100.923612,None,100.923612,None,43,100.923612,None,100.923612,None,0.01171875,-0.294270833,1,0,0,6.325243,tijiao_random_2,0.00342496,None,100.923612,None,8.825520833,1.1214208,107.299783,None,107.299783,None,107.299783,None,107.299783,None,None,None,108.4367813,None,,,,,,,,,,,,,,236,f,22,2023_Mar_21_1332,RL,2021.2.3,59.93238428
0,0,5,0,,,,,,,,,,,,,,,None,None,None,None,None,110.1456385,None,110.1456385,None,110.1456385,None,110.1456385,None,i,0.38785,110.1456385,None,110.1456385,None,110.5804023,None,110.5804023,None,110.5804023,None,110.5804023,None,110.5804023,None,110.5804023,None,110.875879,None,110.875879,None,112.0615986,None,112.0615986,None,112.0615986,None,112.0615986,None,112.0615986,None,112.0615986,None,112.0615986,None,112.0615986,None,112.0615986,None,48,68,41,54,41,44,None,None,None,None,None,None,None,None,None,None,None,None,,None,None,,None,None,None,None,None,None,None,None,None,None,None,None,None,None,None,None,None,None,0.2,1,114.6008296,None,114.6008296,None,114.6008296,None,114.6008296,None,114.6008296,None,114.6008296,None,41,114.6008296,None,114.6008296,None,0.122395833,-0.282552083,1,0,0,3.4553342,tijiao_random_2,0.00211936,None,114.6008296,None,10.8046875,0.9999094,118.0866131,None,118.0866131,None,118.0866131,None,118.0866131,None,None,None,119.1200086,None,,,,,,,,,,,,,,236,f,22,2023_Mar_21_1332,RL,2021.2.3,59.93238428
1,0,6,0,,,,,,,,,,,,,,,None,None,None,None,None,120.8028308,None,120.8028308,None,120.8028308,None,120.8028308,None,r,0.3207549,120.8028308,None,120.8028308,None,121.1693217,None,121.1693217,None,121.1693217,None,121.1693217,None,121.1693217,None,121.1693217,None,121.4665724,123.2511132,121.4665724,123.2511132,123.2878218,None,123.2878218,None,123.2878218,None,123.2878218,None,123.2878218,None,123.2878218,None,123.2878218,None,123.2878218,None,123.2878218,None,52,73,43,47,52,39,None,None,None,None,None,None,None,None,None,None,None,None,47,125.8202929,None,47,125.8202929,None,125.8202929,None,125.8202929,None,125.8202929,None,125.8202929,None,125.8202929,None,125.8202929,None,0.00889986,None,125.8202929,None,-0.2,0,None,None,None,None,None,None,None,None,None,None,None,None,,None,None,None,None,,,,,,,,None,None,None,None,3.083333333,1.7344056,135.8556257,None,135.8556257,None,135.8556257,None,135.8556257,None,None,None,137.6110963,None,0.09765625,-0.30859375,1,0,0,9.9842492,tijiao,,,,,,,236,f,22,2023_Mar_21_1332,RL,2021.2.3,59.93238428
0,0,7,0,,,,,,,,,,,,,,,None,None,None,None,None,139.2496541,None,139.2496541,None,139.2496541,None,139.2496541,None,i,0.734031,139.2496541,None,139.2496541,None,140.0349802,None,140.0349802,None,140.0349802,None,140.0349802,None,140.0349802,None,140.0349802,None,140.3295716,None,140.3295716,None,141.2282046,None,141.2282046,None,141.2282046,None,141.2282046,None,141.2282046,None,141.2282046,None,141.2282046,None,141.2282046,None,141.2282046,None,49,75,53,52,53,57,None,None,None,None,None,None,None,None,None,None,None,None,35,143.7559413,None,35,143.7559413,None,143.7559413,None,143.7559413,None,143.7559413,None,143.7559413,None,143.7559413,None,143.7559413,None,0.00080714,None,143.7559413,None,-0.2,0,None,None,None,None,None,None,None,None,None,None,None,None,,None,None,None,None,,,,,,,,None,None,None,None,7.015625,1.0940918,151.1955241,None,151.1955241,None,151.1955241,None,151.1955241,None,None,None,152.304033,None,0.036458333,-0.28125,1,0,0,7.390036,tijiao,,,,,,,236,f,22,2023_Mar_21_1332,RL,2021.2.3,59.93238428
1,0,8,0,,,,,,,,,,,,,,,None,None,None,None,None,153.9255154,None,153.9255154,None,153.9255154,None,153.9255154,None,j,0.2584717,153.9255154,None,153.9255154,None,154.2299705,None,154.2299705,None,154.2299705,None,154.2299705,None,154.2299705,None,154.2299705,None,154.5230306,None,154.5230306,None,156.2376144,None,156.2376144,None,156.2376144,None,156.2376144,None,156.2376144,None,156.2376144,None,156.2376144,None,156.2376144,None,156.2376144,None,44,60,48,59,59,64,158.7558517,None,3,2.5086398,158.7558517,None,158.7558517,None,158.7558517,None,158.7558517,None,,None,None,,None,None,None,None,None,None,None,None,None,None,None,None,None,None,None,None,None,None,-0.6,3,None,None,None,None,None,None,None,None,None,None,None,None,,None,None,None,None,,,,,,,,None,None,None,None,None,None,None,None,None,None,None,None,None,None,None,None,161.3273092,None,,,,,,,,,,,,,,236,f,22,2023_Mar_21_1332,RL,2021.2.3,59.93238428
0,0,9,0,,,,,,,,,,,,,,,None,None,None,None,None,163.1496255,None,163.1496255,None,163.1496255,None,163.1496255,None,f,0.2841859,163.1496255,None,163.1496255,None,163.4875929,None,163.4875929,None,163.4875929,None,163.4875929,None,163.4875929,None,163.4875929,None,163.7792036,164.8801593,163.7792036,164.8801593,164.9141157,None,164.9141157,None,164.9141157,None,164.9141157,None,164.9141157,None,164.9141157,None,164.9141157,None,164.9141157,None,164.9141157,None,34,68,57,49,68,36,None,None,None,None,None,None,None,None,None,None,None,None,60,167.4401419,None,60,167.4401419,None,167.4401419,None,167.4401419,None,167.4401419,None,167.4401419,None,167.4401419,None,167.4401419,None,0.00074324,None,167.4401419,None,0.2,0,None,None,None,None,None,None,None,None,None,None,None,None,,None,None,None,None,,,,,,,,None,None,None,None,6.9765625,1.199042,175.9281227,None,175.9281227,None,175.9281227,None,175.9281227,None,None,None,177.1530927,None,0.05859375,-0.303385417,1,0,0,8.4414793,tijiao,,,,,,,236,f,22,2023_Mar_21_1332,RL,2021.2.3,59.93238428
1,0,10,0,,,,,,,,,,,,,,,None,None,None,None,None,178.8761437,None,178.8761437,None,178.8761437,None,178.8761437,None,f,0.2877978,178.8761437,None,178.8761437,None,179.2113779,None,179.2113779,None,179.2113779,None,179.2113779,None,179.2113779,None,179.2113779,None,179.5068656,None,179.5068656,None,181.5100606,None,181.5100606,None,181.5100606,None,181.5100606,None,181.5100606,None,181.5100606,None,181.5100606,None,181.5100606,None,181.5100606,None,37,65,53,60,65,58,184.0244034,None,7,1.855823,184.0244034,None,184.0244034,None,184.0244034,None,184.0244034,None,,None,None,,None,None,None,None,None,None,None,None,None,None,None,None,None,None,None,None,None,None,-0.6,2,None,None,None,None,None,None,None,None,None,None,None,None,,None,None,None,None,,,,,,,,None,None,None,None,None,None,None,None,None,None,None,None,None,None,None,None,185.9407134,None,,,,,,,,,,,,,,236,f,22,2023_Mar_21_1332,RL,2021.2.3,59.93238428
0,0,11,0,,,,,,,,,,,,,,,None,None,None,None,None,187.6335999,None,187.6335999,None,187.6335999,None,187.6335999,None,r,0.5706914,187.6335999,None,187.6335999,None,188.2512942,None,188.2512942,None,188.2512942,None,188.2512942,None,188.2512942,None,188.2512942,None,188.5465213,None,188.5465213,None,189.9952089,None,189.9952089,None,189.9952089,None,189.9952089,None,189.9952089,None,189.9952089,None,189.9952089,None,189.9952089,None,189.9952089,None,41,70,53,47,41,38,None,None,None,None,None,None,None,None,None,None,None,None,,None,None,,None,None,None,None,None,None,None,None,None,None,None,None,None,None,None,None,None,None,-0.6,1,192.5396547,None,192.5396547,None,192.5396547,None,192.5396547,None,192.5396547,None,192.5396547,None,41,192.5396547,None,192.5396547,None,0.08203125,-0.295572917,1,0,0,3.2878488,tijiao_random_2,0.00126826,None,192.5396547,None,11,1.0711567,195.860702,None,195.860702,None,195.860702,None,195.860702,None,None,None,196.9553458,None,,,,,,,,,,,,,,236,f,22,2023_Mar_21_1332,RL,2021.2.3,59.93238428
1,0,12,0,,,,,,,,,,,,,,,None,None,None,None,None,198.5233779,None,198.5233779,None,198.5233779,None,198.5233779,None,f,0.310636,198.5233779,None,198.5233779,None,198.8763991,None,198.8763991,None,198.8763991,None,198.8763991,None,198.8763991,None,198.8763991,None,199.1704756,None,199.1704756,None,200.2013007,None,200.2013007,None,200.2013007,None,200.2013007,None,200.2013007,None,200.2013007,None,200.2013007,None,200.2013007,None,200.2013007,None,37,68,51,60,68,57,202.7270266,None,6,3.0014765,202.7270266,None,202.7270266,None,202.7270266,None,202.7270266,None,,None,None,,None,None,None,None,None,None,None,None,None,None,None,None,None,None,None,None,None,None,0.6,3,None,None,None,None,None,None,None,None,None,None,None,None,,None,None,None,None,,,,,,,,None,None,None,None,None,None,None,None,None,None,None,None,None,None,None,None,205.7777102,None,,,,,,,,,,,,,,236,f,22,2023_Mar_21_1332,RL,2021.2.3,59.93238428
0,0,13,0,,,,,,,,,,,,,,,None,None,None,None,None,207.7312373,None,207.7312373,None,207.7312373,None,207.7312373,None,r,0.4828738,207.7312373,None,207.7312373,None,208.2671148,None,208.2671148,None,208.2671148,None,208.2671148,None,208.2671148,None,208.2671148,None,208.560272,209.4776427,208.560272,209.4776427,209.5159697,None,209.5159697,None,209.5159697,None,209.5159697,None,209.5159697,None,209.5159697,None,209.5159697,None,209.5159697,None,209.5159697,None,27,64,49,56,27,30,212.051077,None,2,1.9356562,212.051077,None,212.051077,None,212.051077,None,212.051077,None,,None,None,,None,None,None,None,None,None,None,None,None,None,None,None,None,None,None,None,None,None,-0.2,2,None,None,None,None,None,None,None,None,None,None,None,None,,None,None,None,None,,,,,,,,None,None,None,None,None,None,None,None,None,None,None,None,None,None,None,None,214.041413,None,,,,,,,,,,,,,,236,f,22,2023_Mar_21_1332,RL,2021.2.3,59.93238428
1,0,14,0,,,,,,,,,,,,,,,None,None,None,None,None,215.9695708,None,215.9695708,None,215.9695708,None,215.9695708,None,i,0.3047385,215.9695708,None,215.9695708,None,216.3224562,None,216.3224562,None,216.3224562,None,216.3224562,None,216.3224562,None,216.3224562,None,216.6158536,None,216.6158536,None,218.2977916,None,218.2977916,None,218.2977916,None,218.2977916,None,218.2977916,None,218.2977916,None,218.2977916,None,218.2977916,None,218.2977916,None,31,65,43,58,43,51,None,None,None,None,None,None,None,None,None,None,None,None,55,220.8243625,None,55,220.8243625,None,220.8243625,None,220.8243625,None,220.8243625,None,220.8243625,None,220.8243625,None,220.8243625,None,0.00328974,None,220.8243625,None,0.6,0,None,None,None,None,None,None,None,None,None,None,None,None,,None,None,None,None,,,,,,,,None,None,None,None,4.177083333,2.5987277,226.2613525,None,226.2613525,None,226.2613525,None,226.2613525,None,None,None,228.8918099,None,0.036458333,-0.296875,1,0,0,5.3917626,tijiao,,,,,,,236,f,22,2023_Mar_21_1332,RL,2021.2.3,59.93238428
0,0,15,0,,,,,,,,,,,,,,,None,None,None,None,None,230.5960531,None,230.5960531,None,230.5960531,None,230.5960531,None,i,0.2783041,230.5960531,None,230.5960531,None,230.917071,None,230.917071,None,230.917071,None,230.917071,None,230.917071,None,230.917071,None,231.1926315,232.1935186,231.1926315,232.1935186,232.2254992,None,232.2254992,None,232.2254992,None,232.2254992,None,232.2254992,None,232.2254992,None,232.2254992,None,232.2254992,None,232.2254992,None,41,63,46,60,46,62,None,None,None,None,None,None,None,None,None,None,None,None,40,234.7603144,None,40,234.7603144,None,234.7603144,None,234.7603144,None,234.7603144,None,234.7603144,None,234.7603144,None,234.7603144,None,0.01030026,None,234.7603144,None,0.6,0,None,None,None,None,None,None,None,None,None,None,None,None,,None,None,None,None,,,,,,,,None,None,None,None,2.888020833,1.4922055,241.6536175,None,241.6536175,None,241.6536175,None,241.6536175,None,None,None,243.1669333,None,0.071614583,-0.298177083,1,0,0,6.8491823,tijiao,,,,,,,236,f,22,2023_Mar_21_1332,RL,2021.2.3,59.93238428
1,0,16,0,,,,,,,,,,,,,,,None,None,None,None,None,244.7562649,None,244.7562649,None,244.7562649,None,244.7562649,None,j,0.2384136,244.7562649,None,244.7562649,None,245.0405266,None,245.0405266,None,245.0405266,None,245.0405266,None,245.0405266,None,245.0405266,None,245.3358529,246.5366553,245.3358529,246.5366553,246.5682883,None,246.5682883,None,246.5682883,None,246.5682883,None,246.5682883,None,246.5682883,None,246.5682883,None,246.5682883,None,246.5682883,None,41,51,48,50,50,27,249.0877743,None,6,1.3537118,249.0877743,None,249.0877743,None,249.0877743,None,249.0877743,None,,None,None,,None,None,None,None,None,None,None,None,None,None,None,None,None,None,None,None,None,None,0.2,2,None,None,None,None,None,None,None,None,None,None,None,None,,None,None,None,None,,,,,,,,None,None,None,None,None,None,None,None,None,None,None,None,None,None,None,None,250.5066405,None,,,,,,,,,,,,,,236,f,22,2023_Mar_21_1332,RL,2021.2.3,59.93238428
0,0,17,0,,,,,,,,,,,,,,,None,None,None,None,None,252.3438167,None,252.3438167,None,252.3438167,None,252.3438167,None,j,0.2205593,252.3438167,None,252.3438167,None,252.6128064,None,252.6128064,None,252.6128064,None,252.6128064,None,252.6128064,None,252.6128064,None,252.9075535,254.2420958,252.9075535,254.2420958,254.2733874,None,254.2733874,None,254.2733874,None,254.2733874,None,254.2733874,None,254.2733874,None,254.2733874,None,254.2733874,None,254.2733874,None,38,64,44,57,57,47,None,None,None,None,None,None,None,None,None,None,None,None,48,256.8095931,None,48,256.8095931,None,256.8095931,None,256.8095931,None,256.8095931,None,256.8095931,None,256.8095931,None,256.8095931,None,0.00921716,None,256.8095931,None,-0.2,0,None,None,None,None,None,None,None,None,None,None,None,None,,None,None,None,None,,,,,,,,None,None,None,None,8.018229167,1.6260987,262.3897615,None,262.3897615,None,262.3897615,None,262.3897615,None,None,None,264.031419,None,0.111979167,-0.2890625,1,0,0,5.5310411,tijiao,,,,,,,236,f,22,2023_Mar_21_1332,RL,2021.2.3,59.93238428
1,0,18,0,,,,,,,,,,,,,,,None,None,None,None,None,265.9202295,None,265.9202295,None,265.9202295,None,265.9202295,None,r,0.3058471,265.9202295,None,265.9202295,None,266.2723096,None,266.2723096,None,266.2723096,None,266.2723096,None,266.2723096,None,266.2723096,None,266.5674933,268.4185698,266.5674933,268.4185698,268.4512089,None,268.4512089,None,268.4512089,None,268.4512089,None,268.4512089,None,268.4512089,None,268.4512089,None,268.4512089,None,268.4512089,None,35,54,48,69,35,62,270.9726125,None,1,1.9359087,270.9726125,None,270.9726125,None,270.9726125,None,270.9726125,None,,None,None,,None,None,None,None,None,None,None,None,None,None,None,None,None,None,None,None,None,None,0.2,2,None,None,None,None,None,None,None,None,None,None,None,None,,None,None,None,None,,,,,,,,None,None,None,None,None,None,None,None,None,None,None,None,None,None,None,None,272.9678774,None,,,,,,,,,,,,,,236,f,22,2023_Mar_21_1332,RL,2021.2.3,59.93238428
0,0,19,0,,,,,,,,,,,,,,,None,None,None,None,None,274.6766091,None,274.6766091,None,274.6766091,None,274.6766091,None,f,0.309099,274.6766091,None,274.6766091,None,275.0276463,None,275.0276463,None,275.0276463,None,275.0276463,None,275.0276463,None,275.0276463,None,275.3234347,None,275.3234347,None,276.3212391,None,276.3212391,None,276.3212391,None,276.3212391,None,276.3212391,None,276.3212391,None,276.3212391,None,276.3212391,None,276.3212391,None,31,55,46,64,55,51,None,None,None,None,None,None,None,None,None,None,None,None,,None,None,,None,None,None,None,None,None,None,None,None,None,None,None,None,None,None,None,None,None,0.6,1,278.8693417,None,278.8693417,None,278.8693417,None,278.8693417,None,278.8693417,None,278.8693417,None,70,278.8693417,None,278.8693417,None,-0.02734375,-0.278645833,1,0,0,5.503311,tijiao_random_2,0.01473228,None,278.8693417,None,3.03125,2.2127779,284.4051555,None,284.4051555,None,284.4051555,None,284.4051555,None,None,None,286.6313911,None,,,,,,,,,,,,,,236,f,22,2023_Mar_21_1332,RL,2021.2.3,59.93238428
1,0,20,0,,,,,,,,,,,,,,,None,None,None,None,None,288.6030748,None,288.6030748,None,288.6030748,None,288.6030748,None,j,0.252607,288.6030748,None,288.6030748,None,288.9048959,None,288.9048959,None,288.9048959,None,288.9048959,None,288.9048959,None,288.9048959,None,289.199619,290.4173671,289.199619,290.4173671,290.4491886,None,290.4491886,None,290.4491886,None,290.4491886,None,290.4491886,None,290.4491886,None,290.4491886,None,290.4491886,None,290.4491886,None,26,56,40,58,58,33,292.9650492,None,6,2.3580711,292.9650492,None,292.9650492,None,292.9650492,None,292.9650492,None,,None,None,,None,None,None,None,None,None,None,None,None,None,None,None,None,None,None,None,None,None,-0.2,2,None,None,None,None,None,None,None,None,None,None,None,None,,None,None,None,None,,,,,,,,None,None,None,None,None,None,None,None,None,None,None,None,None,None,None,None,295.3752448,None,,,,,,,,,,,,,,236,f,22,2023_Mar_21_1332,RL,2021.2.3,59.93238428
0,0,21,0,,,,,,,,,,,,,,,None,None,None,None,None,297.3752582,None,297.3752582,None,297.3752582,None,297.3752582,None,f,0.2604675,297.3752582,None,297.3752582,None,297.6784307,None,297.6784307,None,297.6784307,None,297.6784307,None,297.6784307,None,297.6784307,None,297.9724995,None,297.9724995,None,299.7377779,None,299.7377779,None,299.7377779,None,299.7377779,None,299.7377779,None,299.7377779,None,299.7377779,None,299.7377779,None,299.7377779,None,25,58,43,61,58,61,None,None,None,None,None,None,None,None,None,None,None,None,57,302.2750602,None,57,302.2750602,None,302.2750602,None,302.2750602,None,302.2750602,None,302.2750602,None,302.2750602,None,302.2750602,None,0.00914696,None,302.2750602,None,-0.6,0,None,None,None,None,None,None,None,None,None,None,None,None,,None,None,None,None,,,,,,,,None,None,None,None,5.986979167,1.6801441,307.7370761,None,307.7370761,None,307.7370761,None,307.7370761,None,None,None,309.4447949,None,0.0390625,-0.2890625,1,0,0,5.4144486,tijiao,,,,,,,236,f,22,2023_Mar_21_1332,RL,2021.2.3,59.93238428
1,0,22,0,,,,,,,,,,,,,,,None,None,None,None,None,311.3009871,None,311.3009871,None,311.3009871,None,311.3009871,None,i,0.2548002,311.3009871,None,311.3009871,None,311.6048028,None,311.6048028,None,311.6048028,None,311.6048028,None,311.6048028,None,311.6048028,None,311.8988178,None,311.8988178,None,312.9798396,None,312.9798396,None,312.9798396,None,312.9798396,None,312.9798396,None,312.9798396,None,312.9798396,None,312.9798396,None,312.9798396,None,24,56,49,69,49,51,315.4994035,None,2,2.189179,315.4994035,None,315.4994035,None,315.4994035,None,315.4994035,None,,None,None,,None,None,None,None,None,None,None,None,None,None,None,None,None,None,None,None,None,None,-0.6,2,None,None,None,None,None,None,None,None,None,None,None,None,,None,None,None,None,,,,,,,,None,None,None,None,None,None,None,None,None,None,None,None,None,None,None,None,317.7527049,None,,,,,,,,,,,,,,236,f,22,2023_Mar_21_1332,RL,2021.2.3,59.93238428
0,0,23,0,,,,,,,,,,,,,,,None,None,None,None,None,319.3746375,None,319.3746375,None,319.3746375,None,319.3746375,None,j,0.3013324,319.3746375,None,319.3746375,None,319.7254578,None,319.7254578,None,319.7254578,None,319.7254578,None,319.7254578,None,319.7254578,None,320.0210627,None,320.0210627,None,321.6360293,None,321.6360293,None,321.6360293,None,321.6360293,None,321.6360293,None,321.6360293,None,321.6360293,None,321.6360293,None,321.6360293,None,29,58,46,68,68,58,324.1545007,None,6,2.5075604,324.1545007,None,324.1545007,None,324.1545007,None,324.1545007,None,,None,None,,None,None,None,None,None,None,None,None,None,None,None,None,None,None,None,None,None,None,0.6,2,None,None,None,None,None,None,None,None,None,None,None,None,,None,None,None,None,,,,,,,,None,None,None,None,None,None,None,None,None,None,None,None,None,None,None,None,326.7137657,None,,,,,,,,,,,,,,236,f,22,2023_Mar_21_1332,RL,2021.2.3,59.93238428
1,0,24,0,,,,,,,,,,,,,,,None,None,None,None,None,328.7147513,None,328.7147513,None,328.7147513,None,328.7147513,None,f,0.3312352,328.7147513,None,328.7147513,None,329.0839829,None,329.0839829,None,329.0839829,None,329.0839829,None,329.0839829,None,329.0839829,None,329.3777388,None,329.3777388,None,331.3254639,None,331.3254639,None,331.3254639,None,331.3254639,None,331.3254639,None,331.3254639,None,331.3254639,None,331.3254639,None,331.3254639,None,28,64,53,69,64,53,None,None,None,None,None,None,None,None,None,None,None,None,53,333.8542617,None,53,333.8542617,None,333.8542617,None,333.8542617,None,333.8542617,None,333.8542617,None,333.8542617,None,333.8542617,None,0.00132684,None,333.8542617,None,0.6,0,None,None,None,None,None,None,None,None,None,None,None,None,,None,None,None,None,,,,,,,,None,None,None,None,4.033854167,2.9825549,340.9900117,None,340.9900117,None,340.9900117,None,340.9900117,None,None,None,343.9869721,None,-0.01953125,-0.286458333,1,0,0,7.0902478,tijiao,,,,,,,236,f,22,2023_Mar_21_1332,RL,2021.2.3,59.93238428
0,0,25,0,,,,,,,,,,,,,,,None,None,None,None,None,345.7259508,None,345.7259508,None,345.7259508,None,345.7259508,None,j,0.3701816,345.7259508,None,345.7259508,None,346.1463642,None,346.1463642,None,346.1463642,None,346.1463642,None,346.1463642,None,346.1463642,None,346.439464,348.2074734,346.439464,348.2074734,348.2444683,None,348.2444683,None,348.2444683,None,348.2444683,None,348.2444683,None,348.2444683,None,348.2444683,None,348.2444683,None,348.2444683,None,26,68,49,68,68,56,350.7592821,None,7,1.854665,350.7592821,None,350.7592821,None,350.7592821,None,350.7592821,None,,None,None,,None,None,None,None,None,None,None,None,None,None,None,None,None,None,None,None,None,None,-0.6,2,None,None,None,None,None,None,None,None,None,None,None,None,,None,None,None,None,,,,,,,,None,None,None,None,None,None,None,None,None,None,None,None,None,None,None,None,352.6692663,None,,,,,,,,,,,,,,236,f,22,2023_Mar_21_1332,RL,2021.2.3,59.93238428
1,0,26,0,,,,,,,,,,,,,,,None,None,None,None,None,354.3149152,None,354.3149152,None,354.3149152,None,354.3149152,None,j,0.3311917,354.3149152,None,354.3149152,None,354.6837754,None,354.6837754,None,354.6837754,None,354.6837754,None,354.6837754,None,354.6837754,None,354.9786575,None,354.9786575,None,355.8664169,None,355.8664169,None,355.8664169,None,355.8664169,None,355.8664169,None,355.8664169,None,355.8664169,None,355.8664169,None,355.8664169,None,22,68,51,68,68,63,358.3778626,None,7,1.5713673,358.3778626,None,358.3778626,None,358.3778626,None,358.3778626,None,,None,None,,None,None,None,None,None,None,None,None,None,None,None,None,None,None,None,None,None,None,-0.6,3,None,None,None,None,None,None,None,None,None,None,None,None,,None,None,None,None,,,,,,,,None,None,None,None,None,None,None,None,None,None,None,None,None,None,None,None,360.026225,None,,,,,,,,,,,,,,236,f,22,2023_Mar_21_1332,RL,2021.2.3,59.93238428
0,0,27,0,,,,,,,,,,,,,,,None,None,None,None,None,361.8876944,None,361.8876944,None,361.8876944,None,361.8876944,None,j,0.2485664,361.8876944,None,361.8876944,None,362.1872076,None,362.1872076,None,362.1872076,None,362.1872076,None,362.1872076,None,362.1872076,None,362.4840218,None,362.4840218,None,364.2864189,None,364.2864189,None,364.2864189,None,364.2864189,None,364.2864189,None,364.2864189,None,364.2864189,None,364.2864189,None,364.2864189,None,29,59,51,74,74,29,None,None,None,None,None,None,None,None,None,None,None,None,80,366.8125464,None,80,366.8125464,None,366.8125464,None,366.8125464,None,366.8125464,None,366.8125464,None,366.8125464,None,366.8125464,None,0.01649576,None,366.8125464,None,0.2,0,None,None,None,None,None,None,None,None,None,None,None,None,,None,None,None,None,,,,,,,,None,None,None,None,8.916666667,1.2658201,371.5942236,None,371.5942236,None,371.5942236,None,371.5942236,None,None,None,372.8739044,None,0.057291667,-0.2890625,1,0,0,4.7369789,tijiao,,,,,,,236,f,22,2023_Mar_21_1332,RL,2021.2.3,59.93238428
1,0,28,0,,,,,,,,,,,,,,,None,None,None,None,None,374.5132317,None,374.5132317,None,374.5132317,None,374.5132317,None,j,0.2529839,374.5132317,None,374.5132317,None,374.8140886,None,374.8140886,None,374.8140886,None,374.8140886,None,374.8140886,None,374.8140886,None,375.109353,None,375.109353,None,376.2080433,None,376.2080433,None,376.2080433,None,376.2080433,None,376.2080433,None,376.2080433,None,376.2080433,None,376.2080433,None,376.2080433,None,26,55,45,72,72,47,None,None,None,None,None,None,None,None,None,None,None,None,,None,None,,None,None,None,None,None,None,None,None,None,None,None,None,None,None,None,None,None,None,-0.2,1,378.7565652,None,378.7565652,None,378.7565652,None,378.7565652,None,378.7565652,None,378.7565652,None,46,378.7565652,None,378.7565652,None,0.125,-0.2890625,1,0,0,5.1012424,tijiao_random_2,0.01298868,None,378.7565652,None,4.020833333,2.874603,383.8953711,None,383.8953711,None,383.8953711,None,383.8953711,None,None,None,386.7974133,None,,,,,,,,,,,,,,236,f,22,2023_Mar_21_1332,RL,2021.2.3,59.93238428
0,0,29,0,,,,,,,,,,,,,,,None,None,None,None,None,388.3719859,None,388.3719859,None,388.3719859,None,388.3719859,None,j,0.2953409,388.3719859,None,388.3719859,None,388.7078231,None,388.7078231,None,388.7078231,None,388.7078231,None,388.7078231,None,388.7078231,None,389.002203,None,389.002203,None,389.9867824,None,389.9867824,None,389.9867824,None,389.9867824,None,389.9867824,None,389.9867824,None,389.9867824,None,389.9867824,None,389.9867824,None,34,54,43,72,72,59,None,None,None,None,None,None,None,None,None,None,None,None,60,392.5219709,None,60,392.5219709,None,392.5219709,None,392.5219709,None,392.5219709,None,392.5219709,None,392.5219709,None,392.5219709,None,0.00870756,None,392.5219709,None,0.6,0,None,None,None,None,None,None,None,None,None,None,None,None,,None,None,None,None,,,,,,,,None,None,None,None,7.901041667,1.2549689,397.3085472,None,397.3085472,None,397.3085472,None,397.3085472,None,None,None,398.5756092,None,0.005208333,-0.296875,1,0,0,4.7461278,tijiao,,,,,,,236,f,22,2023_Mar_21_1332,RL,2021.2.3,59.93238428
1,0,30,0,,,,,,,,,,,,,,,None,None,None,None,None,400.1130854,None,400.1130854,None,400.1130854,None,400.1130854,None,j,0.2435504,400.1130854,None,400.1130854,None,400.4080594,None,400.4080594,None,400.4080594,None,400.4080594,None,400.4080594,None,400.4080594,None,400.6937362,402.2782268,400.6937362,402.2782268,402.3100416,None,402.3100416,None,402.3100416,None,402.3100416,None,402.3100416,None,402.3100416,None,402.3100416,None,402.3100416,None,402.3100416,None,22,70,36,69,69,54,None,None,None,None,None,None,None,None,None,None,None,None,68,404.8433965,None,68,404.8433965,None,404.8433965,None,404.8433965,None,404.8433965,None,404.8433965,None,404.8433965,None,404.8433965,None,0.01230826,None,404.8433965,None,0.6,0,None,None,None,None,None,None,None,None,None,None,None,None,,None,None,None,None,,,,,,,,None,None,None,None,5.986979167,1.5260379,411.0296288,None,411.0296288,None,411.0296288,None,411.0296288,None,None,None,412.5831927,None,0.079427083,-0.294270833,1,0,0,6.1344725,tijiao,,,,,,,236,f,22,2023_Mar_21_1332,RL,2021.2.3,59.93238428
0,0,31,0,,,,,,,,,,,,,,,None,None,None,None,None,414.1066652,None,414.1066652,None,414.1066652,None,414.1066652,None,j,0.1799446,414.1066652,None,414.1066652,None,414.3278562,None,414.3278562,None,414.3278562,None,414.3278562,None,414.3278562,None,414.3278562,None,414.6200609,415.5706847,414.6200609,415.5706847,415.6031118,None,415.6031118,None,415.6031118,None,415.6031118,None,415.6031118,None,415.6031118,None,415.6031118,None,415.6031118,None,415.6031118,None,23,66,44,72,72,21,418.1212092,None,7,1.6538896,418.1212092,None,418.1212092,None,418.1212092,None,418.1212092,None,,None,None,,None,None,None,None,None,None,None,None,None,None,None,None,None,None,None,None,None,None,-0.6,2,None,None,None,None,None,None,None,None,None,None,None,None,,None,None,None,None,,,,,,,,None,None,None,None,None,None,None,None,None,None,None,None,None,None,None,None,419.827354,None,,,,,,,,,,,,,,236,f,22,2023_Mar_21_1332,RL,2021.2.3,59.93238428
1,0,32,0,,,,,,,,,,,,,,,None,None,None,None,None,421.7289052,None,421.7289052,None,421.7289052,None,421.7289052,None,j,0.2487311,421.7289052,None,421.7289052,None,422.0298871,None,422.0298871,None,422.0298871,None,422.0298871,None,422.0298871,None,422.0298871,None,422.3253105,424.1766311,422.3253105,424.1766311,424.2067766,None,424.2067766,None,424.2067766,None,424.2067766,None,424.2067766,None,424.2067766,None,424.2067766,None,424.2067766,None,424.2067766,None,19,63,33,62,62,53,None,None,None,None,None,None,None,None,None,None,None,None,62,426.747937,None,62,426.747937,None,426.747937,None,426.747937,None,426.747937,None,426.747937,None,426.747937,None,426.747937,None,0.00594056,None,426.747937,None,-0.6,0,None,None,None,None,None,None,None,None,None,None,None,None,,None,None,None,None,,,,,,,,None,None,None,None,4.9453125,2.2836402,431.753831,None,431.753831,None,431.753831,None,431.753831,None,None,None,434.0691597,None,-0.013020833,-0.290364583,1,0,0,4.9604874,tijiao,,,,,,,236,f,22,2023_Mar_21_1332,RL,2021.2.3,59.93238428
0,0,33,0,,,,,,,,,,,,,,,None,None,None,None,None,436.0215817,None,436.0215817,None,436.0215817,None,436.0215817,None,j,0.2262691,436.0215817,None,436.0215817,None,436.2925243,None,436.2925243,None,436.2925243,None,436.2925243,None,436.2925243,None,436.2925243,None,436.5686354,437.9195433,436.5686354,437.9195433,437.9512884,None,437.9512884,None,437.9512884,None,437.9512884,None,437.9512884,None,437.9512884,None,437.9512884,None,437.9512884,None,437.9512884,None,17,67,32,70,70,54,None,None,None,None,None,None,None,None,None,None,None,None,,None,None,,None,None,None,None,None,None,None,None,None,None,None,None,None,None,None,None,None,None,-0.2,1,440.4965073,None,440.4965073,None,440.4965073,None,440.4965073,None,440.4965073,None,440.4965073,None,54,440.4965073,None,440.4965073,None,0.026041667,-0.28515625,1,0,0,3.5867701,tijiao_random_2,0.01637328,None,440.4965073,None,8.942708333,1.4962666,444.1140035,None,444.1140035,None,444.1140035,None,444.1140035,None,None,None,445.6425638,None,,,,,,,,,,,,,,236,f,22,2023_Mar_21_1332,RL,2021.2.3,59.93238428
1,0,34,0,,,,,,,,,,,,,,,None,None,None,None,None,447.5975108,None,447.5975108,None,447.5975108,None,447.5975108,None,j,0.1905204,447.5975108,None,447.5975108,None,447.8377733,None,447.8377733,None,447.8377733,None,447.8377733,None,447.8377733,None,447.8377733,None,448.1266573,449.6610129,448.1266573,449.6610129,449.691649,None,449.691649,None,449.691649,None,449.691649,None,449.691649,None,449.691649,None,449.691649,None,449.691649,None,449.691649,None,34,62,35,72,72,34,None,None,None,None,None,None,None,None,None,None,None,None,,None,None,,None,None,None,None,None,None,None,None,None,None,None,None,None,None,None,None,None,None,-0.6,1,452.2441007,None,452.2441007,None,452.2441007,None,452.2441007,None,452.2441007,None,452.2441007,None,34,452.2441007,None,452.2441007,None,0.125,-0.2890625,1,0,0,3.2462784,tijiao_random_2,0.00995618,None,452.2441007,None,9.0859375,2.8354669,455.5352207,None,455.5352207,None,455.5352207,None,455.5352207,None,None,None,458.3833324,None,,,,,,,,,,,,,,236,f,22,2023_Mar_21_1332,RL,2021.2.3,59.93238428
0,0,35,0,,,,,,,,,,,,,,,None,None,None,None,None,460.256128,None,460.256128,None,460.256128,None,460.256128,None,j,0.2619186,460.256128,None,460.256128,None,460.5579035,None,460.5579035,None,460.5579035,None,460.5579035,None,460.5579035,None,460.5579035,None,460.8521413,461.7696538,460.8521413,461.7696538,461.8040931,None,461.8040931,None,461.8040931,None,461.8040931,None,461.8040931,None,461.8040931,None,461.8040931,None,461.8040931,None,461.8040931,None,20,58,37,73,73,56,464.3220968,None,7,1.3707603,464.3220968,None,464.3220968,None,464.3220968,None,464.3220968,None,,None,None,,None,None,None,None,None,None,None,None,None,None,None,None,None,None,None,None,None,None,0.6,3,None,None,None,None,None,None,None,None,None,None,None,None,,None,None,None,None,,,,,,,,None,None,None,None,None,None,None,None,None,None,None,None,None,None,None,None,465.762081,None,,,,,,,,,,,,,,236,f,22,2023_Mar_21_1332,RL,2021.2.3,59.93238428
1,0,36,0,,,,,,,,,,,,,,,None,None,None,None,None,467.6098933,None,467.6098933,None,467.6098933,None,467.6098933,None,j,0.2880353,467.6098933,None,467.6098933,None,467.9452033,None,467.9452033,None,467.9452033,None,467.9452033,None,467.9452033,None,467.9452033,None,468.2402486,None,468.2402486,None,469.5901543,None,469.5901543,None,469.5901543,None,469.5901543,None,469.5901543,None,469.5901543,None,469.5901543,None,469.5901543,None,469.5901543,None,25,58,40,79,79,27,472.1148708,None,7,1.3332749,472.1148708,None,472.1148708,None,472.1148708,None,472.1148708,None,,None,None,,None,None,None,None,None,None,None,None,None,None,None,None,None,None,None,None,None,None,0.6,2,None,None,None,None,None,None,None,None,None,None,None,None,,None,None,None,None,,,,,,,,None,None,None,None,None,None,None,None,None,None,None,None,None,None,None,None,473.5131435,None,,,,,,,,,,,,,,236,f,22,2023_Mar_21_1332,RL,2021.2.3,59.93238428
0,0,37,0,,,,,,,,,,,,,,,None,None,None,None,None,475.0985534,None,475.0985534,None,475.0985534,None,475.0985534,None,j,0.2895134,475.0985534,None,475.0985534,None,475.4391726,None,475.4391726,None,475.4391726,None,475.4391726,None,475.4391726,None,475.4391726,None,475.7293002,477.4470577,475.7293002,477.4470577,477.4800577,None,477.4800577,None,477.4800577,None,477.4800577,None,477.4800577,None,477.4800577,None,477.4800577,None,477.4800577,None,477.4800577,None,32,61,49,76,76,49,480.0012263,None,7,1.0490999,480.0012263,None,480.0012263,None,480.0012263,None,480.0012263,None,,None,None,,None,None,None,None,None,None,None,None,None,None,None,None,None,None,None,None,None,None,-0.6,3,None,None,None,None,None,None,None,None,None,None,None,None,,None,None,None,None,,,,,,,,None,None,None,None,None,None,None,None,None,None,None,None,None,None,None,None,481.1147741,None,,,,,,,,,,,,,,236,f,22,2023_Mar_21_1332,RL,2021.2.3,59.93238428
1,0,38,0,,,,,,,,,,,,,,,None,None,None,None,None,482.7539255,None,482.7539255,None,482.7539255,None,482.7539255,None,j,0.3040723,482.7539255,None,482.7539255,None,483.1049403,None,483.1049403,None,483.1049403,None,483.1049403,None,483.1049403,None,483.1049403,None,483.4009232,None,483.4009232,None,485.2674786,None,485.2674786,None,485.2674786,None,485.2674786,None,485.2674786,None,485.2674786,None,485.2674786,None,485.2674786,None,485.2674786,None,23,62,41,82,82,52,487.7843741,None,7,1.2224897,487.7843741,None,487.7843741,None,487.7843741,None,487.7843741,None,,None,None,,None,None,None,None,None,None,None,None,None,None,None,None,None,None,None,None,None,None,0.6,3,None,None,None,None,None,None,None,None,None,None,None,None,,None,None,None,None,,,,,,,,None,None,None,None,None,None,None,None,None,None,None,None,None,None,None,None,489.0606907,None,,,,,,,,,,,,,,236,f,22,2023_Mar_21_1332,RL,2021.2.3,59.93238428
0,0,39,0,,,,,,,,,,,,,,,None,None,None,None,None,490.6423807,None,490.6423807,None,490.6423807,None,490.6423807,None,j,0.3057404,490.6423807,None,490.6423807,None,490.9947296,None,490.9947296,None,490.9947296,None,490.9947296,None,490.9947296,None,490.9947296,None,491.2898477,492.4240263,491.2898477,492.4240263,492.4554437,None,492.4554437,None,492.4554437,None,492.4554437,None,492.4554437,None,492.4554437,None,492.4554437,None,492.4554437,None,492.4554437,None,34,67,39,73,73,53,None,None,None,None,None,None,None,None,None,None,None,None,79,494.9928698,None,79,494.9928698,None,494.9928698,None,494.9928698,None,494.9928698,None,494.9928698,None,494.9928698,None,494.9928698,None,0.00896976,None,494.9928698,None,0.6,0,None,None,None,None,None,None,None,None,None,None,None,None,,None,None,None,None,,,,,,,,None,None,None,None,10.01041667,1.5168089,500.5687137,None,500.5687137,None,500.5687137,None,500.5687137,None,None,None,502.1160893,None,0.087239583,-0.298177083,1,0,0,5.5298893,tijiao,,,,,,,236,f,22,2023_Mar_21_1332,RL,2021.2.3,59.93238428
1,0,40,0,,,,,,,,,,,,,,,None,None,None,None,None,504.0699971,None,504.0699971,None,504.0699971,None,504.0699971,None,j,0.2482185,504.0699971,None,504.0699971,None,504.3700854,None,504.3700854,None,504.3700854,None,504.3700854,None,504.3700854,None,504.3700854,None,504.6658886,None,504.6658886,None,505.7311451,None,505.7311451,None,505.7311451,None,505.7311451,None,505.7311451,None,505.7311451,None,505.7311451,None,505.7311451,None,505.7311451,None,30,64,43,82,82,55,None,None,None,None,None,None,None,None,None,None,None,None,,None,None,,None,None,None,None,None,None,None,None,None,None,None,None,None,None,None,None,None,None,0.6,1,508.2732914,None,508.2732914,None,508.2732914,None,508.2732914,None,508.2732914,None,508.2732914,None,82,508.2732914,None,508.2732914,None,0.108072917,-0.283854167,1,0,0,3.8230677,tijiao_random_2,0.00330456,None,508.2732914,None,11,0.9113864,512.128958,None,512.128958,None,512.128958,None,512.128958,None,None,None,513.0698171,None,,,,,,,,,,,,,,236,f,22,2023_Mar_21_1332,RL,2021.2.3,59.93238428
0,0,41,0,,,,,,,,,,,,,,,None,None,None,None,None,514.7428742,None,514.7428742,None,514.7428742,None,514.7428742,None,j,0.3153407,514.7428742,None,514.7428742,None,515.0966638,None,515.0966638,None,515.0966638,None,515.0966638,None,515.0966638,None,515.0966638,None,515.389936,517.2078639,515.389936,517.2078639,517.2406314,None,517.2406314,None,517.2406314,None,517.2406314,None,517.2406314,None,517.2406314,None,517.2406314,None,517.2406314,None,517.2406314,None,30,66,37,73,73,54,519.7565277,None,7,1.006734,519.7565277,None,519.7565277,None,519.7565277,None,519.7565277,None,,None,None,,None,None,None,None,None,None,None,None,None,None,None,None,None,None,None,None,None,None,-0.6,2,None,None,None,None,None,None,None,None,None,None,None,None,,None,None,None,None,,,,,,,,None,None,None,None,None,None,None,None,None,None,None,None,None,None,None,None,520.824954,None,,,,,,,,,,,,,,236,f,22,2023_Mar_21_1332,RL,2021.2.3,59.93238428
1,0,42,0,,,,,,,,,,,,,,,None,None,None,None,None,522.7324935,None,522.7324935,None,522.7324935,None,522.7324935,None,j,0.2958193,522.7324935,None,522.7324935,None,523.0671787,None,523.0671787,None,523.0671787,None,523.0671787,None,523.0671787,None,523.0671787,None,523.3621947,525.0134091,523.3621947,525.0134091,525.0474595,None,525.0474595,None,525.0474595,None,525.0474595,None,525.0474595,None,525.0474595,None,525.0474595,None,525.0474595,None,525.0474595,None,35,59,40,69,69,61,527.5626111,None,7,1.3545237,527.5626111,None,527.5626111,None,527.5626111,None,527.5626111,None,,None,None,,None,None,None,None,None,None,None,None,None,None,None,None,None,None,None,None,None,None,-0.6,2,None,None,None,None,None,None,None,None,None,None,None,None,,None,None,None,None,,,,,,,,None,None,None,None,None,None,None,None,None,None,None,None,None,None,None,None,528.9939395,None,,,,,,,,,,,,,,236,f,22,2023_Mar_21_1332,RL,2021.2.3,59.93238428
0,0,43,0,,,,,,,,,,,,,,,None,None,None,None,None,530.554814,None,530.554814,None,530.554814,None,530.554814,None,j,0.523881,530.554814,None,530.554814,None,531.1236135,None,531.1236135,None,531.1236135,None,531.1236135,None,531.1236135,None,531.1236135,None,531.4177425,532.485408,531.4177425,532.485408,532.517494,None,532.517494,None,532.517494,None,532.517494,None,532.517494,None,532.517494,None,532.517494,None,532.517494,None,532.517494,None,32,69,39,68,68,40,535.0338915,None,7,1.4713675,535.0338915,None,535.0338915,None,535.0338915,None,535.0338915,None,,None,None,,None,None,None,None,None,None,None,None,None,None,None,None,None,None,None,None,None,None,0.2,2,None,None,None,None,None,None,None,None,None,None,None,None,,None,None,None,None,,,,,,,,None,None,None,None,None,None,None,None,None,None,None,None,None,None,None,None,536.5565583,None,,,,,,,,,,,,,,236,f,22,2023_Mar_21_1332,RL,2021.2.3,59.93238428
1,0,44,0,,,,,,,,,,,,,,,None,None,None,None,None,538.1926933,None,538.1926933,None,538.1926933,None,538.1926933,None,j,0.5058698,538.1926933,None,538.1926933,None,538.744559,None,538.744559,None,538.744559,None,538.744559,None,538.744559,None,538.744559,None,539.0400283,None,539.0400283,None,540.7280041,None,540.7280041,None,540.7280041,None,540.7280041,None,540.7280041,None,540.7280041,None,540.7280041,None,540.7280041,None,540.7280041,None,29,73,30,70,70,50,None,None,None,None,None,None,None,None,None,None,None,None,,None,None,,None,None,None,None,None,None,None,None,None,None,None,None,None,None,None,None,None,None,0.2,1,543.2686906,None,543.2686906,None,543.2686906,None,543.2686906,None,543.2686906,None,543.2686906,None,60,543.2686906,None,543.2686906,None,0.115885417,-0.2890625,1,0,0,4.6033456,tijiao_random_2,0.01630578,None,543.2686906,None,6.013020833,1.6913674,547.9012692,None,547.9012692,None,547.9012692,None,547.9012692,None,None,None,549.6283963,None,,,,,,,,,,,,,,236,f,22,2023_Mar_21_1332,RL,2021.2.3,59.93238428
0,0,45,0,,,,,,,,,,,,,,,None,None,None,None,None,551.4686891,None,551.4686891,None,551.4686891,None,551.4686891,None,j,0.2598052,551.4686891,None,551.4686891,None,551.7716453,None,551.7716453,None,551.7716453,None,551.7716453,None,551.7716453,None,551.7716453,None,552.0654921,None,552.0654921,None,552.9622476,None,552.9622476,None,552.9622476,None,552.9622476,None,552.9622476,None,552.9622476,None,552.9622476,None,552.9622476,None,552.9622476,None,29,77,39,83,83,43,555.4880688,None,7,1.8828969,555.4880688,None,555.4880688,None,555.4880688,None,555.4880688,None,,None,None,,None,None,None,None,None,None,None,None,None,None,None,None,None,None,None,None,None,None,0.6,3,None,None,None,None,None,None,None,None,None,None,None,None,,None,None,None,None,,,,,,,,None,None,None,None,None,None,None,None,None,None,None,None,None,None,None,None,557.4350889,None,,,,,,,,,,,,,,236,f,22,2023_Mar_21_1332,RL,2021.2.3,59.93238428
1,0,46,0,,,,,,,,,,,,,,,None,None,None,None,None,559.3732748,None,559.3732748,None,559.3732748,None,559.3732748,None,j,0.3254835,559.3732748,None,559.3732748,None,559.744044,None,559.744044,None,559.744044,None,559.744044,None,559.744044,None,559.744044,None,560.0377067,None,560.0377067,None,560.9334916,None,560.9334916,None,560.9334916,None,560.9334916,None,560.9334916,None,560.9334916,None,560.9334916,None,560.9334916,None,560.9334916,None,25,70,46,64,64,42,563.4577444,None,7,1.5359029,563.4577444,None,563.4577444,None,563.4577444,None,563.4577444,None,,None,None,,None,None,None,None,None,None,None,None,None,None,None,None,None,None,None,None,None,None,0.6,2,None,None,None,None,None,None,None,None,None,None,None,None,,None,None,None,None,,,,,,,,None,None,None,None,None,None,None,None,None,None,None,None,None,None,None,None,565.0422998,None,,,,,,,,,,,,,,236,f,22,2023_Mar_21_1332,RL,2021.2.3,59.93238428
0,0,47,0,,,,,,,,,,,,,,,None,None,None,None,None,566.7461228,None,566.7461228,None,566.7461228,None,566.7461228,None,j,0.2525591,566.7461228,None,566.7461228,None,567.0524394,None,567.0524394,None,567.0524394,None,567.0524394,None,567.0524394,None,567.0524394,None,567.3427092,569.0940608,567.3427092,569.0940608,569.126073,None,569.126073,None,569.126073,None,569.126073,None,569.126073,None,569.126073,None,569.126073,None,569.126073,None,569.126073,None,30,70,41,68,68,41,571.6425098,None,7,1.538902,571.6425098,None,571.6425098,None,571.6425098,None,571.6425098,None,,None,None,,None,None,None,None,None,None,None,None,None,None,None,None,None,None,None,None,None,None,0.2,3,None,None,None,None,None,None,None,None,None,None,None,None,,None,None,None,None,,,,,,,,None,None,None,None,None,None,None,None,None,None,None,None,None,None,None,None,573.256562,None,,,,,,,,,,,,,,236,f,22,2023_Mar_21_1332,RL,2021.2.3,59.93238428
1,0,48,0,,,,,,,,,,,,,,,None,None,None,None,None,575.2015533,None,575.2015533,None,575.2015533,None,575.2015533,None,j,0.257186,575.2015533,None,575.2015533,None,575.5116605,None,575.5116605,None,575.5116605,None,575.5116605,None,575.5116605,None,575.5116605,None,575.7986818,577.7160263,575.7986818,577.7160263,577.748295,None,577.748295,None,577.748295,None,577.748295,None,577.748295,None,577.748295,None,577.748295,None,577.748295,None,577.748295,None,20,76,42,59,59,38,580.2725881,None,5,1.201321,580.2725881,None,580.2725881,None,580.2725881,None,580.2725881,None,,None,None,,None,None,None,None,None,None,None,None,None,None,None,None,None,None,None,None,None,None,0.2,2,None,None,None,None,None,None,None,None,None,None,None,None,,None,None,None,None,,,,,,,,None,None,None,None,None,None,None,None,None,None,None,None,None,None,None,None,581.5354109,None,,,,,,,,,,,,,,236,f,22,2023_Mar_21_1332,RL,2021.2.3,59.93238428
0,0,49,0,,,,,,,,,,,,,,,None,None,None,None,None,583.3571474,None,583.3571474,None,583.3571474,None,583.3571474,None,j,0.3026082,583.3571474,None,583.3571474,None,583.7074595,None,583.7074595,None,583.7074595,None,583.7074595,None,583.7074595,None,583.7074595,None,584.0043932,585.2218059,584.0043932,585.2218059,585.2519309,None,585.2519309,None,585.2519309,None,585.2519309,None,585.2519309,None,585.2519309,None,585.2519309,None,585.2519309,None,585.2519309,None,28,72,41,59,59,53,None,None,None,None,None,None,None,None,None,None,None,None,,None,None,,None,None,None,None,None,None,None,None,None,None,None,None,None,None,None,None,None,None,-0.2,1,587.7979372,None,587.7979372,None,587.7979372,None,587.7979372,None,587.7979372,None,587.7979372,None,47,587.7979372,None,587.7979372,None,0.092447917,-0.283854167,1,0,0,5.8559037,tijiao_random_2,0.00152646,None,587.7979372,None,5.830729167,1.1603131,593.6882352,None,593.6882352,None,593.6882352,None,593.6882352,None,None,None,594.8766173,None,,,,,,,,,,,,,,236,f,22,2023_Mar_21_1332,RL,2021.2.3,59.93238428
1,0,50,0,,,,,,,,,,,,,,,None,None,None,None,None,596.8678351,None,596.8678351,None,596.8678351,None,596.8678351,None,j,0.2621495,596.8678351,None,596.8678351,None,597.1699419,None,597.1699419,None,597.1699419,None,597.1699419,None,597.1699419,None,597.1699419,None,597.4636215,None,597.4636215,None,598.9453542,None,598.9453542,None,598.9453542,None,598.9453542,None,598.9453542,None,598.9453542,None,598.9453542,None,598.9453542,None,598.9453542,None,26,78,39,51,51,53,None,None,None,None,None,None,None,None,None,None,None,None,50,601.4770951,None,50,601.4770951,None,601.4770951,None,601.4770951,None,601.4770951,None,601.4770951,None,601.4770951,None,601.4770951,None,0.01548446,None,601.4770951,None,0.2,0,None,None,None,None,None,None,None,None,None,None,None,None,,None,None,None,None,,,,,,,,None,None,None,None,3.942708333,1.4261244,605.5800974,None,605.5800974,None,605.5800974,None,605.5800974,None,None,None,607.0198654,None,0.041666667,-0.299479167,1,0,0,4.0529145,tijiao,,,,,,,236,f,22,2023_Mar_21_1332,RL,2021.2.3,59.93238428
0,0,51,0,,,,,,,,,,,,,,,None,None,None,None,None,608.9249865,None,608.9249865,None,608.9249865,None,608.9249865,None,i,0.2752821,608.9249865,None,608.9249865,None,609.2468006,None,609.2468006,None,609.2468006,None,609.2468006,None,609.2468006,None,609.2468006,None,609.538736,610.6230333,609.538736,610.6230333,610.6564913,None,610.6564913,None,610.6564913,None,610.6564913,None,610.6564913,None,610.6564913,None,610.6564913,None,610.6564913,None,610.6564913,None,27,75,49,47,49,37,613.1740128,None,4,1.9550497,613.1740128,None,613.1740128,None,613.1740128,None,613.1740128,None,,None,None,,None,None,None,None,None,None,None,None,None,None,None,None,None,None,None,None,None,None,-0.2,2,None,None,None,None,None,None,None,None,None,None,None,None,,None,None,None,None,,,,,,,,None,None,None,None,None,None,None,None,None,None,None,None,None,None,None,None,615.1891539,None,,,,,,,,,,,,,,236,f,22,2023_Mar_21_1332,RL,2021.2.3,59.93238428
1,0,52,0,,,,,,,,,,,,,,,None,None,None,None,None,616.91189,None,616.91189,None,616.91189,None,616.91189,None,j,0.2581083,616.91189,None,616.91189,None,617.2149405,None,617.2149405,None,617.2149405,None,617.2149405,None,617.2149405,None,617.2149405,None,617.5109053,619.0452492,617.5109053,619.0452492,619.078053,None,619.078053,None,619.078053,None,619.078053,None,619.078053,None,619.078053,None,619.078053,None,619.078053,None,619.078053,None,28,72,44,57,57,54,621.6020508,None,7,1.4334555,621.6020508,None,621.6020508,None,621.6020508,None,621.6020508,None,,None,None,,None,None,None,None,None,None,None,None,None,None,None,None,None,None,None,None,None,None,-0.6,3,None,None,None,None,None,None,None,None,None,None,None,None,,None,None,None,None,,,,,,,,None,None,None,None,None,None,None,None,None,None,None,None,None,None,None,None,623.0861566,None,,,,,,,,,,,,,,236,f,22,2023_Mar_21_1332,RL,2021.2.3,59.93238428
0,0,53,0,,,,,,,,,,,,,,,None,None,None,None,None,625.0193961,None,625.0193961,None,625.0193961,None,625.0193961,None,j,0.2607438,625.0193961,None,625.0193961,None,625.3210414,None,625.3210414,None,625.3210414,None,625.3210414,None,625.3210414,None,625.3210414,None,625.6166273,626.4174242,625.6166273,626.4174242,626.45113,None,626.45113,None,626.45113,None,626.45113,None,626.45113,None,626.45113,None,626.45113,None,626.45113,None,626.45113,None,23,64,51,43,43,44,628.9725196,None,4,1.2988728,628.9725196,None,628.9725196,None,628.9725196,None,628.9725196,None,,None,None,,None,None,None,None,None,None,None,None,None,None,None,None,None,None,None,None,None,None,-0.6,3,None,None,None,None,None,None,None,None,None,None,None,None,,None,None,None,None,,,,,,,,None,None,None,None,None,None,None,None,None,None,None,None,None,None,None,None,630.3205492,None,,,,,,,,,,,,,,236,f,22,2023_Mar_21_1332,RL,2021.2.3,59.93238428
1,0,54,0,,,,,,,,,,,,,,,None,None,None,None,None,632.3085871,None,632.3085871,None,632.3085871,None,632.3085871,None,j,0.5014845,632.3085871,None,632.3085871,None,632.8609399,None,632.8609399,None,632.8609399,None,632.8609399,None,632.8609399,None,632.8609399,None,633.1549866,None,633.1549866,None,634.1692373,None,634.1692373,None,634.1692373,None,634.1692373,None,634.1692373,None,634.1692373,None,634.1692373,None,634.1692373,None,634.1692373,None,20,58,53,57,57,40,636.6872236,None,5,1.4080083,636.6872236,None,636.6872236,None,636.6872236,None,636.6872236,None,,None,None,,None,None,None,None,None,None,None,None,None,None,None,None,None,None,None,None,None,None,-0.2,2,None,None,None,None,None,None,None,None,None,None,None,None,,None,None,None,None,,,,,,,,None,None,None,None,None,None,None,None,None,None,None,None,None,None,None,None,638.1515835,None,,,,,,,,,,,,,,236,f,22,2023_Mar_21_1332,RL,2021.2.3,59.93238428
0,0,55,0,,,,,,,,,,,,,,,None,None,None,None,None,639.7639049,None,639.7639049,None,639.7639049,None,639.7639049,None,i,0.4563047,639.7639049,None,639.7639049,None,640.2668686,None,640.2668686,None,640.2668686,None,640.2668686,None,640.2668686,None,640.2668686,None,640.5602522,None,640.5602522,None,642.3747771,None,642.3747771,None,642.3747771,None,642.3747771,None,642.3747771,None,642.3747771,None,642.3747771,None,642.3747771,None,642.3747771,None,26,63,60,47,60,39,None,None,None,None,None,None,None,None,None,None,None,None,,None,None,,None,None,None,None,None,None,None,None,None,None,None,None,None,None,None,None,None,None,-0.6,1,644.9173669,None,644.9173669,None,644.9173669,None,644.9173669,None,644.9173669,None,644.9173669,None,39,644.9173669,None,644.9173669,None,0.04296875,-0.2890625,1,0,0,3.7068575,tijiao_random_2,0.00365366,None,644.9173669,None,8.955729167,1.3641008,648.6593212,None,648.6593212,None,648.6593212,None,648.6593212,None,None,None,650.0496299,None,,,,,,,,,,,,,,236,f,22,2023_Mar_21_1332,RL,2021.2.3,59.93238428
1,0,56,0,,,,,,,,,,,,,,,None,None,None,None,None,651.9553444,None,651.9553444,None,651.9553444,None,651.9553444,None,j,0.2645123,651.9553444,None,651.9553444,None,652.2691034,None,652.2691034,None,652.2691034,None,652.2691034,None,652.2691034,None,652.2691034,None,652.5685754,None,652.5685754,None,654.3300287,None,654.3300287,None,654.3300287,None,654.3300287,None,654.3300287,None,654.3300287,None,654.3300287,None,654.3300287,None,654.3300287,None,19,62,63,44,44,45,None,None,None,None,None,None,None,None,None,None,None,None,50,656.8643104,None,50,656.8643104,None,656.8643104,None,656.8643104,None,656.8643104,None,656.8643104,None,656.8643104,None,656.8643104,None,0.01584166,None,656.8643104,None,-0.2,0,None,None,None,None,None,None,None,None,None,None,None,None,,None,None,None,None,,,,,,,,None,None,None,None,5.947916667,1.7852409,661.6151257,None,661.6151257,None,661.6151257,None,661.6151257,None,None,None,663.4255005,None,0.041666667,-0.294270833,1,0,0,4.7029221,tijiao,,,,,,,236,f,22,2023_Mar_21_1332,RL,2021.2.3,59.93238428
0,0,57,0,,,,,,,,,,,,,,,None,None,None,None,None,665.2819737,None,665.2819737,None,665.2819737,None,665.2819737,None,j,0.068238,665.2819737,None,665.2819737,None,665.3985349,None,665.3985349,None,665.3985349,None,665.3985349,None,665.3985349,None,665.3985349,None,665.694321,None,665.694321,None,667.4773768,None,667.4773768,None,667.4773768,None,667.4773768,None,667.4773768,None,667.4773768,None,667.4773768,None,667.4773768,None,667.4773768,None,22,63,48,51,51,42,None,None,None,None,None,None,None,None,None,None,None,None,,None,None,,None,None,None,None,None,None,None,None,None,None,None,None,None,None,None,None,None,None,0.2,1,670.0202041,None,670.0202041,None,670.0202041,None,670.0202041,None,670.0202041,None,670.0202041,None,42,670.0202041,None,670.0202041,None,0.05859375,-0.294270833,1,0,0,3.6392398,tijiao_random_2,0.00237326,None,670.0202041,None,8.994791667,1.3882548,673.7128331,None,673.7128331,None,673.7128331,None,673.7128331,None,None,None,675.1157423,None,,,,,,,,,,,,,,236,f,22,2023_Mar_21_1332,RL,2021.2.3,59.93238428
1,0,58,0,,,,,,,,,,,,,,,None,None,None,None,None,676.8554294,None,676.8554294,None,676.8554294,None,676.8554294,None,j,0.2649217,676.8554294,None,676.8554294,None,677.1588122,None,677.1588122,None,677.1588122,None,677.1588122,None,677.1588122,None,677.1588122,None,677.4525739,679.2703877,677.4525739,679.2703877,679.3032051,None,679.3032051,None,679.3032051,None,679.3032051,None,679.3032051,None,679.3032051,None,679.3032051,None,679.3032051,None,679.3032051,None,30,55,53,48,48,29,None,None,None,None,None,None,None,None,None,None,None,None,58,681.8377403,None,58,681.8377403,None,681.8377403,None,681.8377403,None,681.8377403,None,681.8377403,None,681.8377403,None,681.8377403,None,0.00959126,None,681.8377403,None,-0.2,0,None,None,None,None,None,None,None,None,None,None,None,None,,None,None,None,None,,,,,,,,None,None,None,None,4.997395833,1.8328426,686.9994959,None,686.9994959,None,686.9994959,None,686.9994959,None,None,None,688.8582735,None,0.084635417,-0.294270833,1,0,0,5.1142553,tijiao,,,,,,,236,f,22,2023_Mar_21_1332,RL,2021.2.3,59.93238428
0,0,59,0,,,,,,,,,,,,,,,None,None,None,None,None,690.498067,None,690.498067,None,690.498067,None,690.498067,None,j,0.2524185,690.498067,None,690.498067,None,690.801,None,690.801,None,690.801,None,690.801,None,690.801,None,690.801,None,691.0951891,None,691.0951891,None,692.043537,None,692.043537,None,692.043537,None,692.043537,None,692.043537,None,692.043537,None,692.043537,None,692.043537,None,692.043537,None,19,54,56,63,63,32,694.5608243,None,6,2.5228249,694.5608243,None,694.5608243,None,694.5608243,None,694.5608243,None,,None,None,,None,None,None,None,None,None,None,None,None,None,None,None,None,None,None,None,None,None,-0.2,3,None,None,None,None,None,None,None,None,None,None,None,None,,None,None,None,None,,,,,,,,None,None,None,None,None,None,None,None,None,None,None,None,None,None,None,None,697.136248,None,,,,,,,,,,,,,,236,f,22,2023_Mar_21_1332,RL,2021.2.3,59.93238428
1,0,60,0,,,,,,,,,,,,,,,None,None,None,None,None,698.6538991,None,698.6538991,None,698.6538991,None,698.6538991,None,j,0.3268378,698.6538991,None,698.6538991,None,699.0233749,None,699.0233749,None,699.0233749,None,699.0233749,None,699.0233749,None,699.0233749,None,699.31751,None,699.31751,None,700.5154647,None,700.5154647,None,700.5154647,None,700.5154647,None,700.5154647,None,700.5154647,None,700.5154647,None,700.5154647,None,700.5154647,None,34,58,54,65,65,27,703.0454499,None,7,2.1332005,703.0454499,None,703.0454499,None,703.0454499,None,703.0454499,None,,None,None,,None,None,None,None,None,None,None,None,None,None,None,None,None,None,None,None,None,None,0.2,3,None,None,None,None,None,None,None,None,None,None,None,None,,None,None,None,None,,,,,,,,None,None,None,None,None,None,None,None,None,None,None,None,None,None,None,None,705.248795,None,,,,,,,,,,,,,,236,f,22,2023_Mar_21_1332,RL,2021.2.3,59.93238428
0,0,61,0,,,,,,,,,,,,,,,None,None,None,None,None,707.2277177,None,707.2277177,None,707.2277177,None,707.2277177,None,j,0.2529001,707.2277177,None,707.2277177,None,707.5277997,None,707.5277997,None,707.5277997,None,707.5277997,None,707.5277997,None,707.5277997,None,707.8235898,None,707.8235898,None,709.7202934,None,709.7202934,None,709.7202934,None,709.7202934,None,709.7202934,None,709.7202934,None,709.7202934,None,709.7202934,None,709.7202934,None,31,55,59,64,64,32,None,None,None,None,None,None,None,None,None,None,None,None,68,712.2503649,None,68,712.2503649,None,712.2503649,None,712.2503649,None,712.2503649,None,712.2503649,None,712.2503649,None,712.2503649,None,0.00134464,None,712.2503649,None,0.6,0,None,None,None,None,None,None,None,None,None,None,None,None,,None,None,None,None,,,,,,,,None,None,None,None,7.028645833,1.4472264,717.0205448,None,717.0205448,None,717.0205448,None,717.0205448,None,None,None,718.4803539,None,0.127604167,-0.307291667,1,0,0,4.722601,tijiao,,,,,,,236,f,22,2023_Mar_21_1332,RL,2021.2.3,59.93238428
1,0,62,0,,,,,,,,,,,,,,,None,None,None,None,None,720.0533996,None,720.0533996,None,720.0533996,None,720.0533996,None,j,0.2373312,720.0533996,None,720.0533996,None,720.3389314,None,720.3389314,None,720.3389314,None,720.3389314,None,720.3389314,None,720.3389314,None,720.6325015,721.4663016,720.6325015,721.4663016,721.4990269,None,721.4990269,None,721.4990269,None,721.4990269,None,721.4990269,None,721.4990269,None,721.4990269,None,721.4990269,None,721.4990269,None,32,57,49,64,64,34,None,None,None,None,None,None,None,None,None,None,None,None,70,724.0348688,None,70,724.0348688,None,724.0348688,None,724.0348688,None,724.0348688,None,724.0348688,None,724.0348688,None,724.0348688,None,0.00879086,None,724.0348688,None,-0.6,0,None,None,None,None,None,None,None,None,None,None,None,None,,None,None,None,None,,,,,,,,None,None,None,None,8.96875,3.2039869,728.4100998,None,728.4100998,None,728.4100998,None,728.4100998,None,None,None,731.6379941,None,0.078125,-0.311197917,1,0,0,4.3297862,tijiao,,,,,,,236,f,22,2023_Mar_21_1332,RL,2021.2.3,59.93238428
0,0,63,0,,,,,,,,,,,,,,,None,None,None,None,None,733.445555,None,733.445555,None,733.445555,None,733.445555,None,j,0.2553118,733.445555,None,733.445555,None,733.7503956,None,733.7503956,None,733.7503956,None,733.7503956,None,733.7503956,None,733.7503956,None,734.0418691,735.5594862,734.0418691,735.5594862,735.5914571,None,735.5914571,None,735.5914571,None,735.5914571,None,735.5914571,None,735.5914571,None,735.5914571,None,735.5914571,None,735.5914571,None,28,59,54,62,62,43,None,None,None,None,None,None,None,None,None,None,None,None,65,738.119163,None,65,738.119163,None,738.119163,None,738.119163,None,738.119163,None,738.119163,None,738.119163,None,738.119163,None,0.00041924,None,738.119163,None,-0.6,0,None,None,None,None,None,None,None,None,None,None,None,None,,None,None,None,None,,,,,,,,None,None,None,None,9.020833333,1.1296097,742.1374215,None,742.1374215,None,742.1374215,None,742.1374215,None,None,None,743.2809096,None,0.096354167,-0.295572917,1,0,0,3.971424,tijiao,,,,,,,236,f,22,2023_Mar_21_1332,RL,2021.2.3,59.93238428
1,0,64,0,,,,,,,,,,,,,,,None,None,None,None,None,744.8192418,None,744.8192418,None,744.8192418,None,744.8192418,None,j,0.2717703,744.8192418,None,744.8192418,None,745.1388025,None,745.1388025,None,745.1388025,None,745.1388025,None,745.1388025,None,745.1388025,None,745.4333202,None,745.4333202,None,746.8467374,None,746.8467374,None,746.8467374,None,746.8467374,None,746.8467374,None,746.8467374,None,746.8467374,None,746.8467374,None,746.8467374,None,29,53,45,58,58,21,None,None,None,None,None,None,None,None,None,None,None,None,60,749.3836211,None,60,749.3836211,None,749.3836211,None,749.3836211,None,749.3836211,None,749.3836211,None,749.3836211,None,749.3836211,None,0.00997706,None,749.3836211,None,-0.6,0,None,None,None,None,None,None,None,None,None,None,None,None,,None,None,None,None,,,,,,,,None,None,None,None,6.013020833,1.8148986,753.3448045,None,753.3448045,None,753.3448045,None,753.3448045,None,None,None,755.1877169,None,0.12109375,-0.279947917,1,0,0,3.9142474,tijiao,,,,,,,236,f,22,2023_Mar_21_1332,RL,2021.2.3,59.93238428
0,0,65,0,,,,,,,,,,,,,,,None,None,None,None,None,756.7276007,None,756.7276007,None,756.7276007,None,756.7276007,None,j,0.2642247,756.7276007,None,756.7276007,None,757.0288461,None,757.0288461,None,757.0288461,None,757.0288461,None,757.0288461,None,757.0288461,None,757.3246158,None,757.3246158,None,758.8381447,None,758.8381447,None,758.8381447,None,758.8381447,None,758.8381447,None,758.8381447,None,758.8381447,None,758.8381447,None,758.8381447,None,34,51,61,70,70,43,None,None,None,None,None,None,None,None,None,None,None,None,,None,None,,None,None,None,None,None,None,None,None,None,None,None,None,None,None,None,None,None,None,0.6,1,761.3894067,None,761.3894067,None,761.3894067,None,761.3894067,None,761.3894067,None,761.3894067,None,70,761.3894067,None,761.3894067,None,0.078125,-0.283854167,1,0,0,3.1991415,tijiao_random_2,0.01242718,None,761.3894067,None,11,1.0856988,764.6184842,None,764.6184842,None,764.6184842,None,764.6184842,None,None,None,765.7282199,None,,,,,,,,,,,,,,236,f,22,2023_Mar_21_1332,RL,2021.2.3,59.93238428
1,0,66,0,,,,,,,,,,,,,,,None,None,None,None,None,767.5853972,None,767.5853972,None,767.5853972,None,767.5853972,None,j,0.3366167,767.5853972,None,767.5853972,None,767.9718275,None,767.9718275,None,767.9718275,None,767.9718275,None,767.9718275,None,767.9718275,None,768.2655365,None,768.2655365,None,770.2199766,None,770.2199766,None,770.2199766,None,770.2199766,None,770.2199766,None,770.2199766,None,770.2199766,None,770.2199766,None,770.2199766,None,40,53,57,64,64,30,None,None,None,None,None,None,None,None,None,None,None,None,65,772.7432961,None,65,772.7432961,None,772.7432961,None,772.7432961,None,772.7432961,None,772.7432961,None,772.7432961,None,772.7432961,None,0.00113544,None,772.7432961,None,0.2,0,None,None,None,None,None,None,None,None,None,None,None,None,,None,None,None,None,,,,,,,,None,None,None,None,10.12760417,1.6096324,777.3179677,None,777.3179677,None,777.3179677,None,777.3179677,None,None,None,778.9556928,None,0.083333333,-0.298177083,1,0,0,4.5226096,tijiao,,,,,,,236,f,22,2023_Mar_21_1332,RL,2021.2.3,59.93238428
0,0,67,0,,,,,,,,,,,,,,,None,None,None,None,None,780.694139,None,780.694139,None,780.694139,None,780.694139,None,j,0.3480104,780.694139,None,780.694139,None,781.0817672,None,781.0817672,None,781.0817672,None,781.0817672,None,781.0817672,None,781.0817672,None,781.3748716,782.7590711,781.3748716,782.7590711,782.7934862,None,782.7934862,None,782.7934862,None,782.7934862,None,782.7934862,None,782.7934862,None,782.7934862,None,782.7934862,None,782.7934862,None,38,54,50,65,65,41,785.307132,None,6,1.8879191,785.307132,None,785.307132,None,785.307132,None,785.307132,None,,None,None,,None,None,None,None,None,None,None,None,None,None,None,None,None,None,None,None,None,None,-0.2,3,None,None,None,None,None,None,None,None,None,None,None,None,,None,None,None,None,,,,,,,,None,None,None,None,None,None,None,None,None,None,None,None,None,None,None,None,787.2488956,None,,,,,,,,,,,,,,236,f,22,2023_Mar_21_1332,RL,2021.2.3,59.93238428
1,0,68,0,,,,,,,,,,,,,,,None,None,None,None,None,789.1000248,None,789.1000248,None,789.1000248,None,789.1000248,None,j,0.1821081,789.1000248,None,789.1000248,None,789.3206095,None,789.3206095,None,789.3206095,None,789.3206095,None,789.3206095,None,789.3206095,None,789.613706,None,789.613706,None,791.182357,None,791.182357,None,791.182357,None,791.182357,None,791.182357,None,791.182357,None,791.182357,None,791.182357,None,791.182357,None,32,60,59,65,65,39,None,None,None,None,None,None,None,None,None,None,None,None,69,793.7154282,None,69,793.7154282,None,793.7154282,None,793.7154282,None,793.7154282,None,793.7154282,None,793.7154282,None,793.7154282,None,0.00925006,None,793.7154282,None,-0.2,0,None,None,None,None,None,None,None,None,None,None,None,None,,None,None,None,None,,,,,,,,None,None,None,None,7.927083333,0.7315017,800.5253643,None,800.5253643,None,800.5253643,None,800.5253643,None,None,None,801.2712065,None,0.119791667,-0.283854167,1,0,0,6.7651084,tijiao,,,,,,,236,f,22,2023_Mar_21_1332,RL,2021.2.3,59.93238428
0,0,69,0,,,,,,,,,,,,,,,None,None,None,None,None,802.8259334,None,802.8259334,None,802.8259334,None,802.8259334,None,j,0.256374,802.8259334,None,802.8259334,None,803.135035,None,803.135035,None,803.135035,None,803.135035,None,803.135035,None,803.135035,None,803.4234628,804.5074388,803.4234628,804.5074388,804.5376278,None,804.5376278,None,804.5376278,None,804.5376278,None,804.5376278,None,804.5376278,None,804.5376278,None,804.5376278,None,804.5376278,None,36,59,51,56,56,35,None,None,None,None,None,None,None,None,None,None,None,None,,None,None,,None,None,None,None,None,None,None,None,None,None,None,None,None,None,None,None,None,None,0.2,1,807.0886624,None,807.0886624,None,807.0886624,None,807.0886624,None,807.0886624,None,807.0886624,None,60,807.0886624,None,807.0886624,None,0.092447917,-0.291666667,1,0,0,6.350039,tijiao_random_2,0.01175368,None,807.0886624,None,3.057291667,1.9529188,813.4844693,None,813.4844693,None,813.4844693,None,813.4844693,None,None,None,815.4478843,None,,,,,,,,,,,,,,236,f,22,2023_Mar_21_1332,RL,2021.2.3,59.93238428
1,0,70,0,,,,,,,,,,,,,,,None,None,None,None,None,817.0361276,None,817.0361276,None,817.0361276,None,817.0361276,None,j,0.2861822,817.0361276,None,817.0361276,None,817.3698077,None,817.3698077,None,817.3698077,None,817.3698077,None,817.3698077,None,817.3698077,None,817.666598,None,817.666598,None,819.4660207,None,819.4660207,None,819.4660207,None,819.4660207,None,819.4660207,None,819.4660207,None,819.4660207,None,819.4660207,None,819.4660207,None,32,48,47,54,54,31,None,None,None,None,None,None,None,None,None,None,None,None,,None,None,,None,None,None,None,None,None,None,None,None,None,None,None,None,None,None,None,None,None,-0.2,1,822.0080263,None,822.0080263,None,822.0080263,None,822.0080263,None,822.0080263,None,822.0080263,None,31,822.0080263,None,822.0080263,None,0.102864583,-0.272135417,1,0,0,3.8233246,tijiao_random_2,0.00259446,None,822.0080263,None,5.947916667,1.2281312,825.8651814,None,825.8651814,None,825.8651814,None,825.8651814,None,None,None,827.1209946,None,,,,,,,,,,,,,,236,f,22,2023_Mar_21_1332,RL,2021.2.3,59.93238428
0,0,71,0,,,,,,,,,,,,,,,None,None,None,None,None,829.010984,None,829.010984,None,829.010984,None,829.010984,None,j,0.3014572,829.010984,None,829.010984,None,829.3641649,None,829.3641649,None,829.3641649,None,829.3641649,None,829.3641649,None,829.3641649,None,829.6582522,None,829.6582522,None,831.4878466,None,831.4878466,None,831.4878466,None,831.4878466,None,831.4878466,None,831.4878466,None,831.4878466,None,831.4878466,None,831.4878466,None,34,54,48,61,61,39,834.0078724,None,6,2.0740211,834.0078724,None,834.0078724,None,834.0078724,None,834.0078724,None,,None,None,,None,None,None,None,None,None,None,None,None,None,None,None,None,None,None,None,None,None,-0.2,2,None,None,None,None,None,None,None,None,None,None,None,None,,None,None,None,None,,,,,,,,None,None,None,None,None,None,None,None,None,None,None,None,None,None,None,None,836.1354866,None,,,,,,,,,,,,,,236,f,22,2023_Mar_21_1332,RL,2021.2.3,59.93238428
1,0,72,0,,,,,,,,,,,,,,,None,None,None,None,None,837.8675839,None,837.8675839,None,837.8675839,None,837.8675839,None,j,0.294919,837.8675839,None,837.8675839,None,838.2041192,None,838.2041192,None,838.2041192,None,838.2041192,None,838.2041192,None,838.2041192,None,838.497773,None,838.497773,None,839.745687,None,839.745687,None,839.745687,None,839.745687,None,839.745687,None,839.745687,None,839.745687,None,839.745687,None,839.745687,None,30,48,44,55,55,33,None,None,None,None,None,None,None,None,None,None,None,None,67,842.2833649,None,67,842.2833649,None,842.2833649,None,842.2833649,None,842.2833649,None,842.2833649,None,842.2833649,None,842.2833649,None,0.00960856,None,842.2833649,None,0.2,0,None,None,None,None,None,None,None,None,None,None,None,None,,None,None,None,None,,,,,,,,None,None,None,None,7.015625,2.792477,848.2489408,None,848.2489408,None,848.2489408,None,848.2489408,None,None,None,851.0740068,None,0.091145833,-0.299479167,1,0,0,5.9143801,tijiao,,,,,,,236,f,22,2023_Mar_21_1332,RL,2021.2.3,59.93238428
0,0,73,0,,,,,,,,,,,,,,,None,None,None,None,None,853.0277936,None,853.0277936,None,853.0277936,None,853.0277936,None,j,0.2450624,853.0277936,None,853.0277936,None,853.3129705,None,853.3129705,None,853.3129705,None,853.3129705,None,853.3129705,None,853.3129705,None,853.608352,854.57557,853.608352,854.57557,854.6066294,None,854.6066294,None,854.6066294,None,854.6066294,None,854.6066294,None,854.6066294,None,854.6066294,None,854.6066294,None,854.6066294,None,36,54,44,68,68,39,None,None,None,None,None,None,None,None,None,None,None,None,,None,None,,None,None,None,None,None,None,None,None,None,None,None,None,None,None,None,None,None,None,0.2,1,857.1575183,None,857.1575183,None,857.1575183,None,857.1575183,None,857.1575183,None,857.1575183,None,53,857.1575183,None,857.1575183,None,0.087239583,-0.291666667,1,0,0,4.8651237,tijiao_random_2,0.01110028,None,857.1575183,None,8.9296875,1.5790994,862.0599698,None,862.0599698,None,862.0599698,None,862.0599698,None,None,None,863.6628312,None,,,,,,,,,,,,,,236,f,22,2023_Mar_21_1332,RL,2021.2.3,59.93238428
1,0,74,0,,,,,,,,,,,,,,,None,None,None,None,None,865.4362721,None,865.4362721,None,865.4362721,None,865.4362721,None,j,0.2464449,865.4362721,None,865.4362721,None,865.7233819,None,865.7233819,None,865.7233819,None,865.7233819,None,865.7233819,None,865.7233819,None,866.0168066,None,866.0168066,None,867.8986386,None,867.8986386,None,867.8986386,None,867.8986386,None,867.8986386,None,867.8986386,None,867.8986386,None,867.8986386,None,867.8986386,None,35,56,47,79,79,30,870.4239282,None,7,1.684115,870.4239282,None,870.4239282,None,870.4239282,None,870.4239282,None,,None,None,,None,None,None,None,None,None,None,None,None,None,None,None,None,None,None,None,None,None,0.6,2,None,None,None,None,None,None,None,None,None,None,None,None,,None,None,None,None,,,,,,,,None,None,None,None,None,None,None,None,None,None,None,None,None,None,None,None,872.1681047,None,,,,,,,,,,,,,,236,f,22,2023_Mar_21_1332,RL,2021.2.3,59.93238428
0,0,75,0,,,,,,,,,,,,,,,873.9224315,None,q,873.9224315,None,923.5198874,None,923.5198874,None,923.5198874,None,923.5198874,None,j,0.726299,923.5198874,None,923.5198874,None,924.2956975,None,924.2956975,None,924.2956975,None,924.2956975,None,924.2956975,None,924.2956975,None,924.59105,None,924.59105,None,925.9397377,None,925.9397377,None,925.9397377,None,925.9397377,None,925.9397377,None,925.9397377,None,925.9397377,None,925.9397377,None,925.9397377,None,37,57,43,69,69,37,None,None,None,None,None,None,None,None,None,None,None,None,72,928.4651163,None,72,928.4651163,None,928.4651163,None,928.4651163,None,928.4651163,None,928.4651163,None,928.4651163,None,928.4651163,None,0.00320344,None,928.4651163,None,0.6,0,None,None,None,None,None,None,None,None,None,None,None,None,,None,None,None,None,,,,,,,,None,None,None,None,9.020833333,1.650709,932.7526679,None,932.7526679,None,932.7526679,None,932.7526679,None,None,None,934.4291761,None,0.100260417,-0.28515625,1,0,0,4.2399497,tijiao,49.5661607,,,,,,236,f,22,2023_Mar_21_1332,RL,2021.2.3,59.93238428
1,0,76,0,,,,,,,,,,,,,,,None,None,None,None,None,936.1853186,None,936.1853186,None,936.1853186,None,936.1853186,None,j,0.4108174,936.1853186,None,936.1853186,None,936.6399971,None,936.6399971,None,936.6399971,None,936.6399971,None,936.6399971,None,936.6399971,None,936.9159594,938.5839948,936.9159594,938.5839948,938.6251572,None,938.6251572,None,938.6251572,None,938.6251572,None,938.6251572,None,938.6251572,None,938.6251572,None,938.6251572,None,938.6251572,None,36,61,56,63,63,46,941.139208,None,5,1.4321512,941.139208,None,941.139208,None,941.139208,None,941.139208,None,,None,None,,None,None,None,None,None,None,None,None,None,None,None,None,None,None,None,None,None,None,0.6,2,None,None,None,None,None,None,None,None,None,None,None,None,,None,None,None,None,,,,,,,,None,None,None,None,None,None,None,None,None,None,None,None,None,None,None,None,942.6468306,None,,,,,,,,,,,,,,236,f,22,2023_Mar_21_1332,RL,2021.2.3,59.93238428
0,0,77,0,,,,,,,,,,,,,,,None,None,None,None,None,944.6243937,None,944.6243937,None,944.6243937,None,944.6243937,None,j,0.2717862,944.6243937,None,944.6243937,None,944.9390018,None,944.9390018,None,944.9390018,None,944.9390018,None,944.9390018,None,944.9390018,None,945.2385307,None,945.2385307,None,946.3873696,None,946.3873696,None,946.3873696,None,946.3873696,None,946.3873696,None,946.3873696,None,946.3873696,None,946.3873696,None,946.3873696,None,37,64,59,64,64,27,948.90936,None,5,1.7509353,948.90936,None,948.90936,None,948.90936,None,948.90936,None,,None,None,,None,None,None,None,None,None,None,None,None,None,None,None,None,None,None,None,None,None,0.6,2,None,None,None,None,None,None,None,None,None,None,None,None,,None,None,None,None,,,,,,,,None,None,None,None,None,None,None,None,None,None,None,None,None,None,None,None,950.7282694,None,,,,,,,,,,,,,,236,f,22,2023_Mar_21_1332,RL,2021.2.3,59.93238428
1,0,78,0,,,,,,,,,,,,,,,None,None,None,None,None,952.6637263,None,952.6637263,None,952.6637263,None,952.6637263,None,j,0.2426868,952.6637263,None,952.6637263,None,952.9504632,None,952.9504632,None,952.9504632,None,952.9504632,None,952.9504632,None,952.9504632,None,953.2439981,954.3448113,953.2439981,954.3448113,954.3775732,None,954.3775732,None,954.3775732,None,954.3775732,None,954.3775732,None,954.3775732,None,954.3775732,None,954.3775732,None,954.3775732,None,29,56,60,66,66,36,None,None,None,None,None,None,None,None,None,None,None,None,,None,None,,None,None,None,None,None,None,None,None,None,None,None,None,None,None,None,None,None,None,0.6,1,956.9200168,None,956.9200168,None,956.9200168,None,956.9200168,None,956.9200168,None,956.9200168,None,66,956.9200168,None,956.9200168,None,0.067708333,-0.298177083,1,0,0,3.6050087,tijiao_random_2,0.00120036,None,956.9200168,None,11,0.8328546,960.5542384,None,960.5542384,None,960.5542384,None,960.5542384,None,None,None,961.4143816,None,,,,,,,,,,,,,,236,f,22,2023_Mar_21_1332,RL,2021.2.3,59.93238428
0,0,79,0,,,,,,,,,,,,,,,None,None,None,None,None,963.0709154,None,963.0709154,None,963.0709154,None,963.0709154,None,j,0.2656097,963.0709154,None,963.0709154,None,963.3901465,None,963.3901465,None,963.3901465,None,963.3901465,None,963.3901465,None,963.3901465,None,963.6846705,None,963.6846705,None,964.6485385,None,964.6485385,None,964.6485385,None,964.6485385,None,964.6485385,None,964.6485385,None,964.6485385,None,964.6485385,None,964.6485385,None,24,64,57,65,65,46,None,None,None,None,None,None,None,None,None,None,None,None,60,967.1808515,None,60,967.1808515,None,967.1808515,None,967.1808515,None,967.1808515,None,967.1808515,None,967.1808515,None,967.1808515,None,0.01465416,None,967.1808515,None,-0.2,0,None,None,None,None,None,None,None,None,None,None,None,None,,None,None,None,None,,,,,,,,None,None,None,None,9.046875,1.2528541,972.2471079,None,972.2471079,None,972.2471079,None,972.2471079,None,None,None,973.5317872,None,0.014322917,-0.282552083,1,0,0,5.0189424,tijiao,,,,,,,236,f,22,2023_Mar_21_1332,RL,2021.2.3,59.93238428
1,0,80,0,,,,,,,,,,,,,,,None,None,None,None,None,975.3465822,None,975.3465822,None,975.3465822,None,975.3465822,None,j,0.2799394,975.3465822,None,975.3465822,None,975.6623217,None,975.6623217,None,975.6623217,None,975.6623217,None,975.6623217,None,975.6623217,None,975.9599225,None,975.9599225,None,977.7082889,None,977.7082889,None,977.7082889,None,977.7082889,None,977.7082889,None,977.7082889,None,977.7082889,None,977.7082889,None,977.7082889,None,32,62,57,76,76,21,None,None,None,None,None,None,None,None,None,None,None,None,80,980.2377991,None,80,980.2377991,None,980.2377991,None,980.2377991,None,980.2377991,None,980.2377991,None,980.2377991,None,980.2377991,None,0.00045684,None,980.2377991,None,-0.2,0,None,None,None,None,None,None,None,None,None,None,None,None,,None,None,None,None,,,,,,,,None,None,None,None,9.0078125,1.2545914,984.3332916,None,984.3332916,None,984.3332916,None,984.3332916,None,None,None,985.6145781,None,0.04296875,-0.325520833,1,0,0,4.0537302,tijiao,,,,,,,236,f,22,2023_Mar_21_1332,RL,2021.2.3,59.93238428
0,0,81,0,,,,,,,,,,,,,,,None,None,None,None,None,987.1882153,None,987.1882153,None,987.1882153,None,987.1882153,None,j,0.3385593,987.1882153,None,987.1882153,None,987.5759554,None,987.5759554,None,987.5759554,None,987.5759554,None,987.5759554,None,987.5759554,None,987.8513393,988.9690994,987.8513393,988.9690994,989.0221345,None,989.0221345,None,989.0221345,None,989.0221345,None,989.0221345,None,989.0221345,None,989.0221345,None,989.0221345,None,989.0221345,None,29,58,54,76,76,20,None,None,None,None,None,None,None,None,None,None,None,None,73,991.5487038,None,73,991.5487038,None,991.5487038,None,991.5487038,None,991.5487038,None,991.5487038,None,991.5487038,None,991.5487038,None,0.01431776,None,991.5487038,None,0.2,0,None,None,None,None,None,None,None,None,None,None,None,None,,None,None,None,None,,,,,,,,None,None,None,None,7.067708333,1.2479646,995.6947222,None,995.6947222,None,995.6947222,None,995.6947222,None,None,None,996.9571708,None,0.07421875,-0.287760417,1,0,0,4.1019231,tijiao,,,,,,,236,f,22,2023_Mar_21_1332,RL,2021.2.3,59.93238428
1,0,82,0,,,,,,,,,,,,,,,None,None,None,None,None,998.6789675,None,998.6789675,None,998.6789675,None,998.6789675,None,j,0.2475654,998.6789675,None,998.6789675,None,998.9668856,None,998.9668856,None,998.9668856,None,998.9668856,None,998.9668856,None,998.9668856,None,999.2593325,None,999.2593325,None,1000.181124,None,1000.181124,None,1000.181124,None,1000.181124,None,1000.181124,None,1000.181124,None,1000.181124,None,1000.181124,None,1000.181124,None,31,64,61,68,68,37,1002.69839,None,6,1.7028744,1002.69839,None,1002.69839,None,1002.69839,None,1002.69839,None,,None,None,,None,None,None,None,None,None,None,None,None,None,None,None,None,None,None,None,None,None,0.2,2,None,None,None,None,None,None,None,None,None,None,None,None,,None,None,None,None,,,,,,,,None,None,None,None,None,None,None,None,None,None,None,None,None,None,None,None,1004.459332,None,,,,,,,,,,,,,,236,f,22,2023_Mar_21_1332,RL,2021.2.3,59.93238428
0,0,83,0,,,,,,,,,,,,,,,None,None,None,None,None,1006.268133,None,1006.268133,None,1006.268133,None,1006.268133,None,j,0.2486295,1006.268133,None,1006.268133,None,1006.569896,None,1006.569896,None,1006.569896,None,1006.569896,None,1006.569896,None,1006.569896,None,1006.864686,None,1006.864686,None,1008.578535,None,1008.578535,None,1008.578535,None,1008.578535,None,1008.578535,None,1008.578535,None,1008.578535,None,1008.578535,None,1008.578535,None,34,60,55,73,73,33,None,None,None,None,None,None,None,None,None,None,None,None,70,1011.112766,None,70,1011.112766,None,1011.112766,None,1011.112766,None,1011.112766,None,1011.112766,None,1011.112766,None,1011.112766,None,0.01276096,None,1011.112766,None,-0.6,0,None,None,None,None,None,None,None,None,None,None,None,None,,None,None,None,None,,,,,,,,None,None,None,None,9.033854167,1.5779641,1016.139869,None,1016.139869,None,1016.139869,None,1016.139869,None,None,None,1017.736668,None,0.04296875,-0.30859375,1,0,0,4.9833674,tijiao,,,,,,,236,f,22,2023_Mar_21_1332,RL,2021.2.3,59.93238428
1,0,84,0,,,,,,,,,,,,,,,None,None,None,None,None,1019.27629,None,1019.27629,None,1019.27629,None,1019.27629,None,j,0.2804526,1019.27629,None,1019.27629,None,1019.596125,None,1019.596125,None,1019.596125,None,1019.596125,None,1019.596125,None,1019.596125,None,1019.890334,None,1019.890334,None,1021.909966,None,1021.909966,None,1021.909966,None,1021.909966,None,1021.909966,None,1021.909966,None,1021.909966,None,1021.909966,None,1021.909966,None,43,67,51,72,72,45,None,None,None,None,None,None,None,None,None,None,None,None,,None,None,,None,None,None,None,None,None,None,None,None,None,None,None,None,None,None,None,None,None,0.6,1,1024.458239,None,1024.458239,None,1024.458239,None,1024.458239,None,1024.458239,None,1024.458239,None,72,1024.458239,None,1024.458239,None,0.015625,-0.295572917,1,0,0,3.2132595,tijiao_random_2,0.01027628,None,1024.458239,None,10.765625,0.7783442,1027.703177,None,1027.703177,None,1027.703177,None,1027.703177,None,None,None,1028.513533,None,,,,,,,,,,,,,,236,f,22,2023_Mar_21_1332,RL,2021.2.3,59.93238428
0,0,85,0,,,,,,,,,,,,,,,None,None,None,None,None,1030.451873,None,1030.451873,None,1030.451873,None,1030.451873,None,j,0.4951217,1030.451873,None,1030.451873,None,1030.998284,None,1030.998284,None,1030.998284,None,1030.998284,None,1030.998284,None,1030.998284,None,1031.281633,1033.132954,1031.281633,1033.132954,1033.163145,None,1033.163145,None,1033.163145,None,1033.163145,None,1033.163145,None,1033.163145,None,1033.163145,None,1033.163145,None,1033.163145,None,57,70,53,63,63,27,None,None,None,None,None,None,None,None,None,None,None,None,,None,None,,None,None,None,None,None,None,None,None,None,None,None,None,None,None,None,None,None,None,-0.6,1,1035.712739,None,1035.712739,None,1035.712739,None,1035.712739,None,1035.712739,None,1035.712739,None,27,1035.712739,None,1035.712739,None,0.024739583,-0.29296875,1,0,0,3.2831533,tijiao_random_2,0.01282708,None,1035.712739,None,8.994791667,1.1759369,1039.030856,None,1039.030856,None,1039.030856,None,1039.030856,None,None,None,1040.242119,None,,,,,,,,,,,,,,236,f,22,2023_Mar_21_1332,RL,2021.2.3,59.93238428
1,0,86,0,,,,,,,,,,,,,,,None,None,None,None,None,1041.892905,None,1041.892905,None,1041.892905,None,1041.892905,None,j,0.5538944,1041.892905,None,1041.892905,None,1042.49649,None,1042.49649,None,1042.49649,None,1042.49649,None,1042.49649,None,1042.49649,None,1042.789586,1044.607519,1042.789586,1044.607519,1044.63961,None,1044.63961,None,1044.63961,None,1044.63961,None,1044.63961,None,1044.63961,None,1044.63961,None,1044.63961,None,1044.63961,None,46,62,51,74,74,54,1047.156954,None,7,1.8379631,1047.156954,None,1047.156954,None,1047.156954,None,1047.156954,None,,None,None,,None,None,None,None,None,None,None,None,None,None,None,None,None,None,None,None,None,None,0.2,2,None,None,None,None,None,None,None,None,None,None,None,None,,None,None,None,None,,,,,,,,None,None,None,None,None,None,None,None,None,None,None,None,None,None,None,None,1049.051677,None,,,,,,,,,,,,,,236,f,22,2023_Mar_21_1332,RL,2021.2.3,59.93238428
0,0,87,0,,,,,,,,,,,,,,,None,None,None,None,None,1050.798618,None,1050.798618,None,1050.798618,None,1050.798618,None,j,0.4395027,1050.798618,None,1050.798618,None,1051.2896,None,1051.2896,None,1051.2896,None,1051.2896,None,1051.2896,None,1051.2896,None,1051.578984,None,1051.578984,None,1053.192454,None,1053.192454,None,1053.192454,None,1053.192454,None,1053.192454,None,1053.192454,None,1053.192454,None,1053.192454,None,1053.192454,None,47,59,60,65,65,33,1055.715553,None,6,1.9027824,1055.715553,None,1055.715553,None,1055.715553,None,1055.715553,None,,None,None,,None,None,None,None,None,None,None,None,None,None,None,None,None,None,None,None,None,None,-0.2,3,None,None,None,None,None,None,None,None,None,None,None,None,,None,None,None,None,,,,,,,,None,None,None,None,None,None,None,None,None,None,None,None,None,None,None,None,1057.70094,None,,,,,,,,,,,,,,236,f,22,2023_Mar_21_1332,RL,2021.2.3,59.93238428
1,0,88,0,,,,,,,,,,,,,,,None,None,None,None,None,1059.437191,None,1059.437191,None,1059.437191,None,1059.437191,None,j,0.5908716,1059.437191,None,1059.437191,None,1060.074642,None,1060.074642,None,1060.074642,None,1060.074642,None,1060.074642,None,1060.074642,None,1060.368391,None,1060.368391,None,1061.417422,None,1061.417422,None,1061.417422,None,1061.417422,None,1061.417422,None,1061.417422,None,1061.417422,None,1061.417422,None,1061.417422,None,44,65,58,81,81,28,None,None,None,None,None,None,None,None,None,None,None,None,,None,None,,None,None,None,None,None,None,None,None,None,None,None,None,None,None,None,None,None,None,-0.2,1,1063.965303,None,1063.965303,None,1063.965303,None,1063.965303,None,1063.965303,None,1063.965303,None,50,1063.965303,None,1063.965303,None,0.04296875,-0.276041667,1,0,0,6.4692857,tijiao_random_2,0.01315288,None,1063.965303,None,4.020833333,1.7003455,1070.480297,None,1070.480297,None,1070.480297,None,1070.480297,None,None,None,1072.191291,None,,,,,,,,,,,,,,236,f,22,2023_Mar_21_1332,RL,2021.2.3,59.93238428
0,0,89,0,,,,,,,,,,,,,,,None,None,None,None,None,1074.131372,None,1074.131372,None,1074.131372,None,1074.131372,None,j,0.0267405,1074.131372,None,1074.131372,None,1074.199206,None,1074.199206,None,1074.199206,None,1074.199206,None,1074.199206,None,1074.199206,None,1074.49503,1075.57895,1074.49503,1075.57895,1075.609578,None,1075.609578,None,1075.609578,None,1075.609578,None,1075.609578,None,1075.609578,None,1075.609578,None,1075.609578,None,1075.609578,None,38,65,61,61,61,49,1078.134934,None,5,1.9673439,1078.134934,None,1078.134934,None,1078.134934,None,1078.134934,None,,None,None,,None,None,None,None,None,None,None,None,None,None,None,None,None,None,None,None,None,None,-0.6,3,None,None,None,None,None,None,None,None,None,None,None,None,,None,None,None,None,,,,,,,,None,None,None,None,None,None,None,None,None,None,None,None,None,None,None,None,1080.154082,None,,,,,,,,,,,,,,236,f,22,2023_Mar_21_1332,RL,2021.2.3,59.93238428
1,0,90,0,,,,,,,,,,,,,,,None,None,None,None,None,1082.019653,None,1082.019653,None,1082.019653,None,1082.019653,None,j,0.2884745,1082.019653,None,1082.019653,None,1082.354623,None,1082.354623,None,1082.354623,None,1082.354623,None,1082.354623,None,1082.354623,None,1082.650558,None,1082.650558,None,1084.082572,None,1084.082572,None,1084.082572,None,1084.082572,None,1084.082572,None,1084.082572,None,1084.082572,None,1084.082572,None,1084.082572,None,35,58,60,71,71,53,None,None,None,None,None,None,None,None,None,None,None,None,68,1086.619439,None,68,1086.619439,None,1086.619439,None,1086.619439,None,1086.619439,None,1086.619439,None,1086.619439,None,1086.619439,None,0.00984036,None,1086.619439,None,-0.2,0,None,None,None,None,None,None,None,None,None,None,None,None,,None,None,None,None,,,,,,,,None,None,None,None,7.927083333,0.7384356,1091.610619,None,1091.610619,None,1091.610619,None,1091.610619,None,None,None,1092.373579,None,0.040364583,-0.2734375,1,0,0,4.9476776,tijiao,,,,,,,236,f,22,2023_Mar_21_1332,RL,2021.2.3,59.93238428
0,0,91,0,,,,,,,,,,,,,,,None,None,None,None,None,1093.97836,None,1093.97836,None,1093.97836,None,1093.97836,None,j,0.2699564,1093.97836,None,1093.97836,None,1094.298424,None,1094.298424,None,1094.298424,None,1094.298424,None,1094.298424,None,1094.298424,None,1094.592432,1096.527031,1094.592432,1096.527031,1096.559503,None,1096.559503,None,1096.559503,None,1096.559503,None,1096.559503,None,1096.559503,None,1096.559503,None,1096.559503,None,1096.559503,None,33,54,55,66,66,44,1099.082438,None,6,1.9511453,1099.082438,None,1099.082438,None,1099.082438,None,1099.082438,None,,None,None,,None,None,None,None,None,None,None,None,None,None,None,None,None,None,None,None,None,None,-0.6,2,None,None,None,None,None,None,None,None,None,None,None,None,,None,None,None,None,,,,,,,,None,None,None,None,None,None,None,None,None,None,None,None,None,None,None,None,1101.093035,None,,,,,,,,,,,,,,236,f,22,2023_Mar_21_1332,RL,2021.2.3,59.93238428
1,0,92,0,,,,,,,,,,,,,,,None,None,None,None,None,1102.801002,None,1102.801002,None,1102.801002,None,1102.801002,None,j,0.3372973,1102.801002,None,1102.801002,None,1103.187033,None,1103.187033,None,1103.187033,None,1103.187033,None,1103.187033,None,1103.187033,None,1103.481695,1104.665711,1103.481695,1104.665711,1104.69815,None,1104.69815,None,1104.69815,None,1104.69815,None,1104.69815,None,1104.69815,None,1104.69815,None,1104.69815,None,1104.69815,None,37,58,64,66,66,53,None,None,None,None,None,None,None,None,None,None,None,None,70,1107.227537,None,70,1107.227537,None,1107.227537,None,1107.227537,None,1107.227537,None,1107.227537,None,1107.227537,None,1107.227537,None,0.01584756,None,1107.227537,None,0.2,0,None,None,None,None,None,None,None,None,None,None,None,None,,None,None,None,None,,,,,,,,None,None,None,None,8.877604167,1.524871,1111.639744,None,1111.639744,None,1111.639744,None,1111.639744,None,None,None,1113.188517,None,0.055989583,-0.305989583,1,0,0,4.3692986,tijiao,,,,,,,236,f,22,2023_Mar_21_1332,RL,2021.2.3,59.93238428
0,0,93,0,,,,,,,,,,,,,,,None,None,None,None,None,1115.126356,None,1115.126356,None,1115.126356,None,1115.126356,None,j,0.2519524,1115.126356,None,1115.126356,None,1115.43131,None,1115.43131,None,1115.43131,None,1115.43131,None,1115.43131,None,1115.43131,None,1115.723463,1116.790868,1115.723463,1116.790868,1116.823233,None,1116.823233,None,1116.823233,None,1116.823233,None,1116.823233,None,1116.823233,None,1116.823233,None,1116.823233,None,1116.823233,None,39,54,61,66,66,39,None,None,None,None,None,None,None,None,None,None,None,None,,None,None,,None,None,None,None,None,None,None,None,None,None,None,None,None,None,None,None,None,None,0.2,1,1119.374434,None,1119.374434,None,1119.374434,None,1119.374434,None,1119.374434,None,1119.374434,None,54,1119.374434,None,1119.374434,None,0.111979167,-0.307291667,1,0,0,5.998607,tijiao_random_2,0.01015098,None,1119.374434,None,3.903645833,1.830332,1125.403362,None,1125.403362,None,1125.403362,None,1125.403362,None,None,None,1127.252854,None,,,,,,,,,,,,,,236,f,22,2023_Mar_21_1332,RL,2021.2.3,59.93238428
1,0,94,0,,,,,,,,,,,,,,,None,None,None,None,None,1129.103907,None,1129.103907,None,1129.103907,None,1129.103907,None,j,0.2747486,1129.103907,None,1129.103907,None,1129.419971,None,1129.419971,None,1129.419971,None,1129.419971,None,1129.419971,None,1129.419971,None,1129.716575,None,1129.716575,None,1131.381869,None,1131.381869,None,1131.381869,None,1131.381869,None,1131.381869,None,1131.381869,None,1131.381869,None,1131.381869,None,1131.381869,None,33,65,65,75,75,60,1133.908186,None,7,1.8499916,1133.908186,None,1133.908186,None,1133.908186,None,1133.908186,None,,None,None,,None,None,None,None,None,None,None,None,None,None,None,None,None,None,None,None,None,None,0.2,3,None,None,None,None,None,None,None,None,None,None,None,None,,None,None,None,None,,,,,,,,None,None,None,None,None,None,None,None,None,None,None,None,None,None,None,None,1135.82409,None,,,,,,,,,,,,,,236,f,22,2023_Mar_21_1332,RL,2021.2.3,59.93238428
0,0,95,0,,,,,,,,,,,,,,,None,None,None,None,None,1137.79319,None,1137.79319,None,1137.79319,None,1137.79319,None,j,0.3255142,1137.79319,None,1137.79319,None,1138.160568,None,1138.160568,None,1138.160568,None,1138.160568,None,1138.160568,None,1138.160568,None,1138.456004,None,1138.456004,None,1139.637555,None,1139.637555,None,1139.637555,None,1139.637555,None,1139.637555,None,1139.637555,None,1139.637555,None,1139.637555,None,1139.637555,None,39,65,62,70,70,54,None,None,None,None,None,None,None,None,None,None,None,None,69,1142.167488,None,69,1142.167488,None,1142.167488,None,1142.167488,None,1142.167488,None,1142.167488,None,1142.167488,None,1142.167488,None,2.14E-05,None,1142.167488,None,-0.2,0,None,None,None,None,None,None,None,None,None,None,None,None,,None,None,None,None,,,,,,,,None,None,None,None,8.890625,1.1003491,1146.583011,None,1146.583011,None,1146.583011,None,1146.583011,None,None,None,1147.710363,None,0.165364583,-0.311197917,1,0,0,4.3710763,tijiao,,,,,,,236,f,22,2023_Mar_21_1332,RL,2021.2.3,59.93238428
1,0,96,0,,,,,,,,,,,,,,,None,None,None,None,None,1149.300224,None,1149.300224,None,1149.300224,None,1149.300224,None,j,0.5085672,1149.300224,None,1149.300224,None,1149.852968,None,1149.852968,None,1149.852968,None,1149.852968,None,1149.852968,None,1149.852968,None,1150.147502,1152.0156,1150.147502,1152.0156,1152.047252,None,1152.047252,None,1152.047252,None,1152.047252,None,1152.047252,None,1152.047252,None,1152.047252,None,1152.047252,None,1152.047252,None,35,58,61,64,64,54,1154.572988,None,7,1.3833253,1154.572988,None,1154.572988,None,1154.572988,None,1154.572988,None,,None,None,,None,None,None,None,None,None,None,None,None,None,None,None,None,None,None,None,None,None,0.2,2,None,None,None,None,None,None,None,None,None,None,None,None,,None,None,None,None,,,,,,,,None,None,None,None,None,None,None,None,None,None,None,None,None,None,None,None,1156.015859,None,,,,,,,,,,,,,,236,f,22,2023_Mar_21_1332,RL,2021.2.3,59.93238428
