trials.thisRepN,trials.thisTrialN,trials.thisN,trials.thisIndex,instru_img1.started,instru_img1.stopped,instru_resp.keys,instru_resp.rt,instru_resp.started,instru_resp.stopped,instru_img2.started,instru_img2.stopped,instru_resp2.keys,instru_resp2.rt,instru_resp2.started,instru_resp2.stopped,fixbefore_2.started,fixbefore_2.stopped,rest_image.started,rest_image.stopped,rest_response.keys,rest_response.started,rest_response.stopped,red.started,red.stopped,green.started,green.stopped,yellow.started,yellow.stopped,blue.started,blue.stopped,choose_bandit.keys,choose_bandit.rt,choose_bandit.started,choose_bandit.stopped,Fixation.started,Fixation.stopped,black.started,black.stopped,red_2.started,red_2.stopped,green_2.started,green_2.stopped,yellow_2.started,yellow_2.stopped,blue_2.started,blue_2.stopped,fixation_2.started,fixation_2.stopped,docs.started,docs.stopped,wait_playerB.started,wait_playerB.stopped,black_com.started,black_com.stopped,reward_sub.started,reward_sub.stopped,palyerb.started,palyerb.stopped,reward__sub.started,reward__sub.stopped,compare.started,compare.stopped,red_compare.started,red_compare.stopped,green_com.started,green_com.stopped,yellow_com.started,yellow_com.stopped,blue_com.started,blue_com.stopped,rewardyellow,rewardred,rewardblue,rewardgreen,subchoose,playerb,image_3.started,image_3.stopped,slider.response,slider.rt,slider.started,slider.stopped,text.started,text.stopped,image_4.started,image_4.stopped,image_5.started,image_5.stopped,expectself.text,expectself.started,expectself.stopped,value_expect_self,expect_self_black.started,expect_self_black.stopped,expect_self.started,expect_self.stopped,expect_self_red.started,expect_self_red.stopped,expect_self_green.started,expect_self_green.stopped,expect_self_yellow.started,expect_self_yellow.stopped,expect_self_blue.started,expect_self_blue.stopped,tijiao.started,tijiao.stopped,tijiao_click.x,tijiao_click.y,tijiao_click.leftButton,tijiao_click.midButton,tijiao_click.rightButton,tijiao_click.time,tijiao_click.clicked_name,tijiao_click.started,tijiao_click.stopped,check.started,check.stopped,random_whicharm,whether_ask,jiantou_random.started,jiantou_random.stopped,expect_red.started,expect_red.stopped,expect_green.started,expect_green.stopped,expect_yellow.started,expect_yellow.stopped,expect_blue.started,expect_blue.stopped,expect_random_2.started,expect_random_2.stopped,expect_random_3.text,expect_random_3.started,expect_random_3.stopped,tijiao_random_2.started,tijiao_random_2.stopped,tijiao_random.started,tijiao_random.stopped,check_2.started,check_2.stopped,slider_2.response,slider_2.rt,slider_2.started,slider_2.stopped,image_7.started,image_7.stopped,confi.started,confi.stopped,notconfi.started,notconfi.stopped,bigx.started,bigx.stopped,intertrialfix.started,intertrialfix.stopped,tijiao_random.x,tijiao_random.y,tijiao_random.leftButton,tijiao_random.midButton,tijiao_random.rightButton,tijiao_random.time,tijiao_random.clicked_name,rest_response.rt,participant,Gender,Age,date,expName,psychopyVersion,frameRate
,,,,36.2798849,None,space,2.4283601,36.2798849,None,,,,,,,,,,,,,,,,,,,,,,,,,,,,,,,,,,,,,,,,,,,,,,,,,,,,,,,,,,,,,,,,,,,,,,,,,,,,,,,,,,,,,,,,,,,,,,,,,,,,,,,,,,,,,,,,,,,,,,,,,,,,,,,,,,,,,,,,,,,,,,,,,,,,,,,,,,237,f,22,2023_Mar_21_1515,RL,2021.2.3,59.84515664
,,,,,,,,,,38.73937,None,s,25.6585401,38.73937,None,,,,,,,,,,,,,,,,,,,,,,,,,,,,,,,,,,,,,,,,,,,,,,,,,,,,,,,,,,,,,,,,,,,,,,,,,,,,,,,,,,,,,,,,,,,,,,,,,,,,,,,,,,,,,,,,,,,,,,,,,,,,,,,,,,,,,,,,,,,,,,,,,,,,237,f,22,2023_Mar_21_1515,RL,2021.2.3,59.84515664
1,0,0,0,,,,,,,,,,,,,64.4436004,None,None,None,None,None,None,65.4783139,None,65.4783139,None,65.4783139,None,65.4783139,None,r,0.2996696,65.4783139,None,65.4783139,None,65.827405,None,65.827405,None,65.827405,None,65.827405,None,65.827405,None,65.827405,None,66.112067,66.929242,66.112067,66.929242,66.9716187,None,66.9716187,None,66.9716187,None,66.9716187,None,66.9716187,None,66.9716187,None,66.9716187,None,66.9716187,None,66.9716187,None,63,63,44,37,63,32,None,None,None,None,None,None,None,None,None,None,None,None,38,69.5163442,None,38,69.5163442,None,69.5163442,None,69.5163442,None,69.5163442,None,69.5163442,None,69.5163442,None,69.5163442,None,-0.06640625,-0.268229167,1,0,0,17.1267491,tijiao,0.01403714,None,69.5163442,None,-0.2,0,None,None,None,None,None,None,None,None,None,None,None,None,,None,None,None,None,None,None,None,None,1.013020833,2.5420092,86.6976058,None,86.6976058,None,86.6976058,None,86.6976058,None,None,None,89.2788561,None,,,,,,,,,237,f,22,2023_Mar_21_1515,RL,2021.2.3,59.84515664
0,0,1,0,,,,,,,,,,,,,,,None,None,None,None,None,90.8669824,None,90.8669824,None,90.8669824,None,90.8669824,None,f,0.3110694,90.8669824,None,90.8669824,None,91.2263228,None,91.2263228,None,91.2263228,None,91.2263228,None,91.2263228,None,91.2263228,None,91.5131351,None,91.5131351,None,92.3483007,None,92.3483007,None,92.3483007,None,92.3483007,None,92.3483007,None,92.3483007,None,92.3483007,None,92.3483007,None,92.3483007,None,55,63,47,41,63,67,94.8709458,None,4,2.7499796,94.8709458,None,94.8709458,None,94.8709458,None,94.8709458,None,,None,None,,None,None,None,None,None,None,None,None,None,None,None,None,None,None,,,,,,,,None,None,None,None,-0.6,2,None,None,None,None,None,None,None,None,None,None,None,None,,None,None,None,None,None,None,None,None,None,None,None,None,None,None,None,None,None,None,None,None,97.6871055,None,,,,,,,,,237,f,22,2023_Mar_21_1515,RL,2021.2.3,59.84515664
1,0,2,0,,,,,,,,,,,,,,,None,None,None,None,None,99.6724557,None,99.6724557,None,99.6724557,None,99.6724557,None,i,0.3056178,99.6724557,None,99.6724557,None,100.0216718,None,100.0216718,None,100.0216718,None,100.0216718,None,100.0216718,None,100.0216718,None,100.3189732,None,100.3189732,None,101.4700802,None,101.4700802,None,101.4700802,None,101.4700802,None,101.4700802,None,101.4700802,None,101.4700802,None,101.4700802,None,101.4700802,None,58,55,36,37,36,50,None,None,None,None,None,None,None,None,None,None,None,None,,None,None,,None,None,None,None,None,None,None,None,None,None,None,None,None,None,,,,,,,,None,None,None,None,-0.2,1,104.0188883,None,104.0188883,None,104.0188883,None,104.0188883,None,104.0188883,None,104.0188883,None,25,104.0188883,None,104.0188883,None,0.01281072,None,104.0188883,None,1,2.8423061,115.025211,None,115.025211,None,115.025211,None,115.025211,None,None,None,117.8806839,None,-0.026041667,-0.287760417,1,0,0,10.9717726,tijiao_random_2,,237,f,22,2023_Mar_21_1515,RL,2021.2.3,59.84515664
0,0,3,0,,,,,,,,,,,,,,,None,None,None,None,None,119.6361418,None,119.6361418,None,119.6361418,None,119.6361418,None,j,0.2830855,119.6361418,None,119.6361418,None,119.970925,None,119.970925,None,119.970925,None,119.970925,None,119.970925,None,119.970925,None,120.2663258,121.3169557,120.2663258,121.3169557,121.351111,None,121.351111,None,121.351111,None,121.351111,None,121.351111,None,121.351111,None,121.351111,None,121.351111,None,121.351111,None,56,39,45,32,32,55,None,None,None,None,None,None,None,None,None,None,None,None,,None,None,,None,None,None,None,None,None,None,None,None,None,None,None,None,None,,,,,,,,None,None,None,None,-0.6,1,123.8953283,None,123.8953283,None,123.8953283,None,123.8953283,None,123.8953283,None,123.8953283,None,17,123.8953283,None,123.8953283,None,0.01349092,None,123.8953283,None,1,1.5486927,131.8136727,None,131.8136727,None,131.8136727,None,131.8136727,None,None,None,133.3901029,None,-0.079427083,-0.263020833,1,0,0,7.8870567,tijiao_random_2,,237,f,22,2023_Mar_21_1515,RL,2021.2.3,59.84515664
1,0,4,0,,,,,,,,,,,,,,,None,None,None,None,None,135.2469125,None,135.2469125,None,135.2469125,None,135.2469125,None,r,0.3224824,135.2469125,None,135.2469125,None,135.6143861,None,135.6143861,None,135.6143861,None,135.6143861,None,135.6143861,None,135.6143861,None,135.9105979,None,135.9105979,None,137.7257615,None,137.7257615,None,137.7257615,None,137.7257615,None,137.7257615,None,137.7257615,None,137.7257615,None,137.7257615,None,137.7257615,None,60,55,38,39,60,37,140.2434179,None,5,2.1680866,140.2434179,None,140.2434179,None,140.2434179,None,140.2434179,None,,None,None,,None,None,None,None,None,None,None,None,None,None,None,None,None,None,,,,,,,,None,None,None,None,-0.6,3,None,None,None,None,None,None,None,None,None,None,None,None,,None,None,None,None,None,None,None,None,None,None,None,None,None,None,None,None,None,None,None,None,142.4678685,None,,,,,,,,,237,f,22,2023_Mar_21_1515,RL,2021.2.3,59.84515664
0,0,5,0,,,,,,,,,,,,,,,None,None,None,None,None,144.4539558,None,144.4539558,None,144.4539558,None,144.4539558,None,j,0.5154513,144.4539558,None,144.4539558,None,145.0236498,None,145.0236498,None,145.0236498,None,145.0236498,None,145.0236498,None,145.0236498,None,145.3170205,146.9018752,145.3170205,146.9018752,146.9387118,None,146.9387118,None,146.9387118,None,146.9387118,None,146.9387118,None,146.9387118,None,146.9387118,None,146.9387118,None,146.9387118,None,58,52,36,30,30,52,149.4577645,None,2,3.4688765,149.4577645,None,149.4577645,None,149.4577645,None,149.4577645,None,,None,None,,None,None,None,None,None,None,None,None,None,None,None,None,None,None,,,,,,,,None,None,None,None,0.2,2,None,None,None,None,None,None,None,None,None,None,None,None,,None,None,None,None,None,None,None,None,None,None,None,None,None,None,None,None,None,None,None,None,152.9768313,None,,,,,,,,,237,f,22,2023_Mar_21_1515,RL,2021.2.3,59.84515664
1,0,6,0,,,,,,,,,,,,,,,None,None,None,None,None,154.8440311,None,154.8440311,None,154.8440311,None,154.8440311,None,i,0.3056443,154.8440311,None,154.8440311,None,155.1971457,None,155.1971457,None,155.1971457,None,155.1971457,None,155.1971457,None,155.1971457,None,155.4907795,156.9921104,155.4907795,156.9921104,157.0290376,None,157.0290376,None,157.0290376,None,157.0290376,None,157.0290376,None,157.0290376,None,157.0290376,None,157.0290376,None,157.0290376,None,57,54,50,32,50,46,159.5403251,None,4,4.1088532,159.5403251,None,159.5403251,None,159.5403251,None,159.5403251,None,,None,None,,None,None,None,None,None,None,None,None,None,None,None,None,None,None,,,,,,,,None,None,None,None,-0.2,3,None,None,None,None,None,None,None,None,None,None,None,None,,None,None,None,None,None,None,None,None,None,None,None,None,None,None,None,None,None,None,None,None,163.7016065,None,,,,,,,,,237,f,22,2023_Mar_21_1515,RL,2021.2.3,59.84515664
0,0,7,0,,,,,,,,,,,,,,,None,None,None,None,None,165.601119,None,165.601119,None,165.601119,None,165.601119,None,f,0.3285098,165.601119,None,165.601119,None,165.9714629,None,165.9714629,None,165.9714629,None,165.9714629,None,165.9714629,None,165.9714629,None,166.2650319,167.2322415,166.2650319,167.2322415,167.2666899,None,167.2666899,None,167.2666899,None,167.2666899,None,167.2666899,None,167.2666899,None,167.2666899,None,167.2666899,None,167.2666899,None,54,52,35,31,52,54,169.7842672,None,4,3.469718,169.7842672,None,169.7842672,None,169.7842672,None,169.7842672,None,,None,None,,None,None,None,None,None,None,None,None,None,None,None,None,None,None,,,,,,,,None,None,None,None,0.6,2,None,None,None,None,None,None,None,None,None,None,None,None,,None,None,None,None,None,None,None,None,None,None,None,None,None,None,None,None,None,None,None,None,173.3175275,None,,,,,,,,,237,f,22,2023_Mar_21_1515,RL,2021.2.3,59.84515664
1,0,8,0,,,,,,,,,,,,,,,None,None,None,None,None,174.8583763,None,174.8583763,None,174.8583763,None,174.8583763,None,j,0.3012207,174.8583763,None,174.8583763,None,175.2078182,None,175.2078182,None,175.2078182,None,175.2078182,None,175.2078182,None,175.2078182,None,175.5045684,None,175.5045684,None,176.7866248,None,176.7866248,None,176.7866248,None,176.7866248,None,176.7866248,None,176.7866248,None,176.7866248,None,176.7866248,None,176.7866248,None,55,56,45,30,30,66,179.3144381,None,2,1.9692098,179.3144381,None,179.3144381,None,179.3144381,None,179.3144381,None,,None,None,,None,None,None,None,None,None,None,None,None,None,None,None,None,None,,,,,,,,None,None,None,None,-0.2,3,None,None,None,None,None,None,None,None,None,None,None,None,,None,None,None,None,None,None,None,None,None,None,None,None,None,None,None,None,None,None,None,None,181.3399673,None,,,,,,,,,237,f,22,2023_Mar_21_1515,RL,2021.2.3,59.84515664
0,0,9,0,,,,,,,,,,,,,,,None,None,None,None,None,183.1968932,None,183.1968932,None,183.1968932,None,183.1968932,None,f,0.273075,183.1968932,None,183.1968932,None,183.5178016,None,183.5178016,None,183.5178016,None,183.5178016,None,183.5178016,None,183.5178016,None,183.810447,185.42818,183.810447,185.42818,185.4585677,None,185.4585677,None,185.4585677,None,185.4585677,None,185.4585677,None,185.4585677,None,185.4585677,None,185.4585677,None,185.4585677,None,56,50,44,34,50,52,187.9843266,None,5,2.169017,187.9843266,None,187.9843266,None,187.9843266,None,187.9843266,None,,None,None,,None,None,None,None,None,None,None,None,None,None,None,None,None,None,,,,,,,,None,None,None,None,0.2,2,None,None,None,None,None,None,None,None,None,None,None,None,,None,None,None,None,None,None,None,None,None,None,None,None,None,None,None,None,None,None,None,None,190.2035499,None,,,,,,,,,237,f,22,2023_Mar_21_1515,RL,2021.2.3,59.84515664
1,0,10,0,,,,,,,,,,,,,,,None,None,None,None,None,192.0860664,None,192.0860664,None,192.0860664,None,192.0860664,None,r,0.3237144,192.0860664,None,192.0860664,None,192.4572663,None,192.4572663,None,192.4572663,None,192.4572663,None,192.4572663,None,192.4572663,None,192.7499893,None,192.7499893,None,193.8666127,None,193.8666127,None,193.8666127,None,193.8666127,None,193.8666127,None,193.8666127,None,193.8666127,None,193.8666127,None,193.8666127,None,62,51,46,31,62,58,None,None,None,None,None,None,None,None,None,None,None,None,60,196.4015953,None,60,196.4015953,None,196.4015953,None,196.4015953,None,196.4015953,None,196.4015953,None,196.4015953,None,196.4015953,None,-0.009114583,-0.283854167,1,0,0,7.9667233,tijiao,0.00964494,None,196.4015953,None,0.6,0,None,None,None,None,None,None,None,None,None,None,None,None,,None,None,None,None,None,None,None,None,2.940104167,3.1475391,204.4126386,None,204.4126386,None,204.4126386,None,204.4126386,None,None,None,207.591721,None,,,,,,,,,237,f,22,2023_Mar_21_1515,RL,2021.2.3,59.84515664
0,0,11,0,,,,,,,,,,,,,,,None,None,None,None,None,209.3316053,None,209.3316053,None,209.3316053,None,209.3316053,None,r,0.328385,209.3316053,None,209.3316053,None,209.7021061,None,209.7021061,None,209.7021061,None,209.7021061,None,209.7021061,None,209.7021061,None,209.9952629,None,209.9952629,None,211.5991619,None,211.5991619,None,211.5991619,None,211.5991619,None,211.5991619,None,211.5991619,None,211.5991619,None,211.5991619,None,211.5991619,None,57,49,36,31,57,44,214.1150514,None,5,1.8859744,214.1150514,None,214.1150514,None,214.1150514,None,214.1150514,None,,None,None,,None,None,None,None,None,None,None,None,None,None,None,None,None,None,,,,,,,,None,None,None,None,-0.2,2,None,None,None,None,None,None,None,None,None,None,None,None,,None,None,None,None,None,None,None,None,None,None,None,None,None,None,None,None,None,None,None,None,216.0603253,None,,,,,,,,,237,f,22,2023_Mar_21_1515,RL,2021.2.3,59.84515664
1,0,12,0,,,,,,,,,,,,,,,None,None,None,None,None,217.8204694,None,217.8204694,None,217.8204694,None,217.8204694,None,r,0.3693841,217.8204694,None,217.8204694,None,218.24213,None,218.24213,None,218.24213,None,218.24213,None,218.24213,None,218.24213,None,218.5178425,219.4351836,218.5178425,219.4351836,219.4863314,None,219.4863314,None,219.4863314,None,219.4863314,None,219.4863314,None,219.4863314,None,219.4863314,None,219.4863314,None,219.4863314,None,63,48,39,41,63,40,222.0052976,None,6,2.2717406,222.0052976,None,222.0052976,None,222.0052976,None,222.0052976,None,,None,None,,None,None,None,None,None,None,None,None,None,None,None,None,None,None,,,,,,,,None,None,None,None,-0.2,2,None,None,None,None,None,None,None,None,None,None,None,None,,None,None,None,None,None,None,None,None,None,None,None,None,None,None,None,None,None,None,None,None,224.3347859,None,,,,,,,,,237,f,22,2023_Mar_21_1515,RL,2021.2.3,59.84515664
0,0,13,0,,,,,,,,,,,,,,,None,None,None,None,None,226.0597043,None,226.0597043,None,226.0597043,None,226.0597043,None,r,0.3902595,226.0597043,None,226.0597043,None,226.495047,None,226.495047,None,226.495047,None,226.495047,None,226.495047,None,226.495047,None,226.7904178,None,226.7904178,None,227.7904251,None,227.7904251,None,227.7904251,None,227.7904251,None,227.7904251,None,227.7904251,None,227.7904251,None,227.7904251,None,227.7904251,None,62,51,37,43,62,54,None,None,None,None,None,None,None,None,None,None,None,None,,None,None,,None,None,None,None,None,None,None,None,None,None,None,None,None,None,,,,,,,,None,None,None,None,0.2,1,230.336233,None,230.336233,None,230.336233,None,230.336233,None,230.336233,None,230.336233,None,38,230.336233,None,230.336233,None,0.01426342,None,230.336233,None,6.794270833,4.5948194,237.6878668,None,237.6878668,None,237.6878668,None,237.6878668,None,None,None,242.3158724,None,-0.026041667,-0.255208333,1,0,0,7.3203931,tijiao_random_2,,237,f,22,2023_Mar_21_1515,RL,2021.2.3,59.84515664
1,0,14,0,,,,,,,,,,,,,,,None,None,None,None,None,244.1886326,None,244.1886326,None,244.1886326,None,244.1886326,None,r,0.3213791,244.1886326,None,244.1886326,None,244.5561575,None,244.5561575,None,244.5561575,None,244.5561575,None,244.5561575,None,244.5561575,None,244.8530206,None,244.8530206,None,245.9360803,None,245.9360803,None,245.9360803,None,245.9360803,None,245.9360803,None,245.9360803,None,245.9360803,None,245.9360803,None,245.9360803,None,69,44,55,38,69,50,248.4520381,None,5,4.0744133,248.4520381,None,248.4520381,None,248.4520381,None,248.4520381,None,,None,None,,None,None,None,None,None,None,None,None,None,None,None,None,None,None,,,,,,,,None,None,None,None,0.2,3,None,None,None,None,None,None,None,None,None,None,None,None,,None,None,None,None,None,None,None,None,None,None,None,None,None,None,None,None,None,None,None,None,252.5849505,None,,,,,,,,,237,f,22,2023_Mar_21_1515,RL,2021.2.3,59.84515664
0,0,15,0,,,,,,,,,,,,,,,None,None,None,None,None,254.2290459,None,254.2290459,None,254.2290459,None,254.2290459,None,f,0.7011204,254.2290459,None,254.2290459,None,254.9852434,None,254.9852434,None,254.9852434,None,254.9852434,None,254.9852434,None,254.9852434,None,255.2766841,256.7615006,255.2766841,256.7615006,256.7958918,None,256.7958918,None,256.7958918,None,256.7958918,None,256.7958918,None,256.7958918,None,256.7958918,None,256.7958918,None,256.7958918,None,66,46,54,41,46,54,259.3137099,None,3,2.7890481,259.3137099,None,259.3137099,None,259.3137099,None,259.3137099,None,,None,None,,None,None,None,None,None,None,None,None,None,None,None,None,None,None,,,,,,,,None,None,None,None,-0.6,3,None,None,None,None,None,None,None,None,None,None,None,None,,None,None,None,None,None,None,None,None,None,None,None,None,None,None,None,None,None,None,None,None,262.1591736,None,,,,,,,,,237,f,22,2023_Mar_21_1515,RL,2021.2.3,59.84515664
1,0,16,0,,,,,,,,,,,,,,,None,None,None,None,None,263.9037968,None,263.9037968,None,263.9037968,None,263.9037968,None,f,0.3279142,263.9037968,None,263.9037968,None,264.2708895,None,264.2708895,None,264.2708895,None,264.2708895,None,264.2708895,None,264.2708895,None,264.5665824,None,264.5665824,None,266.4323033,None,266.4323033,None,266.4323033,None,266.4323033,None,266.4323033,None,266.4323033,None,266.4323033,None,266.4323033,None,266.4323033,None,69,44,54,46,44,34,268.9564802,None,4,2.3843397,268.9564802,None,268.9564802,None,268.9564802,None,268.9564802,None,,None,None,,None,None,None,None,None,None,None,None,None,None,None,None,None,None,,,,,,,,None,None,None,None,-0.2,2,None,None,None,None,None,None,None,None,None,None,None,None,,None,None,None,None,None,None,None,None,None,None,None,None,None,None,None,None,None,None,None,None,271.4025339,None,,,,,,,,,237,f,22,2023_Mar_21_1515,RL,2021.2.3,59.84515664
0,0,17,0,,,,,,,,,,,,,,,None,None,None,None,None,272.9423943,None,272.9423943,None,272.9423943,None,272.9423943,None,i,0.3189194,272.9423943,None,272.9423943,None,273.3099566,None,273.3099566,None,273.3099566,None,273.3099566,None,273.3099566,None,273.3099566,None,273.6061488,None,273.6061488,None,275.1698288,None,275.1698288,None,275.1698288,None,275.1698288,None,275.1698288,None,275.1698288,None,275.1698288,None,275.1698288,None,275.1698288,None,66,48,54,40,54,55,None,None,None,None,None,None,None,None,None,None,None,None,,None,None,,None,None,None,None,None,None,None,None,None,None,None,None,None,None,,,,,,,,None,None,None,None,-0.6,1,277.7133281,None,277.7133281,None,277.7133281,None,277.7133281,None,277.7133281,None,277.7133281,None,66,277.7133281,None,277.7133281,None,0.00448434,None,277.7133281,None,4.893229167,2.9305477,287.7222815,None,287.7222815,None,287.7222815,None,287.7222815,None,None,None,290.6673737,None,0.022135417,-0.294270833,1,0,0,9.9789228,tijiao_random_2,,237,f,22,2023_Mar_21_1515,RL,2021.2.3,59.84515664
1,0,18,0,,,,,,,,,,,,,,,None,None,None,None,None,292.2391558,None,292.2391558,None,292.2391558,None,292.2391558,None,i,0.3122539,292.2391558,None,292.2391558,None,292.5899707,None,292.5899707,None,292.5899707,None,292.5899707,None,292.5899707,None,292.5899707,None,292.8860384,None,292.8860384,None,294.2533617,None,294.2533617,None,294.2533617,None,294.2533617,None,294.2533617,None,294.2533617,None,294.2533617,None,294.2533617,None,294.2533617,None,67,44,52,43,52,61,None,None,None,None,None,None,None,None,None,None,None,None,58,296.7847033,None,58,296.7847033,None,296.7847033,None,296.7847033,None,296.7847033,None,296.7847033,None,296.7847033,None,296.7847033,None,0.061197917,-0.305989583,1,0,0,14.2391544,tijiao,0.01207504,None,296.7847033,None,0.6,0,None,None,None,None,None,None,None,None,None,None,None,None,,None,None,None,None,None,None,None,None,3.903645833,1.8686129,311.0702284,None,311.0702284,None,311.0702284,None,311.0702284,None,None,None,312.9667214,None,,,,,,,,,237,f,22,2023_Mar_21_1515,RL,2021.2.3,59.84515664
0,0,19,0,,,,,,,,,,,,,,,None,None,None,None,None,314.4876885,None,314.4876885,None,314.4876885,None,314.4876885,None,j,0.3038478,314.4876885,None,314.4876885,None,314.8407984,None,314.8407984,None,314.8407984,None,314.8407984,None,314.8407984,None,314.8407984,None,315.1349797,None,315.1349797,None,317.1323868,None,317.1323868,None,317.1323868,None,317.1323868,None,317.1323868,None,317.1323868,None,317.1323868,None,317.1323868,None,317.1323868,None,61,53,57,54,54,58,None,None,None,None,None,None,None,None,None,None,None,None,,None,None,,None,None,None,None,None,None,None,None,None,None,None,None,None,None,,,,,,,,None,None,None,None,0.6,1,319.6846319,None,319.6846319,None,319.6846319,None,319.6846319,None,319.6846319,None,319.6846319,None,54,319.6846319,None,319.6846319,None,0.01087672,None,319.6846319,None,3.018229167,1.8316802,329.6681318,None,329.6681318,None,329.6681318,None,329.6681318,None,None,None,331.5274919,None,-0.053385417,-0.231770833,1,0,0,8.2507731,tijiao_random_2,,237,f,22,2023_Mar_21_1515,RL,2021.2.3,59.84515664
1,0,20,0,,,,,,,,,,,,,,,None,None,None,None,None,333.518365,None,333.518365,None,333.518365,None,333.518365,None,r,0.2934362,333.518365,None,333.518365,None,333.8530105,None,333.8530105,None,333.8530105,None,333.8530105,None,333.8530105,None,333.8530105,None,334.1481047,335.8326538,334.1481047,335.8326538,335.8646852,None,335.8646852,None,335.8646852,None,335.8646852,None,335.8646852,None,335.8646852,None,335.8646852,None,335.8646852,None,335.8646852,None,65,42,53,48,65,32,None,None,None,None,None,None,None,None,None,None,None,None,62,338.4015484,None,62,338.4015484,None,338.4015484,None,338.4015484,None,338.4015484,None,338.4015484,None,338.4015484,None,338.4015484,None,0.049479167,-0.268229167,1,0,0,14.8874385,tijiao,0.00870794,None,338.4015484,None,-0.2,0,None,None,None,None,None,None,None,None,None,None,None,None,,None,None,None,None,None,None,None,None,4.919270833,2.8971286,353.3366934,None,353.3366934,None,353.3366934,None,353.3366934,None,None,None,356.2542594,None,,,,,,,,,237,f,22,2023_Mar_21_1515,RL,2021.2.3,59.84515664
0,0,21,0,,,,,,,,,,,,,,,None,None,None,None,None,357.7847208,None,357.7847208,None,357.7847208,None,357.7847208,None,f,0.6270932,357.7847208,None,357.7847208,None,358.4646096,None,358.4646096,None,358.4646096,None,358.4646096,None,358.4646096,None,358.4646096,None,358.7485256,360.3823679,358.7485256,360.3823679,360.3998411,None,360.3998411,None,360.3998411,None,360.3998411,None,360.3998411,None,360.3998411,None,360.3998411,None,360.3998411,None,360.3998411,None,66,51,51,47,51,48,None,None,None,None,None,None,None,None,None,None,None,None,,None,None,,None,None,None,None,None,None,None,None,None,None,None,None,None,None,,,,,,,,None,None,None,None,-0.2,1,362.9342757,None,362.9342757,None,362.9342757,None,362.9342757,None,362.9342757,None,362.9342757,None,45,362.9342757,None,362.9342757,None,0.00774364,None,362.9342757,None,3.083333333,1.471563,369.2876985,None,369.2876985,None,369.2876985,None,369.2876985,None,None,None,370.7879515,None,-0.0078125,-0.28125,1,0,0,6.3293603,tijiao_random_2,,237,f,22,2023_Mar_21_1515,RL,2021.2.3,59.84515664
1,0,22,0,,,,,,,,,,,,,,,None,None,None,None,None,372.5740211,None,372.5740211,None,372.5740211,None,372.5740211,None,r,0.3377674,372.5740211,None,372.5740211,None,372.9508382,None,372.9508382,None,372.9508382,None,372.9508382,None,372.9508382,None,372.9508382,None,373.2412721,374.7259202,373.2412721,374.7259202,374.7454461,None,374.7454461,None,374.7454461,None,374.7454461,None,374.7454461,None,374.7454461,None,374.7454461,None,374.7454461,None,374.7454461,None,65,51,53,42,65,34,None,None,None,None,None,None,None,None,None,None,None,None,,None,None,,None,None,None,None,None,None,None,None,None,None,None,None,None,None,,,,,,,,None,None,None,None,0.6,1,377.2916401,None,377.2916401,None,377.2916401,None,377.2916401,None,377.2916401,None,377.2916401,None,58,377.2916401,None,377.2916401,None,0.01069834,None,377.2916401,None,4.815104167,2.5009796,395.495683,None,395.495683,None,395.495683,None,395.495683,None,None,None,398.0238166,None,0.147135417,-0.299479167,1,0,0,18.1751531,tijiao_random_2,,237,f,22,2023_Mar_21_1515,RL,2021.2.3,59.84515664
0,0,23,0,,,,,,,,,,,,,,,None,None,None,None,None,399.8136706,None,399.8136706,None,399.8136706,None,399.8136706,None,i,0.2684875,399.8136706,None,399.8136706,None,400.1301504,None,400.1301504,None,400.1301504,None,400.1301504,None,400.1301504,None,400.1301504,None,400.4276454,402.328864,400.4276454,402.328864,402.3602394,None,402.3602394,None,402.3602394,None,402.3602394,None,402.3602394,None,402.3602394,None,402.3602394,None,402.3602394,None,402.3602394,None,66,38,50,43,50,40,None,None,None,None,None,None,None,None,None,None,None,None,,None,None,,None,None,None,None,None,None,None,None,None,None,None,None,None,None,,,,,,,,None,None,None,None,0.6,1,404.9114134,None,404.9114134,None,404.9114134,None,404.9114134,None,404.9114134,None,404.9114134,None,58,404.9114134,None,404.9114134,None,0.01040092,None,404.9114134,None,4.958333333,2.1271487,413.4740114,None,413.4740114,None,413.4740114,None,413.4740114,None,None,None,415.6359546,None,-0.03125,-0.264322917,1,0,0,8.5336214,tijiao_random_2,,237,f,22,2023_Mar_21_1515,RL,2021.2.3,59.84515664
1,0,24,0,,,,,,,,,,,,,,,None,None,None,None,None,417.5587249,None,417.5587249,None,417.5587249,None,417.5587249,None,r,0.2636149,417.5587249,None,417.5587249,None,417.8601243,None,417.8601243,None,417.8601243,None,417.8601243,None,417.8601243,None,417.8601243,None,418.156396,None,418.156396,None,419.441028,None,419.441028,None,419.441028,None,419.441028,None,419.441028,None,419.441028,None,419.441028,None,419.441028,None,419.441028,None,70,47,58,51,70,63,421.9572639,None,6,2.5564355,421.9572639,None,421.9572639,None,421.9572639,None,421.9572639,None,,None,None,,None,None,None,None,None,None,None,None,None,None,None,None,None,None,,,,,,,,None,None,None,None,-0.6,3,None,None,None,None,None,None,None,None,None,None,None,None,,None,None,None,None,None,None,None,None,None,None,None,None,None,None,None,None,None,None,None,None,424.5839031,None,,,,,,,,,237,f,22,2023_Mar_21_1515,RL,2021.2.3,59.84515664
0,0,25,0,,,,,,,,,,,,,,,None,None,None,None,None,426.4989818,None,426.4989818,None,426.4989818,None,426.4989818,None,r,0.3434156,426.4989818,None,426.4989818,None,426.8856819,None,426.8856819,None,426.8856819,None,426.8856819,None,426.8856819,None,426.8856819,None,427.1793273,428.0634011,427.1793273,428.0634011,428.0968385,None,428.0968385,None,428.0968385,None,428.0968385,None,428.0968385,None,428.0968385,None,428.0968385,None,428.0968385,None,428.0968385,None,63,46,46,59,63,61,None,None,None,None,None,None,None,None,None,None,None,None,68,430.6243349,None,68,430.6243349,None,430.6243349,None,430.6243349,None,430.6243349,None,430.6243349,None,430.6243349,None,430.6243349,None,-0.001302083,-0.3046875,1,0,0,11.3078152,tijiao,1.06E-05,None,430.6243349,None,0.2,0,None,None,None,None,None,None,None,None,None,None,None,None,,None,None,None,None,None,None,None,None,6.013020833,2.6745123,441.96901,None,441.96901,None,441.96901,None,441.96901,None,None,None,444.6577287,None,,,,,,,,,237,f,22,2023_Mar_21_1515,RL,2021.2.3,59.84515664
1,0,26,0,,,,,,,,,,,,,,,None,None,None,None,None,446.6638045,None,446.6638045,None,446.6638045,None,446.6638045,None,i,0.2698353,446.6638045,None,446.6638045,None,446.9829184,None,446.9829184,None,446.9829184,None,446.9829184,None,446.9829184,None,446.9829184,None,447.2767661,None,447.2767661,None,449.1564569,None,449.1564569,None,449.1564569,None,449.1564569,None,449.1564569,None,449.1564569,None,449.1564569,None,449.1564569,None,449.1564569,None,59,50,54,48,54,60,None,None,None,None,None,None,None,None,None,None,None,None,56,451.6899675,None,56,451.6899675,None,451.6899675,None,451.6899675,None,451.6899675,None,451.6899675,None,451.6899675,None,451.6899675,None,0.006510417,-0.296875,1,0,0,15.4088672,tijiao,0.01434194,None,451.6899675,None,-0.2,0,None,None,None,None,None,None,None,None,None,None,None,None,,None,None,None,None,None,None,None,None,5.010416667,1.8134999,467.1491572,None,467.1491572,None,467.1491572,None,467.1491572,None,None,None,468.9930353,None,,,,,,,,,237,f,22,2023_Mar_21_1515,RL,2021.2.3,59.84515664
0,0,27,0,,,,,,,,,,,,,,,None,None,None,None,None,470.7473306,None,470.7473306,None,470.7473306,None,470.7473306,None,i,0.3066414,470.7473306,None,470.7473306,None,471.0998855,None,471.0998855,None,471.0998855,None,471.0998855,None,471.0998855,None,471.0998855,None,471.393586,None,471.393586,None,472.5935117,None,472.5935117,None,472.5935117,None,472.5935117,None,472.5935117,None,472.5935117,None,472.5935117,None,472.5935117,None,472.5935117,None,61,44,48,46,48,59,475.1095898,None,3,2.5569545,475.1095898,None,475.1095898,None,475.1095898,None,475.1095898,None,,None,None,,None,None,None,None,None,None,None,None,None,None,None,None,None,None,,,,,,,,None,None,None,None,0.6,2,None,None,None,None,None,None,None,None,None,None,None,None,,None,None,None,None,None,None,None,None,None,None,None,None,None,None,None,None,None,None,None,None,477.7305617,None,,,,,,,,,237,f,22,2023_Mar_21_1515,RL,2021.2.3,59.84515664
1,0,28,0,,,,,,,,,,,,,,,None,None,None,None,None,479.6870128,None,479.6870128,None,479.6870128,None,479.6870128,None,i,0.2769332,479.6870128,None,479.6870128,None,480.0042897,None,480.0042897,None,480.0042897,None,480.0042897,None,480.0042897,None,480.0042897,None,480.299605,None,480.299605,None,481.2984417,None,481.2984417,None,481.2984417,None,481.2984417,None,481.2984417,None,481.2984417,None,481.2984417,None,481.2984417,None,481.2984417,None,59,48,55,61,55,25,483.8243632,None,4,2.9349351,483.8243632,None,483.8243632,None,483.8243632,None,483.8243632,None,,None,None,,None,None,None,None,None,None,None,None,None,None,None,None,None,None,,,,,,,,None,None,None,None,-0.6,3,None,None,None,None,None,None,None,None,None,None,None,None,,None,None,None,None,None,None,None,None,None,None,None,None,None,None,None,None,None,None,None,None,486.8053015,None,,,,,,,,,237,f,22,2023_Mar_21_1515,RL,2021.2.3,59.84515664
0,0,29,0,,,,,,,,,,,,,,,None,None,None,None,None,488.4586777,None,488.4586777,None,488.4586777,None,488.4586777,None,j,0.3252089,488.4586777,None,488.4586777,None,488.8288877,None,488.8288877,None,488.8288877,None,488.8288877,None,488.8288877,None,488.8288877,None,489.1224548,None,489.1224548,None,490.4215803,None,490.4215803,None,490.4215803,None,490.4215803,None,490.4215803,None,490.4215803,None,490.4215803,None,490.4215803,None,490.4215803,None,65,46,58,55,55,26,492.9396088,None,5,1.9385282,492.9396088,None,492.9396088,None,492.9396088,None,492.9396088,None,,None,None,,None,None,None,None,None,None,None,None,None,None,None,None,None,None,,,,,,,,None,None,None,None,0.6,2,None,None,None,None,None,None,None,None,None,None,None,None,,None,None,None,None,None,None,None,None,None,None,None,None,None,None,None,None,None,None,None,None,494.9283318,None,,,,,,,,,237,f,22,2023_Mar_21_1515,RL,2021.2.3,59.84515664
1,0,30,0,,,,,,,,,,,,,,,None,None,None,None,None,496.5824665,None,496.5824665,None,496.5824665,None,496.5824665,None,f,0.2813305,496.5824665,None,496.5824665,None,496.915031,None,496.915031,None,496.915031,None,496.915031,None,496.915031,None,496.915031,None,497.2113721,None,497.2113721,None,499.0336415,None,499.0336415,None,499.0336415,None,499.0336415,None,499.0336415,None,499.0336415,None,499.0336415,None,499.0336415,None,499.0336415,None,60,42,42,59,42,27,None,None,None,None,None,None,None,None,None,None,None,None,46,501.5789482,None,46,501.5789482,None,501.5789482,None,501.5789482,None,501.5789482,None,501.5789482,None,501.5789482,None,501.5789482,None,0.01171875,-0.263020833,1,0,0,6.0660113,tijiao,0.01054424,None,501.5789482,None,0.2,0,None,None,None,None,None,None,None,None,None,None,None,None,,None,None,None,None,None,None,None,None,7.927083333,1.7427709,507.6919965,None,507.6919965,None,507.6919965,None,507.6919965,None,None,None,509.4514087,None,,,,,,,,,237,f,22,2023_Mar_21_1515,RL,2021.2.3,59.84515664
0,0,31,0,,,,,,,,,,,,,,,None,None,None,None,None,511.1075241,None,511.1075241,None,511.1075241,None,511.1075241,None,i,0.2964421,511.1075241,None,511.1075241,None,511.4441092,None,511.4441092,None,511.4441092,None,511.4441092,None,511.4441092,None,511.4441092,None,511.7380954,None,511.7380954,None,513.2699012,None,513.2699012,None,513.2699012,None,513.2699012,None,513.2699012,None,513.2699012,None,513.2699012,None,513.2699012,None,513.2699012,None,53,45,49,62,49,33,515.7866132,None,4,5.877402,515.7866132,None,515.7866132,None,515.7866132,None,515.7866132,None,,None,None,,None,None,None,None,None,None,None,None,None,None,None,None,None,None,,,,,,,,None,None,None,None,-0.2,3,None,None,None,None,None,None,None,None,None,None,None,None,,None,None,None,None,None,None,None,None,None,None,None,None,None,None,None,None,None,None,None,None,521.7265257,None,,,,,,,,,237,f,22,2023_Mar_21_1515,RL,2021.2.3,59.84515664
1,0,32,0,,,,,,,,,,,,,,,None,None,None,None,None,523.7341511,None,523.7341511,None,523.7341511,None,523.7341511,None,j,0.2898039,523.7341511,None,523.7341511,None,524.06813,None,524.06813,None,524.06813,None,524.06813,None,524.06813,None,524.06813,None,524.3635411,None,524.3635411,None,525.2612009,None,525.2612009,None,525.2612009,None,525.2612009,None,525.2612009,None,525.2612009,None,525.2612009,None,525.2612009,None,525.2612009,None,51,42,52,62,62,29,None,None,None,None,None,None,None,None,None,None,None,None,,None,None,,None,None,None,None,None,None,None,None,None,None,None,None,None,None,,,,,,,,None,None,None,None,-0.2,1,527.810936,None,527.810936,None,527.810936,None,527.810936,None,527.810936,None,527.810936,None,42,527.810936,None,527.810936,None,0.01281352,None,527.810936,None,6.052083333,1.3583327,537.4159999,None,537.4159999,None,537.4159999,None,537.4159999,None,None,None,538.7897382,None,-0.024739583,-0.28515625,1,0,0,9.5704564,tijiao_random_2,,237,f,22,2023_Mar_21_1515,RL,2021.2.3,59.84515664
0,0,33,0,,,,,,,,,,,,,,,None,None,None,None,None,540.5785625,None,540.5785625,None,540.5785625,None,540.5785625,None,r,0.3157516,540.5785625,None,540.5785625,None,540.9461896,None,540.9461896,None,540.9461896,None,540.9461896,None,540.9461896,None,540.9461896,None,541.2420759,None,541.2420759,None,542.0884661,None,542.0884661,None,542.0884661,None,542.0884661,None,542.0884661,None,542.0884661,None,542.0884661,None,542.0884661,None,542.0884661,None,61,42,46,66,61,49,None,None,None,None,None,None,None,None,None,None,None,None,68,544.6262686,None,68,544.6262686,None,544.6262686,None,544.6262686,None,544.6262686,None,544.6262686,None,544.6262686,None,544.6262686,None,-0.046875,-0.29296875,1,0,0,6.3827713,tijiao,0.01061404,None,544.6262686,None,0.2,0,None,None,None,None,None,None,None,None,None,None,None,None,,None,None,None,None,None,None,None,None,7.041666667,1.9311444,551.0556452,None,551.0556452,None,551.0556452,None,551.0556452,None,None,None,553.01479,None,,,,,,,,,237,f,22,2023_Mar_21_1515,RL,2021.2.3,59.84515664
1,0,34,0,,,,,,,,,,,,,,,None,None,None,None,None,554.6211506,None,554.6211506,None,554.6211506,None,554.6211506,None,j,0.2731685,554.6211506,None,554.6211506,None,554.9415246,None,554.9415246,None,554.9415246,None,554.9415246,None,554.9415246,None,554.9415246,None,555.2350101,556.05228,555.2350101,556.05228,556.0836227,None,556.0836227,None,556.0836227,None,556.0836227,None,556.0836227,None,556.0836227,None,556.0836227,None,556.0836227,None,556.0836227,None,58,43,41,62,62,50,None,None,None,None,None,None,None,None,None,None,None,None,58,558.6170298,None,58,558.6170298,None,558.6170298,None,558.6170298,None,558.6170298,None,558.6170298,None,558.6170298,None,558.6170298,None,0.0078125,-0.235677083,1,0,0,4.7332186,tijiao,0.01219424,None,558.6170298,None,0.6,0,None,None,None,None,None,None,None,None,None,None,None,None,,None,None,None,None,None,None,None,None,5.9609375,3.9385937,566.2978986,None,566.2978986,None,566.2978986,None,566.2978986,None,None,None,570.2550843,None,,,,,,,,,237,f,22,2023_Mar_21_1515,RL,2021.2.3,59.84515664
0,0,35,0,,,,,,,,,,,,,,,None,None,None,None,None,572.1332695,None,572.1332695,None,572.1332695,None,572.1332695,None,r,0.2912944,572.1332695,None,572.1332695,None,572.4714388,None,572.4714388,None,572.4714388,None,572.4714388,None,572.4714388,None,572.4714388,None,572.7639187,574.164782,572.7639187,574.164782,574.1956402,None,574.1956402,None,574.1956402,None,574.1956402,None,574.1956402,None,574.1956402,None,574.1956402,None,574.1956402,None,574.1956402,None,48,43,42,57,48,59,576.7218759,None,2,2.3333596,576.7218759,None,576.7218759,None,576.7218759,None,576.7218759,None,,None,None,,None,None,None,None,None,None,None,None,None,None,None,None,None,None,,,,,,,,None,None,None,None,-0.6,2,None,None,None,None,None,None,None,None,None,None,None,None,,None,None,None,None,None,None,None,None,None,None,None,None,None,None,None,None,None,None,None,None,579.1413066,None,,,,,,,,,237,f,22,2023_Mar_21_1515,RL,2021.2.3,59.84515664
1,0,36,0,,,,,,,,,,,,,,,None,None,None,None,None,581.0062486,None,581.0062486,None,581.0062486,None,581.0062486,None,i,0.328758,581.0062486,None,581.0062486,None,581.3764642,None,581.3764642,None,581.3764642,None,581.3764642,None,581.3764642,None,581.3764642,None,581.670062,None,581.670062,None,583.286326,None,583.286326,None,583.286326,None,583.286326,None,583.286326,None,583.286326,None,583.286326,None,583.286326,None,583.286326,None,43,39,41,61,41,40,585.8031876,None,2,1.9715329,585.8031876,None,585.8031876,None,585.8031876,None,585.8031876,None,,None,None,,None,None,None,None,None,None,None,None,None,None,None,None,None,None,,,,,,,,None,None,None,None,-0.2,2,None,None,None,None,None,None,None,None,None,None,None,None,,None,None,None,None,None,None,None,None,None,None,None,None,None,None,None,None,None,None,None,None,587.8295795,None,,,,,,,,,237,f,22,2023_Mar_21_1515,RL,2021.2.3,59.84515664
0,0,37,0,,,,,,,,,,,,,,,None,None,None,None,None,589.8133831,None,589.8133831,None,589.8133831,None,589.8133831,None,f,0.4713493,589.8133831,None,589.8133831,None,590.3328159,None,590.3328159,None,590.3328159,None,590.3328159,None,590.3328159,None,590.3328159,None,590.6263658,None,590.6263658,None,591.6803734,None,591.6803734,None,591.6803734,None,591.6803734,None,591.6803734,None,591.6803734,None,591.6803734,None,591.6803734,None,591.6803734,None,50,43,40,53,43,62,None,None,None,None,None,None,None,None,None,None,None,None,38,594.2135995,None,38,594.2135995,None,594.2135995,None,594.2135995,None,594.2135995,None,594.2135995,None,594.2135995,None,594.2135995,None,0.005208333,-0.248697917,1,0,0,5.8794934,tijiao,0.00784164,None,594.2135995,None,0.2,0,None,None,None,None,None,None,None,None,None,None,None,None,,None,None,None,None,None,None,None,None,4.033854167,2.2141857,601.9352626,None,601.9352626,None,601.9352626,None,601.9352626,None,None,None,604.1667962,None,,,,,,,,,237,f,22,2023_Mar_21_1515,RL,2021.2.3,59.84515664
1,0,38,0,,,,,,,,,,,,,,,None,None,None,None,None,605.8232251,None,605.8232251,None,605.8232251,None,605.8232251,None,r,0.2728256,605.8232251,None,605.8232251,None,606.1434871,None,606.1434871,None,606.1434871,None,606.1434871,None,606.1434871,None,606.1434871,None,606.437563,608.1219864,606.437563,608.1219864,608.1547209,None,608.1547209,None,608.1547209,None,608.1547209,None,608.1547209,None,608.1547209,None,608.1547209,None,608.1547209,None,608.1547209,None,54,49,45,61,54,59,610.6756809,None,3,1.8023785,610.6756809,None,610.6756809,None,610.6756809,None,610.6756809,None,,None,None,,None,None,None,None,None,None,None,None,None,None,None,None,None,None,,,,,,,,None,None,None,None,0.2,3,None,None,None,None,None,None,None,None,None,None,None,None,,None,None,None,None,None,None,None,None,None,None,None,None,None,None,None,None,None,None,None,None,612.544974,None,,,,,,,,,237,f,22,2023_Mar_21_1515,RL,2021.2.3,59.84515664
0,0,39,0,,,,,,,,,,,,,,,None,None,None,None,None,614.1959525,None,614.1959525,None,614.1959525,None,614.1959525,None,j,0.2896989,614.1959525,None,614.1959525,None,614.5327777,None,614.5327777,None,614.5327777,None,614.5327777,None,614.5327777,None,614.5327777,None,614.8263973,None,614.8263973,None,616.4582924,None,616.4582924,None,616.4582924,None,616.4582924,None,616.4582924,None,616.4582924,None,616.4582924,None,616.4582924,None,616.4582924,None,46,51,40,61,61,70,None,None,None,None,None,None,None,None,None,None,None,None,63,618.9882939,None,63,618.9882939,None,618.9882939,None,618.9882939,None,618.9882939,None,618.9882939,None,618.9882939,None,618.9882939,None,-0.03515625,-0.229166667,1,0,0,7.6223539,tijiao,0.01641944,None,618.9882939,None,0.6,0,None,None,None,None,None,None,None,None,None,None,None,None,,None,None,None,None,None,None,None,None,5.088541667,1.8002811,628.2890074,None,628.2890074,None,628.2890074,None,628.2890074,None,None,None,630.1182351,None,,,,,,,,,237,f,22,2023_Mar_21_1515,RL,2021.2.3,59.84515664
1,0,40,0,,,,,,,,,,,,,,,None,None,None,None,None,631.7589489,None,631.7589489,None,631.7589489,None,631.7589489,None,j,0.2568823,631.7589489,None,631.7589489,None,632.0626307,None,632.0626307,None,632.0626307,None,632.0626307,None,632.0626307,None,632.0626307,None,632.338658,633.5895322,632.338658,633.5895322,633.6371376,None,633.6371376,None,633.6371376,None,633.6371376,None,633.6371376,None,633.6371376,None,633.6371376,None,633.6371376,None,633.6371376,None,56,46,34,59,59,65,636.1646418,None,5,3.3003193,636.1646418,None,636.1646418,None,636.1646418,None,636.1646418,None,,None,None,,None,None,None,None,None,None,None,None,None,None,None,None,None,None,,,,,,,,None,None,None,None,0.2,2,None,None,None,None,None,None,None,None,None,None,None,None,,None,None,None,None,None,None,None,None,None,None,None,None,None,None,None,None,None,None,None,None,639.5382661,None,,,,,,,,,237,f,22,2023_Mar_21_1515,RL,2021.2.3,59.84515664
0,0,41,0,,,,,,,,,,,,,,,None,None,None,None,None,641.1316826,None,641.1316826,None,641.1316826,None,641.1316826,None,i,0.2941453,641.1316826,None,641.1316826,None,641.468942,None,641.468942,None,641.468942,None,641.468942,None,641.468942,None,641.468942,None,641.7618656,None,641.7618656,None,643.2921118,None,643.2921118,None,643.2921118,None,643.2921118,None,643.2921118,None,643.2921118,None,643.2921118,None,643.2921118,None,643.2921118,None,48,52,42,56,42,56,645.8192969,None,4,3.2854377,645.8192969,None,645.8192969,None,645.8192969,None,645.8192969,None,,None,None,,None,None,None,None,None,None,None,None,None,None,None,None,None,None,,,,,,,,None,None,None,None,-0.2,3,None,None,None,None,None,None,None,None,None,None,None,None,,None,None,None,None,None,None,None,None,None,None,None,None,None,None,None,None,None,None,None,None,649.1512462,None,,,,,,,,,237,f,22,2023_Mar_21_1515,RL,2021.2.3,59.84515664
1,0,42,0,,,,,,,,,,,,,,,None,None,None,None,None,651.021389,None,651.021389,None,651.021389,None,651.021389,None,j,0.5050443,651.021389,None,651.021389,None,651.574013,None,651.574013,None,651.574013,None,651.574013,None,651.574013,None,651.574013,None,651.8686984,None,651.8686984,None,652.8831314,None,652.8831314,None,652.8831314,None,652.8831314,None,652.8831314,None,652.8831314,None,652.8831314,None,652.8831314,None,652.8831314,None,45,54,42,58,58,60,655.4006642,None,5,2.3576801,655.4006642,None,655.4006642,None,655.4006642,None,655.4006642,None,,None,None,,None,None,None,None,None,None,None,None,None,None,None,None,None,None,,,,,,,,None,None,None,None,0.2,2,None,None,None,None,None,None,None,None,None,None,None,None,,None,None,None,None,None,None,None,None,None,None,None,None,None,None,None,None,None,None,None,None,657.8228237,None,,,,,,,,,237,f,22,2023_Mar_21_1515,RL,2021.2.3,59.84515664
0,0,43,0,,,,,,,,,,,,,,,None,None,None,None,None,659.6943581,None,659.6943581,None,659.6943581,None,659.6943581,None,f,0.2417921,659.6943581,None,659.6943581,None,659.9798328,None,659.9798328,None,659.9798328,None,659.9798328,None,659.9798328,None,659.9798328,None,660.2746275,None,660.2746275,None,661.6108398,None,661.6108398,None,661.6108398,None,661.6108398,None,661.6108398,None,661.6108398,None,661.6108398,None,661.6108398,None,661.6108398,None,41,58,43,58,58,45,None,None,None,None,None,None,None,None,None,None,None,None,,None,None,,None,None,None,None,None,None,None,None,None,None,None,None,None,None,,,,,,,,None,None,None,None,0.6,1,664.1607559,None,664.1607559,None,664.1607559,None,664.1607559,None,664.1607559,None,664.1607559,None,60,664.1607559,None,664.1607559,None,0.00905962,None,664.1607559,None,5.049479167,2.0937668,671.1303461,None,671.1303461,None,671.1303461,None,671.1303461,None,None,None,673.2524121,None,0.08984375,-0.255208333,1,0,0,6.9314961,tijiao_random_2,,237,f,22,2023_Mar_21_1515,RL,2021.2.3,59.84515664
1,0,44,0,,,,,,,,,,,,,,,None,None,None,None,None,675.004601,None,675.004601,None,675.004601,None,675.004601,None,r,0.7014356,675.004601,None,675.004601,None,675.7554579,None,675.7554579,None,675.7554579,None,675.7554579,None,675.7554579,None,675.7554579,None,676.052308,677.1028988,676.052308,677.1028988,677.139736,None,677.139736,None,677.139736,None,677.139736,None,677.139736,None,677.139736,None,677.139736,None,677.139736,None,677.139736,None,48,56,48,61,48,28,679.6604641,None,4,1.7001393,679.6604641,None,679.6604641,None,679.6604641,None,679.6604641,None,,None,None,,None,None,None,None,None,None,None,None,None,None,None,None,None,None,,,,,,,,None,None,None,None,-0.6,3,None,None,None,None,None,None,None,None,None,None,None,None,,None,None,None,None,None,None,None,None,None,None,None,None,None,None,None,None,None,None,None,None,681.4136878,None,,,,,,,,,237,f,22,2023_Mar_21_1515,RL,2021.2.3,59.84515664
0,0,45,0,,,,,,,,,,,,,,,None,None,None,None,None,683.3280087,None,683.3280087,None,683.3280087,None,683.3280087,None,j,0.2681367,683.3280087,None,683.3280087,None,683.6447383,None,683.6447383,None,683.6447383,None,683.6447383,None,683.6447383,None,683.6447383,None,683.9411684,None,683.9411684,None,685.8068153,None,685.8068153,None,685.8068153,None,685.8068153,None,685.8068153,None,685.8068153,None,685.8068153,None,685.8068153,None,685.8068153,None,33,56,44,72,72,49,None,None,None,None,None,None,None,None,None,None,None,None,66,688.3349007,None,66,688.3349007,None,688.3349007,None,688.3349007,None,688.3349007,None,688.3349007,None,688.3349007,None,688.3349007,None,-0.057291667,-0.265625,1,0,0,7.1575791,tijiao,0.00201536,None,688.3349007,None,-0.2,0,None,None,None,None,None,None,None,None,None,None,None,None,,None,None,None,None,None,None,None,None,6.963541667,1.5633469,695.5386177,None,695.5386177,None,695.5386177,None,695.5386177,None,None,None,697.1313035,None,,,,,,,,,237,f,22,2023_Mar_21_1515,RL,2021.2.3,59.84515664
1,0,46,0,,,,,,,,,,,,,,,None,None,None,None,None,698.8213545,None,698.8213545,None,698.8213545,None,698.8213545,None,j,0.2848819,698.8213545,None,698.8213545,None,699.1556867,None,699.1556867,None,699.1556867,None,699.1556867,None,699.1556867,None,699.1556867,None,699.4519021,None,699.4519021,None,701.0684416,None,701.0684416,None,701.0684416,None,701.0684416,None,701.0684416,None,701.0684416,None,701.0684416,None,701.0684416,None,701.0684416,None,46,65,45,70,70,31,703.5965332,None,7,2.9845274,703.5965332,None,703.5965332,None,703.5965332,None,703.5965332,None,,None,None,,None,None,None,None,None,None,None,None,None,None,None,None,None,None,,,,,,,,None,None,None,None,-0.2,3,None,None,None,None,None,None,None,None,None,None,None,None,,None,None,None,None,None,None,None,None,None,None,None,None,None,None,None,None,None,None,None,None,706.6539439,None,,,,,,,,,237,f,22,2023_Mar_21_1515,RL,2021.2.3,59.84515664
0,0,47,0,,,,,,,,,,,,,,,None,None,None,None,None,708.5281718,None,708.5281718,None,708.5281718,None,708.5281718,None,j,0.278556,708.5281718,None,708.5281718,None,708.8468899,None,708.8468899,None,708.8468899,None,708.8468899,None,708.8468899,None,708.8468899,None,709.1421859,None,709.1421859,None,710.9299448,None,710.9299448,None,710.9299448,None,710.9299448,None,710.9299448,None,710.9299448,None,710.9299448,None,710.9299448,None,710.9299448,None,39,67,42,71,71,43,713.4502197,None,6,1.6673303,713.4502197,None,713.4502197,None,713.4502197,None,713.4502197,None,,None,None,,None,None,None,None,None,None,None,None,None,None,None,None,None,None,,,,,,,,None,None,None,None,0.2,3,None,None,None,None,None,None,None,None,None,None,None,None,,None,None,None,None,None,None,None,None,None,None,None,None,None,None,None,None,None,None,None,None,715.1756479,None,,,,,,,,,237,f,22,2023_Mar_21_1515,RL,2021.2.3,59.84515664
1,0,48,0,,,,,,,,,,,,,,,None,None,None,None,None,716.9844748,None,716.9844748,None,716.9844748,None,716.9844748,None,j,0.3017814,716.9844748,None,716.9844748,None,717.3349332,None,717.3349332,None,717.3349332,None,717.3349332,None,717.3349332,None,717.3349332,None,717.6311163,718.8485471,717.6311163,718.8485471,718.8831599,None,718.8831599,None,718.8831599,None,718.8831599,None,718.8831599,None,718.8831599,None,718.8831599,None,718.8831599,None,718.8831599,None,40,64,41,65,65,53,None,None,None,None,None,None,None,None,None,None,None,None,68,721.4119348,None,68,721.4119348,None,721.4119348,None,721.4119348,None,721.4119348,None,721.4119348,None,721.4119348,None,721.4119348,None,0.15625,-0.282552083,1,0,0,5.5186611,tijiao,0.01346184,None,721.4119348,None,0.6,0,None,None,None,None,None,None,None,None,None,None,None,None,,None,None,None,None,None,None,None,None,7.067708333,2.0828576,726.9731003,None,726.9731003,None,726.9731003,None,726.9731003,None,None,None,729.0869226,None,,,,,,,,,237,f,22,2023_Mar_21_1515,RL,2021.2.3,59.84515664
0,0,49,0,,,,,,,,,,,,,,,None,None,None,None,None,730.9615743,None,730.9615743,None,730.9615743,None,730.9615743,None,j,0.2848746,730.9615743,None,730.9615743,None,731.2952409,None,731.2952409,None,731.2952409,None,731.2952409,None,731.2952409,None,731.2952409,None,731.591061,733.5923078,731.591061,733.5923078,733.6229213,None,733.6229213,None,733.6229213,None,733.6229213,None,733.6229213,None,733.6229213,None,733.6229213,None,733.6229213,None,733.6229213,None,42,59,28,65,65,44,None,None,None,None,None,None,None,None,None,None,None,None,,None,None,,None,None,None,None,None,None,None,None,None,None,None,None,None,None,,,,,,,,None,None,None,None,0.2,1,736.1654572,None,736.1654572,None,736.1654572,None,736.1654572,None,736.1654572,None,736.1654572,None,45,736.1654572,None,736.1654572,None,0.00267054,None,736.1654572,None,4.984375,1.3092708,743.9551345,None,743.9551345,None,743.9551345,None,743.9551345,None,None,None,745.2936632,None,0.0390625,-0.282552083,1,0,0,7.7588712,tijiao_random_2,,237,f,22,2023_Mar_21_1515,RL,2021.2.3,59.84515664
1,0,50,0,,,,,,,,,,,,,,,None,None,None,None,None,747.2885338,None,747.2885338,None,747.2885338,None,747.2885338,None,i,0.2787553,747.2885338,None,747.2885338,None,747.6057543,None,747.6057543,None,747.6057543,None,747.6057543,None,747.6057543,None,747.6057543,None,747.9021601,749.5865904,747.9021601,749.5865904,749.6187401,None,749.6187401,None,749.6187401,None,749.6187401,None,749.6187401,None,749.6187401,None,749.6187401,None,749.6187401,None,749.6187401,None,37,63,40,54,40,56,None,None,None,None,None,None,None,None,None,None,None,None,50,752.1482532,None,50,752.1482532,None,752.1482532,None,752.1482532,None,752.1482532,None,752.1482532,None,752.1482532,None,752.1482532,None,-0.048177083,-0.276041667,1,0,0,6.2544446,tijiao,0.01632224,None,752.1482532,None,-0.6,0,None,None,None,None,None,None,None,None,None,None,None,None,,None,None,None,None,None,None,None,None,6.9375,1.9037384,758.4439644,None,758.4439644,None,758.4439644,None,758.4439644,None,None,None,760.3756471,None,,,,,,,,,237,f,22,2023_Mar_21_1515,RL,2021.2.3,59.84515664
0,0,51,0,,,,,,,,,,,,,,,None,None,None,None,None,761.9329229,None,761.9329229,None,761.9329229,None,761.9329229,None,i,0.304714,761.9329229,None,761.9329229,None,762.2907698,None,762.2907698,None,762.2907698,None,762.2907698,None,762.2907698,None,762.2907698,None,762.5624562,764.3969261,762.5624562,764.3969261,764.4285566,None,764.4285566,None,764.4285566,None,764.4285566,None,764.4285566,None,764.4285566,None,764.4285566,None,764.4285566,None,764.4285566,None,38,59,35,61,35,34,766.9458093,None,3,2.9557732,766.9458093,None,766.9458093,None,766.9458093,None,766.9458093,None,,None,None,,None,None,None,None,None,None,None,None,None,None,None,None,None,None,,,,,,,,None,None,None,None,-0.6,3,None,None,None,None,None,None,None,None,None,None,None,None,,None,None,None,None,None,None,None,None,None,None,None,None,None,None,None,None,None,None,None,None,769.9785405,None,,,,,,,,,237,f,22,2023_Mar_21_1515,RL,2021.2.3,59.84515664
1,0,52,0,,,,,,,,,,,,,,,None,None,None,None,None,771.7905845,None,771.7905845,None,771.7905845,None,771.7905845,None,j,0.3771652,771.7905845,None,771.7905845,None,772.2070037,None,772.2070037,None,772.2070037,None,772.2070037,None,772.2070037,None,772.2070037,None,772.5025457,774.387021,772.5025457,774.387021,774.4194922,None,774.4194922,None,774.4194922,None,774.4194922,None,774.4194922,None,774.4194922,None,774.4194922,None,774.4194922,None,774.4194922,None,41,58,33,61,61,55,776.9431154,None,5,2.1685405,776.9431154,None,776.9431154,None,776.9431154,None,776.9431154,None,,None,None,,None,None,None,None,None,None,None,None,None,None,None,None,None,None,,,,,,,,None,None,None,None,0.2,2,None,None,None,None,None,None,None,None,None,None,None,None,,None,None,None,None,None,None,None,None,None,None,None,None,None,None,None,None,None,None,None,None,779.1736351,None,,,,,,,,,237,f,22,2023_Mar_21_1515,RL,2021.2.3,59.84515664
0,0,53,0,,,,,,,,,,,,,,,None,None,None,None,None,780.9951716,None,780.9951716,None,780.9951716,None,780.9951716,None,r,0.2928752,780.9951716,None,780.9951716,None,781.3304535,None,781.3304535,None,781.3304535,None,781.3304535,None,781.3304535,None,781.3304535,None,781.6258237,None,781.6258237,None,783.4391522,None,783.4391522,None,783.4391522,None,783.4391522,None,783.4391522,None,783.4391522,None,783.4391522,None,783.4391522,None,783.4391522,None,48,70,37,61,48,63,None,None,None,None,None,None,None,None,None,None,None,None,,None,None,,None,None,None,None,None,None,None,None,None,None,None,None,None,None,,,,,,,,None,None,None,None,-0.6,1,785.9910174,None,785.9910174,None,785.9910174,None,785.9910174,None,785.9910174,None,785.9910174,None,45,785.9910174,None,785.9910174,None,0.01304922,None,785.9910174,None,6.013020833,1.5099883,791.6247467,None,791.6247467,None,791.6247467,None,791.6247467,None,None,None,793.1497272,None,-0.03125,-0.3046875,1,0,0,5.6010201,tijiao_random_2,,237,f,22,2023_Mar_21_1515,RL,2021.2.3,59.84515664
1,0,54,0,,,,,,,,,,,,,,,None,None,None,None,None,795.0886719,None,795.0886719,None,795.0886719,None,795.0886719,None,f,0.3991871,795.0886719,None,795.0886719,None,795.5415873,None,795.5415873,None,795.5415873,None,795.5415873,None,795.5415873,None,795.5415873,None,795.835392,None,795.835392,None,797.0824017,None,797.0824017,None,797.0824017,None,797.0824017,None,797.0824017,None,797.0824017,None,797.0824017,None,797.0824017,None,797.0824017,None,42,55,34,60,55,55,799.6014274,None,4,2.70845,799.6014274,None,799.6014274,None,799.6014274,None,799.6014274,None,,None,None,,None,None,None,None,None,None,None,None,None,None,None,None,None,None,,,,,,,,None,None,None,None,-0.6,2,None,None,None,None,None,None,None,None,None,None,None,None,,None,None,None,None,None,None,None,None,None,None,None,None,None,None,None,None,None,None,None,None,802.3798421,None,,,,,,,,,237,f,22,2023_Mar_21_1515,RL,2021.2.3,59.84515664
0,0,55,0,,,,,,,,,,,,,,,None,None,None,None,None,804.1958571,None,804.1958571,None,804.1958571,None,804.1958571,None,j,0.3220566,804.1958571,None,804.1958571,None,804.5648736,None,804.5648736,None,804.5648736,None,804.5648736,None,804.5648736,None,804.5648736,None,804.8585305,None,804.8585305,None,806.3408391,None,806.3408391,None,806.3408391,None,806.3408391,None,806.3408391,None,806.3408391,None,806.3408391,None,806.3408391,None,806.3408391,None,38,52,30,55,55,63,808.8646869,None,4,2.149441,808.8646869,None,808.8646869,None,808.8646869,None,808.8646869,None,,None,None,,None,None,None,None,None,None,None,None,None,None,None,None,None,None,,,,,,,,None,None,None,None,0.6,3,None,None,None,None,None,None,None,None,None,None,None,None,,None,None,None,None,None,None,None,None,None,None,None,None,None,None,None,None,None,None,None,None,811.0657372,None,,,,,,,,,237,f,22,2023_Mar_21_1515,RL,2021.2.3,59.84515664
1,0,56,0,,,,,,,,,,,,,,,None,None,None,None,None,812.6505026,None,812.6505026,None,812.6505026,None,812.6505026,None,i,0.4077529,812.6505026,None,812.6505026,None,813.1027705,None,813.1027705,None,813.1027705,None,813.1027705,None,813.1027705,None,813.1027705,None,813.3978785,814.4316165,813.3978785,814.4316165,814.4627676,None,814.4627676,None,814.4627676,None,814.4627676,None,814.4627676,None,814.4627676,None,814.4627676,None,814.4627676,None,814.4627676,None,51,43,29,57,29,54,816.9836292,None,2,1.2193331,816.9836292,None,816.9836292,None,816.9836292,None,816.9836292,None,,None,None,,None,None,None,None,None,None,None,None,None,None,None,None,None,None,,,,,,,,None,None,None,None,0.2,3,None,None,None,None,None,None,None,None,None,None,None,None,,None,None,None,None,None,None,None,None,None,None,None,None,None,None,None,None,None,None,None,None,818.2672914,None,,,,,,,,,237,f,22,2023_Mar_21_1515,RL,2021.2.3,59.84515664
0,0,57,0,,,,,,,,,,,,,,,None,None,None,None,None,819.7728384,None,819.7728384,None,819.7728384,None,819.7728384,None,r,0.3753207,819.7728384,None,819.7728384,None,820.194703,None,820.194703,None,820.194703,None,820.194703,None,820.194703,None,820.194703,None,820.4858519,822.4039519,820.4858519,822.4039519,822.4361639,None,822.4361639,None,822.4361639,None,822.4361639,None,822.4361639,None,822.4361639,None,822.4361639,None,822.4361639,None,822.4361639,None,50,47,34,60,50,65,824.9508211,None,3,2.0742082,824.9508211,None,824.9508211,None,824.9508211,None,824.9508211,None,,None,None,,None,None,None,None,None,None,None,None,None,None,None,None,None,None,,,,,,,,None,None,None,None,0.2,3,None,None,None,None,None,None,None,None,None,None,None,None,,None,None,None,None,None,None,None,None,None,None,None,None,None,None,None,None,None,None,None,None,827.0780106,None,,,,,,,,,237,f,22,2023_Mar_21_1515,RL,2021.2.3,59.84515664
1,0,58,0,,,,,,,,,,,,,,,None,None,None,None,None,829.062906,None,829.062906,None,829.062906,None,829.062906,None,j,0.3253349,829.062906,None,829.062906,None,829.4332456,None,829.4332456,None,829.4332456,None,829.4332456,None,829.4332456,None,829.4332456,None,829.725682,None,829.725682,None,831.0422924,None,831.0422924,None,831.0422924,None,831.0422924,None,831.0422924,None,831.0422924,None,831.0422924,None,831.0422924,None,831.0422924,None,46,47,27,60,60,60,None,None,None,None,None,None,None,None,None,None,None,None,70,833.5711665,None,70,833.5711665,None,833.5711665,None,833.5711665,None,833.5711665,None,833.5711665,None,833.5711665,None,833.5711665,None,-0.100260417,-0.2890625,1,0,0,5.5375308,tijiao,0.01636094,None,833.5711665,None,-0.6,0,None,None,None,None,None,None,None,None,None,None,None,None,,None,None,None,None,None,None,None,None,5.9609375,1.9315588,839.1551974,None,839.1551974,None,839.1551974,None,839.1551974,None,None,None,841.0994366,None,,,,,,,,,237,f,22,2023_Mar_21_1515,RL,2021.2.3,59.84515664
0,0,59,0,,,,,,,,,,,,,,,None,None,None,None,None,842.8222261,None,842.8222261,None,842.8222261,None,842.8222261,None,j,0.2961627,842.8222261,None,842.8222261,None,843.156956,None,843.156956,None,843.156956,None,843.156956,None,843.156956,None,843.156956,None,843.4517867,None,843.4517867,None,844.8527624,None,844.8527624,None,844.8527624,None,844.8527624,None,844.8527624,None,844.8527624,None,844.8527624,None,844.8527624,None,844.8527624,None,51,48,34,55,55,70,None,None,None,None,None,None,None,None,None,None,None,None,,None,None,,None,None,None,None,None,None,None,None,None,None,None,None,None,None,,,,,,,,None,None,None,None,0.2,1,847.4044442,None,847.4044442,None,847.4044442,None,847.4044442,None,847.4044442,None,847.4044442,None,35,847.4044442,None,847.4044442,None,0.00838682,None,847.4044442,None,4.020833333,1.3513077,852.8345461,None,852.8345461,None,852.8345461,None,852.8345461,None,None,None,854.1919862,None,-0.04296875,-0.278645833,1,0,0,5.3802413,tijiao_random_2,,237,f,22,2023_Mar_21_1515,RL,2021.2.3,59.84515664
1,0,60,0,,,,,,,,,,,,,,,None,None,None,None,None,855.8956588,None,855.8956588,None,855.8956588,None,855.8956588,None,j,0.2828384,855.8956588,None,855.8956588,None,856.2172491,None,856.2172491,None,856.2172491,None,856.2172491,None,856.2172491,None,856.2172491,None,856.511145,857.6285891,856.511145,857.6285891,857.660416,None,857.660416,None,857.660416,None,857.660416,None,857.660416,None,857.660416,None,857.660416,None,857.660416,None,857.660416,None,43,44,29,54,54,61,860.1791259,None,3,3.1403353,860.1791259,None,860.1791259,None,860.1791259,None,860.1791259,None,,None,None,,None,None,None,None,None,None,None,None,None,None,None,None,None,None,,,,,,,,None,None,None,None,0.2,3,None,None,None,None,None,None,None,None,None,None,None,None,,None,None,None,None,None,None,None,None,None,None,None,None,None,None,None,None,None,None,None,None,863.3819562,None,,,,,,,,,237,f,22,2023_Mar_21_1515,RL,2021.2.3,59.84515664
0,0,61,0,,,,,,,,,,,,,,,None,None,None,None,None,865.0194784,None,865.0194784,None,865.0194784,None,865.0194784,None,j,0.338822,865.0194784,None,865.0194784,None,865.4056858,None,865.4056858,None,865.4056858,None,865.4056858,None,865.4056858,None,865.4056858,None,865.7006159,None,865.7006159,None,867.3824055,None,867.3824055,None,867.3824055,None,867.3824055,None,867.3824055,None,867.3824055,None,867.3824055,None,867.3824055,None,867.3824055,None,40,56,24,49,49,68,869.9016975,None,3,1.153953,869.9016975,None,869.9016975,None,869.9016975,None,869.9016975,None,,None,None,,None,None,None,None,None,None,None,None,None,None,None,None,None,None,,,,,,,,None,None,None,None,-0.6,2,None,None,None,None,None,None,None,None,None,None,None,None,,None,None,None,None,None,None,None,None,None,None,None,None,None,None,None,None,None,None,None,None,871.1146869,None,,,,,,,,,237,f,22,2023_Mar_21_1515,RL,2021.2.3,59.84515664
1,0,62,0,,,,,,,,,,,,,,,None,None,None,None,None,872.6252728,None,872.6252728,None,872.6252728,None,872.6252728,None,r,0.4031284,872.6252728,None,872.6252728,None,873.0798984,None,873.0798984,None,873.0798984,None,873.0798984,None,873.0798984,None,873.0798984,None,873.3558822,874.8901491,873.3558822,874.8901491,874.9220466,None,874.9220466,None,874.9220466,None,874.9220466,None,874.9220466,None,874.9220466,None,874.9220466,None,874.9220466,None,874.9220466,None,51,51,25,54,51,61,None,None,None,None,None,None,None,None,None,None,None,None,49,877.4507509,None,49,877.4507509,None,877.4507509,None,877.4507509,None,877.4507509,None,877.4507509,None,877.4507509,None,877.4507509,None,0.015625,-0.279947917,1,0,0,11.2754858,tijiao,0.00028976,None,877.4507509,None,0.6,0,None,None,None,None,None,None,None,None,None,None,None,None,,None,None,None,None,None,None,None,None,3.057291667,2.2559736,888.7728473,None,888.7728473,None,888.7728473,None,888.7728473,None,None,None,891.0494868,None,,,,,,,,,237,f,22,2023_Mar_21_1515,RL,2021.2.3,59.84515664
0,0,63,0,,,,,,,,,,,,,,,None,None,None,None,None,892.873773,None,892.873773,None,892.873773,None,892.873773,None,f,0.2747554,892.873773,None,892.873773,None,893.1926196,None,893.1926196,None,893.1926196,None,893.1926196,None,893.1926196,None,893.1926196,None,893.4865207,None,893.4865207,None,895.3510667,None,895.3510667,None,895.3510667,None,895.3510667,None,895.3510667,None,895.3510667,None,895.3510667,None,895.3510667,None,895.3510667,None,48,41,34,50,41,66,None,None,None,None,None,None,None,None,None,None,None,None,,None,None,,None,None,None,None,None,None,None,None,None,None,None,None,None,None,,,,,,,,None,None,None,None,-0.2,1,897.9073695,None,897.9073695,None,897.9073695,None,897.9073695,None,897.9073695,None,897.9073695,None,41,897.9073695,None,897.9073695,None,0.00659662,None,897.9073695,None,2.966145833,2.594556,910.3627806,None,910.3627806,None,910.3627806,None,910.3627806,None,None,None,912.9856348,None,-0.1015625,-0.234375,1,0,0,11.2826692,tijiao_random_2,,237,f,22,2023_Mar_21_1515,RL,2021.2.3,59.84515664
1,0,64,0,,,,,,,,,,,,,,,None,None,None,None,None,914.8051182,None,914.8051182,None,914.8051182,None,914.8051182,None,f,0.7145633,914.8051182,None,914.8051182,None,915.5555868,None,915.5555868,None,915.5555868,None,915.5555868,None,915.5555868,None,915.5555868,None,915.8521071,None,915.8521071,None,916.9537365,None,916.9537365,None,916.9537365,None,916.9537365,None,916.9537365,None,916.9537365,None,916.9537365,None,916.9537365,None,916.9537365,None,42,49,31,61,49,64,919.4754702,None,3,2.615874,919.4754702,None,919.4754702,None,919.4754702,None,919.4754702,None,,None,None,,None,None,None,None,None,None,None,None,None,None,None,None,None,None,,,,,,,,None,None,None,None,0.6,3,None,None,None,None,None,None,None,None,None,None,None,None,,None,None,None,None,None,None,None,None,None,None,None,None,None,None,None,None,None,None,None,None,922.1510921,None,,,,,,,,,237,f,22,2023_Mar_21_1515,RL,2021.2.3,59.84515664
0,0,65,0,,,,,,,,,,,,,,,None,None,None,None,None,923.7942904,None,923.7942904,None,923.7942904,None,923.7942904,None,i,0.2754913,923.7942904,None,923.7942904,None,924.1128436,None,924.1128436,None,924.1128436,None,924.1128436,None,924.1128436,None,924.1128436,None,924.408124,926.2096174,924.408124,926.2096174,926.245006,None,926.245006,None,926.245006,None,926.245006,None,926.245006,None,926.245006,None,926.245006,None,926.245006,None,926.245006,None,53,53,38,63,38,60,928.7639376,None,2,1.884665,928.7639376,None,928.7639376,None,928.7639376,None,928.7639376,None,,None,None,,None,None,None,None,None,None,None,None,None,None,None,None,None,None,,,,,,,,None,None,None,None,-0.6,3,None,None,None,None,None,None,None,None,None,None,None,None,,None,None,None,None,None,None,None,None,None,None,None,None,None,None,None,None,None,None,None,None,930.7055036,None,,,,,,,,,237,f,22,2023_Mar_21_1515,RL,2021.2.3,59.84515664
1,0,66,0,,,,,,,,,,,,,,,None,None,None,None,None,932.6843072,None,932.6843072,None,932.6843072,None,932.6843072,None,j,0.2654885,932.6843072,None,932.6843072,None,933.0004148,None,933.0004148,None,933.0004148,None,933.0004148,None,933.0004148,None,933.0004148,None,933.2975886,None,933.2975886,None,934.479308,None,934.479308,None,934.479308,None,934.479308,None,934.479308,None,934.479308,None,934.479308,None,934.479308,None,934.479308,None,58,58,28,66,66,53,936.9973856,None,6,2.4881698,936.9973856,None,936.9973856,None,936.9973856,None,936.9973856,None,,None,None,,None,None,None,None,None,None,None,None,None,None,None,None,None,None,,,,,,,,None,None,None,None,0.2,2,None,None,None,None,None,None,None,None,None,None,None,None,,None,None,None,None,None,None,None,None,None,None,None,None,None,None,None,None,None,None,None,None,939.5376727,None,,,,,,,,,237,f,22,2023_Mar_21_1515,RL,2021.2.3,59.84515664
0,0,67,0,,,,,,,,,,,,,,,None,None,None,None,None,941.3568903,None,941.3568903,None,941.3568903,None,941.3568903,None,j,0.2830045,941.3568903,None,941.3568903,None,941.6911881,None,941.6911881,None,941.6911881,None,941.6911881,None,941.6911881,None,941.6911881,None,941.986769,943.9718152,941.986769,943.9718152,944.0092299,None,944.0092299,None,944.0092299,None,944.0092299,None,944.0092299,None,944.0092299,None,944.0092299,None,944.0092299,None,944.0092299,None,52,57,35,54,54,70,None,None,None,None,None,None,None,None,None,None,None,None,62,946.5482785,None,62,946.5482785,None,946.5482785,None,946.5482785,None,946.5482785,None,946.5482785,None,946.5482785,None,946.5482785,None,0.013020833,-0.2890625,1,0,0,11.2931328,tijiao,0.00114176,None,946.5482785,None,-0.2,0,None,None,None,None,None,None,None,None,None,None,None,None,,None,None,None,None,None,None,None,None,5.010416667,1.3963044,957.8937952,None,957.8937952,None,957.8937952,None,957.8937952,None,None,None,959.3150214,None,,,,,,,,,237,f,22,2023_Mar_21_1515,RL,2021.2.3,59.84515664
1,0,68,0,,,,,,,,,,,,,,,None,None,None,None,None,961.0546255,None,961.0546255,None,961.0546255,None,961.0546255,None,j,0.2354094,961.0546255,None,961.0546255,None,961.3387853,None,961.3387853,None,961.3387853,None,961.3387853,None,961.3387853,None,961.3387853,None,961.6338562,962.9347883,961.6338562,962.9347883,962.9717402,None,962.9717402,None,962.9717402,None,962.9717402,None,962.9717402,None,962.9717402,None,962.9717402,None,962.9717402,None,962.9717402,None,62,51,35,59,59,52,965.4838891,None,5,1.9569845,965.4838891,None,965.4838891,None,965.4838891,None,965.4838891,None,,None,None,,None,None,None,None,None,None,None,None,None,None,None,None,None,None,,,,,,,,None,None,None,None,0.6,2,None,None,None,None,None,None,None,None,None,None,None,None,,None,None,None,None,None,None,None,None,None,None,None,None,None,None,None,None,None,None,None,None,967.49417,None,,,,,,,,,237,f,22,2023_Mar_21_1515,RL,2021.2.3,59.84515664
0,0,69,0,,,,,,,,,,,,,,,None,None,None,None,None,969.4428876,None,969.4428876,None,969.4428876,None,969.4428876,None,r,0.2871886,969.4428876,None,969.4428876,None,969.7856766,None,969.7856766,None,969.7856766,None,969.7856766,None,969.7856766,None,969.7856766,None,970.0732462,None,970.0732462,None,971.3539253,None,971.3539253,None,971.3539253,None,971.3539253,None,971.3539253,None,971.3539253,None,971.3539253,None,971.3539253,None,971.3539253,None,51,51,39,64,51,79,None,None,None,None,None,None,None,None,None,None,None,None,,None,None,,None,None,None,None,None,None,None,None,None,None,None,None,None,None,,,,,,,,None,None,None,None,0.2,1,973.9041976,None,973.9041976,None,973.9041976,None,973.9041976,None,973.9041976,None,973.9041976,None,36,973.9041976,None,973.9041976,None,0.01276612,None,973.9041976,None,5.0234375,1.4853803,981.8564175,None,981.8564175,None,981.8564175,None,981.8564175,None,None,None,983.3577384,None,-0.0078125,-0.239583333,1,0,0,6.6355929,tijiao_random_2,,237,f,22,2023_Mar_21_1515,RL,2021.2.3,59.84515664
1,0,70,0,,,,,,,,,,,,,,,None,None,None,None,None,985.1198899,None,985.1198899,None,985.1198899,None,985.1198899,None,r,0.3602387,985.1198899,None,985.1198899,None,985.5220273,None,985.5220273,None,985.5220273,None,985.5220273,None,985.5220273,None,985.5220273,None,985.81759,987.4685957,985.81759,987.4685957,987.5003015,None,987.5003015,None,987.5003015,None,987.5003015,None,987.5003015,None,987.5003015,None,987.5003015,None,987.5003015,None,987.5003015,None,58,58,29,60,58,69,990.0259607,None,3,3.651792,990.0259607,None,990.0259607,None,990.0259607,None,990.0259607,None,,None,None,,None,None,None,None,None,None,None,None,None,None,None,None,None,None,,,,,,,,None,None,None,None,-0.6,3,None,None,None,None,None,None,None,None,None,None,None,None,,None,None,None,None,None,None,None,None,None,None,None,None,None,None,None,None,None,None,None,None,993.7271367,None,,,,,,,,,237,f,22,2023_Mar_21_1515,RL,2021.2.3,59.84515664
0,0,71,0,,,,,,,,,,,,,,,None,None,None,None,None,995.4284432,None,995.4284432,None,995.4284432,None,995.4284432,None,i,0.2618517,995.4284432,None,995.4284432,None,995.7362984,None,995.7362984,None,995.7362984,None,995.7362984,None,995.7362984,None,995.7362984,None,996.0246536,997.7922472,996.0246536,997.7922472,997.8236286,None,997.8236286,None,997.8236286,None,997.8236286,None,997.8236286,None,997.8236286,None,997.8236286,None,997.8236286,None,997.8236286,None,51,50,33,59,33,79,1000.348688,None,3,2.5497041,1000.348688,None,1000.348688,None,1000.348688,None,1000.348688,None,,None,None,,None,None,None,None,None,None,None,None,None,None,None,None,None,None,,,,,,,,None,None,None,None,0.6,3,None,None,None,None,None,None,None,None,None,None,None,None,,None,None,None,None,None,None,None,None,None,None,None,None,None,None,None,None,None,None,None,None,1002.955207,None,,,,,,,,,237,f,22,2023_Mar_21_1515,RL,2021.2.3,59.84515664
1,0,72,0,,,,,,,,,,,,,,,None,None,None,None,None,1004.951209,None,1004.951209,None,1004.951209,None,1004.951209,None,j,0.2991381,1004.951209,None,1004.951209,None,1005.303056,None,1005.303056,None,1005.303056,None,1005.303056,None,1005.303056,None,1005.303056,None,1005.597704,None,1005.597704,None,1007.214668,None,1007.214668,None,1007.214668,None,1007.214668,None,1007.214668,None,1007.214668,None,1007.214668,None,1007.214668,None,1007.214668,None,46,54,30,59,59,66,1009.731534,None,4,2.6409302,1009.731534,None,1009.731534,None,1009.731534,None,1009.731534,None,,None,None,,None,None,None,None,None,None,None,None,None,None,None,None,None,None,,,,,,,,None,None,None,None,0.2,2,None,None,None,None,None,None,None,None,None,None,None,None,,None,None,None,None,None,None,None,None,None,None,None,None,None,None,None,None,None,None,None,None,1012.438253,None,,,,,,,,,237,f,22,2023_Mar_21_1515,RL,2021.2.3,59.84515664
0,0,73,0,,,,,,,,,,,,,,,None,None,None,None,None,1014.125367,None,1014.125367,None,1014.125367,None,1014.125367,None,f,0.2751909,1014.125367,None,1014.125367,None,1014.446234,None,1014.446234,None,1014.446234,None,1014.446234,None,1014.446234,None,1014.446234,None,1014.737533,1016.572092,1014.737533,1016.572092,1016.603266,None,1016.603266,None,1016.603266,None,1016.603266,None,1016.603266,None,1016.603266,None,1016.603266,None,1016.603266,None,1016.603266,None,39,52,35,71,52,51,None,None,None,None,None,None,None,None,None,None,None,None,,None,None,,None,None,None,None,None,None,None,None,None,None,None,None,None,None,,,,,,,,None,None,None,None,0.2,1,1019.153087,None,1019.153087,None,1019.153087,None,1019.153087,None,1019.153087,None,1019.153087,None,30,1019.153087,None,1019.153087,None,0.01245502,None,1019.153087,None,8.005208333,3.1250172,1027.043285,None,1027.043285,None,1027.043285,None,1027.043285,None,None,None,1030.198102,None,-0.0234375,-0.23828125,1,0,0,6.2173416,tijiao_random_2,,237,f,22,2023_Mar_21_1515,RL,2021.2.3,59.84515664
1,0,74,0,,,,,,,,,,,,,,,None,None,None,None,None,1031.969312,None,1031.969312,None,1031.969312,None,1031.969312,None,i,0.7914242,1031.969312,None,1031.969312,None,1032.805594,None,1032.805594,None,1032.805594,None,1032.805594,None,1032.805594,None,1032.805594,None,1033.100201,None,1033.100201,None,1035.116193,None,1035.116193,None,1035.116193,None,1035.116193,None,1035.116193,None,1035.116193,None,1035.116193,None,1035.116193,None,1035.116193,None,44,48,34,76,34,72,None,None,None,None,None,None,None,None,None,None,None,None,32,1037.646423,None,32,1037.646423,None,1037.646423,None,1037.646423,None,1037.646423,None,1037.646423,None,1037.646423,None,1037.646423,None,-0.002604167,-0.276041667,1,0,0,10.1074383,tijiao,0.01622684,None,1037.646423,None,-0.2,0,None,None,None,None,None,None,None,None,None,None,None,None,,None,None,None,None,None,None,None,None,9.059895833,2.7820657,1047.800031,None,1047.800031,None,1047.800031,None,1047.800031,None,None,None,1050.610314,None,,,,,,,,,237,f,22,2023_Mar_21_1515,RL,2021.2.3,59.84515664
0,0,75,0,,,,,,,,,,,,,,,1052.213417,None,q,1052.213417,None,1103.062653,None,1103.062653,None,1103.062653,None,1103.062653,None,f,0.5914467,1103.062653,None,1103.062653,None,1103.704015,None,1103.704015,None,1103.704015,None,1103.704015,None,1103.704015,None,1103.704015,None,1103.999403,None,1103.999403,None,1104.866041,None,1104.866041,None,1104.866041,None,1104.866041,None,1104.866041,None,1104.866041,None,1104.866041,None,1104.866041,None,1104.866041,None,51,50,32,74,50,53,1107.387555,None,4,2.1671085,1107.387555,None,1107.387555,None,1107.387555,None,1107.387555,None,,None,None,,None,None,None,None,None,None,None,None,None,None,None,None,None,None,,,,,,,,None,None,None,None,0.6,3,None,None,None,None,None,None,None,None,None,None,None,None,,None,None,None,None,None,None,None,None,None,None,None,None,None,None,None,None,None,None,None,None,1109.607565,None,,,,,,,,50.812601,237,f,22,2023_Mar_21_1515,RL,2021.2.3,59.84515664
1,0,76,0,,,,,,,,,,,,,,,None,None,None,None,None,1111.491553,None,1111.491553,None,1111.491553,None,1111.491553,None,f,0.3524984,1111.491553,None,1111.491553,None,1111.892748,None,1111.892748,None,1111.892748,None,1111.892748,None,1111.892748,None,1111.892748,None,1112.188373,1113.589574,1112.188373,1113.589574,1113.621847,None,1113.621847,None,1113.621847,None,1113.621847,None,1113.621847,None,1113.621847,None,1113.621847,None,1113.621847,None,1113.621847,None,49,43,32,73,43,75,1116.13695,None,3,0.8565029,1116.13695,None,1116.13695,None,1116.13695,None,1116.13695,None,,None,None,,None,None,None,None,None,None,None,None,None,None,None,None,None,None,,,,,,,,None,None,None,None,0.2,2,None,None,None,None,None,None,None,None,None,None,None,None,,None,None,None,None,None,None,None,None,None,None,None,None,None,None,None,None,None,None,None,None,1117.051407,None,,,,,,,,,237,f,22,2023_Mar_21_1515,RL,2021.2.3,59.84515664
0,0,77,0,,,,,,,,,,,,,,,None,None,None,None,None,1119.030762,None,1119.030762,None,1119.030762,None,1119.030762,None,i,0.264304,1119.030762,None,1119.030762,None,1119.333427,None,1119.333427,None,1119.333427,None,1119.333427,None,1119.333427,None,1119.333427,None,1119.627075,1121.394873,1119.627075,1121.394873,1121.427839,None,1121.427839,None,1121.427839,None,1121.427839,None,1121.427839,None,1121.427839,None,1121.427839,None,1121.427839,None,1121.427839,None,53,49,18,65,18,53,1123.94578,None,1,1.6201004,1123.94578,None,1123.94578,None,1123.94578,None,1123.94578,None,,None,None,,None,None,None,None,None,None,None,None,None,None,None,None,None,None,,,,,,,,None,None,None,None,0.6,2,None,None,None,None,None,None,None,None,None,None,None,None,,None,None,None,None,None,None,None,None,None,None,None,None,None,None,None,None,None,None,None,None,1125.624291,None,,,,,,,,,237,f,22,2023_Mar_21_1515,RL,2021.2.3,59.84515664
1,0,78,0,,,,,,,,,,,,,,,None,None,None,None,None,1127.486994,None,1127.486994,None,1127.486994,None,1127.486994,None,j,0.2781748,1127.486994,None,1127.486994,None,1127.805188,None,1127.805188,None,1127.805188,None,1127.805188,None,1127.805188,None,1127.805188,None,1128.099396,None,1128.099396,None,1129.784604,None,1129.784604,None,1129.784604,None,1129.784604,None,1129.784604,None,1129.784604,None,1129.784604,None,1129.784604,None,1129.784604,None,51,51,17,60,60,75,1132.302773,None,5,1.5697576,1132.302773,None,1132.302773,None,1132.302773,None,1132.302773,None,,None,None,,None,None,None,None,None,None,None,None,None,None,None,None,None,None,,,,,,,,None,None,None,None,0.2,3,None,None,None,None,None,None,None,None,None,None,None,None,,None,None,None,None,None,None,None,None,None,None,None,None,None,None,None,None,None,None,None,None,1133.934721,None,,,,,,,,,237,f,22,2023_Mar_21_1515,RL,2021.2.3,59.84515664
0,0,79,0,,,,,,,,,,,,,,,None,None,None,None,None,1135.674849,None,1135.674849,None,1135.674849,None,1135.674849,None,r,0.320389,1135.674849,None,1135.674849,None,1136.0456,None,1136.0456,None,1136.0456,None,1136.0456,None,1136.0456,None,1136.0456,None,1136.321859,1137.289213,1136.321859,1137.289213,1137.338699,None,1137.338699,None,1137.338699,None,1137.338699,None,1137.338699,None,1137.338699,None,1137.338699,None,1137.338699,None,1137.338699,None,41,53,33,63,41,73,1139.863113,None,3,1.5973927,1139.863113,None,1139.863113,None,1139.863113,None,1139.863113,None,,None,None,,None,None,None,None,None,None,None,None,None,None,None,None,None,None,,,,,,,,None,None,None,None,-0.2,3,None,None,None,None,None,None,None,None,None,None,None,None,,None,None,None,None,None,None,None,None,None,None,None,None,None,None,None,None,None,None,None,None,1141.509637,None,,,,,,,,,237,f,22,2023_Mar_21_1515,RL,2021.2.3,59.84515664
1,0,80,0,,,,,,,,,,,,,,,None,None,None,None,None,1143.113013,None,1143.113013,None,1143.113013,None,1143.113013,None,j,0.2822194,1143.113013,None,1143.113013,None,1143.44777,None,1143.44777,None,1143.44777,None,1143.44777,None,1143.44777,None,1143.44777,None,1143.743272,None,1143.743272,None,1145.02351,None,1145.02351,None,1145.02351,None,1145.02351,None,1145.02351,None,1145.02351,None,1145.02351,None,1145.02351,None,1145.02351,None,48,57,34,60,60,75,None,None,None,None,None,None,None,None,None,None,None,None,,None,None,,None,None,None,None,None,None,None,None,None,None,None,None,None,None,,,,,,,,None,None,None,None,0.2,1,1147.568424,None,1147.568424,None,1147.568424,None,1147.568424,None,1147.568424,None,1147.568424,None,70,1147.568424,None,1147.568424,None,0.00338324,None,1147.568424,None,7.106770833,1.8791066,1153.208711,None,1153.208711,None,1153.208711,None,1153.208711,None,None,None,1155.118192,None,-0.114583333,-0.255208333,1,0,0,5.6089558,tijiao_random_2,,237,f,22,2023_Mar_21_1515,RL,2021.2.3,59.84515664
0,0,81,0,,,,,,,,,,,,,,,None,None,None,None,None,1156.856133,None,1156.856133,None,1156.856133,None,1156.856133,None,i,0.2793047,1156.856133,None,1156.856133,None,1157.177138,None,1157.177138,None,1157.177138,None,1157.177138,None,1157.177138,None,1157.177138,None,1157.469829,None,1157.469829,None,1158.552067,None,1158.552067,None,1158.552067,None,1158.552067,None,1158.552067,None,1158.552067,None,1158.552067,None,1158.552067,None,1158.552067,None,48,56,40,67,40,70,None,None,None,None,None,None,None,None,None,None,None,None,,None,None,,None,None,None,None,None,None,None,None,None,None,None,None,None,None,,,,,,,,None,None,None,None,0.6,1,1161.114307,None,1161.114307,None,1161.114307,None,1161.114307,None,1161.114307,None,1161.114307,None,58,1161.114307,None,1161.114307,None,0.0166174,None,1161.114307,None,6.963541667,0.9732028,1167.82398,None,1167.82398,None,1167.82398,None,1167.82398,None,None,None,1168.810347,None,-0.055989583,-0.24609375,1,0,0,5.2373318,tijiao_random_2,,237,f,22,2023_Mar_21_1515,RL,2021.2.3,59.84515664
1,0,82,0,,,,,,,,,,,,,,,None,None,None,None,None,1170.783417,None,1170.783417,None,1170.783417,None,1170.783417,None,j,0.2922395,1170.783417,None,1170.783417,None,1171.12153,None,1171.12153,None,1171.12153,None,1171.12153,None,1171.12153,None,1171.12153,None,1171.396322,1172.213486,1171.396322,1172.213486,1172.265851,None,1172.265851,None,1172.265851,None,1172.265851,None,1172.265851,None,1172.265851,None,1172.265851,None,1172.265851,None,1172.265851,None,42,54,28,48,48,73,None,None,None,None,None,None,None,None,None,None,None,None,56,1174.788889,None,56,1174.788889,None,1174.788889,None,1174.788889,None,1174.788889,None,1174.788889,None,1174.788889,None,1174.788889,None,0.00390625,-0.286458333,1,0,0,6.5899138,tijiao,0.00132176,None,1174.788889,None,0.2,0,None,None,None,None,None,None,None,None,None,None,None,None,,None,None,None,None,None,None,None,None,6.078125,2.266314,1181.425566,None,1181.425566,None,1181.425566,None,1181.425566,None,None,None,1183.72505,None,,,,,,,,,237,f,22,2023_Mar_21_1515,RL,2021.2.3,59.84515664
0,0,83,0,,,,,,,,,,,,,,,None,None,None,None,None,1185.443527,None,1185.443527,None,1185.443527,None,1185.443527,None,j,0.2120649,1185.443527,None,1185.443527,None,1185.696201,None,1185.696201,None,1185.696201,None,1185.696201,None,1185.696201,None,1185.696201,None,1185.989614,1186.906905,1185.989614,1186.906905,1186.937437,None,1186.937437,None,1186.937437,None,1186.937437,None,1186.937437,None,1186.937437,None,1186.937437,None,1186.937437,None,1186.937437,None,45,46,33,55,55,66,1189.463635,None,4,2.1344894,1189.463635,None,1189.463635,None,1189.463635,None,1189.463635,None,,None,None,,None,None,None,None,None,None,None,None,None,None,None,None,None,None,,,,,,,,None,None,None,None,0.6,2,None,None,None,None,None,None,None,None,None,None,None,None,,None,None,None,None,None,None,None,None,None,None,None,None,None,None,None,None,None,None,None,None,1191.663372,None,,,,,,,,,237,f,22,2023_Mar_21_1515,RL,2021.2.3,59.84515664
1,0,84,0,,,,,,,,,,,,,,,None,None,None,None,None,1193.232323,None,1193.232323,None,1193.232323,None,1193.232323,None,f,0.3133174,1193.232323,None,1193.232323,None,1193.589438,None,1193.589438,None,1193.589438,None,1193.589438,None,1193.589438,None,1193.589438,None,1193.878672,None,1193.878672,None,1195.860427,None,1195.860427,None,1195.860427,None,1195.860427,None,1195.860427,None,1195.860427,None,1195.860427,None,1195.860427,None,1195.860427,None,46,51,27,55,51,67,None,None,None,None,None,None,None,None,None,None,None,None,52,1198.397256,None,52,1198.397256,None,1198.397256,None,1198.397256,None,1198.397256,None,1198.397256,None,1198.397256,None,1198.397256,None,0.03515625,-0.234375,1,0,0,16.0218542,tijiao,0.01004614,None,1198.397256,None,0.2,0,None,None,None,None,None,None,None,None,None,None,None,None,,None,None,None,None,None,None,None,None,5.1015625,1.9478317,1215.032468,None,1215.032468,None,1215.032468,None,1215.032468,None,None,None,1216.993731,None,,,,,,,,,237,f,22,2023_Mar_21_1515,RL,2021.2.3,59.84515664
0,0,85,0,,,,,,,,,,,,,,,None,None,None,None,None,1218.733093,None,1218.733093,None,1218.733093,None,1218.733093,None,j,0.2728548,1218.733093,None,1218.733093,None,1219.052153,None,1219.052153,None,1219.052153,None,1219.052153,None,1219.052153,None,1219.052153,None,1219.346299,1221.014364,1219.346299,1221.014364,1221.047935,None,1221.047935,None,1221.047935,None,1221.047935,None,1221.047935,None,1221.047935,None,1221.047935,None,1221.047935,None,1221.047935,None,44,45,28,58,58,55,None,None,None,None,None,None,None,None,None,None,None,None,64,1223.57569,None,64,1223.57569,None,1223.57569,None,1223.57569,None,1223.57569,None,1223.57569,None,1223.57569,None,1223.57569,None,-0.03515625,-0.28125,1,0,0,4.9523273,tijiao,0.01503794,None,1223.57569,None,0.6,0,None,None,None,None,None,None,None,None,None,None,None,None,,None,None,None,None,None,None,None,None,7.067708333,1.140125,1228.574495,None,1228.574495,None,1228.574495,None,1228.574495,None,None,None,1229.734544,None,,,,,,,,,237,f,22,2023_Mar_21_1515,RL,2021.2.3,59.84515664
1,0,86,0,,,,,,,,,,,,,,,None,None,None,None,None,1231.725996,None,1231.725996,None,1231.725996,None,1231.725996,None,j,0.2698384,1231.725996,None,1231.725996,None,1232.044332,None,1232.044332,None,1232.044332,None,1232.044332,None,1232.044332,None,1232.044332,None,1232.33862,1234.139789,1232.33862,1234.139789,1234.170278,None,1234.170278,None,1234.170278,None,1234.170278,None,1234.170278,None,1234.170278,None,1234.170278,None,1234.170278,None,1234.170278,None,44,39,21,64,64,49,None,None,None,None,None,None,None,None,None,None,None,None,,None,None,,None,None,None,None,None,None,None,None,None,None,None,None,None,None,,,,,,,,None,None,None,None,0.2,1,1236.718002,None,1236.718002,None,1236.718002,None,1236.718002,None,1236.718002,None,1236.718002,None,38,1236.718002,None,1236.718002,None,0.01442612,None,1236.718002,None,5.856770833,2.5464397,1243.655152,None,1243.655152,None,1243.655152,None,1243.655152,None,None,None,1246.235282,None,0.079427083,-0.3046875,1,0,0,6.9034386,tijiao_random_2,,237,f,22,2023_Mar_21_1515,RL,2021.2.3,59.84515664
0,0,87,0,,,,,,,,,,,,,,,None,None,None,None,None,1248.052519,None,1248.052519,None,1248.052519,None,1248.052519,None,j,0.2835168,1248.052519,None,1248.052519,None,1248.386958,None,1248.386958,None,1248.386958,None,1248.386958,None,1248.386958,None,1248.386958,None,1248.683215,None,1248.683215,None,1250.263951,None,1250.263951,None,1250.263951,None,1250.263951,None,1250.263951,None,1250.263951,None,1250.263951,None,1250.263951,None,1250.263951,None,37,30,25,69,69,76,1252.781856,None,6,1.7386843,1252.781856,None,1252.781856,None,1252.781856,None,1252.781856,None,,None,None,,None,None,None,None,None,None,None,None,None,None,None,None,None,None,,,,,,,,None,None,None,None,0.2,2,None,None,None,None,None,None,None,None,None,None,None,None,,None,None,None,None,None,None,None,None,None,None,None,None,None,None,None,None,None,None,None,None,1254.575661,None,,,,,,,,,237,f,22,2023_Mar_21_1515,RL,2021.2.3,59.84515664
1,0,88,0,,,,,,,,,,,,,,,None,None,None,None,None,1256.241748,None,1256.241748,None,1256.241748,None,1256.241748,None,j,0.4142577,1256.241748,None,1256.241748,None,1256.695926,None,1256.695926,None,1256.695926,None,1256.695926,None,1256.695926,None,1256.695926,None,1256.988928,1258.59006,1256.988928,1258.59006,1258.62187,None,1258.62187,None,1258.62187,None,1258.62187,None,1258.62187,None,1258.62187,None,1258.62187,None,1258.62187,None,1258.62187,None,50,42,28,67,67,66,None,None,None,None,None,None,None,None,None,None,None,None,70,1261.157383,None,70,1261.157383,None,1261.157383,None,1261.157383,None,1261.157383,None,1261.157383,None,1261.157383,None,1261.157383,None,0.087239583,-0.325520833,1,0,0,6.2818272,tijiao,0.01004194,None,1261.157383,None,-0.6,0,None,None,None,None,None,None,None,None,None,None,None,None,,None,None,None,None,None,None,None,None,8.018229167,1.6241427,1267.492638,None,1267.492638,None,1267.492638,None,1267.492638,None,None,None,1269.141135,None,,,,,,,,,237,f,22,2023_Mar_21_1515,RL,2021.2.3,59.84515664
0,0,89,0,,,,,,,,,,,,,,,None,None,None,None,None,1271.002339,None,1271.002339,None,1271.002339,None,1271.002339,None,j,0.2838373,1271.002339,None,1271.002339,None,1271.340624,None,1271.340624,None,1271.340624,None,1271.340624,None,1271.340624,None,1271.340624,None,1271.632512,None,1271.632512,None,1273.232452,None,1273.232452,None,1273.232452,None,1273.232452,None,1273.232452,None,1273.232452,None,1273.232452,None,1273.232452,None,1273.232452,None,54,43,22,71,71,74,1275.755593,None,7,1.8836772,1275.755593,None,1275.755593,None,1275.755593,None,1275.755593,None,,None,None,,None,None,None,None,None,None,None,None,None,None,None,None,None,None,,,,,,,,None,None,None,None,-0.6,2,None,None,None,None,None,None,None,None,None,None,None,None,,None,None,None,None,None,None,None,None,None,None,None,None,None,None,None,None,None,None,None,None,1277.697125,None,,,,,,,,,237,f,22,2023_Mar_21_1515,RL,2021.2.3,59.84515664
1,0,90,0,,,,,,,,,,,,,,,None,None,None,None,None,1279.641372,None,1279.641372,None,1279.641372,None,1279.641372,None,j,0.2759566,1279.641372,None,1279.641372,None,1279.959953,None,1279.959953,None,1279.959953,None,1279.959953,None,1279.959953,None,1279.959953,None,1280.255114,None,1280.255114,None,1281.810243,None,1281.810243,None,1281.810243,None,1281.810243,None,1281.810243,None,1281.810243,None,1281.810243,None,1281.810243,None,1281.810243,None,55,44,31,74,74,54,None,None,None,None,None,None,None,None,None,None,None,None,76,1284.357787,None,76,1284.357787,None,1284.357787,None,1284.357787,None,1284.357787,None,1284.357787,None,1284.357787,None,1284.357787,None,0.059895833,-0.265625,1,0,0,4.6629863,tijiao,0.00908994,None,1284.357787,None,0.2,0,None,None,None,None,None,None,None,None,None,None,None,None,,None,None,None,None,None,None,None,None,9.033854167,2.0776073,1289.071713,None,1289.071713,None,1289.071713,None,1289.071713,None,None,None,1291.18045,None,,,,,,,,,237,f,22,2023_Mar_21_1515,RL,2021.2.3,59.84515664
0,0,91,0,,,,,,,,,,,,,,,None,None,None,None,None,1292.718294,None,1292.718294,None,1292.718294,None,1292.718294,None,j,0.3189879,1292.718294,None,1292.718294,None,1293.087534,None,1293.087534,None,1293.087534,None,1293.087534,None,1293.087534,None,1293.087534,None,1293.380808,None,1293.380808,None,1295.046362,None,1295.046362,None,1295.046362,None,1295.046362,None,1295.046362,None,1295.046362,None,1295.046362,None,1295.046362,None,1295.046362,None,53,43,32,72,72,57,1297.563983,None,7,1.6207562,1297.563983,None,1297.563983,None,1297.563983,None,1297.563983,None,,None,None,,None,None,None,None,None,None,None,None,None,None,None,None,None,None,,,,,,,,None,None,None,None,0.2,3,None,None,None,None,None,None,None,None,None,None,None,None,,None,None,None,None,None,None,None,None,None,None,None,None,None,None,None,None,None,None,None,None,1299.241466,None,,,,,,,,,237,f,22,2023_Mar_21_1515,RL,2021.2.3,59.84515664
1,0,92,0,,,,,,,,,,,,,,,None,None,None,None,None,1300.922773,None,1300.922773,None,1300.922773,None,1300.922773,None,j,0.3046181,1300.922773,None,1300.922773,None,1301.276051,None,1301.276051,None,1301.276051,None,1301.276051,None,1301.276051,None,1301.276051,None,1301.569922,None,1301.569922,None,1302.635204,None,1302.635204,None,1302.635204,None,1302.635204,None,1302.635204,None,1302.635204,None,1302.635204,None,1302.635204,None,1302.635204,None,46,35,32,70,70,74,1305.156032,None,7,1.3707444,1305.156032,None,1305.156032,None,1305.156032,None,1305.156032,None,,None,None,,None,None,None,None,None,None,None,None,None,None,None,None,None,None,,,,,,,,None,None,None,None,0.6,2,None,None,None,None,None,None,None,None,None,None,None,None,,None,None,None,None,None,None,None,None,None,None,None,None,None,None,None,None,None,None,None,None,1306.589901,None,,,,,,,,,237,f,22,2023_Mar_21_1515,RL,2021.2.3,59.84515664
0,0,93,0,,,,,,,,,,,,,,,None,None,None,None,None,1308.461284,None,1308.461284,None,1308.461284,None,1308.461284,None,j,0.3362086,1308.461284,None,1308.461284,None,1308.847985,None,1308.847985,None,1308.847985,None,1308.847985,None,1308.847985,None,1308.847985,None,1309.142091,None,1309.142091,None,1310.38001,None,1310.38001,None,1310.38001,None,1310.38001,None,1310.38001,None,1310.38001,None,1310.38001,None,1310.38001,None,1310.38001,None,49,37,25,56,56,79,None,None,None,None,None,None,None,None,None,None,None,None,,None,None,,None,None,None,None,None,None,None,None,None,None,None,None,None,None,,,,,,,,None,None,None,None,-0.6,1,1312.9244,None,1312.9244,None,1312.9244,None,1312.9244,None,1312.9244,None,1312.9244,None,56,1312.9244,None,1312.9244,None,0.01165032,None,1312.9244,None,5.140625,1.4314364,1318.810922,None,1318.810922,None,1318.810922,None,1318.810922,None,None,None,1320.264104,None,0.127604167,-0.311197917,1,0,0,5.8498022,tijiao_random_2,,237,f,22,2023_Mar_21_1515,RL,2021.2.3,59.84515664
1,0,94,0,,,,,,,,,,,,,,,None,None,None,None,None,1322.02116,None,1322.02116,None,1322.02116,None,1322.02116,None,r,0.3062823,1322.02116,None,1322.02116,None,1322.371884,None,1322.371884,None,1322.371884,None,1322.371884,None,1322.371884,None,1322.371884,None,1322.667889,None,1322.667889,None,1324.199521,None,1324.199521,None,1324.199521,None,1324.199521,None,1324.199521,None,1324.199521,None,1324.199521,None,1324.199521,None,1324.199521,None,48,36,21,68,48,82,1326.724955,None,2,2.4516808,1326.724955,None,1326.724955,None,1326.724955,None,1326.724955,None,,None,None,,None,None,None,None,None,None,None,None,None,None,None,None,None,None,,,,,,,,None,None,None,None,-0.6,3,None,None,None,None,None,None,None,None,None,None,None,None,,None,None,None,None,None,None,None,None,None,None,None,None,None,None,None,None,None,None,None,None,1329.236761,None,,,,,,,,,237,f,22,2023_Mar_21_1515,RL,2021.2.3,59.84515664
0,0,95,0,,,,,,,,,,,,,,,None,None,None,None,None,1330.860965,None,1330.860965,None,1330.860965,None,1330.860965,None,r,0.3665495,1330.860965,None,1330.860965,None,1331.281329,None,1331.281329,None,1331.281329,None,1331.281329,None,1331.281329,None,1331.281329,None,1331.557555,1333.175388,1331.557555,1333.175388,1333.208037,None,1333.208037,None,1333.208037,None,1333.208037,None,1333.208037,None,1333.208037,None,1333.208037,None,1333.208037,None,1333.208037,None,60,38,26,61,60,71,None,None,None,None,None,None,None,None,None,None,None,None,,None,None,,None,None,None,None,None,None,None,None,None,None,None,None,None,None,,,,,,,,None,None,None,None,0.6,1,1335.753497,None,1335.753497,None,1335.753497,None,1335.753497,None,1335.753497,None,1335.753497,None,68,1335.753497,None,1335.753497,None,0.01476312,None,1335.753497,None,8.2265625,1.5796008,1342.555561,None,1342.555561,None,1342.555561,None,1342.555561,None,None,None,1344.156824,None,0.139322917,-0.302083333,1,0,0,6.7701102,tijiao_random_2,,237,f,22,2023_Mar_21_1515,RL,2021.2.3,59.84515664
1,0,96,0,,,,,,,,,,,,,,,None,None,None,None,None,1345.988445,None,1345.988445,None,1345.988445,None,1345.988445,None,j,0.2793026,1345.988445,None,1345.988445,None,1346.305984,None,1346.305984,None,1346.305984,None,1346.305984,None,1346.305984,None,1346.305984,None,1346.601432,None,1346.601432,None,1347.516304,None,1347.516304,None,1347.516304,None,1347.516304,None,1347.516304,None,1347.516304,None,1347.516304,None,1347.516304,None,1347.516304,None,56,42,29,67,67,67,1350.040985,None,6,1.3013075,1350.040985,None,1350.040985,None,1350.040985,None,1350.040985,None,,None,None,,None,None,None,None,None,None,None,None,None,None,None,None,None,None,,,,,,,,None,None,None,None,0.6,3,None,None,None,None,None,None,None,None,None,None,None,None,,None,None,None,None,None,None,None,None,None,None,None,None,None,None,None,None,None,None,None,None,1351.405291,None,,,,,,,,,237,f,22,2023_Mar_21_1515,RL,2021.2.3,59.84515664
0,0,97,0,,,,,,,,,,,,,,,None,None,None,None,None,1353.093263,None,1353.093263,None,1353.093263,None,1353.093263,None,j,0.3244458,1353.093263,None,1353.093263,None,1353.461195,None,1353.461195,None,1353.461195,None,1353.461195,None,1353.461195,None,1353.461195,None,1353.756111,1355.623979,1353.756111,1355.623979,1355.655907,None,1355.655907,None,1355.655907,None,1355.655907,None,1355.655907,None,1355.655907,None,1355.655907,None,1355.655907,None,1355.655907,None,55,38,36,67,67,55,None,None,None,None,None,None,None,None,None,None,None,None,,None,None,,None,None,None,None,None,None,None,None,None,None,None,None,None,None,,,,,,,,None,None,None,None,-0.2,1,1358.200461,None,1358.200461,None,1358.200461,None,1358.200461,None,1358.200461,None,1358.200461,None,26,1358.200461,None,1358.200461,None,0.01622072,None,1358.200461,None,6.924479167,1.2301548,1362.917912,None,1362.917912,None,1362.917912,None,1362.917912,None,None,None,1364.162649,None,0.08203125,-0.255208333,1,0,0,4.6867125,tijiao_random_2,,237,f,22,2023_Mar_21_1515,RL,2021.2.3,59.84515664
1,0,98,0,,,,,,,,,,,,,,,None,None,None,None,None,1365.851245,None,1365.851245,None,1365.851245,None,1365.851245,None,f,0.276605,1365.851245,None,1365.851245,None,1366.172112,None,1366.172112,None,1366.172112,None,1366.172112,None,1366.172112,None,1366.172112,None,1366.464941,None,1366.464941,None,1368.17005,None,1368.17005,None,1368.17005,None,1368.17005,None,1368.17005,None,1368.17005,None,1368.17005,None,1368.17005,None,1368.17005,None,53,33,18,51,33,49,1370.69698,None,5,2.0745017,1370.69698,None,1370.69698,None,1370.69698,None,1370.69698,None,,None,None,,None,None,None,None,None,None,None,None,None,None,None,None,None,None,,,,,,,,None,None,None,None,-0.6,2,None,None,None,None,None,None,None,None,None,None,None,None,,None,None,None,None,None,None,None,None,None,None,None,None,None,None,None,None,None,None,None,None,1372.839793,None,,,,,,,,,237,f,22,2023_Mar_21_1515,RL,2021.2.3,59.84515664
