trials.thisRepN,trials.thisTrialN,trials.thisN,trials.thisIndex,instru_img1.started,instru_resp.started,instru_resp.keys,instru_resp.rt,instru_img2.started,instru_resp2.started,instru_resp2.keys,instru_resp2.rt,fixbefore_2.started,rest_response.keys,red.started,green.started,yellow.started,blue.started,choose_bandit.started,Fixation.started,choose_bandit.keys,choose_bandit.rt,black.started,red_2.started,green_2.started,yellow_2.started,blue_2.started,fixation_2.started,docs.started,wait_playerB.started,docs.stopped,wait_playerB.stopped,black.stopped,red_2.stopped,green_2.stopped,yellow_2.stopped,blue_2.stopped,fixation_2.stopped,black_com.started,reward_sub.started,palyerb.started,reward__sub.started,compare.started,red_compare.started,green_com.started,yellow_com.started,blue_com.started,image_3.started,slider.started,text.started,image_4.started,image_5.started,rewardyellow,rewardred,rewardblue,rewardgreen,subchoose,playerb,slider.response,slider.rt,expectself.text,value_expect_self,tijiao_click.x,tijiao_click.y,tijiao_click.leftButton,tijiao_click.midButton,tijiao_click.rightButton,tijiao_click.time,tijiao_click.clicked_name,random_whicharm,whether_ask,expect_random_3.text,tijiao_random.x,tijiao_random.y,tijiao_random.leftButton,tijiao_random.midButton,tijiao_random.rightButton,tijiao_random.time,tijiao_random.clicked_name,slider_2.response,slider_2.rt,intertrialfix.started,intertrialfix.stopped,expectself.started,expect_self_black.started,expect_self.started,expect_self_red.started,expect_self_green.started,expect_self_yellow.started,expect_self_blue.started,tijiao.started,tijiao_click.started,check.started,slider_2.started,image_7.started,confi.started,notconfi.started,jiantou_random.started,expect_red.started,expect_green.started,expect_yellow.started,expect_blue.started,expect_random_2.started,expect_random_3.started,tijiao_random_2.started,tijiao_random.started,check_2.started,rest_image.started,rest_response.started,rest_response.rt,image.started,key_resp.started,key_resp.keys,participant,Gender,Age,date,expName,psychopyVersion,frameRate
,,,,59.3281057,59.3281057,space,12.0501198,,,,,,,,,,,,,,,,,,,,,,,,,,,,,,,,,,,,,,,,,,,,,,,,,,,,,,,,,,,,,,,,,,,,,,,,,,,,,,,,,,,,,,,,,,,,,,,,,,,,,,,,,,238,f,23,2023-03-21_15h15.13.561,RL,2022.2.4,60.27814749
,,,,,,,,71.4164578,71.4164578,s,17.0412461,,,,,,,,,,,,,,,,,,,,,,,,,,,,,,,,,,,,,,,,,,,,,,,,,,,,,,,,,,,,,,,,,,,,,,,,,,,,,,,,,,,,,,,,,,,,,,,,,,,,,,238,f,23,2023-03-21_15h15.13.561,RL,2022.2.4,60.27814749
1,0,0,0,,,,,,,,,88.478999,None,89.4931554,89.4931554,89.4931554,89.4931554,89.4931554,89.4931554,r,0.3179814,89.8543036,89.8543036,89.8543036,89.8543036,89.8543036,89.8543036,90.1409728,90.1409728,92.1187833,92.1187833,92.1362831,92.1362831,92.1362831,92.1362831,92.1362831,92.1362831,92.1362831,92.1362831,92.1362831,92.1362831,92.1362831,92.1362831,92.1362831,92.1362831,92.1362831,94.6449748,94.6449748,94.6449748,94.6449748,94.6449748,55,43,46,56,55,50,6,2.8238923,,,[],[],[],[],[],[],[],-0.6,2,,[],[],[],[],[],[],[],None,None,97.5433746,99.1659178,,,,,,,,,,,,,,,,,,,,,,,,,,,,,,,238,f,23,2023-03-21_15h15.13.561,RL,2022.2.4,60.27814749
0,0,1,0,,,,,,,,,,None,99.1659178,99.1659178,99.1659178,99.1659178,99.1659178,99.1659178,j,0.3467034,99.5369794,99.5369794,99.5369794,99.5369794,99.5369794,99.5369794,99.8313418,99.8313418,100.8950121,100.8950121,100.8950121,100.8950121,100.8950121,100.8950121,100.8950121,100.8950121,100.8950121,100.8950121,100.8950121,100.8950121,100.8950121,100.8950121,100.8950121,100.8950121,100.8950121,,,,,,40,32,38,69,69,69,None,None,67,67,[0.025925925925925925],[-0.2851851851851852],[1],[0],[0],[5.423003500007326],['tijiao'],0.6,0,,[],[],[],[],[],[],[],7.935185185,2.1799694,111.0495526,112.6627283,103.4164682,103.4164682,103.4164682,103.4164682,103.4164682,103.4164682,103.4164682,103.4164682,0.0073416,103.4164682,108.8582274,108.8582274,108.8582274,108.8582274,,,,,,,,,,,,,,,,,238,f,23,2023-03-21_15h15.13.561,RL,2022.2.4,60.27814749
1,0,2,0,,,,,,,,,,None,112.6627283,112.6627283,112.6627283,112.6627283,112.6627283,112.6627283,j,0.348069,113.0287404,113.0287404,113.0287404,113.0287404,113.0287404,113.0287404,113.3277343,113.3277343,115.1392418,115.1392418,115.1392418,115.1392418,115.1392418,115.1392418,115.1392418,115.1392418,115.1392418,115.1392418,115.1392418,115.1392418,115.1392418,115.1392418,115.1392418,115.1392418,115.1392418,117.6484733,117.6484733,117.6484733,117.6484733,117.6484733,54,34,31,67,67,46,7,1.5618924,,,[],[],[],[],[],[],[],0.2,2,,[],[],[],[],[],[],[],None,None,119.2367287,121.172799,,,,,,,,,,,,,,,,,,,,,,,,,,,,,,,238,f,23,2023-03-21_15h15.13.561,RL,2022.2.4,60.27814749
0,0,3,0,,,,,,,,,,None,121.172799,121.172799,121.172799,121.172799,121.172799,121.172799,i,0.421223,121.6259782,121.6259782,121.6259782,121.6259782,121.6259782,121.6259782,121.9207048,121.9207048,123.6661439,123.6661439,123.6661439,123.6661439,123.6661439,123.6661439,123.6661439,123.6661439,123.6661439,123.6661439,123.6661439,123.6661439,123.6661439,123.6661439,123.6661439,123.6661439,123.6661439,,,,,,34,37,38,66,38,63,None,None,,,[],[],[],[],[],[],[],0.6,1,65,[0.032407407407407406],[-0.2916666666666667],[1],[0],[0],[6.680279199994402],['tijiao_random_2'],8.046296296,3.5987479,136.4966732,138.3094025,,,,,,,,,,,132.8798094,132.8798094,132.8798094,132.8798094,126.1892213,126.1892213,126.1892213,126.1892213,126.1892213,126.1892213,126.1892213,126.1892213,0.0068268,126.1892213,,,,,,,238,f,23,2023-03-21_15h15.13.561,RL,2022.2.4,60.27814749
1,0,4,0,,,,,,,,,,None,138.3094025,138.3094025,138.3094025,138.3094025,138.3094025,138.3094025,f,0.2743364,138.6146444,138.6146444,138.6146444,138.6146444,138.6146444,138.6146444,138.9079122,138.9079122,140.619973,140.619973,140.619973,140.619973,140.619973,140.619973,140.619973,140.619973,140.619973,140.619973,140.619973,140.619973,140.619973,140.619973,140.619973,140.619973,140.619973,143.1289267,143.1289267,143.1289267,143.1289267,143.1289267,29,37,26,68,37,44,5,3.7721983,,,[],[],[],[],[],[],[],-0.2,3,,[],[],[],[],[],[],[],None,None,146.9279134,148.6644977,,,,,,,,,,,,,,,,,,,,,,,,,,,,,,,238,f,23,2023-03-21_15h15.13.561,RL,2022.2.4,60.27814749
0,0,5,0,,,,,,,,,,None,148.6644977,148.6644977,148.6644977,148.6644977,148.6644977,148.6644977,r,0.6595525,149.346396,149.346396,149.346396,149.346396,149.346396,149.346396,149.6453004,149.6453004,151.2742508,151.2742508,151.2742508,151.2742508,151.2742508,151.2742508,151.2742508,151.2742508,151.2742508,151.2742508,151.2742508,151.2742508,151.2742508,151.2742508,151.2742508,151.2742508,151.2742508,,,,,,40,36,30,69,40,68,None,None,41,41,"[0.05648148148148148, 0.05462962962962963]","[-0.2462962962962963, -0.2777777777777778]","[1, 1]","[0, 0]","[0, 0]","[3.281190499998047, 4.211836099988432]",['tijiao'],0.2,0,,[],[],[],[],[],[],[],10.0462963,2.9944989,161.0296899,162.9586951,153.7841189,153.7841189,153.7841189,153.7841189,153.7841189,153.7841189,153.7841189,153.7841189,0.0058817,153.7841189,158.0162525,158.0162525,158.0162525,158.0162525,,,,,,,,,,,,,,,,,238,f,23,2023-03-21_15h15.13.561,RL,2022.2.4,60.27814749
1,0,6,0,,,,,,,,,,None,162.9586951,162.9586951,162.9586951,162.9586951,162.9586951,162.9586951,i,0.4718419,163.45769,163.45769,163.45769,163.45769,163.45769,163.45769,163.7570488,163.7570488,165.5686499,165.5686499,165.5686499,165.5686499,165.5686499,165.5686499,165.5686499,165.5686499,165.5686499,165.5686499,165.5686499,165.5686499,165.5686499,165.5686499,165.5686499,165.5686499,165.5686499,,,,,,40,31,17,67,17,48,None,None,,,[],[],[],[],[],[],[],0.2,1,19,[0.06111111111111111],[-0.3148148148148148],[1],[0],[0],[6.646757299997262],['tijiao_random_2'],6.009259259,2.5186975,177.2852707,179.2309911,,,,,,,,,,,174.7480316,174.7480316,174.7480316,174.7480316,168.0872598,168.0872598,168.0872598,168.0872598,168.0872598,168.0872598,168.0872598,168.0872598,0.0058892,168.0872598,,,,,,,238,f,23,2023-03-21_15h15.13.561,RL,2022.2.4,60.27814749
0,0,7,0,,,,,,,,,,None,179.2309911,179.2309911,179.2309911,179.2309911,179.2309911,179.2309911,i,0.235033,179.4975813,179.4975813,179.4975813,179.4975813,179.4975813,179.4975813,179.7964899,179.7964899,180.6608193,180.6608193,180.6608193,180.6608193,180.6608193,180.6608193,180.6608193,180.6608193,180.6608193,180.6608193,180.6608193,180.6608193,180.6608193,180.6608193,180.6608193,180.6608193,180.6608193,,,,,,31,21,30,65,30,56,None,None,,,[],[],[],[],[],[],[],0.2,1,37,[-0.023148148148148147],[-0.2898148148148148],[1],[0],[0],[8.908848399994895],['tijiao_random_2'],5.953703704,3.0678834,195.1864444,197.0158778,,,,,,,,,,,192.0999825,192.0999825,192.0999825,192.0999825,183.1780711,183.1780711,183.1780711,183.1780711,183.1780711,183.1780711,183.1780711,183.1780711,0.0060548,183.1780711,,,,,,,238,f,23,2023-03-21_15h15.13.561,RL,2022.2.4,60.27814749
1,0,8,0,,,,,,,,,,None,197.0158778,197.0158778,197.0158778,197.0158778,197.0158778,197.0158778,j,0.4183229,197.4649359,197.4649359,197.4649359,197.4649359,197.4649359,197.4649359,197.7641411,197.7641411,199.5261413,199.5261413,199.5261413,199.5261413,199.5261413,199.5261413,199.5261413,199.5261413,199.5261413,199.5261413,199.5261413,199.5261413,199.5261413,199.5261413,199.5261413,199.5261413,199.5261413,202.0352282,202.0352282,202.0352282,202.0352282,202.0352282,30,33,28,74,74,55,7,2.1434367,,,[],[],[],[],[],[],[],0.6,2,,[],[],[],[],[],[],[],None,None,204.2027535,205.7585874,,,,,,,,,,,,,,,,,,,,,,,,,,,,,,,238,f,23,2023-03-21_15h15.13.561,RL,2022.2.4,60.27814749
0,0,9,0,,,,,,,,,,None,205.7585874,205.7585874,205.7585874,205.7585874,205.7585874,205.7585874,j,0.2825794,206.0752573,206.0752573,206.0752573,206.0752573,206.0752573,206.0752573,206.373856,206.373856,207.936308,207.936308,207.936308,207.936308,207.936308,207.936308,207.936308,207.936308,207.936308,207.936308,207.936308,207.936308,207.936308,207.936308,207.936308,207.936308,207.936308,,,,,,24,20,22,65,65,62,None,None,69,69,[-0.012962962962962963],[-0.2824074074074074],[1],[0],[0],[8.581510200005141],['tijiao'],-0.6,0,,[],[],[],[],[],[],[],9.425925926,4.2420909,223.3099665,225.1557918,210.448363,210.448363,210.448363,210.448363,210.448363,210.448363,210.448363,210.448363,0.0078961,210.448363,219.0496985,219.0496985,219.0496985,219.0496985,,,,,,,,,,,,,,,,,238,f,23,2023-03-21_15h15.13.561,RL,2022.2.4,60.27814749
1,0,10,0,,,,,,,,,,None,225.1557918,225.1557918,225.1557918,225.1557918,225.1557918,225.1557918,j,0.2818127,225.4560802,225.4560802,225.4560802,225.4560802,225.4560802,225.4560802,225.7544222,225.7544222,227.08401,227.08401,227.08401,227.08401,227.08401,227.08401,227.08401,227.08401,227.08401,227.08401,227.08401,227.08401,227.08401,227.08401,227.08401,227.08401,227.08401,229.5927728,229.5927728,229.5927728,229.5927728,229.5927728,22,23,22,58,58,47,3,3.8718926,,,[],[],[],[],[],[],[],0.6,2,,[],[],[],[],[],[],[],None,None,233.4915056,235.1949019,,,,,,,,,,,,,,,,,,,,,,,,,,,,,,,238,f,23,2023-03-21_15h15.13.561,RL,2022.2.4,60.27814749
0,0,11,0,,,,,,,,,,None,235.1949019,235.1949019,235.1949019,235.1949019,235.1949019,235.1949019,r,0.2679677,235.494891,235.494891,235.494891,235.494891,235.494891,235.494891,235.7935402,235.7935402,237.139851,237.139851,237.139851,237.139851,237.139851,237.139851,237.139851,237.139851,237.139851,237.139851,237.139851,237.139851,237.139851,237.139851,237.139851,237.139851,237.139851,,,,,,23,19,26,62,23,51,None,None,22,22,[-0.010185185185185186],[-0.27685185185185185],[1],[0],[0],[8.900119500001892],['tijiao'],0.6,0,,[],[],[],[],[],[],[],5,2.9735847,251.5660855,253.2290716,239.6504939,239.6504939,239.6504939,239.6504939,239.6504939,239.6504939,239.6504939,239.6504939,0.0053436,239.6504939,248.5735393,248.5735393,248.5735393,248.5735393,,,,,,,,,,,,,,,,,238,f,23,2023-03-21_15h15.13.561,RL,2022.2.4,60.27814749
1,0,12,0,,,,,,,,,,None,253.2290716,253.2290716,253.2290716,253.2290716,253.2290716,253.2290716,f,0.3013863,253.5624218,253.5624218,253.5624218,253.5624218,253.5624218,253.5624218,253.8610259,253.8610259,255.0909992,255.0909992,255.0909992,255.0909992,255.0909992,255.0909992,255.0909992,255.0909992,255.0909992,255.0909992,255.0909992,255.0909992,255.0909992,255.0909992,255.0909992,255.0909992,255.0909992,,,,,,26,28,27,63,28,27,None,None,30,30,[-0.05462962962962963],[-0.2833333333333333],[1],[0],[0],[10.67866910000157],['tijiao'],-0.6,0,,[],[],[],[],[],[],[],6.842592593,2.0952551,270.4144543,272.2271923,257.6010651,257.6010651,257.6010651,257.6010651,257.6010651,257.6010651,257.6010651,257.6010651,0.0051439,257.6010651,268.3010036,268.3010036,268.3010036,268.3010036,,,,,,,,,,,,,,,,,238,f,23,2023-03-21_15h15.13.561,RL,2022.2.4,60.27814749
0,0,13,0,,,,,,,,,,None,272.2271923,272.2271923,272.2271923,272.2271923,272.2271923,272.2271923,j,0.2106864,272.460209,272.460209,272.460209,272.460209,272.460209,272.460209,272.7594496,272.7594496,274.2387559,274.2387559,274.2387559,274.2387559,274.2387559,274.2387559,274.2387559,274.2387559,274.2387559,274.2387559,274.2387559,274.2387559,274.2387559,274.2387559,274.2387559,274.2387559,274.2387559,276.747902,276.747902,276.747902,276.747902,276.747902,27,20,22,67,67,62,5,3.672539,,,[],[],[],[],[],[],[],0.2,3,,[],[],[],[],[],[],[],None,None,280.4461645,282.0005288,,,,,,,,,,,,,,,,,,,,,,,,,,,,,,,238,f,23,2023-03-21_15h15.13.561,RL,2022.2.4,60.27814749
1,0,14,0,,,,,,,,,,None,282.0005288,282.0005288,282.0005288,282.0005288,282.0005288,282.0005288,j,0.5735252,282.6003446,282.6003446,282.6003446,282.6003446,282.6003446,282.6003446,282.8985505,282.8985505,284.3776664,284.3776664,284.3776664,284.3776664,284.3776664,284.3776664,284.3776664,284.3776664,284.3776664,284.3776664,284.3776664,284.3776664,284.3776664,284.3776664,284.3776664,284.3776664,284.3776664,,,,,,26,29,27,79,79,50,None,None,,,[],[],[],[],[],[],[],-0.2,1,21,[0.04259259259259259],[-0.3148148148148148],[1],[0],[0],[8.308185800007777],['tijiao_random_2'],10.48148148,3.5513767,298.7871908,300.7823325,,,,,,,,,,,295.2171773,295.2171773,295.2171773,295.2171773,286.8965761,286.8965761,286.8965761,286.8965761,286.8965761,286.8965761,286.8965761,286.8965761,0.0062071,286.8965761,,,,,,,238,f,23,2023-03-21_15h15.13.561,RL,2022.2.4,60.27814749
0,0,15,0,,,,,,,,,,None,300.7823325,300.7823325,300.7823325,300.7823325,300.7823325,300.7823325,j,0.2636954,301.0654844,301.0654844,301.0654844,301.0654844,301.0654844,301.0654844,301.3647721,301.3647721,302.3452367,302.3452367,302.3452367,302.3452367,302.3452367,302.3452367,302.3452367,302.3452367,302.3452367,302.3452367,302.3452367,302.3452367,302.3452367,302.3452367,302.3452367,302.3452367,302.3452367,,,,,,23,22,15,73,73,50,None,None,,,[],[],[],[],[],[],[],-0.2,1,25,[-0.018518518518518517],[-0.2833333333333333],[1],[0],[0],[6.480527300009271],['tijiao_random_2'],8.990740741,5.7438818,317.1208216,319.0661655,,,,,,,,,,,311.3588124,311.3588124,311.3588124,311.3588124,304.8642745,304.8642745,304.8642745,304.8642745,304.8642745,304.8642745,304.8642745,304.8642745,0.0063728,304.8642745,,,,,,,238,f,23,2023-03-21_15h15.13.561,RL,2022.2.4,60.27814749
1,0,16,0,,,,,,,,,,None,319.0661655,319.0661655,319.0661655,319.0661655,319.0661655,319.0661655,r,0.6520738,319.7477798,319.7477798,319.7477798,319.7477798,319.7477798,319.7477798,320.0470146,320.0470146,321.5594473,321.5594473,321.5594473,321.5594473,321.5594473,321.5594473,321.5594473,321.5594473,321.5594473,321.5594473,321.5594473,321.5594473,321.5594473,321.5594473,321.5594473,321.5594473,321.5594473,,,,,,21,21,18,63,21,54,None,None,28,28,[0.03518518518518519],[-0.28888888888888886],[1],[0],[0],[5.725118200003635],['tijiao'],0.2,0,,[],[],[],[],[],[],[],9.083333333,1.8816798,331.7139047,333.2775354,324.0698128,324.0698128,324.0698128,324.0698128,324.0698128,324.0698128,324.0698128,324.0698128,0.0054713,324.0698128,329.8137816,329.8137816,329.8137816,329.8137816,,,,,,,,,,,,,,,,,238,f,23,2023-03-21_15h15.13.561,RL,2022.2.4,60.27814749
0,0,17,0,,,,,,,,,,None,333.2775354,333.2775354,333.2775354,333.2775354,333.2775354,333.2775354,i,0.2822276,333.5767615,333.5767615,333.5767615,333.5767615,333.5767615,333.5767615,333.876099,333.876099,335.8540631,335.8540631,335.8540631,335.8540631,335.8540631,335.8540631,335.8540631,335.8540631,335.8540631,335.8540631,335.8540631,335.8540631,335.8540631,335.8540631,335.8540631,335.8540631,335.8540631,,,,,,24,24,14,71,14,56,None,None,,,[],[],[],[],[],[],[],-0.6,1,27,[0.003703703703703704],[-0.2962962962962963],[1],[0],[0],[5.299087199993664],['tijiao_random_2'],7.87037037,3.3170442,347.0224726,348.9180391,,,,,,,,,,,343.6864751,343.6864751,343.6864751,343.6864751,338.3744957,338.3744957,338.3744957,338.3744957,338.3744957,338.3744957,338.3744957,338.3744957,0.0061362,338.3744957,,,,,,,238,f,23,2023-03-21_15h15.13.561,RL,2022.2.4,60.27814749
1,0,18,0,,,,,,,,,,None,348.9180391,348.9180391,348.9180391,348.9180391,348.9180391,348.9180391,j,0.2466611,349.18421,349.18421,349.18421,349.18421,349.18421,349.18421,349.4833249,349.4833249,350.7796956,350.7796956,350.7796956,350.7796956,350.7796956,350.7796956,350.7796956,350.7796956,350.7796956,350.7796956,350.7796956,350.7796956,350.7796956,350.7796956,350.7796956,350.7796956,350.7796956,,,,,,29,34,26,62,62,58,None,None,,,[],[],[],[],[],[],[],-0.6,1,19,[0.025],[-0.30092592592592593],[1],[0],[0],[8.241055199992843],['tijiao_random_2'],11,2.7860088,364.3582627,366.1541521,,,,,,,,,,,361.5554193,361.5554193,361.5554193,361.5554193,353.3001915,353.3001915,353.3001915,353.3001915,353.3001915,353.3001915,353.3001915,353.3001915,0.0059668,353.3001915,,,,,,,238,f,23,2023-03-21_15h15.13.561,RL,2022.2.4,60.27814749
0,0,19,0,,,,,,,,,,None,366.1541521,366.1541521,366.1541521,366.1541521,366.1541521,366.1541521,r,0.0040776,366.1878119,366.1878119,366.1878119,366.1878119,366.1878119,366.1878119,366.4870207,366.4870207,367.700186,367.700186,367.700186,367.700186,367.700186,367.700186,367.700186,367.700186,367.700186,367.700186,367.700186,367.700186,367.700186,367.700186,367.700186,367.700186,367.700186,370.2095818,370.2095818,370.2095818,370.2095818,370.2095818,25,39,32,63,25,53,4,3.5410769,,,[],[],[],[],[],[],[],-0.6,3,,[],[],[],[],[],[],[],None,None,373.7734702,375.3788172,,,,,,,,,,,,,,,,,,,,,,,,,,,,,,,238,f,23,2023-03-21_15h15.13.561,RL,2022.2.4,60.27814749
1,0,20,0,,,,,,,,,,None,375.3788172,375.3788172,375.3788172,375.3788172,375.3788172,375.3788172,j,0.4898103,375.8946882,375.8946882,375.8946882,375.8946882,375.8946882,375.8946882,376.1940069,376.1940069,377.3906942,377.3906942,377.3906942,377.3906942,377.3906942,377.3906942,377.3906942,377.3906942,377.3906942,377.3906942,377.3906942,377.3906942,377.3906942,377.3906942,377.3906942,377.3906942,377.3906942,379.8995097,379.8995097,379.8995097,379.8995097,379.8995097,22,24,23,77,77,34,6,2.7248184,,,[],[],[],[],[],[],[],-0.2,3,,[],[],[],[],[],[],[],None,None,382.6538622,384.4542831,,,,,,,,,,,,,,,,,,,,,,,,,,,,,,,238,f,23,2023-03-21_15h15.13.561,RL,2022.2.4,60.27814749
0,0,21,0,,,,,,,,,,None,384.4542831,384.4542831,384.4542831,384.4542831,384.4542831,384.4542831,j,0.2760449,384.7537743,384.7537743,384.7537743,384.7537743,384.7537743,384.7537743,385.0531081,385.0531081,386.3826826,386.3826826,386.3826826,386.3826826,386.3826826,386.3826826,386.3826826,386.3826826,386.3826826,386.3826826,386.3826826,386.3826826,386.3826826,386.3826826,386.3826826,386.3826826,386.3826826,,,,,,20,20,17,72,72,50,None,None,79,79,[0.012962962962962963],[-0.2777777777777778],[1],[0],[0],[6.572529199998826],['tijiao'],-0.2,0,,[],[],[],[],[],[],[],11,1.6653132,397.1685251,398.8980881,388.892576,388.892576,388.892576,388.892576,388.892576,388.892576,388.892576,388.892576,0.0053094,388.892576,395.4846028,395.4846028,395.4846028,395.4846028,,,,,,,,,,,,,,,,,238,f,23,2023-03-21_15h15.13.561,RL,2022.2.4,60.27814749
1,0,22,0,,,,,,,,,,None,398.8980881,398.8980881,398.8980881,398.8980881,398.8980881,398.8980881,j,0.2336545,399.1654172,399.1654172,399.1654172,399.1654172,399.1654172,399.1654172,399.4637032,399.4637032,400.5601789,400.5601789,400.5601789,400.5601789,400.5601789,400.5601789,400.5601789,400.5601789,400.5601789,400.5601789,400.5601789,400.5601789,400.5601789,400.5601789,400.5601789,400.5601789,400.5601789,,,,,,34,30,13,68,68,55,None,None,,,[],[],[],[],[],[],[],0.6,1,70,[0.05],[-0.2740740740740741],[1],[0],[0],[5.386049900000216],['tijiao_random_2'],9.861111111,3.632596,412.1279766,414.0568006,,,,,,,,,,,408.4761746,408.4761746,408.4761746,408.4761746,403.0773048,403.0773048,403.0773048,403.0773048,403.0773048,403.0773048,403.0773048,403.0773048,0.0059852,403.0773048,,,,,,,238,f,23,2023-03-21_15h15.13.561,RL,2022.2.4,60.27814749
0,0,23,0,,,,,,,,,,None,414.0568006,414.0568006,414.0568006,414.0568006,414.0568006,414.0568006,j,0.3050696,414.3897607,414.3897607,414.3897607,414.3897607,414.3897607,414.3897607,414.6884447,414.6884447,416.068381,416.068381,416.0849952,416.0849952,416.0849952,416.0849952,416.0849952,416.0849952,416.0849952,416.0849952,416.0849952,416.0849952,416.0849952,416.0849952,416.0849952,416.0849952,416.0849952,,,,,,28,33,15,70,70,56,None,None,77,77,[0.03148148148148148],[-0.2916666666666667],[1],[0],[0],[5.109637100002146],['tijiao'],-0.2,0,,[],[],[],[],[],[],[],11,1.5634302,425.308401,427.2374453,418.5957047,418.5957047,418.5957047,418.5957047,418.5957047,418.5957047,418.5957047,418.5957047,0.0065505,418.5957047,423.7262637,423.7262637,423.7262637,423.7262637,,,,,,,,,,,,,,,,,238,f,23,2023-03-21_15h15.13.561,RL,2022.2.4,60.27814749
1,0,24,0,,,,,,,,,,None,427.2374453,427.2374453,427.2374453,427.2374453,427.2374453,427.2374453,j,0.2423381,427.5039942,427.5039942,427.5039942,427.5039942,427.5039942,427.5039942,427.8028958,427.8028958,428.6174159,428.6174159,428.6174159,428.6174159,428.6174159,428.6174159,428.6174159,428.6174159,428.6174159,428.6174159,428.6174159,428.6174159,428.6174159,428.6174159,428.6174159,428.6174159,428.6174159,,,,,,26,36,12,71,71,49,None,None,76,76,[-0.019444444444444445],[-0.2777777777777778],[1],[0],[0],[4.7443951000022935],['tijiao'],0.6,0,,[],[],[],[],[],[],[],10.91666667,1.331831,437.2425479,439.204907,431.1277474,431.1277474,431.1277474,431.1277474,431.1277474,431.1277474,431.1277474,431.1277474,0.0061198,431.1277474,435.8921564,435.8921564,435.8921564,435.8921564,,,,,,,,,,,,,,,,,238,f,23,2023-03-21_15h15.13.561,RL,2022.2.4,60.27814749
0,0,25,0,,,,,,,,,,None,439.204907,439.204907,439.204907,439.204907,439.204907,439.204907,j,0.4532193,439.6873393,439.6873393,439.6873393,439.6873393,439.6873393,439.6873393,439.9865382,439.9865382,441.8145649,441.8145649,441.8145649,441.8145649,441.8145649,441.8145649,441.8145649,441.8145649,441.8145649,441.8145649,441.8145649,441.8145649,441.8145649,441.8145649,441.8145649,441.8145649,441.8145649,,,,,,37,36,21,57,57,41,None,None,67,67,[0.012037037037037037],[-0.30925925925925923],[1],[0],[0],[9.331051800007117],['tijiao'],-0.2,0,,[],[],[],[],[],[],[],10.97222222,3.174937,456.8722925,458.8344107,444.3256322,444.3256322,444.3256322,444.3256322,444.3256322,444.3256322,444.3256322,444.3256322,0.0068391,444.3256322,453.6787447,453.6787447,453.6787447,453.6787447,,,,,,,,,,,,,,,,,238,f,23,2023-03-21_15h15.13.561,RL,2022.2.4,60.27814749
1,0,26,0,,,,,,,,,,None,458.8344107,458.8344107,458.8344107,458.8344107,458.8344107,458.8344107,j,0.2111947,459.0693407,459.0693407,459.0693407,459.0693407,459.0693407,459.0693407,459.3665406,459.3665406,461.128625,461.128625,461.128625,461.128625,461.128625,461.128625,461.128625,461.128625,461.128625,461.128625,461.128625,461.128625,461.128625,461.128625,461.128625,461.128625,461.128625,463.637864,463.637864,463.637864,463.637864,463.637864,35,33,12,64,64,50,4,2.8916995,,,[],[],[],[],[],[],[],0.6,2,,[],[],[],[],[],[],[],None,None,466.5557659,468.3587224,,,,,,,,,,,,,,,,,,,,,,,,,,,,,,,238,f,23,2023-03-21_15h15.13.561,RL,2022.2.4,60.27814749
0,0,27,0,,,,,,,,,,None,468.3587224,468.3587224,468.3587224,468.3587224,468.3587224,468.3587224,j,0.3966022,468.7744878,468.7744878,468.7744878,468.7744878,468.7744878,468.7744878,469.0733669,469.0733669,470.5029107,470.5029107,470.5029107,470.5029107,470.5029107,470.5029107,470.5029107,470.5029107,470.5029107,470.5029107,470.5029107,470.5029107,470.5029107,470.5029107,470.5029107,470.5029107,470.5029107,,,,,,34,48,21,65,65,45,None,None,66,66,[-0.03425925925925926],[-0.2759259259259259],[1],[0],[0],[4.246089000007487],['tijiao'],-0.6,0,,[],[],[],[],[],[],[],9.981481481,3.9405663,481.239218,483.1184655,473.0130965,473.0130965,473.0130965,473.0130965,473.0130965,473.0130965,473.0130965,473.0130965,0.0055457,473.0130965,477.2798092,477.2798092,477.2798092,477.2798092,,,,,,,,,,,,,,,,,238,f,23,2023-03-21_15h15.13.561,RL,2022.2.4,60.27814749
1,0,28,0,,,,,,,,,,None,483.1184655,483.1184655,483.1184655,483.1184655,483.1184655,483.1184655,j,0.2134317,483.3535963,483.3535963,483.3535963,483.3535963,483.3535963,483.3535963,483.650336,483.650336,485.5286152,485.5286152,485.5453613,485.5453613,485.5453613,485.5453613,485.5453613,485.5453613,485.5453613,485.5453613,485.5453613,485.5453613,485.5453613,485.5453613,485.5453613,485.5453613,485.5453613,488.0541874,488.0541874,488.0541874,488.0541874,488.0541874,42,40,20,63,63,41,4,2.5419655,,,[],[],[],[],[],[],[],-0.2,2,,[],[],[],[],[],[],[],None,None,490.6214492,492.459607,,,,,,,,,,,,,,,,,,,,,,,,,,,,,,,238,f,23,2023-03-21_15h15.13.561,RL,2022.2.4,60.27814749
0,0,29,0,,,,,,,,,,None,492.459607,492.459607,492.459607,492.459607,492.459607,492.459607,f,0.2321554,492.7091942,492.7091942,492.7091942,492.7091942,492.7091942,492.7091942,493.0084775,493.0084775,493.8561053,493.8561053,493.8561053,493.8561053,493.8561053,493.8561053,493.8561053,493.8561053,493.8561053,493.8561053,493.8561053,493.8561053,493.8561053,493.8561053,493.8561053,493.8561053,493.8561053,,,,,,34,48,14,62,48,42,None,None,,,[],[],[],[],[],[],[],0.6,1,65,[-0.01574074074074074],[-0.29074074074074074],[1],[0],[0],[3.9874126999930013],['tijiao_random_2'],7.944444444,2.6037965,502.9964982,504.5432976,,,,,,,,,,,500.3749235,500.3749235,500.3749235,500.3749235,496.3750461,496.3750461,496.3750461,496.3750461,496.3750461,496.3750461,496.3750461,496.3750461,0.0055045,496.3750461,,,,,,,238,f,23,2023-03-21_15h15.13.561,RL,2022.2.4,60.27814749
1,0,30,0,,,,,,,,,,None,504.5432976,504.5432976,504.5432976,504.5432976,504.5432976,504.5432976,f,0.2575871,504.8290912,504.8290912,504.8290912,504.8290912,504.8290912,504.8290912,505.1253985,505.1253985,506.8870992,506.8870992,506.8870992,506.8870992,506.8870992,506.8870992,506.8870992,506.8870992,506.8870992,506.8870992,506.8870992,506.8870992,506.8870992,506.8870992,506.8870992,506.8870992,506.8870992,,,,,,43,45,14,65,45,45,None,None,,,[],[],[],[],[],[],[],-0.6,1,17,[0.01574074074074074],[-0.2861111111111111],[1],[0],[0],[3.739747100000386],['tijiao_random_2'],10.14814815,3.4660473,516.642605,518.4549063,,,,,,,,,,,513.1578831,513.1578831,513.1578831,513.1578831,509.4058334,509.4058334,509.4058334,509.4058334,509.4058334,509.4058334,509.4058334,509.4058334,0.0060125,509.4058334,,,,,,,238,f,23,2023-03-21_15h15.13.561,RL,2022.2.4,60.27814749
0,0,31,0,,,,,,,,,,None,518.4549063,518.4549063,518.4549063,518.4549063,518.4549063,518.4549063,f,0.5128156,518.9875032,518.9875032,518.9875032,518.9875032,518.9875032,518.9875032,519.2867048,519.2867048,520.3339552,520.3339552,520.3339552,520.3339552,520.3339552,520.3339552,520.3339552,520.3339552,520.3339552,520.3339552,520.3339552,520.3339552,520.3339552,520.3339552,520.3339552,520.3339552,520.3339552,522.8430631,522.8430631,522.8430631,522.8430631,522.8430631,37,43,28,57,43,38,6,4.4370511,,,[],[],[],[],[],[],[],-0.2,3,,[],[],[],[],[],[],[],None,None,527.306485,529.1926982,,,,,,,,,,,,,,,,,,,,,,,,,,,,,,,238,f,23,2023-03-21_15h15.13.561,RL,2022.2.4,60.27814749
1,0,32,0,,,,,,,,,,None,529.1926982,529.1926982,529.1926982,529.1926982,529.1926982,529.1926982,f,0.3091773,529.525428,529.525428,529.525428,529.525428,529.525428,529.525428,529.824591,529.824591,531.6198455,531.6198455,531.6198455,531.6198455,531.6198455,531.6198455,531.6198455,531.6198455,531.6198455,531.6198455,531.6198455,531.6198455,531.6198455,531.6198455,531.6198455,531.6198455,531.6198455,534.1288885,534.1288885,534.1288885,534.1288885,534.1288885,37,42,29,50,42,42,4,1.8774302,,,[],[],[],[],[],[],[],0.6,2,,[],[],[],[],[],[],[],None,None,536.0336041,537.6529125,,,,,,,,,,,,,,,,,,,,,,,,,,,,,,,238,f,23,2023-03-21_15h15.13.561,RL,2022.2.4,60.27814749
0,0,33,0,,,,,,,,,,None,537.6529125,537.6529125,537.6529125,537.6529125,537.6529125,537.6529125,f,0.3811641,538.0522797,538.0522797,538.0522797,538.0522797,538.0522797,538.0522797,538.3513816,538.3513816,539.3813504,539.3813504,539.3813504,539.3813504,539.3813504,539.3813504,539.3813504,539.3813504,539.3813504,539.3813504,539.3813504,539.3813504,539.3813504,539.3813504,539.3813504,539.3813504,539.3813504,,,,,,29,56,19,56,56,38,None,None,,,[],[],[],[],[],[],[],-0.6,1,23,[-0.025],[-0.2722222222222222],[1],[0],[0],[4.321923600000446],['tijiao_random_2'],9.981481481,2.4699219,548.7217101,550.4513716,,,,,,,,,,,546.2330104,546.2330104,546.2330104,546.2330104,541.8978677,541.8978677,541.8978677,541.8978677,541.8978677,541.8978677,541.8978677,541.8978677,0.0054829,541.8978677,,,,,,,238,f,23,2023-03-21_15h15.13.561,RL,2022.2.4,60.27814749
1,0,34,0,,,,,,,,,,None,550.4513716,550.4513716,550.4513716,550.4513716,550.4513716,550.4513716,f,0.2659587,550.7352324,550.7352324,550.7352324,550.7352324,550.7352324,550.7352324,551.0336753,551.0336753,552.8279581,552.8279581,552.8446845,552.8446845,552.8446845,552.8446845,552.8446845,552.8446845,552.8446845,552.8446845,552.8446845,552.8446845,552.8446845,552.8446845,552.8446845,552.8446845,552.8446845,555.3543305,555.3543305,555.3543305,555.3543305,555.3543305,36,38,20,62,38,48,2,2.6583545,,,[],[],[],[],[],[],[],-0.2,2,,[],[],[],[],[],[],[],None,None,558.0378925,559.6927645,,,,,,,,,,,,,,,,,,,,,,,,,,,,,,,238,f,23,2023-03-21_15h15.13.561,RL,2022.2.4,60.27814749
0,0,35,0,,,,,,,,,,None,559.6927645,559.6927645,559.6927645,559.6927645,559.6927645,559.6927645,i,0.4306883,560.1418533,560.1418533,560.1418533,560.1418533,560.1418533,560.1418533,560.4408846,560.4408846,561.754238,561.754238,561.754238,561.754238,561.754238,561.754238,561.754238,561.754238,561.754238,561.754238,561.754238,561.754238,561.754238,561.754238,561.754238,561.754238,561.754238,,,,,,29,46,28,68,28,56,None,None,,,[],[],[],[],[],[],[],-0.2,1,41,[-0.03981481481481482],[-0.31203703703703706],[1],[0],[0],[8.560392899991712],['tijiao_random_2'],6.898148148,3.4992765,576.3629228,578.3417786,,,,,,,,,,,572.8456889,572.8456889,572.8456889,572.8456889,564.2713223,564.2713223,564.2713223,564.2713223,564.2713223,564.2713223,564.2713223,564.2713223,0.0055023,564.2713223,,,,,,,238,f,23,2023-03-21_15h15.13.561,RL,2022.2.4,60.27814749
1,0,36,0,,,,,,,,,,None,578.3417786,578.3417786,578.3417786,578.3417786,578.3417786,578.3417786,i,0.2486149,578.608224,578.608224,578.608224,578.608224,578.608224,578.608224,578.9072046,578.9072046,580.0708309,580.0708309,580.0708309,580.0708309,580.0708309,580.0708309,580.0708309,580.0708309,580.0708309,580.0708309,580.0708309,580.0708309,580.0708309,580.0708309,580.0708309,580.0708309,580.0708309,582.5798787,582.5798787,582.5798787,582.5798787,582.5798787,35,48,29,67,29,43,2,1.8608408,,,[],[],[],[],[],[],[],-0.2,2,,[],[],[],[],[],[],[],None,None,584.4664083,586.0709328,,,,,,,,,,,,,,,,,,,,,,,,,,,,,,,238,f,23,2023-03-21_15h15.13.561,RL,2022.2.4,60.27814749
0,0,37,0,,,,,,,,,,None,586.0709328,586.0709328,586.0709328,586.0709328,586.0709328,586.0709328,j,0.2318931,586.3205236,586.3205236,586.3205236,586.3205236,586.3205236,586.3205236,586.6198291,586.6198291,587.9159988,587.9159988,587.9159988,587.9159988,587.9159988,587.9159988,587.9159988,587.9159988,587.9159988,587.9159988,587.9159988,587.9159988,587.9159988,587.9159988,587.9159988,587.9159988,587.9159988,,,,,,32,54,20,67,67,31,None,None,,,[],[],[],[],[],[],[],-0.6,1,21,[0.019444444444444445],[-0.2935185185185185],[1],[0],[0],[6.116657699996722],['tijiao_random_2'],9.027777778,2.8182634,599.400026,601.2794417,,,,,,,,,,,596.5645864,596.5645864,596.5645864,596.5645864,590.4330083,590.4330083,590.4330083,590.4330083,590.4330083,590.4330083,590.4330083,590.4330083,0.0057053,590.4330083,,,,,,,238,f,23,2023-03-21_15h15.13.561,RL,2022.2.4,60.27814749
1,0,38,0,,,,,,,,,,None,601.2794417,601.2794417,601.2794417,601.2794417,601.2794417,601.2794417,j,0.4044428,601.7129201,601.7129201,601.7129201,601.7129201,601.7129201,601.7129201,602.0108938,602.0108938,603.7894128,603.7894128,603.7894128,603.7894128,603.7894128,603.7894128,603.7894128,603.7894128,603.7894128,603.7894128,603.7894128,603.7894128,603.7894128,603.7894128,603.7894128,603.7894128,603.7894128,,,,,,47,58,28,59,59,66,None,None,,,[],[],[],[],[],[],[],0.6,1,63,[0.053703703703703705],[-0.28888888888888886],[1],[0],[0],[9.90371430000232],['tijiao_random_2'],7.962962963,2.2712374,618.5147128,620.0614332,,,,,,,,,,,616.2243077,616.2243077,616.2243077,616.2243077,606.3090086,606.3090086,606.3090086,606.3090086,606.3090086,606.3090086,606.3090086,606.3090086,0.0061523,606.3090086,,,,,,,238,f,23,2023-03-21_15h15.13.561,RL,2022.2.4,60.27814749
0,0,39,0,,,,,,,,,,None,620.0614332,620.0614332,620.0614332,620.0614332,620.0614332,620.0614332,j,0.2497375,620.3446366,620.3446366,620.3446366,620.3446366,620.3446366,620.3446366,620.6431221,620.6431221,622.1225954,622.1225954,622.1225954,622.1225954,622.1225954,622.1225954,622.1225954,622.1225954,622.1225954,622.1225954,622.1225954,622.1225954,622.1225954,622.1225954,622.1225954,622.1225954,622.1225954,,,,,,43,50,22,61,61,61,None,None,67,67,[0.001851851851851852],[-0.2851851851851852],[1],[0],[0],[4.262405700006639],['tijiao'],-0.6,0,,[],[],[],[],[],[],[],8.907407407,2.4959723,631.4292869,633.2919492,624.6329241,624.6329241,624.6329241,624.6329241,624.6329241,624.6329241,624.6329241,624.6329241,0.0055239,624.6329241,628.9149433,628.9149433,628.9149433,628.9149433,,,,,,,,,,,,,,,,,238,f,23,2023-03-21_15h15.13.561,RL,2022.2.4,60.27814749
1,0,40,0,,,,,,,,,,None,633.2919492,633.2919492,633.2919492,633.2919492,633.2919492,633.2919492,j,0.5323504,633.8575602,633.8575602,633.8575602,633.8575602,633.8575602,633.8575602,634.1565107,634.1565107,635.2535706,635.2535706,635.2535706,635.2535706,635.2535706,635.2535706,635.2535706,635.2535706,635.2535706,635.2535706,635.2535706,635.2535706,635.2535706,635.2535706,635.2535706,635.2535706,635.2535706,,,,,,43,44,26,65,65,25,None,None,,,[],[],[],[],[],[],[],0.6,1,69,[-0.006481481481481481],[-0.27870370370370373],[1],[0],[0],[4.320311100003892],['tijiao_random_2'],10.90740741,2.069011,644.1944907,645.8740303,,,,,,,,,,,642.1071468,642.1071468,642.1071468,642.1071468,637.7727605,637.7727605,637.7727605,637.7727605,637.7727605,637.7727605,637.7727605,637.7727605,0.0061659,637.7727605,,,,,,,238,f,23,2023-03-21_15h15.13.561,RL,2022.2.4,60.27814749
0,0,41,0,,,,,,,,,,None,645.8740303,645.8740303,645.8740303,645.8740303,645.8740303,645.8740303,j,0.2280193,646.1244542,646.1244542,646.1244542,646.1244542,646.1244542,646.1244542,646.4226716,646.4226716,648.0353963,648.0353963,648.0353963,648.0353963,648.0353963,648.0353963,648.0353963,648.0353963,648.0353963,648.0353963,648.0353963,648.0353963,648.0353963,648.0353963,648.0353963,648.0353963,648.0353963,,,,,,43,48,28,60,60,68,None,None,65,65,[0.012037037037037037],[-0.2824074074074074],[1],[0],[0],[6.406668299998273],['tijiao'],-0.2,0,,[],[],[],[],[],[],[],10.88888889,1.6624732,658.6550098,660.1684989,650.5468609,650.5468609,650.5468609,650.5468609,650.5468609,650.5468609,650.5468609,650.5468609,0.006219,650.5468609,656.9735234,656.9735234,656.9735234,656.9735234,,,,,,,,,,,,,,,,,238,f,23,2023-03-21_15h15.13.561,RL,2022.2.4,60.27814749
1,0,42,0,,,,,,,,,,None,660.1684989,660.1684989,660.1684989,660.1684989,660.1684989,660.1684989,j,0.2500149,660.4519051,660.4519051,660.4519051,660.4519051,660.4519051,660.4519051,660.7505648,660.7505648,662.6787451,662.6787451,662.6787451,662.6787451,662.6787451,662.6787451,662.6787451,662.6787451,662.6787451,662.6787451,662.6787451,662.6787451,662.6787451,662.6787451,662.6787451,662.6787451,662.6787451,665.1873186,665.1873186,665.1873186,665.1873186,665.1873186,44,51,19,66,66,68,5,2.5258124,,,[],[],[],[],[],[],[],-0.6,2,,[],[],[],[],[],[],[],None,None,667.7378384,669.3436631,,,,,,,,,,,,,,,,,,,,,,,,,,,,,,,238,f,23,2023-03-21_15h15.13.561,RL,2022.2.4,60.27814749
0,0,43,0,,,,,,,,,,None,669.3436631,669.3436631,669.3436631,669.3436631,669.3436631,669.3436631,j,0.3416829,669.7118868,669.7118868,669.7118868,669.7118868,669.7118868,669.7118868,670.0083571,670.0083571,671.0393476,671.0393476,671.0393476,671.0393476,671.0393476,671.0393476,671.0393476,671.0393476,671.0393476,671.0393476,671.0393476,671.0393476,671.0393476,671.0393476,671.0393476,671.0393476,671.0393476,,,,,,39,51,19,69,69,57,None,None,,,[],[],[],[],[],[],[],-0.2,1,34,[0.014814814814814815],[-0.26944444444444443],[1],[0],[0],[7.895226199994795],['tijiao_random_2'],9.092592593,4.8136676,686.296371,688.2918841,,,,,,,,,,,681.4640409,681.4640409,681.4640409,681.4640409,673.5560401,673.5560401,673.5560401,673.5560401,673.5560401,673.5560401,673.5560401,673.5560401,0.0057253,673.5560401,,,,,,,238,f,23,2023-03-21_15h15.13.561,RL,2022.2.4,60.27814749
1,0,44,0,,,,,,,,,,None,688.2918841,688.2918841,688.2918841,688.2918841,688.2918841,688.2918841,f,0.2258145,688.5450328,688.5450328,688.5450328,688.5450328,688.5450328,688.5450328,688.8406507,688.8406507,690.7188101,690.7188101,690.7188101,690.7188101,690.7188101,690.7188101,690.7188101,690.7188101,690.7188101,690.7188101,690.7188101,690.7188101,690.7188101,690.7188101,690.7188101,690.7188101,690.7188101,693.2279275,693.2279275,693.2279275,693.2279275,693.2279275,43,48,24,65,48,34,7,5.052144,,,[],[],[],[],[],[],[],-0.6,2,,[],[],[],[],[],[],[],None,None,698.3057649,699.8271498,,,,,,,,,,,,,,,,,,,,,,,,,,,,,,,238,f,23,2023-03-21_15h15.13.561,RL,2022.2.4,60.27814749
0,0,45,0,,,,,,,,,,None,699.8271498,699.8271498,699.8271498,699.8271498,699.8271498,699.8271498,r,0.5137424,700.3592973,700.3592973,700.3592973,700.3592973,700.3592973,700.3592973,700.6583863,700.6583863,702.4700249,702.4700249,702.4700249,702.4700249,702.4700249,702.4700249,702.4700249,702.4700249,702.4700249,702.4700249,702.4700249,702.4700249,702.4700249,702.4700249,702.4700249,702.4700249,702.4700249,,,,,,49,50,25,57,49,59,None,None,35,35,[0.06944444444444445],[-0.2657407407407407],[1],[0],[0],[8.418063899996923],['tijiao'],-0.6,0,,[],[],[],[],[],[],[],5.055555556,3.1266573,716.5641429,718.4261381,704.980403,704.980403,704.980403,704.980403,704.980403,704.980403,704.980403,704.980403,0.0054612,704.980403,713.4188534,713.4188534,713.4188534,713.4188534,,,,,,,,,,,,,,,,,238,f,23,2023-03-21_15h15.13.561,RL,2022.2.4,60.27814749
1,0,46,0,,,,,,,,,,None,718.4261381,718.4261381,718.4261381,718.4261381,718.4261381,718.4261381,f,0.2378831,718.6927566,718.6927566,718.6927566,718.6927566,718.6927566,718.6927566,718.991754,718.991754,720.9862496,720.9862496,720.9862496,720.9862496,720.9862496,720.9862496,720.9862496,720.9862496,720.9862496,720.9862496,720.9862496,720.9862496,720.9862496,720.9862496,720.9862496,720.9862496,720.9862496,723.4949729,723.4949729,723.4949729,723.4949729,723.4949729,41,57,20,70,57,50,4,2.5255387,,,[],[],[],[],[],[],[],0.2,2,,[],[],[],[],[],[],[],None,None,726.0477497,727.9669917,,,,,,,,,,,,,,,,,,,,,,,,,,,,,,,238,f,23,2023-03-21_15h15.13.561,RL,2022.2.4,60.27814749
0,0,47,0,,,,,,,,,,None,727.9669917,727.9669917,727.9669917,727.9669917,727.9669917,727.9669917,r,0.2487826,728.2332432,728.2332432,728.2332432,728.2332432,728.2332432,728.2332432,728.5323564,728.5323564,730.1944094,730.1944094,730.2109333,730.2109333,730.2109333,730.2109333,730.2109333,730.2109333,730.2109333,730.2109333,730.2109333,730.2109333,730.2109333,730.2109333,730.2109333,730.2109333,730.2109333,,,,,,37,56,16,70,37,64,None,None,37,37,[0.01574074074074074],[-0.2861111111111111],[1],[0],[0],[5.858533599996008],['tijiao'],0.2,0,,[],[],[],[],[],[],[],6.037037037,2.5296699,741.1467037,742.8430419,732.7212492,732.7212492,732.7212492,732.7212492,732.7212492,732.7212492,732.7212492,732.7212492,0.0053239,732.7212492,738.5980848,738.5980848,738.5980848,738.5980848,,,,,,,,,,,,,,,,,238,f,23,2023-03-21_15h15.13.561,RL,2022.2.4,60.27814749
1,0,48,0,,,,,,,,,,None,742.8430419,742.8430419,742.8430419,742.8430419,742.8430419,742.8430419,j,0.529782,743.3936178,743.3936178,743.3936178,743.3936178,743.3936178,743.3936178,743.6906521,743.6906521,745.220038,745.220038,745.2365417,745.2365417,745.2365417,745.2365417,745.2365417,745.2365417,745.2365417,745.2365417,745.2365417,745.2365417,745.2365417,745.2365417,745.2365417,745.2365417,745.2365417,747.7458045,747.7458045,747.7458045,747.7458045,747.7458045,41,51,21,71,71,54,7,1.5942189,,,[],[],[],[],[],[],[],0.6,2,,[],[],[],[],[],[],[],None,None,749.3642972,751.2036353,,,,,,,,,,,,,,,,,,,,,,,,,,,,,,,238,f,23,2023-03-21_15h15.13.561,RL,2022.2.4,60.27814749
0,0,49,0,,,,,,,,,,None,751.2036353,751.2036353,751.2036353,751.2036353,751.2036353,751.2036353,j,0.2617409,751.4866717,751.4866717,751.4866717,751.4866717,751.4866717,751.4866717,751.7855953,751.7855953,753.3479307,753.3479307,753.3479307,753.3479307,753.3479307,753.3479307,753.3479307,753.3479307,753.3479307,753.3479307,753.3479307,753.3479307,753.3479307,753.3479307,753.3479307,753.3479307,753.3479307,,,,,,40,52,21,74,74,36,None,None,77,77,[0.025],[-0.29074074074074074],[1],[0],[0],[4.677864299999783],['tijiao'],-0.2,0,,[],[],[],[],[],[],[],10.96296296,2.1645014,762.7377409,764.6003351,755.8582926,755.8582926,755.8582926,755.8582926,755.8582926,755.8582926,755.8582926,755.8582926,0.0053352,755.8582926,760.5547916,760.5547916,760.5547916,760.5547916,,,,,,,,,,,,,,,,,238,f,23,2023-03-21_15h15.13.561,RL,2022.2.4,60.27814749
1,0,50,0,,,,,,,,,,None,764.6003351,764.6003351,764.6003351,764.6003351,764.6003351,764.6003351,j,0.2075482,764.8333928,764.8333928,764.8333928,764.8333928,764.8333928,764.8333928,765.1325684,765.1325684,766.8109967,766.8109967,766.8109967,766.8109967,766.8109967,766.8109967,766.8109967,766.8109967,766.8109967,766.8109967,766.8109967,766.8109967,766.8109967,766.8109967,766.8109967,766.8109967,766.8109967,,,,,,40,58,13,71,71,35,None,None,77,77,[-0.011111111111111112],[-0.27037037037037037],[1],[0],[0],[3.913625699991826],['tijiao'],-0.6,0,,[],[],[],[],[],[],[],10.87962963,1.9470942,775.2201963,777.0662392,769.3216108,769.3216108,769.3216108,769.3216108,769.3216108,769.3216108,769.3216108,769.3216108,0.0053122,769.3216108,773.2543534,773.2543534,773.2543534,773.2543534,,,,,,,,,,,,,,,,,238,f,23,2023-03-21_15h15.13.561,RL,2022.2.4,60.27814749
0,0,51,0,,,,,,,,,,None,777.0662392,777.0662392,777.0662392,777.0662392,777.0662392,777.0662392,j,0.2641341,777.3494024,777.3494024,777.3494024,777.3494024,777.3494024,777.3494024,777.6482091,777.6482091,779.2605625,779.2605625,779.2605625,779.2605625,779.2605625,779.2605625,779.2605625,779.2605625,779.2605625,779.2605625,779.2605625,779.2605625,779.2605625,779.2605625,779.2605625,779.2605625,779.2605625,781.7693762,781.7693762,781.7693762,781.7693762,781.7693762,44,61,13,74,74,66,6,1.6776199,,,[],[],[],[],[],[],[],-0.2,3,,[],[],[],[],[],[],[],None,None,783.4747922,785.3436725,,,,,,,,,,,,,,,,,,,,,,,,,,,,,,,238,f,23,2023-03-21_15h15.13.561,RL,2022.2.4,60.27814749
1,0,52,0,,,,,,,,,,None,785.3436725,785.3436725,785.3436725,785.3436725,785.3436725,785.3436725,j,0.2849977,785.6601783,785.6601783,785.6601783,785.6601783,785.6601783,785.6601783,785.9589106,785.9589106,786.8067334,786.8067334,786.8067334,786.8067334,786.8067334,786.8067334,786.8067334,786.8067334,786.8067334,786.8067334,786.8067334,786.8067334,786.8067334,786.8067334,786.8067334,786.8067334,786.8067334,789.3156938,789.3156938,789.3156938,789.3156938,789.3156938,40,51,12,80,80,68,7,1.3122242,,,[],[],[],[],[],[],[],-0.2,2,,[],[],[],[],[],[],[],None,None,790.6520765,792.5738844,,,,,,,,,,,,,,,,,,,,,,,,,,,,,,,238,f,23,2023-03-21_15h15.13.561,RL,2022.2.4,60.27814749
0,0,53,0,,,,,,,,,,None,792.5738844,792.5738844,792.5738844,792.5738844,792.5738844,792.5738844,j,0.2470067,792.840415,792.840415,792.840415,792.840415,792.840415,792.840415,793.1394106,793.1394106,794.2359172,794.2359172,794.2359172,794.2359172,794.2359172,794.2359172,794.2359172,794.2359172,794.2359172,794.2359172,794.2359172,794.2359172,794.2359172,794.2359172,794.2359172,794.2359172,794.2359172,796.745446,796.745446,796.745446,796.745446,796.745446,45,60,17,77,77,49,7,1.3787443,,,[],[],[],[],[],[],[],-0.6,3,,[],[],[],[],[],[],[],None,None,798.1497308,799.8376419,,,,,,,,,,,,,,,,,,,,,,,,,,,,,,,238,f,23,2023-03-21_15h15.13.561,RL,2022.2.4,60.27814749
1,0,54,0,,,,,,,,,,None,799.8376419,799.8376419,799.8376419,799.8376419,799.8376419,799.8376419,j,0.5158379,800.3864426,800.3864426,800.3864426,800.3864426,800.3864426,800.3864426,800.6854337,800.6854337,802.3642164,802.3642164,802.3642164,802.3642164,802.3642164,802.3642164,802.3642164,802.3642164,802.3642164,802.3642164,802.3642164,802.3642164,802.3642164,802.3642164,802.3642164,802.3642164,802.3642164,,,,,,39,49,18,66,66,54,None,None,,,[],[],[],[],[],[],[],-0.2,1,45,[0.040740740740740744],[-0.2851851851851852],[1],[0],[0],[6.4986567000014475],['tijiao_random_2'],7.083333333,2.1208948,813.5322996,815.2117519,,,,,,,,,,,811.393405,811.393405,811.393405,811.393405,804.8808866,804.8808866,804.8808866,804.8808866,804.8808866,804.8808866,804.8808866,804.8808866,0.0055186,804.8808866,,,,,,,238,f,23,2023-03-21_15h15.13.561,RL,2022.2.4,60.27814749
0,0,55,0,,,,,,,,,,None,815.2117519,815.2117519,815.2117519,815.2117519,815.2117519,815.2117519,f,0.2572451,815.4982694,815.4982694,815.4982694,815.4982694,815.4982694,815.4982694,815.7943045,815.7943045,816.6086835,816.6086835,816.6086835,816.6086835,816.6086835,816.6086835,816.6086835,816.6086835,816.6086835,816.6086835,816.6086835,816.6086835,816.6086835,816.6086835,816.6086835,816.6086835,816.6086835,819.1175278,819.1175278,819.1175278,819.1175278,819.1175278,46,53,7,74,53,49,6,3.057153,,,[],[],[],[],[],[],[],-0.2,2,,[],[],[],[],[],[],[],None,None,822.1987991,824.021346,,,,,,,,,,,,,,,,,,,,,,,,,,,,,,,238,f,23,2023-03-21_15h15.13.561,RL,2022.2.4,60.27814749
1,0,56,0,,,,,,,,,,None,824.021346,824.021346,824.021346,824.021346,824.021346,824.021346,f,0.2641578,824.3045554,824.3045554,824.3045554,824.3045554,824.3045554,824.3045554,824.6035974,824.6035974,825.4178858,825.4178858,825.4344379,825.4344379,825.4344379,825.4344379,825.4344379,825.4344379,825.4344379,825.4344379,825.4344379,825.4344379,825.4344379,825.4344379,825.4344379,825.4344379,825.4344379,827.9435611,827.9435611,827.9435611,827.9435611,827.9435611,44,57,8,73,57,45,7,1.4948015,,,[],[],[],[],[],[],[],0.6,3,,[],[],[],[],[],[],[],None,None,829.4643606,831.2351521,,,,,,,,,,,,,,,,,,,,,,,,,,,,,,,238,f,23,2023-03-21_15h15.13.561,RL,2022.2.4,60.27814749
0,0,57,0,,,,,,,,,,None,831.2351521,831.2351521,831.2351521,831.2351521,831.2351521,831.2351521,i,0.2244811,831.4849777,831.4849777,831.4849777,831.4849777,831.4849777,831.4849777,831.7837693,831.7837693,832.9805409,832.9805409,832.9805409,832.9805409,832.9805409,832.9805409,832.9805409,832.9805409,832.9805409,832.9805409,832.9805409,832.9805409,832.9805409,832.9805409,832.9805409,832.9805409,832.9805409,835.4894607,835.4894607,835.4894607,835.4894607,835.4894607,46,56,6,73,6,50,2,3.0740347,,,[],[],[],[],[],[],[],0.2,3,,[],[],[],[],[],[],[],None,None,838.5901946,840.3768709,,,,,,,,,,,,,,,,,,,,,,,,,,,,,,,238,f,23,2023-03-21_15h15.13.561,RL,2022.2.4,60.27814749
1,0,58,0,,,,,,,,,,None,840.3768709,840.3768709,840.3768709,840.3768709,840.3768709,840.3768709,i,0.2982878,840.6930653,840.6930653,840.6930653,840.6930653,840.6930653,840.6930653,840.9922808,840.9922808,842.2720755,842.2720755,842.2720755,842.2720755,842.2720755,842.2720755,842.2720755,842.2720755,842.2720755,842.2720755,842.2720755,842.2720755,842.2720755,842.2720755,842.2720755,842.2720755,842.2720755,844.7809791,844.7809791,844.7809791,844.7809791,844.7809791,41,56,9,70,9,39,2,2.4263533,,,[],[],[],[],[],[],[],0.2,3,,[],[],[],[],[],[],[],None,None,847.2328871,849.0531991,,,,,,,,,,,,,,,,,,,,,,,,,,,,,,,238,f,23,2023-03-21_15h15.13.561,RL,2022.2.4,60.27814749
0,0,59,0,,,,,,,,,,None,849.0531991,849.0531991,849.0531991,849.0531991,849.0531991,849.0531991,i,0.2038429,849.2862971,849.2862971,849.2862971,849.2862971,849.2862971,849.2862971,849.5853198,849.5853198,850.5826247,850.5826247,850.5826247,850.5826247,850.5826247,850.5826247,850.5826247,850.5826247,850.5826247,850.5826247,850.5826247,850.5826247,850.5826247,850.5826247,850.5826247,850.5826247,850.5826247,,,,,,32,58,8,63,8,72,None,None,,,[],[],[],[],[],[],[],0.2,1,11,[-0.07222222222222222],[-0.2972222222222222],[1],[0],[0],[9.341588100010995],['tijiao_random_2'],2.175925926,3.1352623,865.6075026,867.4028637,,,,,,,,,,,862.452931,862.452931,862.452931,862.452931,853.0991444,853.0991444,853.0991444,853.0991444,853.0991444,853.0991444,853.0991444,853.0991444,0.0053407,853.0991444,,,,,,,238,f,23,2023-03-21_15h15.13.561,RL,2022.2.4,60.27814749
1,0,60,0,,,,,,,,,,None,867.4028637,867.4028637,867.4028637,867.4028637,867.4028637,867.4028637,i,0.2364964,867.66954,867.66954,867.66954,867.66954,867.66954,867.66954,867.9681879,867.9681879,869.6638095,869.6638095,869.6638095,869.6638095,869.6638095,869.6638095,869.6638095,869.6638095,869.6638095,869.6638095,869.6638095,869.6638095,869.6638095,869.6638095,869.6638095,869.6638095,869.6638095,872.1726176,872.1726176,872.1726176,872.1726176,872.1726176,44,58,7,58,7,71,1,1.112731,,,[],[],[],[],[],[],[],0.6,3,,[],[],[],[],[],[],[],None,None,873.3103446,875.0488634,,,,,,,,,,,,,,,,,,,,,,,,,,,,,,,238,f,23,2023-03-21_15h15.13.561,RL,2022.2.4,60.27814749
0,0,61,0,,,,,,,,,,None,875.0488634,875.0488634,875.0488634,875.0488634,875.0488634,875.0488634,j,0.2430429,875.3150703,875.3150703,875.3150703,875.3150703,875.3150703,875.3150703,875.6142946,875.6142946,877.1765695,877.1765695,877.1765695,877.1765695,877.1765695,877.1765695,877.1765695,877.1765695,877.1765695,877.1765695,877.1765695,877.1765695,877.1765695,877.1765695,877.1765695,877.1765695,877.1765695,879.685682,879.685682,879.685682,879.685682,879.685682,48,57,0,54,54,54,3,2.8250639,,,[],[],[],[],[],[],[],-0.2,2,,[],[],[],[],[],[],[],None,None,882.5352036,884.273828,,,,,,,,,,,,,,,,,,,,,,,,,,,,,,,238,f,23,2023-03-21_15h15.13.561,RL,2022.2.4,60.27814749
1,0,62,0,,,,,,,,,,None,884.273828,884.273828,884.273828,884.273828,884.273828,884.273828,i,0.1891017,884.4903698,884.4903698,884.4903698,884.4903698,884.4903698,884.4903698,884.7893504,884.7893504,886.0358292,886.0358292,886.0358292,886.0358292,886.0358292,886.0358292,886.0358292,886.0358292,886.0358292,886.0358292,886.0358292,886.0358292,886.0358292,886.0358292,886.0358292,886.0358292,886.0358292,888.5451371,888.5451371,888.5451371,888.5451371,888.5451371,46,58,11,67,11,54,5,5.9334668,,,[],[],[],[],[],[],[],-0.6,2,,[],[],[],[],[],[],[],None,None,894.5038033,896.3240574,,,,,,,,,,,,,,,,,,,,,,,,,,,,,,,238,f,23,2023-03-21_15h15.13.561,RL,2022.2.4,60.27814749
0,0,63,0,,,,,,,,,,None,896.3240574,896.3240574,896.3240574,896.3240574,896.3240574,896.3240574,j,0.22308,896.5739316,896.5739316,896.5739316,896.5739316,896.5739316,896.5739316,896.8730844,896.8730844,898.2190468,898.2190468,898.2190468,898.2190468,898.2190468,898.2190468,898.2190468,898.2190468,898.2190468,898.2190468,898.2190468,898.2190468,898.2190468,898.2190468,898.2190468,898.2190468,898.2190468,900.728204,900.728204,900.728204,900.728204,900.728204,35,49,4,65,65,71,5,2.5424006,,,[],[],[],[],[],[],[],0.2,3,,[],[],[],[],[],[],[],None,None,903.2948391,905.2664225,,,,,,,,,,,,,,,,,,,,,,,,,,,,,,,238,f,23,2023-03-21_15h15.13.561,RL,2022.2.4,60.27814749
1,0,64,0,,,,,,,,,,None,905.2664225,905.2664225,905.2664225,905.2664225,905.2664225,905.2664225,j,0.2764476,905.5661436,905.5661436,905.5661436,905.5661436,905.5661436,905.5661436,905.8651797,905.8651797,907.6601047,907.6601047,907.6601047,907.6601047,907.6601047,907.6601047,907.6601047,907.6601047,907.6601047,907.6601047,907.6601047,907.6601047,907.6601047,907.6601047,907.6601047,907.6601047,907.6601047,,,,,,37,46,8,65,65,65,None,None,7,7,[0.03796296296296296],[-0.287962962962963],[1],[0],[0],[7.287481899998966],['tijiao'],-0.6,0,,[],[],[],[],[],[],[],5.12037037,4.1912249,921.6874161,923.6659391,910.1703191,910.1703191,910.1703191,910.1703191,910.1703191,910.1703191,910.1703191,910.1703191,0.0060586,910.1703191,917.4775127,917.4775127,917.4775127,917.4775127,,,,,,,,,,,,,,,,,238,f,23,2023-03-21_15h15.13.561,RL,2022.2.4,60.27814749
0,0,65,0,,,,,,,,,,None,923.6659391,923.6659391,923.6659391,923.6659391,923.6659391,923.6659391,j,0.2779698,923.9660183,923.9660183,923.9660183,923.9660183,923.9660183,923.9660183,924.264894,924.264894,926.275668,926.275668,926.275668,926.275668,926.275668,926.275668,926.275668,926.275668,926.275668,926.275668,926.275668,926.275668,926.275668,926.275668,926.275668,926.275668,926.275668,928.7851039,928.7851039,928.7851039,928.7851039,928.7851039,40,58,5,71,71,63,4,1.8777629,,,[],[],[],[],[],[],[],-0.6,3,,[],[],[],[],[],[],[],None,None,930.6873728,932.6250532,,,,,,,,,,,,,,,,,,,,,,,,,,,,,,,238,f,23,2023-03-21_15h15.13.561,RL,2022.2.4,60.27814749
1,0,66,0,,,,,,,,,,None,932.6250532,932.6250532,932.6250532,932.6250532,932.6250532,932.6250532,j,0.2995907,932.9579192,932.9579192,932.9579192,932.9579192,932.9579192,932.9579192,933.2571148,933.2571148,934.7529837,934.7529837,934.7529837,934.7529837,934.7529837,934.7529837,934.7529837,934.7529837,934.7529837,934.7529837,934.7529837,934.7529837,934.7529837,934.7529837,934.7529837,934.7529837,934.7529837,,,,,,34,50,1,70,70,72,None,None,,,[],[],[],[],[],[],[],-0.6,1,21,[0.025],[-0.30462962962962964],[1],[0],[0],[5.233283299996401],['tijiao_random_2'],9.074074074,3.6490565,946.1871114,948.1827348,,,,,,,,,,,942.5200318,942.5200318,942.5200318,942.5200318,937.2720574,937.2720574,937.2720574,937.2720574,937.2720574,937.2720574,937.2720574,937.2720574,0.0056088,937.2720574,,,,,,,238,f,23,2023-03-21_15h15.13.561,RL,2022.2.4,60.27814749
0,0,67,0,,,,,,,,,,None,948.1827348,948.1827348,948.1827348,948.1827348,948.1827348,948.1827348,j,0.2013074,948.4162859,948.4162859,948.4162859,948.4162859,948.4162859,948.4162859,948.7148467,948.7148467,949.828217,949.828217,949.828217,949.828217,949.828217,949.828217,949.828217,949.828217,949.828217,949.828217,949.828217,949.828217,949.828217,949.828217,949.828217,949.828217,949.828217,,,,,,31,45,6,54,54,73,None,None,65,65,[0.018518518518518517],[-0.3074074074074074],[1],[0],[0],[6.091050000002724],['tijiao'],0.6,0,,[],[],[],[],[],[],[],8.962962963,2.4286327,960.8970365,962.6097647,952.3383621,952.3383621,952.3383621,952.3383621,952.3383621,952.3383621,952.3383621,952.3383621,0.0058606,952.3383621,958.4496873,958.4496873,958.4496873,958.4496873,,,,,,,,,,,,,,,,,238,f,23,2023-03-21_15h15.13.561,RL,2022.2.4,60.27814749
1,0,68,0,,,,,,,,,,None,962.6097647,962.6097647,962.6097647,962.6097647,962.6097647,962.6097647,j,0.2006692,962.8433844,962.8433844,962.8433844,962.8433844,962.8433844,962.8433844,963.1421844,963.1421844,964.8042264,964.8042264,964.8042264,964.8042264,964.8042264,964.8042264,964.8042264,964.8042264,964.8042264,964.8042264,964.8042264,964.8042264,964.8042264,964.8042264,964.8042264,964.8042264,964.8042264,967.3131483,967.3131483,967.3131483,967.3131483,967.3131483,34,48,6,58,58,77,4,2.5253607,,,[],[],[],[],[],[],[],-0.2,3,,[],[],[],[],[],[],[],None,None,969.8646501,971.6187372,,,,,,,,,,,,,,,,,,,,,,,,,,,,,,,238,f,23,2023-03-21_15h15.13.561,RL,2022.2.4,60.27814749
0,0,69,0,,,,,,,,,,None,971.6187372,971.6187372,971.6187372,971.6187372,971.6187372,971.6187372,j,0.2630172,971.9015111,971.9015111,971.9015111,971.9015111,971.9015111,971.9015111,972.200719,972.200719,973.8795096,973.8795096,973.8795096,973.8795096,973.8795096,973.8795096,973.8795096,973.8795096,973.8795096,973.8795096,973.8795096,973.8795096,973.8795096,973.8795096,973.8795096,973.8795096,973.8795096,,,,,,38,45,18,59,59,30,None,None,55,55,[-0.018518518518518517],[-0.28055555555555556],[1],[0],[0],[6.2410766999964835],['tijiao'],-0.2,0,,[],[],[],[],[],[],[],6.907407407,2.9921573,985.6626725,987.2427261,976.3897548,976.3897548,976.3897548,976.3897548,976.3897548,976.3897548,976.3897548,976.3897548,0.0053855,976.3897548,982.6516451,982.6516451,982.6516451,982.6516451,,,,,,,,,,,,,,,,,238,f,23,2023-03-21_15h15.13.561,RL,2022.2.4,60.27814749
1,0,70,0,,,,,,,,,,None,987.2427261,987.2427261,987.2427261,987.2427261,987.2427261,987.2427261,j,0.2251499,987.492302,987.492302,987.492302,987.492302,987.492302,987.492302,987.7911821,987.7911821,988.8716276,988.8716276,988.8716276,988.8716276,988.8716276,988.8716276,988.8716276,988.8716276,988.8716276,988.8716276,988.8716276,988.8716276,988.8716276,988.8716276,988.8716276,988.8716276,988.8716276,,,,,,31,41,16,60,60,72,None,None,57,57,[0.012037037037037037],[-0.2740740740740741],[1],[0],[0],[3.665288899996085],['tijiao'],-0.2,0,,[],[],[],[],[],[],[],7,2.0142061,997.098553,998.7945593,991.3822592,991.3822592,991.3822592,991.3822592,991.3822592,991.3822592,991.3822592,991.3822592,0.0048474,991.3822592,995.066175,995.066175,995.066175,995.066175,,,,,,,,,,,,,,,,,238,f,23,2023-03-21_15h15.13.561,RL,2022.2.4,60.27814749
0,0,71,0,,,,,,,,,,None,998.7945593,998.7945593,998.7945593,998.7945593,998.7945593,998.7945593,j,0.1471028,998.9613545,998.9613545,998.9613545,998.9613545,998.9613545,998.9613545,999.2601369,999.2601369,1000.439859,1000.439859,1000.439859,1000.439859,1000.439859,1000.439859,1000.439859,1000.439859,1000.439859,1000.439859,1000.439859,1000.439859,1000.439859,1000.439859,1000.439859,1000.439859,1000.439859,1002.949272,1002.949272,1002.949272,1002.949272,1002.949272,41,35,16,61,61,48,4,1.0300314,,,[],[],[],[],[],[],[],0.2,3,,[],[],[],[],[],[],[],None,None,1004.00451,1005.991734,,,,,,,,,,,,,,,,,,,,,,,,,,,,,,,238,f,23,2023-03-21_15h15.13.561,RL,2022.2.4,60.27814749
1,0,72,0,,,,,,,,,,None,1005.991734,1005.991734,1005.991734,1005.991734,1005.991734,1005.991734,j,0.2237812,1006.241819,1006.241819,1006.241819,1006.241819,1006.241819,1006.241819,1006.540341,1006.540341,1008.052751,1008.052751,1008.052751,1008.052751,1008.052751,1008.052751,1008.052751,1008.052751,1008.052751,1008.052751,1008.052751,1008.052751,1008.052751,1008.052751,1008.052751,1008.052751,1008.052751,1010.561763,1010.561763,1010.561763,1010.561763,1010.561763,44,34,18,66,66,75,4,3.0246707,,,[],[],[],[],[],[],[],-0.6,3,,[],[],[],[],[],[],[],None,None,1013.612646,1015.465821,,,,,,,,,,,,,,,,,,,,,,,,,,,,,,,238,f,23,2023-03-21_15h15.13.561,RL,2022.2.4,60.27814749
0,0,73,0,,,,,,,,,,None,1015.465821,1015.465821,1015.465821,1015.465821,1015.465821,1015.465821,f,0.5496391,1016.047807,1016.047807,1016.047807,1016.047807,1016.047807,1016.047807,1016.346673,1016.346673,1018.291415,1018.291415,1018.307813,1018.307813,1018.307813,1018.307813,1018.307813,1018.307813,1018.307813,1018.307813,1018.307813,1018.307813,1018.307813,1018.307813,1018.307813,1018.307813,1018.307813,1020.817159,1020.817159,1020.817159,1020.817159,1020.817159,38,29,25,60,29,64,3,1.0466854,,,[],[],[],[],[],[],[],0.6,2,,[],[],[],[],[],[],[],None,None,1021.88886,1023.560286,,,,,,,,,,,,,,,,,,,,,,,,,,,,,,,238,f,23,2023-03-21_15h15.13.561,RL,2022.2.4,60.27814749
1,0,74,0,,,,,,,,,,None,1023.560286,1023.560286,1023.560286,1023.560286,1023.560286,1023.560286,f,0.3273723,1023.909669,1023.909669,1023.909669,1023.909669,1023.909669,1023.909669,1024.208758,1024.208758,1025.023449,1025.023449,1025.023449,1025.023449,1025.023449,1025.023449,1025.023449,1025.023449,1025.023449,1025.023449,1025.023449,1025.023449,1025.023449,1025.023449,1025.023449,1025.023449,1025.023449,,,,,,51,33,28,55,33,44,None,None,,,[],[],[],[],[],[],[],0.2,1,7,[0.021296296296296296],[-0.30648148148148147],[1],[0],[0],[5.3003004000056535],['tijiao_random_2'],6.87037037,2.1877038,1035.061263,1036.956876,,,,,,,,,,,1032.855547,1032.855547,1032.855547,1032.855547,1027.54263,1027.54263,1027.54263,1027.54263,1027.54263,1027.54263,1027.54263,1027.54263,0.0052377,1027.54263,,,,,,,238,f,23,2023-03-21_15h15.13.561,RL,2022.2.4,60.27814749
0,0,75,0,,,,,,,,,,q,1126.862987,1126.862987,1126.862987,1126.862987,1126.862987,1126.862987,j,0.6687037,1127.562396,1127.562396,1127.562396,1127.562396,1127.562396,1127.562396,1127.859028,1127.859028,1129.089323,1129.089323,1129.089323,1129.089323,1129.089323,1129.089323,1129.089323,1129.089323,1129.089323,1129.089323,1129.089323,1129.089323,1129.089323,1129.089323,1129.089323,1129.089323,1129.089323,,,,,,47,38,24,58,58,63,None,None,,,[],[],[],[],[],[],[],0.6,1,57,[0.011111111111111112],[-0.2777777777777778],[1],[0],[0],[3.756101300008595],['tijiao_random_2'],6.111111111,2.8517936,1138.246344,1139.892834,,,,,,,,,,,1135.375762,1135.375762,1135.375762,1135.375762,1131.606435,1131.606435,1131.606435,1131.606435,1131.606435,1131.606435,1131.606435,1131.606435,0.0054884,1131.606435,1036.956876,1036.956876,89.8861465,,,,238,f,23,2023-03-21_15h15.13.561,RL,2022.2.4,60.27814749
1,0,76,0,,,,,,,,,,None,1139.892834,1139.892834,1139.892834,1139.892834,1139.892834,1139.892834,j,0.3366093,1140.25899,1140.25899,1140.25899,1140.25899,1140.25899,1140.25899,1140.557613,1140.557613,1141.738155,1141.738155,1141.738155,1141.738155,1141.738155,1141.738155,1141.738155,1141.738155,1141.738155,1141.738155,1141.738155,1141.738155,1141.738155,1141.738155,1141.738155,1141.738155,1141.738155,,,,,,67,41,16,59,59,59,None,None,,,[],[],[],[],[],[],[],0.6,1,61,[-0.019444444444444445],[-0.28425925925925927],[1],[0],[0],[6.250101099998574],['tijiao_random_2'],8.990740741,1.7725135,1152.307838,1154.287055,,,,,,,,,,,1150.516545,1150.516545,1150.516545,1150.516545,1144.254764,1144.254764,1144.254764,1144.254764,1144.254764,1144.254764,1144.254764,1144.254764,0.0058077,1144.254764,,,,,,,238,f,23,2023-03-21_15h15.13.561,RL,2022.2.4,60.27814749
0,0,77,0,,,,,,,,,,None,1154.287055,1154.287055,1154.287055,1154.287055,1154.287055,1154.287055,j,0.2738061,1154.588699,1154.588699,1154.588699,1154.588699,1154.588699,1154.588699,1154.885756,1154.885756,1156.497899,1156.497899,1156.497899,1156.497899,1156.497899,1156.497899,1156.497899,1156.497899,1156.497899,1156.497899,1156.497899,1156.497899,1156.497899,1156.497899,1156.497899,1156.497899,1156.497899,,,,,,56,38,11,49,49,65,None,None,52,52,[-0.027777777777777776],[-0.27685185185185185],[1],[0],[0],[6.5370574999979],['tijiao'],-0.2,0,,[],[],[],[],[],[],[],6.833333333,1.7657219,1167.350222,1168.979985,1159.010361,1159.010361,1159.010361,1159.010361,1159.010361,1159.010361,1159.010361,1159.010361,0.0079522,1159.010361,1165.565955,1165.565955,1165.565955,1165.565955,,,,,,,,,,,,,,,,,238,f,23,2023-03-21_15h15.13.561,RL,2022.2.4,60.27814749
1,0,78,0,,,,,,,,,,None,1168.979985,1168.979985,1168.979985,1168.979985,1168.979985,1168.979985,r,0.2729864,1169.280146,1169.280146,1169.280146,1169.280146,1169.280146,1169.280146,1169.578862,1169.578862,1171.506494,1171.506494,1171.506494,1171.506494,1171.506494,1171.506494,1171.506494,1171.506494,1171.506494,1171.506494,1171.506494,1171.506494,1171.506494,1171.506494,1171.506494,1171.506494,1171.506494,1174.015953,1174.015953,1174.015953,1174.015953,1174.015953,51,36,14,41,51,52,4,4.2210856,,,[],[],[],[],[],[],[],-0.6,2,,[],[],[],[],[],[],[],None,None,1178.261637,1179.784021,,,,,,,,,,,,,,,,,,,,,,,,,,,,,,,238,f,23,2023-03-21_15h15.13.561,RL,2022.2.4,60.27814749
0,0,79,0,,,,,,,,,,None,1179.784021,1179.784021,1179.784021,1179.784021,1179.784021,1179.784021,f,0.26261,1180.06685,1180.06685,1180.06685,1180.06685,1180.06685,1180.06685,1180.365972,1180.365972,1181.9948,1181.9948,1181.9948,1181.9948,1181.9948,1181.9948,1181.9948,1181.9948,1181.9948,1181.9948,1181.9948,1181.9948,1181.9948,1181.9948,1181.9948,1181.9948,1181.9948,1184.503993,1184.503993,1184.503993,1184.503993,1184.503993,50,38,14,48,38,71,4,2.2266013,,,[],[],[],[],[],[],[],0.2,3,,[],[],[],[],[],[],[],None,None,1186.755533,1188.609908,,,,,,,,,,,,,,,,,,,,,,,,,,,,,,,238,f,23,2023-03-21_15h15.13.561,RL,2022.2.4,60.27814749
1,0,80,0,,,,,,,,,,None,1188.609908,1188.609908,1188.609908,1188.609908,1188.609908,1188.609908,j,0.6288657,1189.258782,1189.258782,1189.258782,1189.258782,1189.258782,1189.258782,1189.557501,1189.557501,1191.153281,1191.153281,1191.153281,1191.153281,1191.153281,1191.153281,1191.153281,1191.153281,1191.153281,1191.153281,1191.153281,1191.153281,1191.153281,1191.153281,1191.153281,1191.153281,1191.153281,,,,,,45,40,12,47,47,19,None,None,,,[],[],[],[],[],[],[],-0.2,1,23,[-0.011111111111111112],[-0.28055555555555556],[1],[0],[0],[13.744808700008434],['tijiao_random_2'],6.916666667,3.665602,1211.114372,1212.660885,,,,,,,,,,,1207.43071,1207.43071,1207.43071,1207.43071,1193.671346,1193.671346,1193.671346,1193.671346,1193.671346,1193.671346,1193.671346,1193.671346,0.0067516,1193.671346,,,,,,,238,f,23,2023-03-21_15h15.13.561,RL,2022.2.4,60.27814749
0,0,81,0,,,,,,,,,,None,1212.660885,1212.660885,1212.660885,1212.660885,1212.660885,1212.660885,j,0.1956443,1212.878334,1212.878334,1212.878334,1212.878334,1212.878334,1212.878334,1213.176369,1213.176369,1214.904958,1214.904958,1214.904958,1214.904958,1214.904958,1214.904958,1214.904958,1214.904958,1214.904958,1214.904958,1214.904958,1214.904958,1214.904958,1214.904958,1214.904958,1214.904958,1214.904958,,,,,,57,33,16,40,40,76,None,None,76,76,[-0.007407407407407408],[-0.29074074074074074],[1],[0],[0],[5.576246800002991],['tijiao'],-0.2,0,,[],[],[],[],[],[],[],11,2.3126123,1225.341924,1226.855617,1217.415013,1217.415013,1217.415013,1217.415013,1217.415013,1217.415013,1217.415013,1217.415013,0.0058454,1217.415013,1223.010569,1223.010569,1223.010569,1223.010569,,,,,,,,,,,,,,,,,238,f,23,2023-03-21_15h15.13.561,RL,2022.2.4,60.27814749
1,0,82,0,,,,,,,,,,None,1226.855617,1226.855617,1226.855617,1226.855617,1226.855617,1226.855617,i,0.266553,1227.155327,1227.155327,1227.155327,1227.155327,1227.155327,1227.155327,1227.45381,1227.45381,1229.099431,1229.099431,1229.099431,1229.099431,1229.099431,1229.099431,1229.099431,1229.099431,1229.099431,1229.099431,1229.099431,1229.099431,1229.099431,1229.099431,1229.099431,1229.099431,1229.099431,1231.608894,1231.608894,1231.608894,1231.608894,1231.608894,59,35,10,55,10,74,1,3.7223253,,,[],[],[],[],[],[],[],-0.6,3,,[],[],[],[],[],[],[],None,None,1235.355939,1237.277188,,,,,,,,,,,,,,,,,,,,,,,,,,,,,,,238,f,23,2023-03-21_15h15.13.561,RL,2022.2.4,60.27814749
0,0,83,0,,,,,,,,,,None,1237.277188,1237.277188,1237.277188,1237.277188,1237.277188,1237.277188,r,0.4547221,1237.759395,1237.759395,1237.759395,1237.759395,1237.759395,1237.759395,1238.058531,1238.058531,1239.836974,1239.836974,1239.8537,1239.8537,1239.8537,1239.8537,1239.8537,1239.8537,1239.8537,1239.8537,1239.8537,1239.8537,1239.8537,1239.8537,1239.8537,1239.8537,1239.8537,1242.362555,1242.362555,1242.362555,1242.362555,1242.362555,56,31,12,48,56,74,4,2.5756556,,,[],[],[],[],[],[],[],-0.2,2,,[],[],[],[],[],[],[],None,None,1244.963059,1246.867545,,,,,,,,,,,,,,,,,,,,,,,,,,,,,,,238,f,23,2023-03-21_15h15.13.561,RL,2022.2.4,60.27814749
1,0,84,0,,,,,,,,,,None,1246.867545,1246.867545,1246.867545,1246.867545,1246.867545,1246.867545,f,0.2805604,1247.167104,1247.167104,1247.167104,1247.167104,1247.167104,1247.167104,1247.466218,1247.466218,1249.178218,1249.178218,1249.178218,1249.178218,1249.178218,1249.178218,1249.178218,1249.178218,1249.178218,1249.178218,1249.178218,1249.178218,1249.178218,1249.178218,1249.178218,1249.178218,1249.178218,,,,,,61,29,9,53,29,43,None,None,22,22,[0.006481481481481481],[-0.2759259259259259],[1],[0],[0],[4.695239699998638],['tijiao'],0.2,0,,[],[],[],[],[],[],[],8.111111111,2.9696158,1259.382723,1261.261629,1251.688285,1251.688285,1251.688285,1251.688285,1251.688285,1251.688285,1251.688285,1251.688285,0.0055516,1251.688285,1256.404422,1256.404422,1256.404422,1256.404422,,,,,,,,,,,,,,,,,238,f,23,2023-03-21_15h15.13.561,RL,2022.2.4,60.27814749
0,0,85,0,,,,,,,,,,None,1261.261629,1261.261629,1261.261629,1261.261629,1261.261629,1261.261629,j,0.2736906,1261.561542,1261.561542,1261.561542,1261.561542,1261.561542,1261.561542,1261.860276,1261.860276,1262.674665,1262.674665,1262.674665,1262.674665,1262.674665,1262.674665,1262.674665,1262.674665,1262.674665,1262.674665,1262.674665,1262.674665,1262.674665,1262.674665,1262.674665,1262.674665,1262.674665,1265.183863,1265.183863,1265.183863,1265.183863,1265.183863,59,31,13,44,44,40,4,4.9025754,,,[],[],[],[],[],[],[],-0.6,2,,[],[],[],[],[],[],[],None,None,1270.110922,1271.849173,,,,,,,,,,,,,,,,,,,,,,,,,,,,,,,238,f,23,2023-03-21_15h15.13.561,RL,2022.2.4,60.27814749
1,0,86,0,,,,,,,,,,None,1271.849173,1271.849173,1271.849173,1271.849173,1271.849173,1271.849173,j,0.3013933,1272.182457,1272.182457,1272.182457,1272.182457,1272.182457,1272.182457,1272.480983,1272.480983,1274.043712,1274.043712,1274.043712,1274.043712,1274.043712,1274.043712,1274.043712,1274.043712,1274.043712,1274.043712,1274.043712,1274.043712,1274.043712,1274.043712,1274.043712,1274.043712,1274.043712,,,,,,60,34,12,45,45,71,None,None,99,99,[-0.03425925925925926],[-0.2972222222222222],[1],[0],[0],[4.0296740000048885],['tijiao'],-0.6,0,,[],[],[],[],[],[],[],8.898148148,2.2461726,1282.868479,1284.71445,1276.554217,1276.554217,1276.554217,1276.554217,1276.554217,1276.554217,1276.554217,1276.554217,0.0065762,1276.554217,1280.603213,1280.603213,1280.603213,1280.603213,,,,,,,,,,,,,,,,,238,f,23,2023-03-21_15h15.13.561,RL,2022.2.4,60.27814749
0,0,87,0,,,,,,,,,,None,1284.71445,1284.71445,1284.71445,1284.71445,1284.71445,1284.71445,j,0.2377236,1284.980838,1284.980838,1284.980838,1284.980838,1284.980838,1284.980838,1285.279391,1285.279391,1287.024767,1287.024767,1287.024767,1287.024767,1287.024767,1287.024767,1287.024767,1287.024767,1287.024767,1287.024767,1287.024767,1287.024767,1287.024767,1287.024767,1287.024767,1287.024767,1287.024767,,,,,,64,31,14,46,46,74,None,None,55,55,[0.001851851851851852],[-0.2740740740740741],[1],[0],[0],[5.209526400009054],['tijiao'],-0.6,0,,[],[],[],[],[],[],[],5.148148148,1.8471527,1296.630742,1298.476676,1289.535001,1289.535001,1289.535001,1289.535001,1289.535001,1289.535001,1289.535001,1289.535001,0.0061772,1289.535001,1294.76518,1294.76518,1294.76518,1294.76518,,,,,,,,,,,,,,,,,238,f,23,2023-03-21_15h15.13.561,RL,2022.2.4,60.27814749
1,0,88,0,,,,,,,,,,None,1298.476676,1298.476676,1298.476676,1298.476676,1298.476676,1298.476676,j,0.3578373,1298.861438,1298.861438,1298.861438,1298.861438,1298.861438,1298.861438,1299.15841,1299.15841,1300.238881,1300.238881,1300.238881,1300.238881,1300.238881,1300.238881,1300.238881,1300.238881,1300.238881,1300.238881,1300.238881,1300.238881,1300.238881,1300.238881,1300.238881,1300.238881,1300.238881,,,,,,61,23,34,53,53,70,None,None,63,63,[0.019444444444444445],[-0.2898148148148148],[1],[0],[0],[5.592214899996179],['tijiao'],-0.6,0,,[],[],[],[],[],[],[],8.027777778,1.8959131,1310.276993,1311.989893,1302.748855,1302.748855,1302.748855,1302.748855,1302.748855,1302.748855,1302.748855,1302.748855,0.006051,1302.748855,1308.361888,1308.361888,1308.361888,1308.361888,,,,,,,,,,,,,,,,,238,f,23,2023-03-21_15h15.13.561,RL,2022.2.4,60.27814749
0,0,89,0,,,,,,,,,,None,1311.989893,1311.989893,1311.989893,1311.989893,1311.989893,1311.989893,i,0.0916717,1312.108307,1312.108307,1312.108307,1312.108307,1312.108307,1312.108307,1312.405367,1312.405367,1313.519256,1313.519256,1313.519256,1313.519256,1313.519256,1313.519256,1313.519256,1313.519256,1313.519256,1313.519256,1313.519256,1313.519256,1313.519256,1313.519256,1313.519256,1313.519256,1313.519256,,,,,,64,34,25,52,25,62,None,None,,,[],[],[],[],[],[],[],-0.2,1,44,[0.0787037037037037],[-0.2638888888888889],[1],[0],[0],[4.236208600006648],['tijiao_random_2'],6.25,2.0035628,1322.31072,1323.857585,,,,,,,,,,,1320.288578,1320.288578,1320.288578,1320.288578,1316.038878,1316.038878,1316.038878,1316.038878,1316.038878,1316.038878,1316.038878,1316.038878,0.0057818,1316.038878,,,,,,,238,f,23,2023-03-21_15h15.13.561,RL,2022.2.4,60.27814749
1,0,90,0,,,,,,,,,,None,1323.857585,1323.857585,1323.857585,1323.857585,1323.857585,1323.857585,f,0.2637004,1324.140384,1324.140384,1324.140384,1324.140384,1324.140384,1324.140384,1324.439167,1324.439167,1325.902193,1325.902193,1325.902193,1325.902193,1325.902193,1325.902193,1325.902193,1325.902193,1325.902193,1325.902193,1325.902193,1325.902193,1325.902193,1325.902193,1325.902193,1325.902193,1325.902193,1328.411099,1328.411099,1328.411099,1328.411099,1328.411099,72,34,23,40,34,56,3,2.4094874,,,[],[],[],[],[],[],[],0.2,3,,[],[],[],[],[],[],[],None,None,1330.846154,1332.60001,,,,,,,,,,,,,,,,,,,,,,,,,,,,,,,238,f,23,2023-03-21_15h15.13.561,RL,2022.2.4,60.27814749
0,0,91,0,,,,,,,,,,None,1332.60001,1332.60001,1332.60001,1332.60001,1332.60001,1332.60001,j,0.2622611,1332.883333,1332.883333,1332.883333,1332.883333,1332.883333,1332.883333,1333.182378,1333.182378,1334.345712,1334.345712,1334.345712,1334.345712,1334.345712,1334.345712,1334.345712,1334.345712,1334.345712,1334.345712,1334.345712,1334.345712,1334.345712,1334.345712,1334.345712,1334.345712,1334.345712,1336.854546,1336.854546,1336.854546,1336.854546,1336.854546,58,38,27,48,48,70,3,2.0941981,,,[],[],[],[],[],[],[],-0.2,2,,[],[],[],[],[],[],[],None,None,1338.975099,1340.911047,,,,,,,,,,,,,,,,,,,,,,,,,,,,,,,238,f,23,2023-03-21_15h15.13.561,RL,2022.2.4,60.27814749
1,0,92,0,,,,,,,,,,None,1340.911047,1340.911047,1340.911047,1340.911047,1340.911047,1340.911047,j,0.3932747,1341.327177,1341.327177,1341.327177,1341.327177,1341.327177,1341.327177,1341.625835,1341.625835,1342.706155,1342.706155,1342.706155,1342.706155,1342.706155,1342.706155,1342.706155,1342.706155,1342.706155,1342.706155,1342.706155,1342.706155,1342.706155,1342.706155,1342.706155,1342.706155,1342.706155,1345.214957,1345.214957,1345.214957,1345.214957,1345.214957,64,29,21,38,38,71,3,1.4281787,,,[],[],[],[],[],[],[],0.6,2,,[],[],[],[],[],[],[],None,None,1346.667865,1348.540124,,,,,,,,,,,,,,,,,,,,,,,,,,,,,,,238,f,23,2023-03-21_15h15.13.561,RL,2022.2.4,60.27814749
0,0,93,0,,,,,,,,,,None,1348.540124,1348.540124,1348.540124,1348.540124,1348.540124,1348.540124,r,0.6961781,1349.255488,1349.255488,1349.255488,1349.255488,1349.255488,1349.255488,1349.554094,1349.554094,1350.517964,1350.517964,1350.534997,1350.534997,1350.534997,1350.534997,1350.534997,1350.534997,1350.534997,1350.534997,1350.534997,1350.534997,1350.534997,1350.534997,1350.534997,1350.534997,1350.534997,,,,,,66,32,21,44,66,52,None,None,,,[],[],[],[],[],[],[],0.2,1,45,[-0.06388888888888888],[-0.3148148148148148],[1],[0],[0],[4.2056744000001345],['tijiao_random_2'],7.018518519,2.1717315,1359.459311,1361.055723,,,,,,,,,,,1357.268705,1357.268705,1357.268705,1357.268705,1353.05178,1353.05178,1353.05178,1353.05178,1353.05178,1353.05178,1353.05178,1353.05178,0.0055492,1353.05178,,,,,,,238,f,23,2023-03-21_15h15.13.561,RL,2022.2.4,60.27814749
1,0,94,0,,,,,,,,,,None,1361.055723,1361.055723,1361.055723,1361.055723,1361.055723,1361.055723,r,0.2140368,1361.289174,1361.289174,1361.289174,1361.289174,1361.289174,1361.289174,1361.587952,1361.587952,1362.61881,1362.61881,1362.61881,1362.61881,1362.61881,1362.61881,1362.61881,1362.61881,1362.61881,1362.61881,1362.61881,1362.61881,1362.61881,1362.61881,1362.61881,1362.61881,1362.61881,,,,,,62,30,11,44,62,49,None,None,63,63,[-0.03518518518518519],[-0.30925925925925923],[1],[0],[0],[3.7315968000038993],['tijiao'],-0.2,0,,[],[],[],[],[],[],[],10.47222222,1.8643046,1370.76228,1372.707556,1365.129149,1365.129149,1365.129149,1365.129149,1365.129149,1365.129149,1365.129149,1365.129149,0.0051335,1365.129149,1368.87983,1368.87983,1368.87983,1368.87983,,,,,,,,,,,,,,,,,238,f,23,2023-03-21_15h15.13.561,RL,2022.2.4,60.27814749
0,0,95,0,,,,,,,,,,None,1372.707556,1372.707556,1372.707556,1372.707556,1372.707556,1372.707556,r,0.296241,1373.024033,1373.024033,1373.024033,1373.024033,1373.024033,1373.024033,1373.322423,1373.322423,1374.935118,1374.935118,1374.935118,1374.935118,1374.935118,1374.935118,1374.935118,1374.935118,1374.935118,1374.935118,1374.935118,1374.935118,1374.935118,1374.935118,1374.935118,1374.935118,1374.935118,1377.4437,1377.4437,1377.4437,1377.4437,1377.4437,58,24,17,36,58,59,5,2.1267207,,,[],[],[],[],[],[],[],0.2,2,,[],[],[],[],[],[],[],None,None,1379.594679,1381.516619,,,,,,,,,,,,,,,,,,,,,,,,,,,,,,,238,f,23,2023-03-21_15h15.13.561,RL,2022.2.4,60.27814749
1,0,96,0,,,,,,,,,,None,1381.516619,1381.516619,1381.516619,1381.516619,1381.516619,1381.516619,r,0.2040668,1381.749882,1381.749882,1381.749882,1381.749882,1381.749882,1381.749882,1382.048804,1382.048804,1384.010132,1384.010132,1384.010132,1384.010132,1384.010132,1384.010132,1384.010132,1384.010132,1384.010132,1384.010132,1384.010132,1384.010132,1384.010132,1384.010132,1384.010132,1384.010132,1384.010132,,,,,,61,34,10,41,61,47,None,None,,,[],[],[],[],[],[],[],0.2,1,22,[0.07777777777777778],[-0.2833333333333333],[1],[0],[0],[6.415781399991829],['tijiao_random_2'],7.287037037,2.7855265,1395.760175,1397.506645,,,,,,,,,,,1392.955915,1392.955915,1392.955915,1392.955915,1386.528102,1386.528102,1386.528102,1386.528102,1386.528102,1386.528102,1386.528102,1386.528102,0.0059308,1386.528102,,,,,,,238,f,23,2023-03-21_15h15.13.561,RL,2022.2.4,60.27814749
0,0,97,0,,,,,,,,,,None,1397.506645,1397.506645,1397.506645,1397.506645,1397.506645,1397.506645,r,0.2983374,1397.823662,1397.823662,1397.823662,1397.823662,1397.823662,1397.823662,1398.121761,1398.121761,1399.750669,1399.750669,1399.750669,1399.750669,1399.750669,1399.750669,1399.750669,1399.750669,1399.750669,1399.750669,1399.750669,1399.750669,1399.750669,1399.750669,1399.750669,1399.750669,1399.750669,1402.25978,1402.25978,1402.25978,1402.25978,1402.25978,62,32,18,40,62,70,5,2.3264103,,,[],[],[],[],[],[],[],-0.6,3,,[],[],[],[],[],[],[],None,None,1404.613795,1406.58143,,,,,,,,,,,,,,,,,,,,,,,,,,,,,,,238,f,23,2023-03-21_15h15.13.561,RL,2022.2.4,60.27814749
1,0,98,0,,,,,,,,,,None,1406.58143,1406.58143,1406.58143,1406.58143,1406.58143,1406.58143,r,0.2755055,1406.881295,1406.881295,1406.881295,1406.881295,1406.881295,1406.881295,1407.180509,1407.180509,1408.925767,1408.925767,1408.925767,1408.925767,1408.925767,1408.925767,1408.925767,1408.925767,1408.925767,1408.925767,1408.925767,1408.925767,1408.925767,1408.925767,1408.925767,1408.925767,1408.925767,1411.434808,1411.434808,1411.434808,1411.434808,1411.434808,60,29,18,39,60,62,5,2.4595729,,,[],[],[],[],[],[],[],0.6,3,,[],[],[],[],[],[],[],None,None,1413.9199,1415.424322,,,,,,,,,,,,,,,,,,,,,,,,,,,,,,,238,f,23,2023-03-21_15h15.13.561,RL,2022.2.4,60.27814749
0,0,99,0,,,,,,,,,,None,1415.424322,1415.424322,1415.424322,1415.424322,1415.424322,1415.424322,f,0.2600139,1415.707608,1415.707608,1415.707608,1415.707608,1415.707608,1415.707608,1416.006068,1416.006068,1417.302701,1417.302701,1417.319045,1417.319045,1417.319045,1417.319045,1417.319045,1417.319045,1417.319045,1417.319045,1417.319045,1417.319045,1417.319045,1417.319045,1417.319045,1417.319045,1417.319045,1419.828077,1419.828077,1419.828077,1419.828077,1419.828077,66,34,18,36,34,70,3,2.9905156,,,[],[],[],[],[],[],[],0.2,2,,[],[],[],[],[],[],[],None,None,1422.846533,1424.382987,,,,,,,,,,,,,,,,,,,,,,,,,,,,,,,238,f,23,2023-03-21_15h15.13.561,RL,2022.2.4,60.27814749
1,0,100,0,,,,,,,,,,None,1424.382987,1424.382987,1424.382987,1424.382987,1424.382987,1424.382987,i,0.2525624,1424.667518,1424.667518,1424.667518,1424.667518,1424.667518,1424.667518,1424.965254,1424.965254,1426.477518,1426.477518,1426.477518,1426.477518,1426.477518,1426.477518,1426.477518,1426.477518,1426.477518,1426.477518,1426.477518,1426.477518,1426.477518,1426.477518,1426.477518,1426.477518,1426.477518,,,,,,66,27,15,34,15,64,None,None,,,[],[],[],[],[],[],[],0.2,1,14,[-0.024074074074074074],[-0.2962962962962963],[1],[0],[0],[3.088234300012118],['tijiao_random_2'],8.37962963,1.556503,1433.673648,1435.652496,,,,,,,,,,,1432.098894,1432.098894,1432.098894,1432.098894,1428.997925,1428.997925,1428.997925,1428.997925,1428.997925,1428.997925,1428.997925,1428.997925,0.0058951,1428.997925,,,,,,,238,f,23,2023-03-21_15h15.13.561,RL,2022.2.4,60.27814749
0,0,101,0,,,,,,,,,,None,1435.652496,1435.652496,1435.652496,1435.652496,1435.652496,1435.652496,i,0.4086208,1436.085346,1436.085346,1436.085346,1436.085346,1436.085346,1436.085346,1436.383802,1436.383802,1438.112491,1438.112491,1438.112491,1438.112491,1438.112491,1438.112491,1438.112491,1438.112491,1438.112491,1438.112491,1438.112491,1438.112491,1438.112491,1438.112491,1438.112491,1438.112491,1438.112491,,,,,,68,23,19,30,19,51,None,None,,,[],[],[],[],[],[],[],-0.6,1,60,[-0.062037037037037036],[-0.2962962962962963],[1],[0],[0],[3.7702467999915825],['tijiao_random_2'],9.833333333,3.0189514,1447.453049,1449.281497,,,,,,,,,,,1444.414832,1444.414832,1444.414832,1444.414832,1440.632401,1440.632401,1440.632401,1440.632401,1440.632401,1440.632401,1440.632401,1440.632401,0.0058179,1440.632401,,,,,,,238,f,23,2023-03-21_15h15.13.561,RL,2022.2.4,60.27814749
1,0,102,0,,,,,,,,,,None,1449.281497,1449.281497,1449.281497,1449.281497,1449.281497,1449.281497,j,0.2415565,1449.550297,1449.550297,1449.550297,1449.550297,1449.550297,1449.550297,1449.847329,1449.847329,1451.259787,1451.259787,1451.276828,1451.276828,1451.276828,1451.276828,1451.276828,1451.276828,1451.276828,1451.276828,1451.276828,1451.276828,1451.276828,1451.276828,1451.276828,1451.276828,1451.276828,1453.785813,1453.785813,1453.785813,1453.785813,1453.785813,71,33,6,29,29,27,3,2.4091483,,,[],[],[],[],[],[],[],0.6,3,,[],[],[],[],[],[],[],None,None,1456.219575,1458.124181,,,,,,,,,,,,,,,,,,,,,,,,,,,,,,,238,f,23,2023-03-21_15h15.13.561,RL,2022.2.4,60.27814749
0,0,103,0,,,,,,,,,,None,1458.124181,1458.124181,1458.124181,1458.124181,1458.124181,1458.124181,r,0.2695845,1458.423868,1458.423868,1458.423868,1458.423868,1458.423868,1458.423868,1458.723232,1458.723232,1459.637196,1459.637196,1459.637196,1459.637196,1459.637196,1459.637196,1459.637196,1459.637196,1459.637196,1459.637196,1459.637196,1459.637196,1459.637196,1459.637196,1459.637196,1459.637196,1459.637196,,,,,,74,33,27,26,74,46,None,None,78,78,[-0.016666666666666666],[-0.29814814814814816],[1],[0],[0],[2.900211700005457],['tijiao'],0.6,0,,[],[],[],[],[],[],[],11,1.9799129,1467.065675,1468.795465,1462.147439,1462.147439,1462.147439,1462.147439,1462.147439,1462.147439,1462.147439,1462.147439,0.0050838,1462.147439,1465.066801,1465.066801,1465.066801,1465.066801,,,,,,,,,,,,,,,,,238,f,23,2023-03-21_15h15.13.561,RL,2022.2.4,60.27814749
1,0,104,0,,,,,,,,,,None,1468.795465,1468.795465,1468.795465,1468.795465,1468.795465,1468.795465,r,0.2736518,1469.095059,1469.095059,1469.095059,1469.095059,1469.095059,1469.095059,1469.393702,1469.393702,1470.490983,1470.490983,1470.490983,1470.490983,1470.490983,1470.490983,1470.490983,1470.490983,1470.490983,1470.490983,1470.490983,1470.490983,1470.490983,1470.490983,1470.490983,1470.490983,1470.490983,,,,,,76,30,23,45,76,54,None,None,78,78,[0.040740740740740744],[-0.275],[1],[0],[0],[3.6632174999976996],['tijiao'],0.6,0,,[],[],[],[],[],[],[],10.92592593,1.9948958,1478.701061,1480.263993,1473.001755,1473.001755,1473.001755,1473.001755,1473.001755,1473.001755,1473.001755,1473.001755,0.0069762,1473.001755,1476.68724,1476.68724,1476.68724,1476.68724,,,,,,,,,,,,,,,,,238,f,23,2023-03-21_15h15.13.561,RL,2022.2.4,60.27814749
0,0,105,0,,,,,,,,,,None,1480.263993,1480.263993,1480.263993,1480.263993,1480.263993,1480.263993,r,0.2445455,1480.53036,1480.53036,1480.53036,1480.53036,1480.53036,1480.53036,1480.829274,1480.829274,1482.574495,1482.574495,1482.574495,1482.574495,1482.574495,1482.574495,1482.574495,1482.574495,1482.574495,1482.574495,1482.574495,1482.574495,1482.574495,1482.574495,1482.574495,1482.574495,1482.574495,1485.08377,1485.08377,1485.08377,1485.08377,1485.08377,76,33,22,39,76,58,7,1.3949881,,,[],[],[],[],[],[],[],-0.6,2,,[],[],[],[],[],[],[],None,None,1486.503628,1488.026332,,,,,,,,,,,,,,,,,,,,,,,,,,,,,,,238,f,23,2023-03-21_15h15.13.561,RL,2022.2.4,60.27814749
1,0,106,0,,,,,,,,,,None,1488.026332,1488.026332,1488.026332,1488.026332,1488.026332,1488.026332,r,0.2897623,1488.3422,1488.3422,1488.3422,1488.3422,1488.3422,1488.3422,1488.6416,1488.6416,1490.485965,1490.485965,1490.485965,1490.485965,1490.485965,1490.485965,1490.485965,1490.485965,1490.485965,1490.485965,1490.485965,1490.485965,1490.485965,1490.485965,1490.485965,1490.485965,1490.485965,,,,,,67,35,27,30,67,55,None,None,70,70,[0.07314814814814814],[-0.2740740740740741],[1],[0],[0],[4.36296769999899],['tijiao'],-0.2,0,,[],[],[],[],[],[],[],11,2.0119139,1499.410942,1501.323285,1492.996471,1492.996471,1492.996471,1492.996471,1492.996471,1492.996471,1492.996471,1492.996471,0.0058012,1492.996471,1497.379848,1497.379848,1497.379848,1497.379848,,,,,,,,,,,,,,,,,238,f,23,2023-03-21_15h15.13.561,RL,2022.2.4,60.27814749
0,0,107,0,,,,,,,,,,None,1501.323285,1501.323285,1501.323285,1501.323285,1501.323285,1501.323285,r,0.3299259,1501.672557,1501.672557,1501.672557,1501.672557,1501.672557,1501.672557,1501.971701,1501.971701,1503.517464,1503.517464,1503.517464,1503.517464,1503.517464,1503.517464,1503.517464,1503.517464,1503.517464,1503.517464,1503.517464,1503.517464,1503.517464,1503.517464,1503.517464,1503.517464,1503.517464,,,,,,72,34,27,32,72,53,None,None,,,[],[],[],[],[],[],[],-0.2,1,43,[0.041666666666666664],[-0.2962962962962963],[1],[0],[0],[4.9505011000001105],['tijiao_random_2'],10.63888889,2.6035152,1513.622218,1515.584287,,,,,,,,,,,1510.999761,1510.999761,1510.999761,1510.999761,1506.0366,1506.0366,1506.0366,1506.0366,1506.0366,1506.0366,1506.0366,1506.0366,0.0052009,1506.0366,,,,,,,238,f,23,2023-03-21_15h15.13.561,RL,2022.2.4,60.27814749
1,0,108,0,,,,,,,,,,None,1515.584287,1515.584287,1515.584287,1515.584287,1515.584287,1515.584287,r,0.2450532,1515.852883,1515.852883,1515.852883,1515.852883,1515.852883,1515.852883,1516.149669,1516.149669,1517.861361,1517.861361,1517.861361,1517.861361,1517.861361,1517.861361,1517.861361,1517.861361,1517.861361,1517.861361,1517.861361,1517.861361,1517.861361,1517.861361,1517.861361,1517.861361,1517.861361,,,,,,80,26,23,25,80,56,None,None,79,79,[-0.026851851851851852],[-0.3],[1],[0],[0],[8.16706740000518],['tijiao'],-0.6,0,,[],[],[],[],[],[],[],9.851851852,2.112464,1530.691947,1532.404709,1520.373537,1520.373537,1520.373537,1520.373537,1520.373537,1520.373537,1520.373537,1520.373537,0.0069675,1520.373537,1528.560718,1528.560718,1528.560718,1528.560718,,,,,,,,,,,,,,,,,238,f,23,2023-03-21_15h15.13.561,RL,2022.2.4,60.27814749
0,0,109,0,,,,,,,,,,None,1532.404709,1532.404709,1532.404709,1532.404709,1532.404709,1532.404709,r,0.2336116,1532.674125,1532.674125,1532.674125,1532.674125,1532.674125,1532.674125,1532.970496,1532.970496,1534.332838,1534.332838,1534.349762,1534.349762,1534.349762,1534.349762,1534.349762,1534.349762,1534.349762,1534.349762,1534.349762,1534.349762,1534.349762,1534.349762,1534.349762,1534.349762,1534.349762,1536.859071,1536.859071,1536.859071,1536.859071,1536.859071,77,36,20,36,77,58,6,4.5198671,,,[],[],[],[],[],[],[],0.2,2,,[],[],[],[],[],[],[],None,None,1541.40412,1543.325286,,,,,,,,,,,,,,,,,,,,,,,,,,,,,,,238,f,23,2023-03-21_15h15.13.561,RL,2022.2.4,60.27814749
1,0,110,0,,,,,,,,,,None,1543.325286,1543.325286,1543.325286,1543.325286,1543.325286,1543.325286,r,0.2777408,1543.62482,1543.62482,1543.62482,1543.62482,1543.62482,1543.62482,1543.923584,1543.923584,1545.004337,1545.004337,1545.004337,1545.004337,1545.004337,1545.004337,1545.004337,1545.004337,1545.004337,1545.004337,1545.004337,1545.004337,1545.004337,1545.004337,1545.004337,1545.004337,1545.004337,1547.513069,1547.513069,1547.513069,1547.513069,1547.513069,62,33,32,27,62,60,6,1.4457256,,,[],[],[],[],[],[],[],0.6,3,,[],[],[],[],[],[],[],None,None,1548.986872,1550.721677,,,,,,,,,,,,,,,,,,,,,,,,,,,,,,,238,f,23,2023-03-21_15h15.13.561,RL,2022.2.4,60.27814749
0,0,111,0,,,,,,,,,,None,1550.721677,1550.721677,1550.721677,1550.721677,1550.721677,1550.721677,r,0.2589256,1551.004536,1551.004536,1551.004536,1551.004536,1551.004536,1551.004536,1551.303709,1551.303709,1552.317509,1552.317509,1552.317509,1552.317509,1552.317509,1552.317509,1552.317509,1552.317509,1552.317509,1552.317509,1552.317509,1552.317509,1552.317509,1552.317509,1552.317509,1552.317509,1552.317509,,,,,,69,32,35,32,69,50,None,None,69,69,[0.05277777777777778],[-0.30462962962962964],[1],[0],[0],[8.451424800005043],['tijiao'],-0.2,0,,[],[],[],[],[],[],[],9.092592593,2.3270984,1565.646573,1567.243271,1554.828058,1554.828058,1554.828058,1554.828058,1554.828058,1554.828058,1554.828058,1554.828058,0.0057291,1554.828058,1563.300261,1563.300261,1563.300261,1563.300261,,,,,,,,,,,,,,,,,238,f,23,2023-03-21_15h15.13.561,RL,2022.2.4,60.27814749
1,0,112,0,,,,,,,,,,None,1567.243271,1567.243271,1567.243271,1567.243271,1567.243271,1567.243271,r,0.2820799,1567.544898,1567.544898,1567.544898,1567.544898,1567.544898,1567.544898,1567.841945,1567.841945,1569.520572,1569.520572,1569.520572,1569.520572,1569.520572,1569.520572,1569.520572,1569.520572,1569.520572,1569.520572,1569.520572,1569.520572,1569.520572,1569.520572,1569.520572,1569.520572,1569.520572,1572.029808,1572.029808,1572.029808,1572.029808,1572.029808,76,39,27,27,76,56,6,1.6946679,,,[],[],[],[],[],[],[],0.2,3,,[],[],[],[],[],[],[],None,None,1573.748297,1575.537345,,,,,,,,,,,,,,,,,,,,,,,,,,,,,,,238,f,23,2023-03-21_15h15.13.561,RL,2022.2.4,60.27814749
0,0,113,0,,,,,,,,,,None,1575.537345,1575.537345,1575.537345,1575.537345,1575.537345,1575.537345,r,0.3216505,1575.888416,1575.888416,1575.888416,1575.888416,1575.888416,1575.888416,1576.185865,1576.185865,1577.432292,1577.432292,1577.432292,1577.432292,1577.432292,1577.432292,1577.432292,1577.432292,1577.432292,1577.432292,1577.432292,1577.432292,1577.432292,1577.432292,1577.432292,1577.432292,1577.432292,1579.941109,1579.941109,1579.941109,1579.941109,1579.941109,71,44,21,23,71,55,6,1.9435961,,,[],[],[],[],[],[],[],-0.6,2,,[],[],[],[],[],[],[],None,None,1581.910327,1583.748265,,,,,,,,,,,,,,,,,,,,,,,,,,,,,,,238,f,23,2023-03-21_15h15.13.561,RL,2022.2.4,60.27814749
1,0,114,0,,,,,,,,,,None,1583.748265,1583.748265,1583.748265,1583.748265,1583.748265,1583.748265,r,0.2414073,1584.014801,1584.014801,1584.014801,1584.014801,1584.014801,1584.014801,1584.313645,1584.313645,1585.211,1585.211,1585.211,1585.211,1585.211,1585.211,1585.211,1585.211,1585.211,1585.211,1585.211,1585.211,1585.211,1585.211,1585.211,1585.211,1585.211,1587.720102,1587.720102,1587.720102,1587.720102,1587.720102,63,36,23,30,63,64,5,1.4617128,,,[],[],[],[],[],[],[],0.6,2,,[],[],[],[],[],[],[],None,None,1589.207414,1590.862237,,,,,,,,,,,,,,,,,,,,,,,,,,,,,,,238,f,23,2023-03-21_15h15.13.561,RL,2022.2.4,60.27814749
0,0,115,0,,,,,,,,,,None,1590.862237,1590.862237,1590.862237,1590.862237,1590.862237,1590.862237,r,0.2608345,1591.145253,1591.145253,1591.145253,1591.145253,1591.145253,1591.145253,1591.444309,1591.444309,1592.840557,1592.840557,1592.840557,1592.840557,1592.840557,1592.840557,1592.840557,1592.840557,1592.840557,1592.840557,1592.840557,1592.840557,1592.840557,1592.840557,1592.840557,1592.840557,1592.840557,1595.349236,1595.349236,1595.349236,1595.349236,1595.349236,73,35,29,42,73,63,5,1.4784469,,,[],[],[],[],[],[],[],-0.6,2,,[],[],[],[],[],[],[],None,None,1596.852599,1598.54125,,,,,,,,,,,,,,,,,,,,,,,,,,,,,,,238,f,23,2023-03-21_15h15.13.561,RL,2022.2.4,60.27814749
1,0,116,0,,,,,,,,,,None,1598.54125,1598.54125,1598.54125,1598.54125,1598.54125,1598.54125,r,0.3149271,1598.874254,1598.874254,1598.874254,1598.874254,1598.874254,1598.874254,1599.172801,1599.172801,1600.96826,1600.96826,1600.96826,1600.96826,1600.96826,1600.96826,1600.96826,1600.96826,1600.96826,1600.96826,1600.96826,1600.96826,1600.96826,1600.96826,1600.96826,1600.96826,1600.96826,,,,,,68,36,28,47,68,58,None,None,72,72,[0.02962962962962963],[-0.2916666666666667],[1],[0],[0],[4.561287100004847],['tijiao'],-0.2,0,,[],[],[],[],[],[],[],9.175925926,2.5266297,1610.607281,1612.204051,1603.480694,1603.480694,1603.480694,1603.480694,1603.480694,1603.480694,1603.480694,1603.480694,0.0062024,1603.480694,1608.061926,1608.061926,1608.061926,1608.061926,,,,,,,,,,,,,,,,,238,f,23,2023-03-21_15h15.13.561,RL,2022.2.4,60.27814749
0,0,117,0,,,,,,,,,,None,1612.204051,1612.204051,1612.204051,1612.204051,1612.204051,1612.204051,r,0.7478238,1612.969092,1612.969092,1612.969092,1612.969092,1612.969092,1612.969092,1613.267658,1613.267658,1615.262565,1615.262565,1615.262565,1615.262565,1615.262565,1615.262565,1615.262565,1615.262565,1615.262565,1615.262565,1615.262565,1615.262565,1615.262565,1615.262565,1615.262565,1615.262565,1615.262565,,,,,,71,36,24,48,71,63,None,None,75,75,[0.037037037037037035],[-0.2722222222222222],[1],[0],[0],[3.9459214999951655],['tijiao'],-0.2,0,,[],[],[],[],[],[],[],9.814814815,3.1261088,1624.884957,1626.66435,1617.772432,1617.772432,1617.772432,1617.772432,1617.772432,1617.772432,1617.772432,1617.772432,0.0057362,1617.772432,1621.740177,1621.740177,1621.740177,1621.740177,,,,,,,,,,,,,,,,,238,f,23,2023-03-21_15h15.13.561,RL,2022.2.4,60.27814749
1,0,118,0,,,,,,,,,,None,1626.66435,1626.66435,1626.66435,1626.66435,1626.66435,1626.66435,r,0.3246254,1627.016511,1627.016511,1627.016511,1627.016511,1627.016511,1627.016511,1627.312641,1627.312641,1628.925431,1628.925431,1628.94164,1628.94164,1628.94164,1628.94164,1628.94164,1628.94164,1628.94164,1628.94164,1628.94164,1628.94164,1628.94164,1628.94164,1628.94164,1628.94164,1628.94164,1631.450925,1631.450925,1631.450925,1631.450925,1631.450925,67,25,29,47,67,59,6,6.2654279,,,[],[],[],[],[],[],[],0.2,3,,[],[],[],[],[],[],[],None,None,1637.742818,1639.263461,,,,,,,,,,,,,,,,,,,,,,,,,,,,,,,238,f,23,2023-03-21_15h15.13.561,RL,2022.2.4,60.27814749
0,0,119,0,,,,,,,,,,None,1639.263461,1639.263461,1639.263461,1639.263461,1639.263461,1639.263461,r,0.2789631,1639.563337,1639.563337,1639.563337,1639.563337,1639.563337,1639.563337,1639.861572,1639.861572,1640.776022,1640.776022,1640.776022,1640.776022,1640.776022,1640.776022,1640.776022,1640.776022,1640.776022,1640.776022,1640.776022,1640.776022,1640.776022,1640.776022,1640.776022,1640.776022,1640.776022,1643.285436,1643.285436,1643.285436,1643.285436,1643.285436,65,27,29,52,65,50,5,2.5923629,,,[],[],[],[],[],[],[],0.6,3,,[],[],[],[],[],[],[],None,None,1645.900459,1647.757057,,,,,,,,,,,,,,,,,,,,,,,,,,,,,,,238,f,23,2023-03-21_15h15.13.561,RL,2022.2.4,60.27814749
1,0,120,0,,,,,,,,,,None,1647.757057,1647.757057,1647.757057,1647.757057,1647.757057,1647.757057,r,0.2667831,1648.056606,1648.056606,1648.056606,1648.056606,1648.056606,1648.056606,1648.35561,1648.35561,1649.186633,1649.186633,1649.186633,1649.186633,1649.186633,1649.186633,1649.186633,1649.186633,1649.186633,1649.186633,1649.186633,1649.186633,1649.186633,1649.186633,1649.186633,1649.186633,1649.186633,1651.695857,1651.695857,1651.695857,1651.695857,1651.695857,69,39,26,44,69,61,5,1.2460317,,,[],[],[],[],[],[],[],-0.6,2,,[],[],[],[],[],[],[],None,None,1652.966209,1654.754669,,,,,,,,,,,,,,,,,,,,,,,,,,,,,,,238,f,23,2023-03-21_15h15.13.561,RL,2022.2.4,60.27814749
0,0,121,0,,,,,,,,,,None,1654.754669,1654.754669,1654.754669,1654.754669,1654.754669,1654.754669,r,0.2579081,1655.037825,1655.037825,1655.037825,1655.037825,1655.037825,1655.037825,1655.336439,1655.336439,1657.115072,1657.115072,1657.115072,1657.115072,1657.115072,1657.115072,1657.115072,1657.115072,1657.115072,1657.115072,1657.115072,1657.115072,1657.115072,1657.115072,1657.115072,1657.115072,1657.115072,1659.623861,1659.623861,1659.623861,1659.623861,1659.623861,79,40,32,45,79,56,6,1.4121875,,,[],[],[],[],[],[],[],0.6,2,,[],[],[],[],[],[],[],None,None,1661.060122,1663.064982,,,,,,,,,,,,,,,,,,,,,,,,,,,,,,,238,f,23,2023-03-21_15h15.13.561,RL,2022.2.4,60.27814749
1,0,122,0,,,,,,,,,,None,1663.064982,1663.064982,1663.064982,1663.064982,1663.064982,1663.064982,r,0.269893,1663.365069,1663.365069,1663.365069,1663.365069,1663.365069,1663.365069,1663.663746,1663.663746,1664.644436,1664.644436,1664.644436,1664.644436,1664.644436,1664.644436,1664.644436,1664.644436,1664.644436,1664.644436,1664.644436,1664.644436,1664.644436,1664.644436,1664.644436,1664.644436,1664.644436,1667.153456,1667.153456,1667.153456,1667.153456,1667.153456,73,40,29,37,73,52,5,2.2097392,,,[],[],[],[],[],[],[],0.6,3,,[],[],[],[],[],[],[],None,None,1669.387847,1671.060059,,,,,,,,,,,,,,,,,,,,,,,,,,,,,,,238,f,23,2023-03-21_15h15.13.561,RL,2022.2.4,60.27814749
0,0,123,0,,,,,,,,,,None,1671.060059,1671.060059,1671.060059,1671.060059,1671.060059,1671.060059,r,0.2825106,1671.376527,1671.376527,1671.376527,1671.376527,1671.376527,1671.376527,1671.675118,1671.675118,1673.15453,1673.15453,1673.15453,1673.15453,1673.15453,1673.15453,1673.15453,1673.15453,1673.15453,1673.15453,1673.15453,1673.15453,1673.15453,1673.15453,1673.15453,1673.15453,1673.15453,1675.663731,1675.663731,1675.663731,1675.663731,1675.663731,65,40,29,42,65,53,6,2.8244774,,,[],[],[],[],[],[],[],-0.2,2,,[],[],[],[],[],[],[],None,None,1678.514458,1680.467718,,,,,,,,,,,,,,,,,,,,,,,,,,,,,,,238,f,23,2023-03-21_15h15.13.561,RL,2022.2.4,60.27814749
1,0,124,0,,,,,,,,,,None,1680.467718,1680.467718,1680.467718,1680.467718,1680.467718,1680.467718,r,0.3018178,1680.800832,1680.800832,1680.800832,1680.800832,1680.800832,1680.800832,1681.099306,1681.099306,1682.512342,1682.512342,1682.512342,1682.512342,1682.512342,1682.512342,1682.512342,1682.512342,1682.512342,1682.512342,1682.512342,1682.512342,1682.512342,1682.512342,1682.512342,1682.512342,1682.512342,1685.021134,1685.021134,1685.021134,1685.021134,1685.021134,73,38,29,45,73,54,6,1.7446743,,,[],[],[],[],[],[],[],-0.6,3,,[],[],[],[],[],[],[],None,None,1686.792893,1688.462677,,,,,,,,,,,,,,,,,,,,,,,,,,,,,,,238,f,23,2023-03-21_15h15.13.561,RL,2022.2.4,60.27814749
0,0,125,0,,,,,,,,,,None,1688.462677,1688.462677,1688.462677,1688.462677,1688.462677,1688.462677,r,0.2542066,1688.745747,1688.745747,1688.745747,1688.745747,1688.745747,1688.745747,1689.044804,1689.044804,1690.39096,1690.39096,1690.39096,1690.39096,1690.39096,1690.39096,1690.39096,1690.39096,1690.39096,1690.39096,1690.39096,1690.39096,1690.39096,1690.39096,1690.39096,1690.39096,1690.39096,,,,,,64,31,35,42,64,49,None,None,,,[],[],[],[],[],[],[],0.2,1,27,[0.08055555555555556],[-0.2759259259259259],[1],[0],[0],[12.731000600004336],['tijiao_random_2'],8.222222222,2.5352138,1708.20777,1710.103396,,,,,,,,,,,1705.654519,1705.654519,1705.654519,1705.654519,1692.908512,1692.908512,1692.908512,1692.908512,1692.908512,1692.908512,1692.908512,1692.908512,0.0059734,1692.908512,,,,,,,238,f,23,2023-03-21_15h15.13.561,RL,2022.2.4,60.27814749
1,0,126,0,,,,,,,,,,None,1710.103396,1710.103396,1710.103396,1710.103396,1710.103396,1710.103396,r,0.263241,1710.38757,1710.38757,1710.38757,1710.38757,1710.38757,1710.38757,1710.685201,1710.685201,1711.616079,1711.616079,1711.616079,1711.616079,1711.616079,1711.616079,1711.616079,1711.616079,1711.616079,1711.616079,1711.616079,1711.616079,1711.616079,1711.616079,1711.616079,1711.616079,1711.616079,1714.125176,1714.125176,1714.125176,1714.125176,1714.125176,70,22,40,48,70,53,5,2.3426252,,,[],[],[],[],[],[],[],-0.6,3,,[],[],[],[],[],[],[],None,None,1716.492291,1718.480637,,,,,,,,,,,,,,,,,,,,,,,,,,,,,,,238,f,23,2023-03-21_15h15.13.561,RL,2022.2.4,60.27814749
0,0,127,0,,,,,,,,,,None,1718.480637,1718.480637,1718.480637,1718.480637,1718.480637,1718.480637,r,0.2596959,1718.765021,1718.765021,1718.765021,1718.765021,1718.765021,1718.765021,1719.062427,1719.062427,1720.392014,1720.392014,1720.392014,1720.392014,1720.392014,1720.392014,1720.392014,1720.392014,1720.392014,1720.392014,1720.392014,1720.392014,1720.392014,1720.392014,1720.392014,1720.392014,1720.392014,,,,,,66,29,50,48,66,65,None,None,,,[],[],[],[],[],[],[],0.6,1,45,[0.013888888888888888],[-0.2796296296296296],[1],[0],[0],[12.59688680000545],['tijiao_random_2'],5.175925926,2.4697221,1738.009706,1739.705876,,,,,,,,,,,1735.521394,1735.521394,1735.521394,1735.521394,1722.911462,1722.911462,1722.911462,1722.911462,1722.911462,1722.911462,1722.911462,1722.911462,0.006993,1722.911462,,,,,,,238,f,23,2023-03-21_15h15.13.561,RL,2022.2.4,60.27814749
