trials.thisRepN,trials.thisTrialN,trials.thisN,trials.thisIndex,instru_img1.started,instru_resp.started,instru_resp.keys,instru_resp.rt,instru_img2.started,instru_resp2.started,instru_resp2.keys,instru_resp2.rt,fixbefore_2.started,rest_response.keys,red.started,green.started,yellow.started,blue.started,choose_bandit.started,Fixation.started,choose_bandit.keys,choose_bandit.rt,black.started,red_2.started,green_2.started,yellow_2.started,blue_2.started,fixation_2.started,docs.started,wait_playerB.started,docs.stopped,wait_playerB.stopped,black.stopped,red_2.stopped,green_2.stopped,yellow_2.stopped,blue_2.stopped,fixation_2.stopped,black_com.started,reward_sub.started,palyerb.started,reward__sub.started,compare.started,red_compare.started,green_com.started,yellow_com.started,blue_com.started,rewardyellow,rewardred,rewardblue,rewardgreen,subchoose,playerb,slider.response,slider.rt,expectself.text,value_expect_self,tijiao_click.x,tijiao_click.y,tijiao_click.leftButton,tijiao_click.midButton,tijiao_click.rightButton,tijiao_click.time,tijiao_click.clicked_name,random_whicharm,whether_ask,jiantou_random.started,expect_red.started,expect_green.started,expect_yellow.started,expect_blue.started,expect_random_2.started,expect_random_3.started,tijiao_random_2.started,tijiao_random.started,check_2.started,expect_random_3.text,tijiao_random.x,tijiao_random.y,tijiao_random.leftButton,tijiao_random.midButton,tijiao_random.rightButton,tijiao_random.time,tijiao_random.clicked_name,slider_2.started,image_7.started,confi.started,notconfi.started,slider_2.response,slider_2.rt,intertrialfix.started,intertrialfix.stopped,image_3.started,slider.started,text.started,image_4.started,image_5.started,expectself.started,expect_self_black.started,expect_self.started,expect_self_red.started,expect_self_green.started,expect_self_yellow.started,expect_self_blue.started,tijiao.started,tijiao_click.started,check.started,rest_image.started,rest_response.started,rest_response.rt,image.started,key_resp.started,key_resp.keys,participant,Gender,Age,date,expName,psychopyVersion,frameRate
,,,,60.1705196,60.1705196,space,11.4639899,,,,,,,,,,,,,,,,,,,,,,,,,,,,,,,,,,,,,,,,,,,,,,,,,,,,,,,,,,,,,,,,,,,,,,,,,,,,,,,,,,,,,,,,,,,,,,,,,,,,,,,,,,239,f,18,2023-03-21_16h55.55.236,RL,2022.2.4,60.18447746
,,,,,,,,71.660896,71.660896,s,13.7577214,,,,,,,,,,,,,,,,,,,,,,,,,,,,,,,,,,,,,,,,,,,,,,,,,,,,,,,,,,,,,,,,,,,,,,,,,,,,,,,,,,,,,,,,,,,,,,,,,,,,,,239,f,18,2023-03-21_16h55.55.236,RL,2022.2.4,60.18447746
1,0,0,0,,,,,,,,,85.4494292,None,86.4631092,86.4631092,86.4631092,86.4631092,86.4631092,86.4631092,i,0.3097575,86.8085439,86.8085439,86.8085439,86.8085439,86.8085439,86.8085439,87.0947736,87.0947736,88.1247606,88.1247606,88.1434854,88.1434854,88.1434854,88.1434854,88.1434854,88.1434854,88.1434854,88.1434854,88.1434854,88.1434854,88.1434854,88.1434854,88.1434854,88.1434854,88.1434854,51,64,51,25,51,61,None,None,,,[],[],[],[],[],[],[],0.2,1,90.6650146,90.6650146,90.6650146,90.6650146,90.6650146,90.6650146,90.6650146,90.6650146,0.0073334,90.6650146,60,[-0.04814814814814815],[-0.2814814814814815],[1],[0],[0],[6.529849999991711],['tijiao_random_2'],97.2120265,97.2120265,97.2120265,97.2120265,7.027777778,2.8507783,100.1139749,102.0535245,,,,,,,,,,,,,,,,,,,,,,239,f,18,2023-03-21_16h55.55.236,RL,2022.2.4,60.18447746
0,0,1,0,,,,,,,,,,None,102.0535245,102.0535245,102.0535245,102.0535245,102.0535245,102.0535245,f,0.602147,102.6906943,102.6906943,102.6906943,102.6906943,102.6906943,102.6906943,102.9843789,102.9843789,104.8958351,104.8958351,104.8958351,104.8958351,104.8958351,104.8958351,104.8958351,104.8958351,104.8958351,104.8958351,104.8958351,104.8958351,104.8958351,104.8958351,104.8958351,104.8958351,104.8958351,53,54,49,29,54,71,None,None,,,[],[],[],[],[],[],[],-0.6,1,107.4132287,107.4132287,107.4132287,107.4132287,107.4132287,107.4132287,107.4132287,107.4132287,0.0058583,107.4132287,63,[-0.019444444444444445],[-0.30092592592592593],[1],[0],[0],[5.584656000006362],['tijiao_random_2'],113.0106856,113.0106856,113.0106856,113.0106856,7.009259259,2.4044781,115.4325512,117.2948187,,,,,,,,,,,,,,,,,,,,,,239,f,18,2023-03-21_16h55.55.236,RL,2022.2.4,60.18447746
1,0,2,0,,,,,,,,,,None,117.2948187,117.2948187,117.2948187,117.2948187,117.2948187,117.2948187,f,0.443094,117.7608616,117.7608616,117.7608616,117.7608616,117.7608616,117.7608616,118.0601147,118.0601147,119.1569431,119.1569431,119.1569431,119.1569431,119.1569431,119.1569431,119.1569431,119.1569431,119.1569431,119.1569431,119.1569431,119.1569431,119.1569431,119.1569431,119.1569431,119.1569431,119.1569431,62,54,49,38,54,38,5,2.4586881,,,[],[],[],[],[],[],[],-0.6,2,,,,,,,,,,,,[],[],[],[],[],[],[],,,,,None,None,124.1502678,125.9880345,121.6665089,121.6665089,121.6665089,121.6665089,121.6665089,,,,,,,,,,,,,,,,,239,f,18,2023-03-21_16h55.55.236,RL,2022.2.4,60.18447746
0,0,3,0,,,,,,,,,,None,125.9880345,125.9880345,125.9880345,125.9880345,125.9880345,125.9880345,i,0.4332413,126.4538748,126.4538748,126.4538748,126.4538748,126.4538748,126.4538748,126.7529295,126.7529295,128.5812703,128.5812703,128.5812703,128.5812703,128.5812703,128.5812703,128.5812703,128.5812703,128.5812703,128.5812703,128.5812703,128.5812703,128.5812703,128.5812703,128.5812703,128.5812703,128.5812703,59,50,54,27,54,55,None,None,54,54,[0.03148148148148148],[-0.29814814814814816],[1],[0],[0],[5.773210500003188],['tijiao'],0.2,0,,,,,,,,,,,,[],[],[],[],[],[],[],136.886807,136.886807,136.886807,136.886807,8.101851852,2.6282498,139.5336386,141.5457305,,,,,,131.0974918,131.0974918,131.0974918,131.0974918,131.0974918,131.0974918,131.0974918,131.0974918,0.0079817,131.0974918,,,,,,,239,f,18,2023-03-21_16h55.55.236,RL,2022.2.4,60.18447746
1,0,4,0,,,,,,,,,,None,141.5457305,141.5457305,141.5457305,141.5457305,141.5457305,141.5457305,j,0.4139048,141.9844003,141.9844003,141.9844003,141.9844003,141.9844003,141.9844003,142.2773357,142.2773357,143.7398125,143.7398125,143.7564188,143.7564188,143.7564188,143.7564188,143.7564188,143.7564188,143.7564188,143.7564188,143.7564188,143.7564188,143.7564188,143.7564188,143.7564188,143.7564188,143.7564188,63,46,60,29,29,63,None,None,39,39,[0.06481481481481481],[-0.3],[1],[0],[0],[4.728526000006241],['tijiao'],-0.2,0,,,,,,,,,,,,[],[],[],[],[],[],[],151.0172048,151.0172048,151.0172048,151.0172048,4.972222222,3.2076867,154.2435887,156.2222035,,,,,,146.2666643,146.2666643,146.2666643,146.2666643,146.2666643,146.2666643,146.2666643,146.2666643,0.0053688,146.2666643,,,,,,,239,f,18,2023-03-21_16h55.55.236,RL,2022.2.4,60.18447746
0,0,5,0,,,,,,,,,,None,156.2222035,156.2222035,156.2222035,156.2222035,156.2222035,156.2222035,f,0.396189,156.6382832,156.6382832,156.6382832,156.6382832,156.6382832,156.6382832,156.9373668,156.9373668,158.3996829,158.3996829,158.3996829,158.3996829,158.3996829,158.3996829,158.3996829,158.3996829,158.3996829,158.3996829,158.3996829,158.3996829,158.3996829,158.3996829,158.3996829,158.3996829,158.3996829,72,48,53,30,48,55,None,None,,,[],[],[],[],[],[],[],0.2,1,160.9165085,160.9165085,160.9165085,160.9165085,160.9165085,160.9165085,160.9165085,160.9165085,0.0059251,160.9165085,50,[-0.002777777777777778],[-0.2972222222222222],[1],[0],[0],[4.205769200008945],['tijiao_random_2'],165.1349507,165.1349507,165.1349507,165.1349507,5.842592593,2.9018661,168.0556378,169.7186691,,,,,,,,,,,,,,,,,,,,,,239,f,18,2023-03-21_16h55.55.236,RL,2022.2.4,60.18447746
1,0,6,0,,,,,,,,,,None,169.7186691,169.7186691,169.7186691,169.7186691,169.7186691,169.7186691,r,0.2889544,170.040997,170.040997,170.040997,170.040997,170.040997,170.040997,170.3342224,170.3342224,171.6635696,171.6635696,171.6799619,171.6799619,171.6799619,171.6799619,171.6799619,171.6799619,171.6799619,171.6799619,171.6799619,171.6799619,171.6799619,171.6799619,171.6799619,171.6799619,171.6799619,71,49,49,38,71,64,None,None,69,69,[0.03425925925925926],[-0.3148148148148148],[1],[0],[0],[5.6592158999992535],['tijiao'],-0.6,0,,,,,,,,,,,,[],[],[],[],[],[],[],179.8696166,179.8696166,179.8696166,179.8696166,6.925925926,3.1598002,183.0481374,184.860767,,,,,,174.190578,174.190578,174.190578,174.190578,174.190578,174.190578,174.190578,174.190578,0.0054414,174.190578,,,,,,,239,f,18,2023-03-21_16h55.55.236,RL,2022.2.4,60.18447746
0,0,7,0,,,,,,,,,,None,184.860767,184.860767,184.860767,184.860767,184.860767,184.860767,i,0.544665,185.4261798,185.4261798,185.4261798,185.4261798,185.4261798,185.4261798,185.7254698,185.7254698,186.7387753,186.7387753,186.7387753,186.7387753,186.7387753,186.7387753,186.7387753,186.7387753,186.7387753,186.7387753,186.7387753,186.7387753,186.7387753,186.7387753,186.7387753,186.7387753,186.7387753,68,53,42,36,42,74,1,2.1094241,,,[],[],[],[],[],[],[],0.2,2,,,,,,,,,,,,[],[],[],[],[],[],[],,,,,None,None,191.3826176,192.9052143,189.2482399,189.2482399,189.2482399,189.2482399,189.2482399,,,,,,,,,,,,,,,,,239,f,18,2023-03-21_16h55.55.236,RL,2022.2.4,60.18447746
1,0,8,0,,,,,,,,,,None,192.9052143,192.9052143,192.9052143,192.9052143,192.9052143,192.9052143,f,0.4583564,193.3877302,193.3877302,193.3877302,193.3877302,193.3877302,193.3877302,193.6867286,193.6867286,195.1496363,195.1496363,195.1496363,195.1496363,195.1496363,195.1496363,195.1496363,195.1496363,195.1496363,195.1496363,195.1496363,195.1496363,195.1496363,195.1496363,195.1496363,195.1496363,195.1496363,61,50,55,41,50,22,7,1.711021,,,[],[],[],[],[],[],[],-0.2,3,,,,,,,,,,,,[],[],[],[],[],[],[],,,,,None,None,199.396236,201.3657166,197.6586867,197.6586867,197.6586867,197.6586867,197.6586867,,,,,,,,,,,,,,,,,239,f,18,2023-03-21_16h55.55.236,RL,2022.2.4,60.18447746
0,0,9,0,,,,,,,,,,None,201.3657166,201.3657166,201.3657166,201.3657166,201.3657166,201.3657166,f,0.6453709,202.0309808,202.0309808,202.0309808,202.0309808,202.0309808,202.0309808,202.3298944,202.3298944,203.8923424,203.8923424,203.8923424,203.8923424,203.8923424,203.8923424,203.8923424,203.8923424,203.8923424,203.8923424,203.8923424,203.8923424,203.8923424,203.8923424,203.8923424,203.8923424,203.8923424,64,56,47,45,56,70,3,1.9107801,,,[],[],[],[],[],[],[],0.2,3,,,,,,,,,,,,[],[],[],[],[],[],[],,,,,None,None,208.3389794,210.1582784,206.401509,206.401509,206.401509,206.401509,206.401509,,,,,,,,,,,,,,,,,239,f,18,2023-03-21_16h55.55.236,RL,2022.2.4,60.18447746
1,0,10,0,,,,,,,,,,None,210.1582784,210.1582784,210.1582784,210.1582784,210.1582784,210.1582784,j,0.4012612,210.5908229,210.5908229,210.5908229,210.5908229,210.5908229,210.5908229,210.8901556,210.8901556,212.4686953,212.4686953,212.4686953,212.4686953,212.4686953,212.4686953,212.4686953,212.4686953,212.4686953,212.4686953,212.4686953,212.4686953,212.4686953,212.4686953,212.4686953,212.4686953,212.4686953,62,56,60,43,43,59,2,2.0604425,,,[],[],[],[],[],[],[],0.6,2,,,,,,,,,,,,[],[],[],[],[],[],[],,,,,None,None,217.0649742,218.8347307,214.9779594,214.9779594,214.9779594,214.9779594,214.9779594,,,,,,,,,,,,,,,,,239,f,18,2023-03-21_16h55.55.236,RL,2022.2.4,60.18447746
0,0,11,0,,,,,,,,,,None,218.8347307,218.8347307,218.8347307,218.8347307,218.8347307,218.8347307,i,0.3478861,219.2007268,219.2007268,219.2007268,219.2007268,219.2007268,219.2007268,219.4994975,219.4994975,221.211876,221.211876,221.211876,221.211876,221.211876,221.211876,221.211876,221.211876,221.211876,221.211876,221.211876,221.211876,221.211876,221.211876,221.211876,221.211876,221.211876,62,52,62,48,62,20,None,None,58,58,[0.01574074074074074],[-0.30648148148148147],[1],[0],[0],[5.409223700000439],['tijiao'],0.2,0,,,,,,,,,,,,[],[],[],[],[],[],[],229.151218,229.151218,229.151218,229.151218,8.324074074,2.9942207,232.1639672,233.6768811,,,,,,223.7217956,223.7217956,223.7217956,223.7217956,223.7217956,223.7217956,223.7217956,223.7217956,0.0062056,223.7217956,,,,,,,239,f,18,2023-03-21_16h55.55.236,RL,2022.2.4,60.18447746
1,0,12,0,,,,,,,,,,None,233.6768811,233.6768811,233.6768811,233.6768811,233.6768811,233.6768811,r,0.318695,234.0283143,234.0283143,234.0283143,234.0283143,234.0283143,234.0283143,234.3257707,234.3257707,236.2204738,236.2204738,236.2204738,236.2204738,236.2204738,236.2204738,236.2204738,236.2204738,236.2204738,236.2204738,236.2204738,236.2204738,236.2204738,236.2204738,236.2204738,236.2204738,236.2204738,53,60,67,30,53,71,None,None,,,[],[],[],[],[],[],[],-0.6,1,238.7375143,238.7375143,238.7375143,238.7375143,238.7375143,238.7375143,238.7375143,238.7375143,0.0076,238.7375143,62,[0.1037037037037037],[-0.27314814814814814],[1],[0],[0],[4.3551069000095595],['tijiao_random_2'],243.1050608,243.1050608,243.1050608,243.1050608,5.907407407,0.9755105,244.0983235,246.0936033,,,,,,,,,,,,,,,,,,,,,,239,f,18,2023-03-21_16h55.55.236,RL,2022.2.4,60.18447746
0,0,13,0,,,,,,,,,,None,246.0936033,246.0936033,246.0936033,246.0936033,246.0936033,246.0936033,f,0.5020033,246.6259399,246.6259399,246.6259399,246.6259399,246.6259399,246.6259399,246.9251334,246.9251334,247.8886115,247.8886115,247.9055158,247.9055158,247.9055158,247.9055158,247.9055158,247.9055158,247.9055158,247.9055158,247.9055158,247.9055158,247.9055158,247.9055158,247.9055158,247.9055158,247.9055158,61,43,60,33,43,63,1,1.9108479,,,[],[],[],[],[],[],[],0.6,2,,,,,,,,,,,,[],[],[],[],[],[],[],,,,,None,None,252.3502593,254.1217558,250.4147586,250.4147586,250.4147586,250.4147586,250.4147586,,,,,,,,,,,,,,,,,239,f,18,2023-03-21_16h55.55.236,RL,2022.2.4,60.18447746
1,0,14,0,,,,,,,,,,None,254.1217558,254.1217558,254.1217558,254.1217558,254.1217558,254.1217558,j,0.5774584,254.720281,254.720281,254.720281,254.720281,254.720281,254.720281,255.0196807,255.0196807,256.3159857,256.3159857,256.3159857,256.3159857,256.3159857,256.3159857,256.3159857,256.3159857,256.3159857,256.3159857,256.3159857,256.3159857,256.3159857,256.3159857,256.3159857,256.3159857,256.3159857,53,46,56,37,37,65,1,1.4451522,,,[],[],[],[],[],[],[],0.6,2,,,,,,,,,,,,[],[],[],[],[],[],[],,,,,None,None,260.2949765,262.199833,258.8249923,258.8249923,258.8249923,258.8249923,258.8249923,,,,,,,,,,,,,,,,,239,f,18,2023-03-21_16h55.55.236,RL,2022.2.4,60.18447746
0,0,15,0,,,,,,,,,,None,262.199833,262.199833,262.199833,262.199833,262.199833,262.199833,j,0.3480699,262.5656959,262.5656959,262.5656959,262.5656959,262.5656959,262.5656959,262.8649243,262.8649243,264.0616313,264.0616313,264.0616313,264.0616313,264.0616313,264.0616313,264.0616313,264.0616313,264.0616313,264.0616313,264.0616313,264.0616313,264.0616313,264.0616313,264.0616313,264.0616313,264.0616313,52,57,58,33,33,67,1,1.2948801,,,[],[],[],[],[],[],[],0.6,3,,,,,,,,,,,,[],[],[],[],[],[],[],,,,,None,None,267.8921702,269.8619208,266.5706475,266.5706475,266.5706475,266.5706475,266.5706475,,,,,,,,,,,,,,,,,239,f,18,2023-03-21_16h55.55.236,RL,2022.2.4,60.18447746
1,0,16,0,,,,,,,,,,None,269.8619208,269.8619208,269.8619208,269.8619208,269.8619208,269.8619208,i,0.4050137,270.2962448,270.2962448,270.2962448,270.2962448,270.2962448,270.2962448,270.5939168,270.5939168,272.3058092,272.3058092,272.3058092,272.3058092,272.3058092,272.3058092,272.3058092,272.3058092,272.3058092,272.3058092,272.3058092,272.3058092,272.3058092,272.3058092,272.3058092,272.3058092,272.3058092,56,50,62,40,62,78,1,1.1793682,,,[],[],[],[],[],[],[],-0.6,3,,,,,,,,,,,,[],[],[],[],[],[],[],,,,,None,None,276.0204605,278.0065207,274.8145589,274.8145589,274.8145589,274.8145589,274.8145589,,,,,,,,,,,,,,,,,239,f,18,2023-03-21_16h55.55.236,RL,2022.2.4,60.18447746
0,0,17,0,,,,,,,,,,None,278.0065207,278.0065207,278.0065207,278.0065207,278.0065207,278.0065207,r,0.319405,278.355963,278.355963,278.355963,278.355963,278.355963,278.355963,278.655147,278.655147,280.5330941,280.5330941,280.5330941,280.5330941,280.5330941,280.5330941,280.5330941,280.5330941,280.5330941,280.5330941,280.5330941,280.5330941,280.5330941,280.5330941,280.5330941,280.5330941,280.5330941,56,63,63,31,56,62,3,1.89452,,,[],[],[],[],[],[],[],-0.2,3,,,,,,,,,,,,[],[],[],[],[],[],[],,,,,None,None,284.9633847,286.9154884,283.0423606,283.0423606,283.0423606,283.0423606,283.0423606,,,,,,,,,,,,,,,,,239,f,18,2023-03-21_16h55.55.236,RL,2022.2.4,60.18447746
1,0,18,0,,,,,,,,,,None,286.9154884,286.9154884,286.9154884,286.9154884,286.9154884,286.9154884,f,0.1141319,287.0491479,287.0491479,287.0491479,287.0491479,287.0491479,287.0491479,287.3480952,287.3480952,289.1429617,289.1429617,289.1429617,289.1429617,289.1429617,289.1429617,289.1429617,289.1429617,289.1429617,289.1429617,289.1429617,289.1429617,289.1429617,289.1429617,289.1429617,289.1429617,289.1429617,57,61,56,32,61,76,None,None,80,80,[0.04259259259259259],[-0.28425925925925927],[1],[0],[0],[4.7266382000088925],['tijiao'],-0.6,0,,,,,,,,,,,,[],[],[],[],[],[],[],296.4020822,296.4020822,296.4020822,296.4020822,10.96296296,2.2617364,298.6826417,300.3955626,,,,,,291.6547363,291.6547363,291.6547363,291.6547363,291.6547363,291.6547363,291.6547363,291.6547363,0.0076831,291.6547363,,,,,,,239,f,18,2023-03-21_16h55.55.236,RL,2022.2.4,60.18447746
0,0,19,0,,,,,,,,,,None,300.3955626,300.3955626,300.3955626,300.3955626,300.3955626,300.3955626,f,0.3282305,300.7452293,300.7452293,300.7452293,300.7452293,300.7452293,300.7452293,301.0440831,301.0440831,301.9913367,301.9913367,302.0076215,302.0076215,302.0076215,302.0076215,302.0076215,302.0076215,302.0076215,302.0076215,302.0076215,302.0076215,302.0076215,302.0076215,302.0076215,302.0076215,302.0076215,56,67,49,27,67,29,7,1.4782482,,,[],[],[],[],[],[],[],-0.6,2,,,,,,,,,,,,[],[],[],[],[],[],[],,,,,None,None,306.0207869,307.6921933,304.5172173,304.5172173,304.5172173,304.5172173,304.5172173,,,,,,,,,,,,,,,,,239,f,18,2023-03-21_16h55.55.236,RL,2022.2.4,60.18447746
1,0,20,0,,,,,,,,,,None,307.6921933,307.6921933,307.6921933,307.6921933,307.6921933,307.6921933,j,0.3566793,308.074743,308.074743,308.074743,308.074743,308.074743,308.074743,308.3740297,308.3740297,309.9530777,309.9530777,309.9530777,309.9530777,309.9530777,309.9530777,309.9530777,309.9530777,309.9530777,309.9530777,309.9530777,309.9530777,309.9530777,309.9530777,309.9530777,309.9530777,309.9530777,53,72,55,22,22,79,None,None,79,79,[0.03888888888888889],[-0.2722222222222222],[1],[0],[0],[4.327450900003896],['tijiao'],0.6,0,,,,,,,,,,,,[],[],[],[],[],[],[],316.8133123,316.8133123,316.8133123,316.8133123,10.67592593,2.1778465,319.0103819,320.955982,,,,,,312.465124,312.465124,312.465124,312.465124,312.465124,312.465124,312.465124,312.465124,0.0073868,312.465124,,,,,,,239,f,18,2023-03-21_16h55.55.236,RL,2022.2.4,60.18447746
0,0,21,0,,,,,,,,,,None,320.955982,320.955982,320.955982,320.955982,320.955982,320.955982,j,0.6574545,321.6379294,321.6379294,321.6379294,321.6379294,321.6379294,321.6379294,321.9370339,321.9370339,322.7846931,322.7846931,322.7846931,322.7846931,322.7846931,322.7846931,322.7846931,322.7846931,322.7846931,322.7846931,322.7846931,322.7846931,322.7846931,322.7846931,322.7846931,322.7846931,322.7846931,55,68,54,34,34,59,None,None,10,10,[0.1287037037037037],[-0.27037037037037037],[1],[0],[0],[6.191904200008139],['tijiao'],0.6,0,,,,,,,,,,,,[],[],[],[],[],[],[],331.5056363,331.5056363,331.5056363,331.5056363,8.157407407,2.8441546,334.3684411,336.2641945,,,,,,325.2947293,325.2947293,325.2947293,325.2947293,325.2947293,325.2947293,325.2947293,325.2947293,0.0051478,325.2947293,,,,,,,239,f,18,2023-03-21_16h55.55.236,RL,2022.2.4,60.18447746
1,0,22,0,,,,,,,,,,None,336.2641945,336.2641945,336.2641945,336.2641945,336.2641945,336.2641945,f,0.3065698,336.6002241,336.6002241,336.6002241,336.6002241,336.6002241,336.6002241,336.8961914,336.8961914,337.89311,337.89311,337.89311,337.89311,337.89311,337.89311,337.89311,337.89311,337.89311,337.89311,337.89311,337.89311,337.89311,337.89311,337.89311,337.89311,337.89311,57,64,56,32,64,58,5,1.7280427,,,[],[],[],[],[],[],[],-0.2,2,,,,,,,,,,,,[],[],[],[],[],[],[],,,,,None,None,342.1559552,344.1594294,340.4026179,340.4026179,340.4026179,340.4026179,340.4026179,,,,,,,,,,,,,,,,,239,f,18,2023-03-21_16h55.55.236,RL,2022.2.4,60.18447746
0,0,23,0,,,,,,,,,,None,344.1594294,344.1594294,344.1594294,344.1594294,344.1594294,344.1594294,r,0.0809511,344.262513,344.262513,344.262513,344.262513,344.262513,344.262513,344.5586067,344.5586067,345.6554299,345.6554299,345.6554299,345.6554299,345.6554299,345.6554299,345.6554299,345.6554299,345.6554299,345.6554299,345.6554299,345.6554299,345.6554299,345.6554299,345.6554299,345.6554299,345.6554299,41,59,53,25,41,35,None,None,,,[],[],[],[],[],[],[],0.2,1,348.1739291,348.1739291,348.1739291,348.1739291,348.1739291,348.1739291,348.1739291,348.1739291,0.0055676,348.1739291,30,[0.07592592592592592],[-0.32222222222222224],[1],[0],[0],[3.8218086999986554],['tijiao_random_2'],352.0078312,352.0078312,352.0078312,352.0078312,8.861111111,1.7221179,353.7487901,355.7110948,,,,,,,,,,,,,,,,,,,,,,239,f,18,2023-03-21_16h55.55.236,RL,2022.2.4,60.18447746
1,0,24,0,,,,,,,,,,None,355.7110948,355.7110948,355.7110948,355.7110948,355.7110948,355.7110948,r,0.1295253,355.8644042,355.8644042,355.8644042,355.8644042,355.8644042,355.8644042,356.1600595,356.1600595,357.0078641,357.0078641,357.02458,357.02458,357.02458,357.02458,357.02458,357.02458,357.02458,357.02458,357.02458,357.02458,357.02458,357.02458,357.02458,357.02458,357.02458,59,62,57,31,59,77,None,None,,,[],[],[],[],[],[],[],0.2,1,359.5421328,359.5421328,359.5421328,359.5421328,359.5421328,359.5421328,359.5421328,359.5421328,0.006196,359.5421328,40,[0.1388888888888889],[-0.33240740740740743],[1],[0],[0],[3.5403075000067474],['tijiao_random_2'],363.0970108,363.0970108,363.0970108,363.0970108,5.907407407,2.3185346,365.4336922,367.2631617,,,,,,,,,,,,,,,,,,,,,,239,f,18,2023-03-21_16h55.55.236,RL,2022.2.4,60.18447746
0,0,25,0,,,,,,,,,,None,367.2631617,367.2631617,367.2631617,367.2631617,367.2631617,367.2631617,i,0.1094902,367.3961445,367.3961445,367.3961445,367.3961445,367.3961445,367.3961445,367.6956111,367.6956111,369.4571782,369.4571782,369.4571782,369.4571782,369.4571782,369.4571782,369.4571782,369.4571782,369.4571782,369.4571782,369.4571782,369.4571782,369.4571782,369.4571782,369.4571782,369.4571782,369.4571782,52,48,60,32,60,86,1,2.243116,,,[],[],[],[],[],[],[],0.6,2,,,,,,,,,,,,[],[],[],[],[],[],[],,,,,None,None,374.2340707,376.1550395,371.9666374,371.9666374,371.9666374,371.9666374,371.9666374,,,,,,,,,,,,,,,,,239,f,18,2023-03-21_16h55.55.236,RL,2022.2.4,60.18447746
1,0,26,0,,,,,,,,,,None,376.1550395,376.1550395,376.1550395,376.1550395,376.1550395,376.1550395,j,0.4751336,376.6547093,376.6547093,376.6547093,376.6547093,376.6547093,376.6547093,376.9533999,376.9533999,377.9174791,377.9174791,377.9174791,377.9174791,377.9174791,377.9174791,377.9174791,377.9174791,377.9174791,377.9174791,377.9174791,377.9174791,377.9174791,377.9174791,377.9174791,377.9174791,377.9174791,44,58,59,23,23,49,1,1.8944352,,,[],[],[],[],[],[],[],0.6,3,,,,,,,,,,,,[],[],[],[],[],[],[],,,,,None,None,382.3477477,384.2998717,380.4266546,380.4266546,380.4266546,380.4266546,380.4266546,,,,,,,,,,,,,,,,,239,f,18,2023-03-21_16h55.55.236,RL,2022.2.4,60.18447746
0,0,27,0,,,,,,,,,,None,384.2998717,384.2998717,384.2998717,384.2998717,384.2998717,384.2998717,f,0.0048468,384.3334733,384.3334733,384.3334733,384.3334733,384.3334733,384.3334733,384.6325021,384.6325021,386.1614642,386.1614642,386.1614642,386.1614642,386.1614642,386.1614642,386.1614642,386.1614642,386.1614642,386.1614642,386.1614642,386.1614642,386.1614642,386.1614642,386.1614642,386.1614642,386.1614642,60,52,55,40,52,82,None,None,1,1,[0.009259259259259259],[-0.3074074074074074],[1],[0],[0],[6.39083409999148],['tijiao'],-0.6,0,,,,,,,,,,,,[],[],[],[],[],[],[],395.0821899,395.0821899,395.0821899,395.0821899,10.75,1.7307248,396.8313792,398.7769122,,,,,,388.6717122,388.6717122,388.6717122,388.6717122,388.6717122,388.6717122,388.6717122,388.6717122,0.005536,388.6717122,,,,,,,239,f,18,2023-03-21_16h55.55.236,RL,2022.2.4,60.18447746
1,0,28,0,,,,,,,,,,None,398.7769122,398.7769122,398.7769122,398.7769122,398.7769122,398.7769122,r,0.4001145,399.210319,399.210319,399.210319,399.210319,399.210319,399.210319,399.5083132,399.5083132,401.2372552,401.2372552,401.2372552,401.2372552,401.2372552,401.2372552,401.2372552,401.2372552,401.2372552,401.2372552,401.2372552,401.2372552,401.2372552,401.2372552,401.2372552,401.2372552,401.2372552,52,49,43,19,52,90,1,1.7443058,,,[],[],[],[],[],[],[],0.2,3,,,,,,,,,,,,[],[],[],[],[],[],[],,,,,None,None,405.5176982,407.0877585,403.7463892,403.7463892,403.7463892,403.7463892,403.7463892,,,,,,,,,,,,,,,,,239,f,18,2023-03-21_16h55.55.236,RL,2022.2.4,60.18447746
0,0,29,0,,,,,,,,,,None,407.0877585,407.0877585,407.0877585,407.0877585,407.0877585,407.0877585,j,0.044494,407.1544397,407.1544397,407.1544397,407.1544397,407.1544397,407.1544397,407.4536566,407.4536566,408.5170235,408.5170235,408.5170235,408.5170235,408.5170235,408.5170235,408.5170235,408.5170235,408.5170235,408.5170235,408.5170235,408.5170235,408.5170235,408.5170235,408.5170235,408.5170235,408.5170235,56,42,55,26,26,88,1,1.0630491,,,[],[],[],[],[],[],[],-0.6,3,,,,,,,,,,,,[],[],[],[],[],[],[],,,,,None,None,412.112445,413.9353041,411.0261712,411.0261712,411.0261712,411.0261712,411.0261712,,,,,,,,,,,,,,,,,239,f,18,2023-03-21_16h55.55.236,RL,2022.2.4,60.18447746
1,0,30,0,,,,,,,,,,None,413.9353041,413.9353041,413.9353041,413.9353041,413.9353041,413.9353041,i,0.3559847,414.3182118,414.3182118,414.3182118,414.3182118,414.3182118,414.3182118,414.6174801,414.6174801,416.2462062,416.2462062,416.2462062,416.2462062,416.2462062,416.2462062,416.2462062,416.2462062,416.2462062,416.2462062,416.2462062,416.2462062,416.2462062,416.2462062,416.2462062,416.2462062,416.2462062,54,46,56,21,56,78,1,1.2620559,,,[],[],[],[],[],[],[],-0.6,3,,,,,,,,,,,,[],[],[],[],[],[],[],,,,,None,None,420.0418528,421.7975208,418.7550278,418.7550278,418.7550278,418.7550278,418.7550278,,,,,,,,,,,,,,,,,239,f,18,2023-03-21_16h55.55.236,RL,2022.2.4,60.18447746
0,0,31,0,,,,,,,,,,None,421.7975208,421.7975208,421.7975208,421.7975208,421.7975208,421.7975208,f,0.2370621,422.0638012,422.0638012,422.0638012,422.0638012,422.0638012,422.0638012,422.3630142,422.3630142,423.8421687,423.8421687,423.8421687,423.8421687,423.8421687,423.8421687,423.8421687,423.8421687,423.8421687,423.8421687,423.8421687,423.8421687,423.8421687,423.8421687,423.8421687,423.8421687,423.8421687,63,49,45,22,49,78,1,1.5948772,,,[],[],[],[],[],[],[],0.6,2,,,,,,,,,,,,[],[],[],[],[],[],[],,,,,None,None,427.9725623,429.8920508,426.3512126,426.3512126,426.3512126,426.3512126,426.3512126,,,,,,,,,,,,,,,,,239,f,18,2023-03-21_16h55.55.236,RL,2022.2.4,60.18447746
1,0,32,0,,,,,,,,,,None,429.8920508,429.8920508,429.8920508,429.8920508,429.8920508,429.8920508,i,0.3907495,430.3079495,430.3079495,430.3079495,430.3079495,430.3079495,430.3079495,430.6071815,430.6071815,432.0699439,432.0699439,432.0699439,432.0699439,432.0699439,432.0699439,432.0699439,432.0699439,432.0699439,432.0699439,432.0699439,432.0699439,432.0699439,432.0699439,432.0699439,432.0699439,432.0699439,51,39,60,20,60,82,None,None,,,[],[],[],[],[],[],[],-0.2,1,434.5886834,434.5886834,434.5886834,434.5886834,434.5886834,434.5886834,434.5886834,434.5886834,0.0053171,434.5886834,99,[-0.03888888888888889],[-0.32685185185185184],[1],[0],[0],[3.522355199995218],['tijiao_random_2'],438.1246217,438.1246217,438.1246217,438.1246217,6.287037037,2.4524532,440.5951633,442.3747361,,,,,,,,,,,,,,,,,,,,,,239,f,18,2023-03-21_16h55.55.236,RL,2022.2.4,60.18447746
0,0,33,0,,,,,,,,,,None,442.3747361,442.3747361,442.3747361,442.3747361,442.3747361,442.3747361,f,0.0177266,442.4254875,442.4254875,442.4254875,442.4254875,442.4254875,442.4254875,442.7239631,442.7239631,444.4525671,444.4525671,444.4692359,444.4692359,444.4692359,444.4692359,444.4692359,444.4692359,444.4692359,444.4692359,444.4692359,444.4692359,444.4692359,444.4692359,444.4692359,444.4692359,444.4692359,60,38,47,21,38,15,None,None,9,9,[0.10925925925925926],[-0.30185185185185187],[1],[0],[0],[4.79443199999514],['tijiao'],-0.2,0,,,,,,,,,,,,[],[],[],[],[],[],[],451.7945281,451.7945281,451.7945281,451.7945281,10.68518519,1.8466122,453.6595406,455.6217279,,,,,,446.9795674,446.9795674,446.9795674,446.9795674,446.9795674,446.9795674,446.9795674,446.9795674,0.0050861,446.9795674,,,,,,,239,f,18,2023-03-21_16h55.55.236,RL,2022.2.4,60.18447746
1,0,34,0,,,,,,,,,,None,455.6217279,455.6217279,455.6217279,455.6217279,455.6217279,455.6217279,f,0.1901584,455.8409713,455.8409713,455.8409713,455.8409713,455.8409713,455.8409713,456.1376798,456.1376798,457.8326168,457.8326168,457.8492991,457.8492991,457.8492991,457.8492991,457.8492991,457.8492991,457.8492991,457.8492991,457.8492991,457.8492991,457.8492991,457.8492991,457.8492991,457.8492991,457.8492991,48,35,54,23,35,75,None,None,,,[],[],[],[],[],[],[],-0.2,1,460.3664944,460.3664944,460.3664944,460.3664944,460.3664944,460.3664944,460.3664944,460.3664944,0.0057575,460.3664944,70,[0.04259259259259259],[-0.28703703703703703],[1],[0],[0],[6.532789200005936],['tijiao_random_2'],466.9137209,466.9137209,466.9137209,466.9137209,4.212962963,1.9857026,468.9181089,470.447819,,,,,,,,,,,,,,,,,,,,,,239,f,18,2023-03-21_16h55.55.236,RL,2022.2.4,60.18447746
0,0,35,0,,,,,,,,,,None,470.447819,470.447819,470.447819,470.447819,470.447819,470.447819,j,0.1018504,470.5837408,470.5837408,470.5837408,470.5837408,470.5837408,470.5837408,470.8804706,470.8804706,471.9109533,471.9109533,471.9278214,471.9278214,471.9278214,471.9278214,471.9278214,471.9278214,471.9278214,471.9278214,471.9278214,471.9278214,471.9278214,471.9278214,471.9278214,471.9278214,471.9278214,55,40,44,23,23,47,3,0.9630703,,,[],[],[],[],[],[],[],-0.6,2,,,,,,,,,,,,[],[],[],[],[],[],[],,,,,None,None,475.427337,477.0468239,474.4363786,474.4363786,474.4363786,474.4363786,474.4363786,,,,,,,,,,,,,,,,,239,f,18,2023-03-21_16h55.55.236,RL,2022.2.4,60.18447746
1,0,36,0,,,,,,,,,,None,477.0468239,477.0468239,477.0468239,477.0468239,477.0468239,477.0468239,i,0.2583601,477.3299749,477.3299749,477.3299749,477.3299749,477.3299749,477.3299749,477.6285722,477.6285722,479.3407334,479.3407334,479.3407334,479.3407334,479.3407334,479.3407334,479.3407334,479.3407334,479.3407334,479.3407334,479.3407334,479.3407334,479.3407334,479.3407334,479.3407334,479.3407334,479.3407334,50,33,52,22,52,77,1,3.1073946,,,[],[],[],[],[],[],[],0.2,2,,,,,,,,,,,,[],[],[],[],[],[],[],,,,,None,None,484.9831822,486.7367756,481.8498801,481.8498801,481.8498801,481.8498801,481.8498801,,,,,,,,,,,,,,,,,239,f,18,2023-03-21_16h55.55.236,RL,2022.2.4,60.18447746
0,0,37,0,,,,,,,,,,None,486.7367756,486.7367756,486.7367756,486.7367756,486.7367756,486.7367756,r,0.1604958,486.92004,486.92004,486.92004,486.92004,486.92004,486.92004,487.2191783,487.2191783,488.7317877,488.7317877,488.7317877,488.7317877,488.7317877,488.7317877,488.7317877,488.7317877,488.7317877,488.7317877,488.7317877,488.7317877,488.7317877,488.7317877,488.7317877,488.7317877,488.7317877,55,32,50,13,55,76,None,None,37,37,"[0.1361111111111111, 0.08333333333333333]","[-0.34074074074074073, -0.30833333333333335]","[1, 1]","[0, 0]","[0, 0]","[1.6197431999898981, 7.138092599998345]",['tijiao'],-0.6,0,,,,,,,,,,,,[],[],[],[],[],[],[],498.3992871,498.3992871,498.3992871,498.3992871,2.87037037,2.4786909,500.8972779,502.6766219,,,,,,491.2418252,491.2418252,491.2418252,491.2418252,491.2418252,491.2418252,491.2418252,491.2418252,0.0051827,491.2418252,,,,,,,239,f,18,2023-03-21_16h55.55.236,RL,2022.2.4,60.18447746
1,0,38,0,,,,,,,,,,None,502.6766219,502.6766219,502.6766219,502.6766219,502.6766219,502.6766219,f,0.0977721,502.7946507,502.7946507,502.7946507,502.7946507,502.7946507,502.7946507,503.092742,503.092742,504.2394496,504.2394496,504.2394496,504.2394496,504.2394496,504.2394496,504.2394496,504.2394496,504.2394496,504.2394496,504.2394496,504.2394496,504.2394496,504.2394496,504.2394496,504.2394496,504.2394496,58,37,51,14,37,58,1,1.7775714,,,[],[],[],[],[],[],[],-0.6,2,,,,,,,,,,,,[],[],[],[],[],[],[],,,,,None,None,508.5520461,510.2059815,506.7485601,506.7485601,506.7485601,506.7485601,506.7485601,,,,,,,,,,,,,,,,,239,f,18,2023-03-21_16h55.55.236,RL,2022.2.4,60.18447746
0,0,39,0,,,,,,,,,,None,510.2059815,510.2059815,510.2059815,510.2059815,510.2059815,510.2059815,j,0.0175691,510.2563357,510.2563357,510.2563357,510.2563357,510.2563357,510.2563357,510.5555734,510.5555734,511.9184461,511.9184461,511.9184461,511.9184461,511.9184461,511.9184461,511.9184461,511.9184461,511.9184461,511.9184461,511.9184461,511.9184461,511.9184461,511.9184461,511.9184461,511.9184461,511.9184461,62,40,39,14,14,81,1,1.212681,,,[],[],[],[],[],[],[],0.6,2,,,,,,,,,,,,[],[],[],[],[],[],[],,,,,None,None,515.6642335,517.2870955,514.4276383,514.4276383,514.4276383,514.4276383,514.4276383,,,,,,,,,,,,,,,,,239,f,18,2023-03-21_16h55.55.236,RL,2022.2.4,60.18447746
1,0,40,0,,,,,,,,,,None,517.2870955,517.2870955,517.2870955,517.2870955,517.2870955,517.2870955,f,0.295905,517.6047256,517.6047256,517.6047256,517.6047256,517.6047256,517.6047256,517.9022462,517.9022462,519.5643412,519.5643412,519.5643412,519.5643412,519.5643412,519.5643412,519.5643412,519.5643412,519.5643412,519.5643412,519.5643412,519.5643412,519.5643412,519.5643412,519.5643412,519.5643412,519.5643412,61,41,37,11,41,83,None,None,,,[],[],[],[],[],[],[],-0.6,1,522.0844807,522.0844807,522.0844807,522.0844807,522.0844807,522.0844807,522.0844807,522.0844807,0.0056423,522.0844807,30,[0.08703703703703704],[-0.34814814814814815],[1],[0],[0],[5.066884999992908],['tijiao_random_2'],527.1638595,527.1638595,527.1638595,527.1638595,7.222222222,2.1211968,529.3034253,531.1823981,,,,,,,,,,,,,,,,,,,,,,239,f,18,2023-03-21_16h55.55.236,RL,2022.2.4,60.18447746
0,0,41,0,,,,,,,,,,None,531.1823981,531.1823981,531.1823981,531.1823981,531.1823981,531.1823981,i,0.2542616,531.4661592,531.4661592,531.4661592,531.4661592,531.4661592,531.4661592,531.7641344,531.7641344,533.4096679,533.4096679,533.426406,533.426406,533.426406,533.426406,533.426406,533.426406,533.426406,533.426406,533.426406,533.426406,533.426406,533.426406,533.426406,533.426406,533.426406,62,31,48,17,48,75,None,None,,,[],[],[],[],[],[],[],-0.2,1,535.9435671,535.9435671,535.9435671,535.9435671,535.9435671,535.9435671,535.9435671,535.9435671,0.0057125,535.9435671,60,"[0.19074074074074074, 0.08148148148148149]","[-0.2638888888888889, -0.2814814814814815]","[1, 1]","[0, 0]","[0, 0]","[5.684019000007538, 6.166741900000488]",['tijiao_random_2'],542.1230805,542.1230805,542.1230805,542.1230805,1,2.3367412,544.478403,546.0417454,,,,,,,,,,,,,,,,,,,,,,239,f,18,2023-03-21_16h55.55.236,RL,2022.2.4,60.18447746
1,0,42,0,,,,,,,,,,None,546.0417454,546.0417454,546.0417454,546.0417454,546.0417454,546.0417454,j,0.2932758,546.3601458,546.3601458,546.3601458,546.3601458,546.3601458,546.3601458,546.6568078,546.6568078,547.4714587,547.4714587,547.4714587,547.4714587,547.4714587,547.4714587,547.4714587,547.4714587,547.4714587,547.4714587,547.4714587,547.4714587,547.4714587,547.4714587,547.4714587,547.4714587,547.4714587,68,33,56,12,12,70,1,1.362145,,,[],[],[],[],[],[],[],0.6,2,,,,,,,,,,,,[],[],[],[],[],[],[],,,,,None,None,551.3669117,552.9396921,549.9802969,549.9802969,549.9802969,549.9802969,549.9802969,,,,,,,,,,,,,,,,,239,f,18,2023-03-21_16h55.55.236,RL,2022.2.4,60.18447746
0,0,43,0,,,,,,,,,,None,552.9396921,552.9396921,552.9396921,552.9396921,552.9396921,552.9396921,r,0.5139222,553.472188,553.472188,553.472188,553.472188,553.472188,553.472188,553.7710494,553.7710494,555.0175023,555.0175023,555.0342111,555.0342111,555.0342111,555.0342111,555.0342111,555.0342111,555.0342111,555.0342111,555.0342111,555.0342111,555.0342111,555.0342111,555.0342111,555.0342111,555.0342111,55,28,55,8,55,22,5,1.6941759,,,[],[],[],[],[],[],[],0.2,2,,,,,,,,,,,,[],[],[],[],[],[],[],,,,,None,None,559.2641282,560.9012866,557.5432612,557.5432612,557.5432612,557.5432612,557.5432612,,,,,,,,,,,,,,,,,239,f,18,2023-03-21_16h55.55.236,RL,2022.2.4,60.18447746
1,0,44,0,,,,,,,,,,None,560.9012866,560.9012866,560.9012866,560.9012866,560.9012866,560.9012866,j,0.4204765,561.350554,561.350554,561.350554,561.350554,561.350554,561.350554,561.6495617,561.6495617,563.5108461,563.5108461,563.5108461,563.5108461,563.5108461,563.5108461,563.5108461,563.5108461,563.5108461,563.5108461,563.5108461,563.5108461,563.5108461,563.5108461,563.5108461,563.5108461,563.5108461,64,29,50,22,22,57,None,None,80,80,[0.09351851851851851],[-0.27314814814814814],[1],[0],[0],[4.2617170000012266],['tijiao'],-0.6,0,,,,,,,,,,,,[],[],[],[],[],[],[],570.3038194,570.3038194,570.3038194,570.3038194,2.046296296,1.7804146,572.1033393,573.8159537,,,,,,566.0223173,566.0223173,566.0223173,566.0223173,566.0223173,566.0223173,566.0223173,566.0223173,0.0067749,566.0223173,,,,,,,239,f,18,2023-03-21_16h55.55.236,RL,2022.2.4,60.18447746
0,0,45,0,,,,,,,,,,None,573.8159537,573.8159537,573.8159537,573.8159537,573.8159537,573.8159537,i,0.4453565,574.2817384,574.2817384,574.2817384,574.2817384,574.2817384,574.2817384,574.5805004,574.5805004,575.7277382,575.7277382,575.7277382,575.7277382,575.7277382,575.7277382,575.7277382,575.7277382,575.7277382,575.7277382,575.7277382,575.7277382,575.7277382,575.7277382,575.7277382,575.7277382,575.7277382,55,26,40,9,40,66,1,1.7942737,,,[],[],[],[],[],[],[],-0.2,3,,,,,,,,,,,,[],[],[],[],[],[],[],,,,,None,None,580.0553686,581.9770775,578.2368721,578.2368721,578.2368721,578.2368721,578.2368721,,,,,,,,,,,,,,,,,239,f,18,2023-03-21_16h55.55.236,RL,2022.2.4,60.18447746
1,0,46,0,,,,,,,,,,None,581.9770775,581.9770775,581.9770775,581.9770775,581.9770775,581.9770775,f,0.0034497,582.0107305,582.0107305,582.0107305,582.0107305,582.0107305,582.0107305,582.3095387,582.3095387,584.1548311,584.1548311,584.1548311,584.1548311,584.1548311,584.1548311,584.1548311,584.1548311,584.1548311,584.1548311,584.1548311,584.1548311,584.1548311,584.1548311,584.1548311,584.1548311,584.1548311,62,31,52,17,31,69,1,1.3952835,,,[],[],[],[],[],[],[],-0.2,3,,,,,,,,,,,,[],[],[],[],[],[],[],,,,,None,None,588.0845577,589.9390275,586.6635422,586.6635422,586.6635422,586.6635422,586.6635422,,,,,,,,,,,,,,,,,239,f,18,2023-03-21_16h55.55.236,RL,2022.2.4,60.18447746
0,0,47,0,,,,,,,,,,None,589.9390275,589.9390275,589.9390275,589.9390275,589.9390275,589.9390275,r,0.3688726,590.3379019,590.3379019,590.3379019,590.3379019,590.3379019,590.3379019,590.6370639,590.6370639,592.1492705,592.1492705,592.1492705,592.1492705,592.1492705,592.1492705,592.1492705,592.1492705,592.1492705,592.1492705,592.1492705,592.1492705,592.1492705,592.1492705,592.1492705,592.1492705,592.1492705,66,32,51,10,66,18,7,1.7279304,,,[],[],[],[],[],[],[],0.6,3,,,,,,,,,,,,[],[],[],[],[],[],[],,,,,None,None,596.4114312,598.1994308,594.65844,594.65844,594.65844,594.65844,594.65844,,,,,,,,,,,,,,,,,239,f,18,2023-03-21_16h55.55.236,RL,2022.2.4,60.18447746
1,0,48,0,,,,,,,,,,None,598.1994308,598.1994308,598.1994308,598.1994308,598.1994308,598.1994308,j,0.4020644,598.6322112,598.6322112,598.6322112,598.6322112,598.6322112,598.6322112,598.9312126,598.9312126,600.2105624,600.2105624,600.2274079,600.2274079,600.2274079,600.2274079,600.2274079,600.2274079,600.2274079,600.2274079,600.2274079,600.2274079,600.2274079,600.2274079,600.2274079,600.2274079,600.2274079,56,33,58,12,12,67,None,None,,,[],[],[],[],[],[],[],-0.6,1,602.7440684,602.7440684,602.7440684,602.7440684,602.7440684,602.7440684,602.7440684,602.7440684,0.0057051,602.7440684,12,[-0.005555555555555556],[-0.30277777777777776],[1],[0],[0],[4.056176499987487],['tijiao_random_2'],606.8132228,606.8132228,606.8132228,606.8132228,7.175925926,2.4700218,609.301762,611.1808523,,,,,,,,,,,,,,,,,,,,,,239,f,18,2023-03-21_16h55.55.236,RL,2022.2.4,60.18447746
0,0,49,0,,,,,,,,,,None,611.1808523,611.1808523,611.1808523,611.1808523,611.1808523,611.1808523,j,0.3050959,611.5144258,611.5144258,611.5144258,611.5144258,611.5144258,611.5144258,611.8128077,611.8128077,613.2253778,613.2253778,613.2253778,613.2253778,613.2253778,613.2253778,613.2253778,613.2253778,613.2253778,613.2253778,613.2253778,613.2253778,613.2253778,613.2253778,613.2253778,613.2253778,613.2253778,49,34,58,14,14,76,1,2.4263102,,,[],[],[],[],[],[],[],-0.2,2,,,,,,,,,,,,[],[],[],[],[],[],[],,,,,None,None,618.1845724,619.873741,615.7342468,615.7342468,615.7342468,615.7342468,615.7342468,,,,,,,,,,,,,,,,,239,f,18,2023-03-21_16h55.55.236,RL,2022.2.4,60.18447746
1,0,50,0,,,,,,,,,,None,619.873741,619.873741,619.873741,619.873741,619.873741,619.873741,i,0.4694966,620.372779,620.372779,620.372779,620.372779,620.372779,620.372779,620.6717407,620.6717407,621.8850167,621.8850167,621.8850167,621.8850167,621.8850167,621.8850167,621.8850167,621.8850167,621.8850167,621.8850167,621.8850167,621.8850167,621.8850167,621.8850167,621.8850167,621.8850167,621.8850167,54,25,54,16,54,71,None,None,60,60,"[-0.09351851851851851, -0.049074074074074076]","[-0.22777777777777777, -0.2814814814814815]","[1, 1]","[0, 0]","[0, 0]","[4.511798699997598, 4.927969500000472]",['tijiao'],-0.2,0,,,,,,,,,,,,[],[],[],[],[],[],[],629.3448451,629.3448451,629.3448451,629.3448451,2.972222222,1.8123323,631.1751386,632.7053715,,,,,,624.3954586,624.3954586,624.3954586,624.3954586,624.3954586,624.3954586,624.3954586,624.3954586,0.0056489,624.3954586,,,,,,,239,f,18,2023-03-21_16h55.55.236,RL,2022.2.4,60.18447746
0,0,51,0,,,,,,,,,,None,632.7053715,632.7053715,632.7053715,632.7053715,632.7053715,632.7053715,f,0.3426942,633.0715945,633.0715945,633.0715945,633.0715945,633.0715945,633.0715945,633.370103,633.370103,634.9826992,634.9826992,634.9826992,634.9826992,634.9826992,634.9826992,634.9826992,634.9826992,634.9826992,634.9826992,634.9826992,634.9826992,634.9826992,634.9826992,634.9826992,634.9826992,634.9826992,52,28,53,13,28,65,None,None,,,[],[],[],[],[],[],[],-0.6,1,637.5007215,637.5007215,637.5007215,637.5007215,637.5007215,637.5007215,637.5007215,637.5007215,0.0058488,637.5007215,89,[0.005555555555555556],[-0.3212962962962963],[1],[0],[0],[3.7727090999978827],['tijiao_random_2'],641.2879583,641.2879583,641.2879583,641.2879583,2.712962963,1.7367283,643.0428903,644.8721097,,,,,,,,,,,,,,,,,,,,,,239,f,18,2023-03-21_16h55.55.236,RL,2022.2.4,60.18447746
1,0,52,0,,,,,,,,,,None,644.8721097,644.8721097,644.8721097,644.8721097,644.8721097,644.8721097,j,0.3014643,645.2049046,645.2049046,645.2049046,645.2049046,645.2049046,645.2049046,645.5038568,645.5038568,646.4511175,646.4511175,646.4511175,646.4511175,646.4511175,646.4511175,646.4511175,646.4511175,646.4511175,646.4511175,646.4511175,646.4511175,646.4511175,646.4511175,646.4511175,646.4511175,646.4511175,57,23,49,12,12,55,None,None,1,1,"[-0.06481481481481481, -0.04814814814814815, 0.004629629629629629, 0.004629629629629629]","[-0.2574074074074074, -0.27685185185185185, -0.3148148148148148, -0.3148148148148148]","[1, 1, 1, 1]","[0, 0, 0, 0]","[0, 0, 0, 0]","[1.6359300000040093, 2.3676519000000553, 2.8830596000043442, 9.148887299990747]",['tijiao'],-0.2,0,,,,,,,,,,,,[],[],[],[],[],[],[],658.1299521,658.1299521,658.1299521,658.1299521,4.787037037,2.0799378,660.2291355,662.0416982,,,,,,648.961453,648.961453,648.961453,648.961453,648.961453,648.961453,648.961453,648.961453,0.0058654,648.961453,,,,,,,239,f,18,2023-03-21_16h55.55.236,RL,2022.2.4,60.18447746
0,0,53,0,,,,,,,,,,None,662.0416982,662.0416982,662.0416982,662.0416982,662.0416982,662.0416982,f,0.4123299,662.4748059,662.4748059,662.4748059,662.4748059,662.4748059,662.4748059,662.7734259,662.7734259,663.9865383,663.9865383,663.9865383,663.9865383,663.9865383,663.9865383,663.9865383,663.9865383,663.9865383,663.9865383,663.9865383,663.9865383,663.9865383,663.9865383,663.9865383,663.9865383,663.9865383,49,30,36,22,30,71,1,1.1458477,,,[],[],[],[],[],[],[],0.6,3,,,,,,,,,,,,[],[],[],[],[],[],[],,,,,None,None,667.6670768,669.6374983,666.4960394,666.4960394,666.4960394,666.4960394,666.4960394,,,,,,,,,,,,,,,,,239,f,18,2023-03-21_16h55.55.236,RL,2022.2.4,60.18447746
1,0,54,0,,,,,,,,,,None,669.6374983,669.6374983,669.6374983,669.6374983,669.6374983,669.6374983,r,0.3705856,670.0371501,670.0371501,670.0371501,670.0371501,670.0371501,670.0371501,670.3362006,670.3362006,671.6821842,671.6821842,671.6821842,671.6821842,671.6821842,671.6821842,671.6821842,671.6821842,671.6821842,671.6821842,671.6821842,671.6821842,671.6821842,671.6821842,671.6821842,671.6821842,671.6821842,59,26,32,21,59,75,1,1.3469263,,,[],[],[],[],[],[],[],0.6,3,,,,,,,,,,,,[],[],[],[],[],[],[],,,,,None,None,675.5636742,677.3996932,674.1917268,674.1917268,674.1917268,674.1917268,674.1917268,,,,,,,,,,,,,,,,,239,f,18,2023-03-21_16h55.55.236,RL,2022.2.4,60.18447746
0,0,55,0,,,,,,,,,,None,677.3996932,677.3996932,677.3996932,677.3996932,677.3996932,677.3996932,j,0.5917127,678.0158453,678.0158453,678.0158453,678.0158453,678.0158453,678.0158453,678.3146056,678.3146056,679.7272081,679.7272081,679.7272081,679.7272081,679.7272081,679.7272081,679.7272081,679.7272081,679.7272081,679.7272081,679.7272081,679.7272081,679.7272081,679.7272081,679.7272081,679.7272081,679.7272081,45,39,42,12,12,74,None,None,,,[],[],[],[],[],[],[],-0.6,1,682.24556,682.24556,682.24556,682.24556,682.24556,682.24556,682.24556,682.24556,0.0055509,682.24556,40,[0.008333333333333333],[-0.28888888888888886],[1],[0],[0],[3.673635999992257],['tijiao_random_2'],685.9311334,685.9311334,685.9311334,685.9311334,1.083333333,1.3393405,687.2886468,689.1181164,,,,,,,,,,,,,,,,,,,,,,239,f,18,2023-03-21_16h55.55.236,RL,2022.2.4,60.18447746
1,0,56,0,,,,,,,,,,None,689.1181164,689.1181164,689.1181164,689.1181164,689.1181164,689.1181164,r,0.3636894,689.5010838,689.5010838,689.5010838,689.5010838,689.5010838,689.5010838,689.7998357,689.7998357,691.1292657,691.1292657,691.1292657,691.1292657,691.1292657,691.1292657,691.1292657,691.1292657,691.1292657,691.1292657,691.1292657,691.1292657,691.1292657,691.1292657,691.1292657,691.1292657,691.1292657,54,33,42,24,54,69,4,1.9442604,,,[],[],[],[],[],[],[],0.2,3,,,,,,,,,,,,[],[],[],[],[],[],[],,,,,None,None,695.6062781,697.4952897,693.6387453,693.6387453,693.6387453,693.6387453,693.6387453,,,,,,,,,,,,,,,,,239,f,18,2023-03-21_16h55.55.236,RL,2022.2.4,60.18447746
0,0,57,0,,,,,,,,,,None,697.4952897,697.4952897,697.4952897,697.4952897,697.4952897,697.4952897,f,0.3557664,697.8778153,697.8778153,697.8778153,697.8778153,697.8778153,697.8778153,698.1770361,698.1770361,700.0882888,700.0882888,700.0882888,700.0882888,700.0882888,700.0882888,700.0882888,700.0882888,700.0882888,700.0882888,700.0882888,700.0882888,700.0882888,700.0882888,700.0882888,700.0882888,700.0882888,56,43,36,17,43,64,None,None,,,[],[],[],[],[],[],[],-0.2,1,702.6054236,702.6054236,702.6054236,702.6054236,702.6054236,702.6054236,702.6054236,702.6054236,0.0056927,702.6054236,50,[0.06388888888888888],[-0.2657407407407407],[1],[0],[0],[3.0751561999932164],['tijiao_random_2'],705.6937282,705.6937282,705.6937282,705.6937282,5.111111111,1.9046268,707.6165386,709.3628838,,,,,,,,,,,,,,,,,,,,,,239,f,18,2023-03-21_16h55.55.236,RL,2022.2.4,60.18447746
1,0,58,0,,,,,,,,,,None,709.3628838,709.3628838,709.3628838,709.3628838,709.3628838,709.3628838,i,0.2726754,709.6634226,709.6634226,709.6634226,709.6634226,709.6634226,709.6634226,709.9615006,709.9615006,711.5237407,711.5237407,711.5237407,711.5237407,711.5237407,711.5237407,711.5237407,711.5237407,711.5237407,711.5237407,711.5237407,711.5237407,711.5237407,711.5237407,711.5237407,711.5237407,711.5237407,43,31,30,19,30,63,None,None,,,[],[],[],[],[],[],[],0.6,1,714.0433612,714.0433612,714.0433612,714.0433612,714.0433612,714.0433612,714.0433612,714.0433612,0.0057768,714.0433612,30,[0.0962962962962963],[-0.3074074074074074],[1],[0],[0],[4.485925399989355],['tijiao_random_2'],718.5421259,718.5421259,718.5421259,718.5421259,4.435185185,1.5223056,720.0825132,721.8454267,,,,,,,,,,,,,,,,,,,,,,239,f,18,2023-03-21_16h55.55.236,RL,2022.2.4,60.18447746
0,0,59,0,,,,,,,,,,None,721.8454267,721.8454267,721.8454267,721.8454267,721.8454267,721.8454267,i,0.3496878,722.2292206,722.2292206,722.2292206,722.2292206,722.2292206,722.2292206,722.5267713,722.5267713,724.4718093,724.4718093,724.4718093,724.4718093,724.4718093,724.4718093,724.4718093,724.4718093,724.4718093,724.4718093,724.4718093,724.4718093,724.4718093,724.4718093,724.4718093,724.4718093,724.4718093,54,42,29,18,29,58,3,1.4287327,,,[],[],[],[],[],[],[],0.6,2,,,,,,,,,,,,[],[],[],[],[],[],[],,,,,None,None,728.4353809,730.2557813,726.9809697,726.9809697,726.9809697,726.9809697,726.9809697,,,,,,,,,,,,,,,,,239,f,18,2023-03-21_16h55.55.236,RL,2022.2.4,60.18447746
1,0,60,0,,,,,,,,,,None,730.2557813,730.2557813,730.2557813,730.2557813,730.2557813,730.2557813,i,0.2676282,730.5553908,730.5553908,730.5553908,730.5553908,730.5553908,730.5553908,730.8545592,730.8545592,732.4166505,732.4166505,732.4166505,732.4166505,732.4166505,732.4166505,732.4166505,732.4166505,732.4166505,732.4166505,732.4166505,732.4166505,732.4166505,732.4166505,732.4166505,732.4166505,732.4166505,53,38,38,17,38,25,None,None,,,[],[],[],[],[],[],[],0.2,1,734.9336875,734.9336875,734.9336875,734.9336875,734.9336875,734.9336875,734.9336875,734.9336875,0.0060243,734.9336875,99,"[-0.025925925925925925, 0.0, -0.026851851851851852]","[-0.22592592592592592, -0.3611111111111111, -0.3074074074074074]","[1, 1, 1]","[0, 0, 0]","[0, 0, 0]","[3.257760499996948, 3.9226818999886746, 4.3876387999916915]",['tijiao_random_2'],739.3340701,739.3340701,739.3340701,739.3340701,11,1.2735113,740.6266931,742.1733097,,,,,,,,,,,,,,,,,,,,,,239,f,18,2023-03-21_16h55.55.236,RL,2022.2.4,60.18447746
0,0,61,0,,,,,,,,,,None,742.1733097,742.1733097,742.1733097,742.1733097,742.1733097,742.1733097,i,0.5952521,742.7884931,742.7884931,742.7884931,742.7884931,742.7884931,742.7884931,743.0877347,743.0877347,744.6333149,744.6333149,744.6333149,744.6333149,744.6333149,744.6333149,744.6333149,744.6333149,744.6333149,744.6333149,744.6333149,744.6333149,744.6333149,744.6333149,744.6333149,744.6333149,744.6333149,58,34,41,6,41,60,None,None,90,90,[0.1287037037037037],[-0.2851851851851852],[1],[0],[0],[3.5151919000054477],['tijiao'],-0.2,0,,,,,,,,,,,,[],[],[],[],[],[],[],750.6780057,750.6780057,750.6780057,750.6780057,6.768518519,1.4647593,752.1618377,754.1240515,,,,,,747.1438951,747.1438951,747.1438951,747.1438951,747.1438951,747.1438951,747.1438951,747.1438951,0.0054217,747.1438951,,,,,,,239,f,18,2023-03-21_16h55.55.236,RL,2022.2.4,60.18447746
1,0,62,0,,,,,,,,,,None,754.1240515,754.1240515,754.1240515,754.1240515,754.1240515,754.1240515,i,0.3301943,754.4733751,754.4733751,754.4733751,754.4733751,754.4733751,754.4733751,754.7722473,754.7722473,755.9526068,755.9526068,755.9526068,755.9526068,755.9526068,755.9526068,755.9526068,755.9526068,755.9526068,755.9526068,755.9526068,755.9526068,755.9526068,755.9526068,755.9526068,755.9526068,755.9526068,59,37,38,17,38,23,7,2.4757389,,,[],[],[],[],[],[],[],0.6,3,,,,,,,,,,,,[],[],[],[],[],[],[],,,,,None,None,760.963775,762.9499676,758.4618016,758.4618016,758.4618016,758.4618016,758.4618016,,,,,,,,,,,,,,,,,239,f,18,2023-03-21_16h55.55.236,RL,2022.2.4,60.18447746
0,0,63,0,,,,,,,,,,None,762.9499676,762.9499676,762.9499676,762.9499676,762.9499676,762.9499676,f,0.4813016,763.4492134,763.4492134,763.4492134,763.4492134,763.4492134,763.4492134,763.7475767,763.7475767,765.2273408,765.2273408,765.2273408,765.2273408,765.2273408,765.2273408,765.2273408,765.2273408,765.2273408,765.2273408,765.2273408,765.2273408,765.2273408,765.2273408,765.2273408,765.2273408,765.2273408,62,31,34,12,31,54,1,1.9772437,,,[],[],[],[],[],[],[],0.6,2,,,,,,,,,,,,[],[],[],[],[],[],[],,,,,None,None,769.7388449,771.5266385,767.7364191,767.7364191,767.7364191,767.7364191,767.7364191,,,,,,,,,,,,,,,,,239,f,18,2023-03-21_16h55.55.236,RL,2022.2.4,60.18447746
1,0,64,0,,,,,,,,,,None,771.5266385,771.5266385,771.5266385,771.5266385,771.5266385,771.5266385,i,0.442771,771.992329,771.992329,771.992329,771.992329,771.992329,771.992329,772.2910514,772.2910514,773.122507,773.122507,773.122507,773.122507,773.122507,773.122507,773.122507,773.122507,773.122507,773.122507,773.122507,773.122507,773.122507,773.122507,773.122507,773.122507,773.122507,55,36,34,16,34,51,None,None,99,99,[-0.05648148148148148],[-0.2916666666666667],[1],[0],[0],[3.815255800000159],['tijiao'],-0.2,0,,,,,,,,,,,,[],[],[],[],[],[],[],779.4689472,779.4689472,779.4689472,779.4689472,10.36111111,1.6122542,781.0992706,782.9121895,,,,,,775.632541,775.632541,775.632541,775.632541,775.632541,775.632541,775.632541,775.632541,0.0051459,775.632541,,,,,,,239,f,18,2023-03-21_16h55.55.236,RL,2022.2.4,60.18447746
0,0,65,0,,,,,,,,,,None,782.9121895,782.9121895,782.9121895,782.9121895,782.9121895,782.9121895,r,0.317508,783.26275,783.26275,783.26275,783.26275,783.26275,783.26275,783.5605381,783.5605381,785.2725568,785.2725568,785.2890731,785.2890731,785.2890731,785.2890731,785.2890731,785.2890731,785.2890731,785.2890731,785.2890731,785.2890731,785.2890731,785.2890731,785.2890731,785.2890731,785.2890731,55,31,29,11,55,64,3,2.043717,,,[],[],[],[],[],[],[],-0.2,2,,,,,,,,,,,,[],[],[],[],[],[],[],,,,,None,None,789.8691412,791.7877895,787.7978922,787.7978922,787.7978922,787.7978922,787.7978922,,,,,,,,,,,,,,,,,239,f,18,2023-03-21_16h55.55.236,RL,2022.2.4,60.18447746
1,0,66,0,,,,,,,,,,None,791.7877895,791.7877895,791.7877895,791.7877895,791.7877895,791.7877895,f,0.2152284,792.021261,792.021261,792.021261,792.021261,792.021261,792.021261,792.3200887,792.3200887,793.1840364,793.1840364,793.1840364,793.1840364,793.1840364,793.1840364,793.1840364,793.1840364,793.1840364,793.1840364,793.1840364,793.1840364,793.1840364,793.1840364,793.1840364,793.1840364,793.1840364,52,41,37,22,41,50,3,1.6276511,,,[],[],[],[],[],[],[],0.6,3,,,,,,,,,,,,[],[],[],[],[],[],[],,,,,None,None,797.3461248,799.2505608,795.6934275,795.6934275,795.6934275,795.6934275,795.6934275,,,,,,,,,,,,,,,,,239,f,18,2023-03-21_16h55.55.236,RL,2022.2.4,60.18447746
0,0,67,0,,,,,,,,,,None,799.2505608,799.2505608,799.2505608,799.2505608,799.2505608,799.2505608,i,0.5860679,799.8663886,799.8663886,799.8663886,799.8663886,799.8663886,799.8663886,800.1651775,800.1651775,801.8274773,801.8274773,801.8274773,801.8274773,801.8274773,801.8274773,801.8274773,801.8274773,801.8274773,801.8274773,801.8274773,801.8274773,801.8274773,801.8274773,801.8274773,801.8274773,801.8274773,45,25,46,12,46,63,None,None,44,44,[0.11666666666666667],[-0.2814814814814815],[1],[0],[0],[4.02817320000031],['tijiao'],0.2,0,,,,,,,,,,,,[],[],[],[],[],[],[],808.3872672,808.3872672,808.3872672,808.3872672,1,1.7145077,810.1200985,811.6336471,,,,,,804.3394187,804.3394187,804.3394187,804.3394187,804.3394187,804.3394187,804.3394187,804.3394187,0.0072322,804.3394187,,,,,,,239,f,18,2023-03-21_16h55.55.236,RL,2022.2.4,60.18447746
1,0,68,0,,,,,,,,,,None,811.6336471,811.6336471,811.6336471,811.6336471,811.6336471,811.6336471,i,0.3319674,811.9856311,811.9856311,811.9856311,811.9856311,811.9856311,811.9856311,812.2823524,812.2823524,813.3125358,813.3125358,813.3125358,813.3125358,813.3125358,813.3125358,813.3125358,813.3125358,813.3125358,813.3125358,813.3125358,813.3125358,813.3125358,813.3125358,813.3125358,813.3125358,813.3125358,46,35,35,18,35,68,None,None,50,50,[0.023148148148148147],[-0.2898148148148148],[1],[0],[0],[5.3251483000058215],['tijiao'],-0.2,0,,,,,,,,,,,,[],[],[],[],[],[],[],821.1718866,821.1718866,821.1718866,821.1718866,4.842592593,1.3460532,822.5362755,824.3490274,,,,,,815.8238432,815.8238432,815.8238432,815.8238432,815.8238432,815.8238432,815.8238432,815.8238432,0.0072041,815.8238432,,,,,,,239,f,18,2023-03-21_16h55.55.236,RL,2022.2.4,60.18447746
0,0,69,0,,,,,,,,,,None,824.3490274,824.3490274,824.3490274,824.3490274,824.3490274,824.3490274,i,0.4529116,824.8313893,824.8313893,824.8313893,824.8313893,824.8313893,824.8313893,825.1302865,825.1302865,826.2105022,826.2105022,826.2105022,826.2105022,826.2105022,826.2105022,826.2105022,826.2105022,826.2105022,826.2105022,826.2105022,826.2105022,826.2105022,826.2105022,826.2105022,826.2105022,826.2105022,49,30,33,12,33,20,6,2.276062,,,[],[],[],[],[],[],[],0.6,2,,,,,,,,,,,,[],[],[],[],[],[],[],,,,,None,None,831.0201279,832.7593596,828.7200063,828.7200063,828.7200063,828.7200063,828.7200063,,,,,,,,,,,,,,,,,239,f,18,2023-03-21_16h55.55.236,RL,2022.2.4,60.18447746
1,0,70,0,,,,,,,,,,None,832.7593596,832.7593596,832.7593596,832.7593596,832.7593596,832.7593596,j,0.3295638,833.1094427,833.1094427,833.1094427,833.1094427,833.1094427,833.1094427,833.4076599,833.4076599,835.1197641,835.1197641,835.1197641,835.1197641,835.1197641,835.1197641,835.1197641,835.1197641,835.1197641,835.1197641,835.1197641,835.1197641,835.1197641,835.1197641,835.1197641,835.1197641,835.1197641,38,30,34,31,31,75,1,2.5425707,,,[],[],[],[],[],[],[],0.2,2,,,,,,,,,,,,[],[],[],[],[],[],[],,,,,None,None,840.1994126,841.7680599,837.6289151,837.6289151,837.6289151,837.6289151,837.6289151,,,,,,,,,,,,,,,,,239,f,18,2023-03-21_16h55.55.236,RL,2022.2.4,60.18447746
0,0,71,0,,,,,,,,,,None,841.7680599,841.7680599,841.7680599,841.7680599,841.7680599,841.7680599,r,0.2133913,842.0013385,842.0013385,842.0013385,842.0013385,842.0013385,842.0013385,842.3004031,842.3004031,843.2311547,843.2311547,843.2311547,843.2311547,843.2311547,843.2311547,843.2311547,843.2311547,843.2311547,843.2311547,843.2311547,843.2311547,843.2311547,843.2311547,843.2311547,843.2311547,843.2311547,32,30,35,18,32,56,1,1.3954793,,,[],[],[],[],[],[],[],-0.2,3,,,,,,,,,,,,[],[],[],[],[],[],[],,,,,None,None,847.1620131,848.7492207,845.7402356,845.7402356,845.7402356,845.7402356,845.7402356,,,,,,,,,,,,,,,,,239,f,18,2023-03-21_16h55.55.236,RL,2022.2.4,60.18447746
1,0,72,0,,,,,,,,,,None,848.7492207,848.7492207,848.7492207,848.7492207,848.7492207,848.7492207,f,0.3663287,849.1483145,849.1483145,849.1483145,849.1483145,849.1483145,849.1483145,849.4472155,849.4472155,851.3258724,851.3258724,851.3258724,851.3258724,851.3258724,851.3258724,851.3258724,851.3258724,851.3258724,851.3258724,851.3258724,851.3258724,851.3258724,851.3258724,851.3258724,851.3258724,851.3258724,41,37,50,26,37,64,1,1.4289995,,,[],[],[],[],[],[],[],-0.6,2,,,,,,,,,,,,[],[],[],[],[],[],[],,,,,None,None,855.2882198,857.1428732,853.8347897,853.8347897,853.8347897,853.8347897,853.8347897,,,,,,,,,,,,,,,,,239,f,18,2023-03-21_16h55.55.236,RL,2022.2.4,60.18447746
0,0,73,0,,,,,,,,,,None,857.1428732,857.1428732,857.1428732,857.1428732,857.1428732,857.1428732,j,0.3007233,857.4758187,857.4758187,857.4758187,857.4758187,857.4758187,857.4758187,857.7746908,857.7746908,859.6196439,859.6196439,859.6196439,859.6196439,859.6196439,859.6196439,859.6196439,859.6196439,859.6196439,859.6196439,859.6196439,859.6196439,859.6196439,859.6196439,859.6196439,859.6196439,859.6196439,43,35,49,28,28,58,None,None,,,[],[],[],[],[],[],[],-0.6,1,862.1362373,862.1362373,862.1362373,862.1362373,862.1362373,862.1362373,862.1362373,862.1362373,0.005389,862.1362373,88,[-0.05925925925925926],[-0.2675925925925926],[1],[0],[0],[6.898071899995557],['tijiao_random_2'],869.0471677,869.0471677,869.0471677,869.0471677,7.490740741,2.5529637,871.6189578,873.5811576,,,,,,,,,,,,,,,,,,,,,,239,f,18,2023-03-21_16h55.55.236,RL,2022.2.4,60.18447746
1,0,74,0,,,,,,,,,,None,873.5811576,873.5811576,873.5811576,873.5811576,873.5811576,873.5811576,r,0.3684668,873.9806939,873.9806939,873.9806939,873.9806939,873.9806939,873.9806939,874.2797862,874.2797862,876.1576358,876.1576358,876.1576358,876.1576358,876.1576358,876.1576358,876.1576358,876.1576358,876.1576358,876.1576358,876.1576358,876.1576358,876.1576358,876.1576358,876.1576358,876.1576358,876.1576358,53,33,41,21,53,75,None,None,,,[],[],[],[],[],[],[],-0.2,1,878.6753004,878.6753004,878.6753004,878.6753004,878.6753004,878.6753004,878.6753004,878.6753004,0.0058952,878.6753004,63,[0.08055555555555556],[-0.2574074074074074],[1],[0],[0],[15.00869899999816],['tijiao_random_2'],893.6977017,893.6977017,893.6977017,893.6977017,5.87037037,3.4337048,897.149403,898.9783178,,,,,,,,,,,,,,,,,,,,,,239,f,18,2023-03-21_16h55.55.236,RL,2022.2.4,60.18447746
0,0,75,0,,,,,,,,,,q,958.4676042,958.4676042,958.4676042,958.4676042,958.4676042,958.4676042,j,0.8647028,959.3645691,959.3645691,959.3645691,959.3645691,959.3645691,959.3645691,959.6633959,959.6633959,961.1923014,961.1923014,961.1923014,961.1923014,961.1923014,961.1923014,961.1923014,961.1923014,961.1923014,961.1923014,961.1923014,961.1923014,961.1923014,961.1923014,961.1923014,961.1923014,961.1923014,47,41,44,28,28,73,1,1.9939024,,,[],[],[],[],[],[],[],0.2,3,,,,,,,,,,,,[],[],[],[],[],[],[],,,,,None,None,965.7193133,967.6247977,963.7016214,963.7016214,963.7016214,963.7016214,963.7016214,,,,,,,,,,,898.9783178,898.9783178,59.4698092,,,,239,f,18,2023-03-21_16h55.55.236,RL,2022.2.4,60.18447746
1,0,76,0,,,,,,,,,,None,967.6247977,967.6247977,967.6247977,967.6247977,967.6247977,967.6247977,f,0.5003576,968.1568933,968.1568933,968.1568933,968.1568933,968.1568933,968.1568933,968.4557363,968.4557363,969.8851104,969.8851104,969.8851104,969.8851104,969.8851104,969.8851104,969.8851104,969.8851104,969.8851104,969.8851104,969.8851104,969.8851104,969.8851104,969.8851104,969.8851104,969.8851104,969.8851104,47,41,43,35,41,26,None,None,,,[],[],[],[],[],[],[],0.6,1,972.4027182,972.4027182,972.4027182,972.4027182,972.4027182,972.4027182,972.4027182,972.4027182,0.0055595,972.4027182,40,[-0.06388888888888888],[-0.2601851851851852],[1],[0],[0],[7.645302799995989],['tijiao_random_2'],980.0622847,980.0622847,980.0622847,980.0622847,8.833333333,3.799449,983.8793907,985.6422233,,,,,,,,,,,,,,,,,,,,,,239,f,18,2023-03-21_16h55.55.236,RL,2022.2.4,60.18447746
0,0,77,0,,,,,,,,,,None,985.6422233,985.6422233,985.6422233,985.6422233,985.6422233,985.6422233,f,0.4977002,986.15778,986.15778,986.15778,986.15778,986.15778,986.15778,986.4566452,986.4566452,988.4183177,988.4183177,988.4183177,988.4183177,988.4183177,988.4183177,988.4183177,988.4183177,988.4183177,988.4183177,988.4183177,988.4183177,988.4183177,988.4183177,988.4183177,988.4183177,988.4183177,58,34,40,37,34,52,None,None,,,[],[],[],[],[],[],[],-0.6,1,990.9354117,990.9354117,990.9354117,990.9354117,990.9354117,990.9354117,990.9354117,990.9354117,0.0060258,990.9354117,30,"[-0.08425925925925926, -0.06944444444444445]","[-0.2388888888888889, -0.3425925925925926]","[1, 1]","[0, 0]","[0, 0]","[4.487616099999286, 4.985886700000265]",['tijiao_random_2'],995.9353177,995.9353177,995.9353177,995.9353177,6.87037037,1.837702,997.7914073,999.7204814,,,,,,,,,,,,,,,,,,,,,,239,f,18,2023-03-21_16h55.55.236,RL,2022.2.4,60.18447746
1,0,78,0,,,,,,,,,,None,999.7204814,999.7204814,999.7204814,999.7204814,999.7204814,999.7204814,j,0.6380837,1000.386044,1000.386044,1000.386044,1000.386044,1000.386044,1000.386044,1000.684975,1000.684975,1001.748456,1001.748456,1001.748456,1001.748456,1001.748456,1001.748456,1001.748456,1001.748456,1001.748456,1001.748456,1001.748456,1001.748456,1001.748456,1001.748456,1001.748456,1001.748456,1001.748456,58,41,42,39,39,60,1,2.2258882,,,[],[],[],[],[],[],[],0.6,2,,,,,,,,,,,,[],[],[],[],[],[],[],,,,,None,None,1006.507674,1008.34703,1004.25762,1004.25762,1004.25762,1004.25762,1004.25762,,,,,,,,,,,,,,,,,239,f,18,2023-03-21_16h55.55.236,RL,2022.2.4,60.18447746
0,0,79,0,,,,,,,,,,None,1008.34703,1008.34703,1008.34703,1008.34703,1008.34703,1008.34703,r,0.0747073,1008.447122,1008.447122,1008.447122,1008.447122,1008.447122,1008.447122,1008.746053,1008.746053,1009.926346,1009.926346,1009.926346,1009.926346,1009.926346,1009.926346,1009.926346,1009.926346,1009.926346,1009.926346,1009.926346,1009.926346,1009.926346,1009.926346,1009.926346,1009.926346,1009.926346,63,45,39,37,63,61,None,None,,,[],[],[],[],[],[],[],0.2,1,1012.443323,1012.443323,1012.443323,1012.443323,1012.443323,1012.443323,1012.443323,1012.443323,0.0059437,1012.443323,62,[-0.032407407407407406],[-0.2898148148148148],[1],[0],[0],[5.05264329999045],['tijiao_random_2'],1017.508236,1017.508236,1017.508236,1017.508236,6.898148148,1.7724371,1019.299341,1021.277986,,,,,,,,,,,,,,,,,,,,,,239,f,18,2023-03-21_16h55.55.236,RL,2022.2.4,60.18447746
1,0,80,0,,,,,,,,,,None,1021.277986,1021.277986,1021.277986,1021.277986,1021.277986,1021.277986,f,0.2891148,1021.59483,1021.59483,1021.59483,1021.59483,1021.59483,1021.59483,1021.893472,1021.893472,1022.990366,1022.990366,1022.990366,1022.990366,1022.990366,1022.990366,1022.990366,1022.990366,1022.990366,1022.990366,1022.990366,1022.990366,1022.990366,1022.990366,1022.990366,1022.990366,1022.990366,54,57,39,48,57,72,None,None,,,[],[],[],[],[],[],[],0.6,1,1025.507133,1025.507133,1025.507133,1025.507133,1025.507133,1025.507133,1025.507133,1025.507133,0.0057507,1025.507133,40,[0.09166666666666666],[-0.2814814814814815],[1],[0],[0],[5.43546680000145],['tijiao_random_2'],1030.954932,1030.954932,1030.954932,1030.954932,8.972222222,1.8722404,1032.845777,1034.492292,,,,,,,,,,,,,,,,,,,,,,239,f,18,2023-03-21_16h55.55.236,RL,2022.2.4,60.18447746
0,0,81,0,,,,,,,,,,None,1034.492292,1034.492292,1034.492292,1034.492292,1034.492292,1034.492292,i,0.0180113,1034.542502,1034.542502,1034.542502,1034.542502,1034.542502,1034.542502,1034.841583,1034.841583,1036.320711,1036.320711,1036.337317,1036.337317,1036.337317,1036.337317,1036.337317,1036.337317,1036.337317,1036.337317,1036.337317,1036.337317,1036.337317,1036.337317,1036.337317,1036.337317,1036.337317,54,51,42,48,42,63,None,None,55,55,[-0.05555555555555555],[-0.2962962962962963],[1],[0],[0],[7.504031999997096],['tijiao'],0.6,0,,,,,,,,,,,,[],[],[],[],[],[],[],1046.371423,1046.371423,1046.371423,1046.371423,5.027777778,1.2821225,1047.671904,1049.351586,,,,,,1038.847471,1038.847471,1038.847471,1038.847471,1038.847471,1038.847471,1038.847471,1038.847471,0.005453,1038.847471,,,,,,,239,f,18,2023-03-21_16h55.55.236,RL,2022.2.4,60.18447746
1,0,82,0,,,,,,,,,,None,1049.351586,1049.351586,1049.351586,1049.351586,1049.351586,1049.351586,j,0.0611831,1049.435337,1049.435337,1049.435337,1049.435337,1049.435337,1049.435337,1049.734313,1049.734313,1050.831251,1050.831251,1050.831251,1050.831251,1050.831251,1050.831251,1050.831251,1050.831251,1050.831251,1050.831251,1050.831251,1050.831251,1050.831251,1050.831251,1050.831251,1050.831251,1050.831251,57,49,43,47,47,53,None,None,,,[],[],[],[],[],[],[],0.6,1,1053.348544,1053.348544,1053.348544,1053.348544,1053.348544,1053.348544,1053.348544,1053.348544,0.0058217,1053.348544,43,"[-0.08148148148148149, -0.04351851851851852]","[-0.20555555555555555, -0.28703703703703703]","[1, 1]","[0, 0]","[0, 0]","[6.548992299998645, 6.914686799995252]",['tijiao_random_2'],1060.276388,1060.276388,1060.276388,1060.276388,7.731481481,1.3062543,1061.600609,1063.38024,,,,,,,,,,,,,,,,,,,,,,239,f,18,2023-03-21_16h55.55.236,RL,2022.2.4,60.18447746
0,0,83,0,,,,,,,,,,None,1063.38024,1063.38024,1063.38024,1063.38024,1063.38024,1063.38024,r,0.0854883,1063.497211,1063.497211,1063.497211,1063.497211,1063.497211,1063.497211,1063.795892,1063.795892,1065.541119,1065.541119,1065.557663,1065.557663,1065.557663,1065.557663,1065.557663,1065.557663,1065.557663,1065.557663,1065.557663,1065.557663,1065.557663,1065.557663,1065.557663,1065.557663,1065.557663,47,44,41,52,47,70,None,None,10,10,[0.1037037037037037],[-0.31574074074074077],[1],[0],[0],[6.7707485999999335],['tijiao'],0.6,0,,,,,,,,,,,,[],[],[],[],[],[],[],1074.859213,1074.859213,1074.859213,1074.859213,9.851851852,1.4493642,1076.326939,1078.222724,,,,,,1068.068674,1068.068674,1068.068674,1068.068674,1068.068674,1068.068674,1068.068674,1068.068674,0.006883,1068.068674,,,,,,,239,f,18,2023-03-21_16h55.55.236,RL,2022.2.4,60.18447746
1,0,84,0,,,,,,,,,,None,1078.222724,1078.222724,1078.222724,1078.222724,1078.222724,1078.222724,f,0.041269,1078.289647,1078.289647,1078.289647,1078.289647,1078.289647,1078.289647,1078.588586,1078.588586,1080.483431,1080.483431,1080.483431,1080.483431,1080.483431,1080.483431,1080.483431,1080.483431,1080.483431,1080.483431,1080.483431,1080.483431,1080.483431,1080.483431,1080.483431,1080.483431,1080.483431,55,48,40,51,48,69,None,None,45,45,[0.0962962962962963],[-0.31296296296296294],[1],[0],[0],[3.9292121000034967],['tijiao'],0.2,0,,,,,,,,,,,,[],[],[],[],[],[],[],1086.94478,1086.94478,1086.94478,1086.94478,6.62962963,1.3811467,1088.344253,1090.156643,,,,,,1082.994742,1082.994742,1082.994742,1082.994742,1082.994742,1082.994742,1082.994742,1082.994742,0.0073192,1082.994742,,,,,,,239,f,18,2023-03-21_16h55.55.236,RL,2022.2.4,60.18447746
0,0,85,0,,,,,,,,,,None,1090.156643,1090.156643,1090.156643,1090.156643,1090.156643,1090.156643,i,0.0720441,1090.25809,1090.25809,1090.25809,1090.25809,1090.25809,1090.25809,1090.556319,1090.556319,1092.550735,1092.550735,1092.550735,1092.550735,1092.550735,1092.550735,1092.550735,1092.550735,1092.550735,1092.550735,1092.550735,1092.550735,1092.550735,1092.550735,1092.550735,1092.550735,1092.550735,68,43,49,44,49,69,None,None,,,[],[],[],[],[],[],[],0.2,1,1095.069629,1095.069629,1095.069629,1095.069629,1095.069629,1095.069629,1095.069629,1095.069629,0.0054176,1095.069629,50,[0.07222222222222222],[-0.32407407407407407],[1],[0],[0],[9.78874070000893],['tijiao_random_2'],1104.870922,1104.870922,1104.870922,1104.870922,8.009259259,1.3223105,1106.212098,1107.808604,,,,,,,,,,,,,,,,,,,,,,239,f,18,2023-03-21_16h55.55.236,RL,2022.2.4,60.18447746
1,0,86,0,,,,,,,,,,None,1107.808604,1107.808604,1107.808604,1107.808604,1107.808604,1107.808604,j,0.0060937,1107.844227,1107.844227,1107.844227,1107.844227,1107.844227,1107.844227,1108.141345,1108.141345,1109.504379,1109.504379,1109.504379,1109.504379,1109.504379,1109.504379,1109.504379,1109.504379,1109.504379,1109.504379,1109.504379,1109.504379,1109.504379,1109.504379,1109.504379,1109.504379,1109.504379,43,44,50,42,42,50,None,None,,,[],[],[],[],[],[],[],0.2,1,1112.021311,1112.021311,1112.021311,1112.021311,1112.021311,1112.021311,1112.021311,1112.021311,0.0054764,1112.021311,50,[-0.09259259259259259],[-0.2537037037037037],[1],[0],[0],[6.3497723000036785],['tijiao_random_2'],1118.384592,1118.384592,1118.384592,1118.384592,6.324074074,2.9015751,1121.304244,1123.117005,,,,,,,,,,,,,,,,,,,,,,239,f,18,2023-03-21_16h55.55.236,RL,2022.2.4,60.18447746
0,0,87,0,,,,,,,,,,None,1123.117005,1123.117005,1123.117005,1123.117005,1123.117005,1123.117005,r,0.0297042,1123.167668,1123.167668,1123.167668,1123.167668,1123.167668,1123.167668,1123.46646,1123.46646,1124.347016,1124.347016,1124.347016,1124.347016,1124.347016,1124.347016,1124.347016,1124.347016,1124.347016,1124.347016,1124.347016,1124.347016,1124.347016,1124.347016,1124.347016,1124.347016,1124.347016,53,45,41,47,53,53,None,None,53,53,[0.08611111111111111],[-0.30833333333333335],[1],[0],[0],[3.5652820999966934],['tijiao'],0.6,0,,,,,,,,,,,,[],[],[],[],[],[],[],1130.44173,1130.44173,1130.44173,1130.44173,7.240740741,1.9475051,1132.407698,1134.103834,,,,,,1126.857627,1126.857627,1126.857627,1126.857627,1126.857627,1126.857627,1126.857627,1126.857627,0.0049509,1126.857627,,,,,,,239,f,18,2023-03-21_16h55.55.236,RL,2022.2.4,60.18447746
1,0,88,0,,,,,,,,,,None,1134.103834,1134.103834,1134.103834,1134.103834,1134.103834,1134.103834,f,0.1239193,1134.254034,1134.254034,1134.254034,1134.254034,1134.254034,1134.254034,1134.552898,1134.552898,1136.181581,1136.181581,1136.181581,1136.181581,1136.181581,1136.181581,1136.181581,1136.181581,1136.181581,1136.181581,1136.181581,1136.181581,1136.181581,1136.181581,1136.181581,1136.181581,1136.181581,49,44,55,50,44,61,None,None,51,51,[0.09444444444444444],[-0.30092592592592593],[1],[0],[0],[4.262825900004827],['tijiao'],-0.6,0,,,,,,,,,,,,[],[],[],[],[],[],[],1142.974221,1142.974221,1142.974221,1142.974221,7.916666667,1.6475825,1144.640642,1146.553203,,,,,,1138.691708,1138.691708,1138.691708,1138.691708,1138.691708,1138.691708,1138.691708,1138.691708,0.0055178,1138.691708,,,,,,,239,f,18,2023-03-21_16h55.55.236,RL,2022.2.4,60.18447746
0,0,89,0,,,,,,,,,,None,1146.553203,1146.553203,1146.553203,1146.553203,1146.553203,1146.553203,i,0.0832453,1146.670434,1146.670434,1146.670434,1146.670434,1146.670434,1146.670434,1146.968948,1146.968948,1147.849469,1147.849469,1147.849469,1147.849469,1147.849469,1147.849469,1147.849469,1147.849469,1147.849469,1147.849469,1147.849469,1147.849469,1147.849469,1147.849469,1147.849469,1147.849469,1147.849469,50,38,43,50,43,63,4,1.4954219,,,[],[],[],[],[],[],[],0.6,3,,,,,,,,,,,,[],[],[],[],[],[],[],,,,,None,None,1151.878406,1153.61688,1150.358568,1150.358568,1150.358568,1150.358568,1150.358568,,,,,,,,,,,,,,,,,239,f,18,2023-03-21_16h55.55.236,RL,2022.2.4,60.18447746
1,0,90,0,,,,,,,,,,None,1153.61688,1153.61688,1153.61688,1153.61688,1153.61688,1153.61688,j,0.0138315,1153.65118,1153.65118,1153.65118,1153.65118,1153.65118,1153.65118,1153.949985,1153.949985,1155.512314,1155.512314,1155.512314,1155.512314,1155.512314,1155.512314,1155.512314,1155.512314,1155.512314,1155.512314,1155.512314,1155.512314,1155.512314,1155.512314,1155.512314,1155.512314,1155.512314,49,35,46,60,60,69,None,None,,,[],[],[],[],[],[],[],-0.6,1,1158.02925,1158.02925,1158.02925,1158.02925,1158.02925,1158.02925,1158.02925,1158.02925,0.0056718,1158.02925,79,[0.05092592592592592],[-0.28888888888888886],[1],[0],[0],[3.4412884999910602],['tijiao_random_2'],1161.483171,1161.483171,1161.483171,1161.483171,10.68518519,1.472451,1162.973928,1164.770252,,,,,,,,,,,,,,,,,,,,,,239,f,18,2023-03-21_16h55.55.236,RL,2022.2.4,60.18447746
0,0,91,0,,,,,,,,,,None,1164.770252,1164.770252,1164.770252,1164.770252,1164.770252,1164.770252,r,0.071317,1164.87266,1164.87266,1164.87266,1164.87266,1164.87266,1164.87266,1165.169118,1165.169118,1166.199454,1166.199454,1166.199454,1166.199454,1166.199454,1166.199454,1166.199454,1166.199454,1166.199454,1166.199454,1166.199454,1166.199454,1166.199454,1166.199454,1166.199454,1166.199454,1166.199454,45,37,45,57,45,38,None,None,67,67,[0.08981481481481482],[-0.3037037037037037],[1],[0],[0],[4.992938400013372],['tijiao'],0.6,0,,,,,,,,,,,,[],[],[],[],[],[],[],1173.723216,1173.723216,1173.723216,1173.723216,6.962962963,2.6456641,1176.387216,1178.166914,,,,,,1168.710148,1168.710148,1168.710148,1168.710148,1168.710148,1168.710148,1168.710148,1168.710148,0.0064934,1168.710148,,,,,,,239,f,18,2023-03-21_16h55.55.236,RL,2022.2.4,60.18447746
1,0,92,0,,,,,,,,,,None,1178.166914,1178.166914,1178.166914,1178.166914,1178.166914,1178.166914,f,0.1141127,1178.302183,1178.302183,1178.302183,1178.302183,1178.302183,1178.302183,1178.598944,1178.598944,1179.746065,1179.746065,1179.746065,1179.746065,1179.746065,1179.746065,1179.746065,1179.746065,1179.746065,1179.746065,1179.746065,1179.746065,1179.746065,1179.746065,1179.746065,1179.746065,1179.746065,51,39,44,61,39,46,1,2.309324,,,[],[],[],[],[],[],[],0.6,2,,,,,,,,,,,,[],[],[],[],[],[],[],,,,,None,None,1184.588371,1186.360848,1182.255137,1182.255137,1182.255137,1182.255137,1182.255137,,,,,,,,,,,,,,,,,239,f,18,2023-03-21_16h55.55.236,RL,2022.2.4,60.18447746
0,0,93,0,,,,,,,,,,None,1186.360848,1186.360848,1186.360848,1186.360848,1186.360848,1186.360848,i,0.0384638,1186.427893,1186.427893,1186.427893,1186.427893,1186.427893,1186.427893,1186.727016,1186.727016,1188.57201,1188.57201,1188.57201,1188.57201,1188.57201,1188.57201,1188.57201,1188.57201,1188.57201,1188.57201,1188.57201,1188.57201,1188.57201,1188.57201,1188.57201,1188.57201,1188.57201,46,36,58,62,58,54,None,None,,,[],[],[],[],[],[],[],-0.2,1,1191.090779,1191.090779,1191.090779,1191.090779,1191.090779,1191.090779,1191.090779,1191.090779,0.0060881,1191.090779,59,"[0.007407407407407408, 0.037037037037037035]","[-0.22407407407407406, -0.29074074074074074]","[1, 1]","[0, 0]","[0, 0]","[3.189975700006471, 3.605077000000165]",['tijiao_random_2'],1194.709503,1194.709503,1194.709503,1194.709503,8.944444444,1.0732728,1195.800953,1197.746747,,,,,,,,,,,,,,,,,,,,,,239,f,18,2023-03-21_16h55.55.236,RL,2022.2.4,60.18447746
1,0,94,0,,,,,,,,,,None,1197.746747,1197.746747,1197.746747,1197.746747,1197.746747,1197.746747,j,0.1881648,1197.963222,1197.963222,1197.963222,1197.963222,1197.963222,1197.963222,1198.262162,1198.262162,1199.957455,1199.957455,1199.957455,1199.957455,1199.957455,1199.957455,1199.957455,1199.957455,1199.957455,1199.957455,1199.957455,1199.957455,1199.957455,1199.957455,1199.957455,1199.957455,1199.957455,58,40,39,67,67,62,6,1.4617303,,,[],[],[],[],[],[],[],-0.2,3,,,,,,,,,,,,[],[],[],[],[],[],[],,,,,None,None,1203.952928,1205.907779,1202.466519,1202.466519,1202.466519,1202.466519,1202.466519,,,,,,,,,,,,,,,,,239,f,18,2023-03-21_16h55.55.236,RL,2022.2.4,60.18447746
0,0,95,0,,,,,,,,,,None,1205.907779,1205.907779,1205.907779,1205.907779,1205.907779,1205.907779,f,0.0407813,1205.9748,1205.9748,1205.9748,1205.9748,1205.9748,1205.9748,1206.273379,1206.273379,1208.234673,1208.234673,1208.234673,1208.234673,1208.234673,1208.234673,1208.234673,1208.234673,1208.234673,1208.234673,1208.234673,1208.234673,1208.234673,1208.234673,1208.234673,1208.234673,1208.234673,48,49,49,64,49,49,None,None,,,[],[],[],[],[],[],[],0.2,1,1210.751873,1210.751873,1210.751873,1210.751873,1210.751873,1210.751873,1210.751873,1210.751873,0.0055156,1210.751873,39,"[0.125, 0.11851851851851852]","[-0.24537037037037038, -0.2796296296296296]","[1, 1]","[0, 0]","[0, 0]","[5.783996600002865, 6.066430700011551]",['tijiao_random_2'],1216.831911,1216.831911,1216.831911,1216.831911,4.259259259,1.6721758,1218.522283,1220.335008,,,,,,,,,,,,,,,,,,,,,,239,f,18,2023-03-21_16h55.55.236,RL,2022.2.4,60.18447746
1,0,96,0,,,,,,,,,,None,1220.335008,1220.335008,1220.335008,1220.335008,1220.335008,1220.335008,r,0.0361879,1220.40305,1220.40305,1220.40305,1220.40305,1220.40305,1220.40305,1220.700964,1220.700964,1221.831114,1221.831114,1221.847894,1221.847894,1221.847894,1221.847894,1221.847894,1221.847894,1221.847894,1221.847894,1221.847894,1221.847894,1221.847894,1221.847894,1221.847894,1221.847894,1221.847894,59,27,52,55,59,9,7,1.9272854,,,[],[],[],[],[],[],[],-0.2,3,,,,,,,,,,,,[],[],[],[],[],[],[],,,,,None,None,1226.308632,1228.246569,1224.356846,1224.356846,1224.356846,1224.356846,1224.356846,,,,,,,,,,,,,,,,,239,f,18,2023-03-21_16h55.55.236,RL,2022.2.4,60.18447746
0,0,97,0,,,,,,,,,,None,1228.246569,1228.246569,1228.246569,1228.246569,1228.246569,1228.246569,j,0.2241163,1228.496639,1228.496639,1228.496639,1228.496639,1228.496639,1228.496639,1228.795533,1228.795533,1230.241141,1230.241141,1230.241141,1230.241141,1230.241141,1230.241141,1230.241141,1230.241141,1230.241141,1230.241141,1230.241141,1230.241141,1230.241141,1230.241141,1230.241141,1230.241141,1230.241141,50,43,49,62,62,46,6,1.9438116,,,[],[],[],[],[],[],[],0.6,3,,,,,,,,,,,,[],[],[],[],[],[],[],,,,,None,None,1234.719612,1236.308238,1232.750682,1232.750682,1232.750682,1232.750682,1232.750682,,,,,,,,,,,,,,,,,239,f,18,2023-03-21_16h55.55.236,RL,2022.2.4,60.18447746
1,0,98,0,,,,,,,,,,None,1236.308238,1236.308238,1236.308238,1236.308238,1236.308238,1236.308238,i,0.0655187,1236.39388,1236.39388,1236.39388,1236.39388,1236.39388,1236.39388,1236.690487,1236.690487,1238.0698,1238.0698,1238.0698,1238.0698,1238.0698,1238.0698,1238.0698,1238.0698,1238.0698,1238.0698,1238.0698,1238.0698,1238.0698,1238.0698,1238.0698,1238.0698,1238.0698,56,39,53,53,53,70,None,None,67,67,"[0.19166666666666668, 0.09074074074074075]","[-0.25, -0.2574074074074074]","[1, 1]","[0, 0]","[0, 0]","[3.5139075000042794, 4.14618569999584]",['tijiao'],-0.6,0,,,,,,,,,,,,[],[],[],[],[],[],[],1244.749346,1244.749346,1244.749346,1244.749346,7.222222222,1.1956794,1245.964269,1247.693554,,,,,,1240.581406,1240.581406,1240.581406,1240.581406,1240.581406,1240.581406,1240.581406,1240.581406,0.0065083,1240.581406,,,,,,,239,f,18,2023-03-21_16h55.55.236,RL,2022.2.4,60.18447746
0,0,99,0,,,,,,,,,,None,1247.693554,1247.693554,1247.693554,1247.693554,1247.693554,1247.693554,i,0.1046435,1247.827045,1247.827045,1247.827045,1247.827045,1247.827045,1247.827045,1248.126131,1248.126131,1249.788164,1249.788164,1249.788164,1249.788164,1249.788164,1249.788164,1249.788164,1249.788164,1249.788164,1249.788164,1249.788164,1249.788164,1249.788164,1249.788164,1249.788164,1249.788164,1249.788164,47,33,42,51,42,66,2,3.1908593,,,[],[],[],[],[],[],[],0.2,2,,,,,,,,,,,,[],[],[],[],[],[],[],,,,,None,None,1255.520412,1257.466933,1252.297515,1252.297515,1252.297515,1252.297515,1252.297515,,,,,,,,,,,,,,,,,239,f,18,2023-03-21_16h55.55.236,RL,2022.2.4,60.18447746
1,0,100,0,,,,,,,,,,None,1257.466933,1257.466933,1257.466933,1257.466933,1257.466933,1257.466933,j,0.0275836,1257.517415,1257.517415,1257.517415,1257.517415,1257.517415,1257.517415,1257.816506,1257.816506,1259.328617,1259.328617,1259.328617,1259.328617,1259.328617,1259.328617,1259.328617,1259.328617,1259.328617,1259.328617,1259.328617,1259.328617,1259.328617,1259.328617,1259.328617,1259.328617,1259.328617,49,30,54,50,50,59,3,1.5284847,,,[],[],[],[],[],[],[],-0.6,2,,,,,,,,,,,,[],[],[],[],[],[],[],,,,,None,None,1263.393585,1265.212603,1261.837853,1261.837853,1261.837853,1261.837853,1261.837853,,,,,,,,,,,,,,,,,239,f,18,2023-03-21_16h55.55.236,RL,2022.2.4,60.18447746
0,0,101,0,,,,,,,,,,None,1265.212603,1265.212603,1265.212603,1265.212603,1265.212603,1265.212603,r,0.0048794,1265.246242,1265.246242,1265.246242,1265.246242,1265.246242,1265.246242,1265.545118,1265.545118,1266.824992,1266.824992,1266.841744,1266.841744,1266.841744,1266.841744,1266.841744,1266.841744,1266.841744,1266.841744,1266.841744,1266.841744,1266.841744,1266.841744,1266.841744,1266.841744,1266.841744,47,38,50,47,47,45,5,2.0441591,,,[],[],[],[],[],[],[],0.6,3,,,,,,,,,,,,[],[],[],[],[],[],[],,,,,None,None,1271.420051,1273.257274,1269.350811,1269.350811,1269.350811,1269.350811,1269.350811,,,,,,,,,,,,,,,,,239,f,18,2023-03-21_16h55.55.236,RL,2022.2.4,60.18447746
1,0,102,0,,,,,,,,,,None,1273.257274,1273.257274,1273.257274,1273.257274,1273.257274,1273.257274,f,0.0384779,1273.324492,1273.324492,1273.324492,1273.324492,1273.324492,1273.324492,1273.623318,1273.623318,1275.41839,1275.41839,1275.41839,1275.41839,1275.41839,1275.41839,1275.41839,1275.41839,1275.41839,1275.41839,1275.41839,1275.41839,1275.41839,1275.41839,1275.41839,1275.41839,1275.41839,48,37,48,61,37,59,None,None,49,49,"[0.05, 0.023148148148148147]","[-0.35833333333333334, -0.31851851851851853]","[1, 1]","[0, 0]","[0, 0]","[4.14618640000117, 4.628398900007596]",['tijiao'],-0.2,0,,,,,,,,,,,,[],[],[],[],[],[],[],1282.576288,1282.576288,1282.576288,1282.576288,6.953703704,1.4986027,1284.093696,1285.889274,,,,,,1277.928315,1277.928315,1277.928315,1277.928315,1277.928315,1277.928315,1277.928315,1277.928315,0.0056899,1277.928315,,,,,,,239,f,18,2023-03-21_16h55.55.236,RL,2022.2.4,60.18447746
0,0,103,0,,,,,,,,,,None,1285.889274,1285.889274,1285.889274,1285.889274,1285.889274,1285.889274,j,0.0112402,1285.92315,1285.92315,1285.92315,1285.92315,1285.92315,1285.92315,1286.22229,1286.22229,1287.402411,1287.402411,1287.402411,1287.402411,1287.402411,1287.402411,1287.402411,1287.402411,1287.402411,1287.402411,1287.402411,1287.402411,1287.402411,1287.402411,1287.402411,1287.402411,1287.402411,60,43,49,64,64,58,None,None,90,90,[0.10185185185185185],[-0.27314814814814814],[1],[0],[0],[3.53192960000888],['tijiao'],0.2,0,,,,,,,,,,,,[],[],[],[],[],[],[],1293.462753,1293.462753,1293.462753,1293.462753,7.018518519,1.6156777,1295.096653,1297.092337,,,,,,1289.912395,1289.912395,1289.912395,1289.912395,1289.912395,1289.912395,1289.912395,1289.912395,0.0051178,1289.912395,,,,,,,239,f,18,2023-03-21_16h55.55.236,RL,2022.2.4,60.18447746
1,0,104,0,,,,,,,,,,None,1297.092337,1297.092337,1297.092337,1297.092337,1297.092337,1297.092337,r,0.0081477,1297.126982,1297.126982,1297.126982,1297.126982,1297.126982,1297.126982,1297.42511,1297.42511,1298.47184,1298.47184,1298.488721,1298.488721,1298.488721,1298.488721,1298.488721,1298.488721,1298.488721,1298.488721,1298.488721,1298.488721,1298.488721,1298.488721,1298.488721,1298.488721,1298.488721,54,41,43,74,54,56,4,1.6116543,,,[],[],[],[],[],[],[],-0.2,2,,,,,,,,,,,,[],[],[],[],[],[],[],,,,,None,None,1302.636799,1304.289193,1300.997651,1300.997651,1300.997651,1300.997651,1300.997651,,,,,,,,,,,,,,,,,239,f,18,2023-03-21_16h55.55.236,RL,2022.2.4,60.18447746
0,0,105,0,,,,,,,,,,None,1304.289193,1304.289193,1304.289193,1304.289193,1304.289193,1304.289193,j,0.3495576,1304.672061,1304.672061,1304.672061,1304.672061,1304.672061,1304.672061,1304.971141,1304.971141,1306.516666,1306.516666,1306.516666,1306.516666,1306.516666,1306.516666,1306.516666,1306.516666,1306.516666,1306.516666,1306.516666,1306.516666,1306.516666,1306.516666,1306.516666,1306.516666,1306.516666,53,36,40,70,70,40,None,None,,,[],[],[],[],[],[],[],-0.2,1,1309.034586,1309.034586,1309.034586,1309.034586,1309.034586,1309.034586,1309.034586,1309.034586,0.0053907,1309.034586,40,[0.11388888888888889],[-0.3277777777777778],[1],[0],[0],[7.711991699994542],['tijiao_random_2'],1316.761894,1316.761894,1316.761894,1316.761894,7.990740741,1.4709492,1318.250145,1320.096282,,,,,,,,,,,,,,,,,,,,,,239,f,18,2023-03-21_16h55.55.236,RL,2022.2.4,60.18447746
1,0,106,0,,,,,,,,,,None,1320.096282,1320.096282,1320.096282,1320.096282,1320.096282,1320.096282,j,0.0101276,1320.133068,1320.133068,1320.133068,1320.133068,1320.133068,1320.133068,1320.429062,1320.429062,1322.024425,1322.024425,1322.024425,1322.024425,1322.024425,1322.024425,1322.024425,1322.024425,1322.024425,1322.024425,1322.024425,1322.024425,1322.024425,1322.024425,1322.024425,1322.024425,1322.024425,51,21,47,78,78,54,7,2.0944322,,,[],[],[],[],[],[],[],-0.6,2,,,,,,,,,,,,[],[],[],[],[],[],[],,,,,None,None,1326.65441,1328.224139,1324.533676,1324.533676,1324.533676,1324.533676,1324.533676,,,,,,,,,,,,,,,,,239,f,18,2023-03-21_16h55.55.236,RL,2022.2.4,60.18447746
0,0,107,0,,,,,,,,,,None,1328.224139,1328.224139,1328.224139,1328.224139,1328.224139,1328.224139,j,0.2803106,1328.52343,1328.52343,1328.52343,1328.52343,1328.52343,1328.52343,1328.822467,1328.822467,1329.93623,1329.93623,1329.93623,1329.93623,1329.93623,1329.93623,1329.93623,1329.93623,1329.93623,1329.93623,1329.93623,1329.93623,1329.93623,1329.93623,1329.93623,1329.93623,1329.93623,52,34,37,64,64,37,6,1.8437873,,,[],[],[],[],[],[],[],0.6,3,,,,,,,,,,,,[],[],[],[],[],[],[],,,,,None,None,1334.31511,1335.969639,1332.445383,1332.445383,1332.445383,1332.445383,1332.445383,,,,,,,,,,,,,,,,,239,f,18,2023-03-21_16h55.55.236,RL,2022.2.4,60.18447746
1,0,108,0,,,,,,,,,,None,1335.969639,1335.969639,1335.969639,1335.969639,1335.969639,1335.969639,j,0.2079909,1336.205149,1336.205149,1336.205149,1336.205149,1336.205149,1336.205149,1336.501718,1336.501718,1337.847956,1337.847956,1337.86467,1337.86467,1337.86467,1337.86467,1337.86467,1337.86467,1337.86467,1337.86467,1337.86467,1337.86467,1337.86467,1337.86467,1337.86467,1337.86467,1337.86467,51,36,44,66,66,62,None,None,,,[],[],[],[],[],[],[],0.6,1,1340.382758,1340.382758,1340.382758,1340.382758,1340.382758,1340.382758,1340.382758,1340.382758,0.0056904,1340.382758,99,[0.08888888888888889],[-0.28425925925925927],[1],[0],[0],[5.466496199995163],['tijiao_random_2'],1345.862555,1345.862555,1345.862555,1345.862555,11,1.8230003,1347.703201,1349.615724,,,,,,,,,,,,,,,,,,,,,,239,f,18,2023-03-21_16h55.55.236,RL,2022.2.4,60.18447746
0,0,109,0,,,,,,,,,,None,1349.615724,1349.615724,1349.615724,1349.615724,1349.615724,1349.615724,j,0.0751693,1349.716846,1349.716846,1349.716846,1349.716846,1349.716846,1349.716846,1350.014426,1350.014426,1351.859765,1351.859765,1351.859765,1351.859765,1351.859765,1351.859765,1351.859765,1351.859765,1351.859765,1351.859765,1351.859765,1351.859765,1351.859765,1351.859765,1351.859765,1351.859765,1351.859765,37,30,42,66,66,66,5,1.8606936,,,[],[],[],[],[],[],[],0.6,2,,,,,,,,,,,,[],[],[],[],[],[],[],,,,,None,None,1356.253442,1358.225454,1354.368696,1354.368696,1354.368696,1354.368696,1354.368696,,,,,,,,,,,,,,,,,239,f,18,2023-03-21_16h55.55.236,RL,2022.2.4,60.18447746
1,0,110,0,,,,,,,,,,None,1358.225454,1358.225454,1358.225454,1358.225454,1358.225454,1358.225454,j,0.0133251,1358.259706,1358.259706,1358.259706,1358.259706,1358.259706,1358.259706,1358.558344,1358.558344,1360.020777,1360.020777,1360.020777,1360.020777,1360.020777,1360.020777,1360.020777,1360.020777,1360.020777,1360.020777,1360.020777,1360.020777,1360.020777,1360.020777,1360.020777,1360.020777,1360.020777,44,32,35,61,61,71,3,1.5953812,,,[],[],[],[],[],[],[],-0.2,2,,,,,,,,,,,,[],[],[],[],[],[],[],,,,,None,None,1364.149955,1365.721327,1362.529902,1362.529902,1362.529902,1362.529902,1362.529902,,,,,,,,,,,,,,,,,239,f,18,2023-03-21_16h55.55.236,RL,2022.2.4,60.18447746
0,0,111,0,,,,,,,,,,None,1365.721327,1365.721327,1365.721327,1365.721327,1365.721327,1365.721327,i,0.0359337,1365.788453,1365.788453,1365.788453,1365.788453,1365.788453,1365.788453,1366.087601,1366.087601,1367.101507,1367.101507,1367.101507,1367.101507,1367.101507,1367.101507,1367.101507,1367.101507,1367.101507,1367.101507,1367.101507,1367.101507,1367.101507,1367.101507,1367.101507,1367.101507,1367.101507,47,39,35,57,35,40,3,1.2956551,,,[],[],[],[],[],[],[],0.2,2,,,,,,,,,,,,[],[],[],[],[],[],[],,,,,None,None,1370.931894,1372.85197,1369.610416,1369.610416,1369.610416,1369.610416,1369.610416,,,,,,,,,,,,,,,,,239,f,18,2023-03-21_16h55.55.236,RL,2022.2.4,60.18447746
1,0,112,0,,,,,,,,,,None,1372.85197,1372.85197,1372.85197,1372.85197,1372.85197,1372.85197,f,0.1643257,1373.037822,1373.037822,1373.037822,1373.037822,1373.037822,1373.037822,1373.334604,1373.334604,1374.84724,1374.84724,1374.84724,1374.84724,1374.84724,1374.84724,1374.84724,1374.84724,1374.84724,1374.84724,1374.84724,1374.84724,1374.84724,1374.84724,1374.84724,1374.84724,1374.84724,39,42,38,61,42,71,None,None,50,50,"[0.1925925925925926, 0.027777777777777776]","[-0.39351851851851855, -0.27037037037037037]","[1, 1]","[0, 0]","[0, 0]","[6.10771019999811, 6.523295199993299]",['tijiao'],0.6,0,,,,,,,,,,,,[],[],[],[],[],[],[],1383.900009,1383.900009,1383.900009,1383.900009,7.12962963,1.4984372,1385.416824,1387.312627,,,,,,1377.356881,1377.356881,1377.356881,1377.356881,1377.356881,1377.356881,1377.356881,1377.356881,0.0055296,1377.356881,,,,,,,239,f,18,2023-03-21_16h55.55.236,RL,2022.2.4,60.18447746
0,0,113,0,,,,,,,,,,None,1387.312627,1387.312627,1387.312627,1387.312627,1387.312627,1387.312627,r,0.0271116,1387.363042,1387.363042,1387.363042,1387.363042,1387.363042,1387.363042,1387.662189,1387.662189,1388.725755,1388.725755,1388.725755,1388.725755,1388.725755,1388.725755,1388.725755,1388.725755,1388.725755,1388.725755,1388.725755,1388.725755,1388.725755,1388.725755,1388.725755,1388.725755,1388.725755,48,42,46,56,48,40,4,1.8112515,,,[],[],[],[],[],[],[],-0.6,2,,,,,,,,,,,,[],[],[],[],[],[],[],,,,,None,None,1393.071776,1395.024974,1391.234628,1391.234628,1391.234628,1391.234628,1391.234628,,,,,,,,,,,,,,,,,239,f,18,2023-03-21_16h55.55.236,RL,2022.2.4,60.18447746
1,0,114,0,,,,,,,,,,None,1395.024974,1395.024974,1395.024974,1395.024974,1395.024974,1395.024974,i,0.5008611,1395.557388,1395.557388,1395.557388,1395.557388,1395.557388,1395.557388,1395.856397,1395.856397,1397.651536,1397.651536,1397.651536,1397.651536,1397.651536,1397.651536,1397.651536,1397.651536,1397.651536,1397.651536,1397.651536,1397.651536,1397.651536,1397.651536,1397.651536,1397.651536,1397.651536,50,38,46,63,46,72,2,1.2458981,,,[],[],[],[],[],[],[],0.6,3,,,,,,,,,,,,[],[],[],[],[],[],[],,,,,None,None,1401.431058,1403.136324,1400.160216,1400.160216,1400.160216,1400.160216,1400.160216,,,,,,,,,,,,,,,,,239,f,18,2023-03-21_16h55.55.236,RL,2022.2.4,60.18447746
0,0,115,0,,,,,,,,,,None,1403.136324,1403.136324,1403.136324,1403.136324,1403.136324,1403.136324,j,0.1339098,1403.302832,1403.302832,1403.302832,1403.302832,1403.302832,1403.302832,1403.601961,1403.601961,1405.264129,1405.264129,1405.264129,1405.264129,1405.264129,1405.264129,1405.264129,1405.264129,1405.264129,1405.264129,1405.264129,1405.264129,1405.264129,1405.264129,1405.264129,1405.264129,1405.264129,53,44,51,60,60,76,None,None,86,86,"[-0.1, -0.03796296296296296]","[-0.22685185185185186, -0.3074074074074074]","[1, 1]","[0, 0]","[0, 0]","[3.6486388000048464, 3.9805424000078347]",['tijiao'],0.6,0,,,,,,,,,,,,[],[],[],[],[],[],[],1411.774743,1411.774743,1411.774743,1411.774743,7.842592593,1.2649399,1413.058082,1415.036985,,,,,,1407.774263,1407.774263,1407.774263,1407.774263,1407.774263,1407.774263,1407.774263,1407.774263,0.0059929,1407.774263,,,,,,,239,f,18,2023-03-21_16h55.55.236,RL,2022.2.4,60.18447746
1,0,116,0,,,,,,,,,,None,1415.036985,1415.036985,1415.036985,1415.036985,1415.036985,1415.036985,i,0.2874214,1415.353286,1415.353286,1415.353286,1415.353286,1415.353286,1415.353286,1415.65241,1415.65241,1416.948574,1416.948574,1416.948574,1416.948574,1416.948574,1416.948574,1416.948574,1416.948574,1416.948574,1416.948574,1416.948574,1416.948574,1416.948574,1416.948574,1416.948574,1416.948574,1416.948574,56,49,54,48,54,79,3,1.9104667,,,[],[],[],[],[],[],[],0.2,2,,,,,,,,,,,,[],[],[],[],[],[],[],,,,,None,None,1421.392903,1423.397732,1419.457599,1419.457599,1419.457599,1419.457599,1419.457599,,,,,,,,,,,,,,,,,239,f,18,2023-03-21_16h55.55.236,RL,2022.2.4,60.18447746
0,0,117,0,,,,,,,,,,None,1423.397732,1423.397732,1423.397732,1423.397732,1423.397732,1423.397732,j,0.2443136,1423.664104,1423.664104,1423.664104,1423.664104,1423.664104,1423.664104,1423.963,1423.963,1424.960066,1424.960066,1424.960066,1424.960066,1424.960066,1424.960066,1424.960066,1424.960066,1424.960066,1424.960066,1424.960066,1424.960066,1424.960066,1424.960066,1424.960066,1424.960066,1424.960066,63,43,47,56,56,77,None,None,49,49,[0.024074074074074074],[-0.2638888888888889],[1],[0],[0],[3.4306691999954637],['tijiao'],-0.6,0,,,,,,,,,,,,[],[],[],[],[],[],[],1430.921893,1430.921893,1430.921893,1430.921893,6.509259259,1.1987114,1432.139794,1434.118567,,,,,,1427.471926,1427.471926,1427.471926,1427.471926,1427.471926,1427.471926,1427.471926,1427.471926,0.0066321,1427.471926,,,,,,,239,f,18,2023-03-21_16h55.55.236,RL,2022.2.4,60.18447746
1,0,118,0,,,,,,,,,,None,1434.118567,1434.118567,1434.118567,1434.118567,1434.118567,1434.118567,i,0.4046648,1434.551888,1434.551888,1434.551888,1434.551888,1434.551888,1434.551888,1434.850128,1434.850128,1436.844538,1436.844538,1436.861068,1436.861068,1436.861068,1436.861068,1436.861068,1436.861068,1436.861068,1436.861068,1436.861068,1436.861068,1436.861068,1436.861068,1436.861068,1436.861068,1436.861068,54,36,48,53,48,84,None,None,,,[],[],[],[],[],[],[],-0.2,1,1439.378507,1439.378507,1439.378507,1439.378507,1439.378507,1439.378507,1439.378507,1439.378507,0.0059697,1439.378507,56,[-0.028703703703703703],[-0.29814814814814816],[1],[0],[0],[3.673498899996048],['tijiao_random_2'],1443.064384,1443.064384,1443.064384,1443.064384,1.907407407,2.4375299,1445.519666,1447.465307,,,,,,,,,,,,,,,,,,,,,,239,f,18,2023-03-21_16h55.55.236,RL,2022.2.4,60.18447746
0,0,119,0,,,,,,,,,,None,1447.465307,1447.465307,1447.465307,1447.465307,1447.465307,1447.465307,r,0.1471102,1447.632919,1447.632919,1447.632919,1447.632919,1447.632919,1447.632919,1447.930894,1447.930894,1449.626239,1449.626239,1449.626239,1449.626239,1449.626239,1449.626239,1449.626239,1449.626239,1449.626239,1449.626239,1449.626239,1449.626239,1449.626239,1449.626239,1449.626239,1449.626239,1449.626239,53,34,45,60,53,87,None,None,1,1,"[-0.05185185185185185, -0.009259259259259259]","[-0.3287037037037037, -0.30277777777777776]","[1, 1]","[0, 0]","[0, 0]","[0.672429900005227, 7.569747899993672]",['tijiao'],0.6,0,,,,,,,,,,,,[],[],[],[],[],[],[],1459.72649,1459.72649,1459.72649,1459.72649,10.46296296,1.6141067,1461.359549,1463.321914,,,,,,1452.136211,1452.136211,1452.136211,1452.136211,1452.136211,1452.136211,1452.136211,1452.136211,0.0056913,1452.136211,,,,,,,239,f,18,2023-03-21_16h55.55.236,RL,2022.2.4,60.18447746
1,0,120,0,,,,,,,,,,None,1463.321914,1463.321914,1463.321914,1463.321914,1463.321914,1463.321914,j,0.0735886,1463.422152,1463.422152,1463.422152,1463.422152,1463.422152,1463.422152,1463.721225,1463.721225,1464.817943,1464.817943,1464.834852,1464.834852,1464.834852,1464.834852,1464.834852,1464.834852,1464.834852,1464.834852,1464.834852,1464.834852,1464.834852,1464.834852,1464.834852,1464.834852,1464.834852,56,48,41,57,57,85,1,2.309696,,,[],[],[],[],[],[],[],-0.2,3,,,,,,,,,,,,[],[],[],[],[],[],[],,,,,None,None,1469.677824,1471.183752,1467.344029,1467.344029,1467.344029,1467.344029,1467.344029,,,,,,,,,,,,,,,,,239,f,18,2023-03-21_16h55.55.236,RL,2022.2.4,60.18447746
0,0,121,0,,,,,,,,,,None,1471.183752,1471.183752,1471.183752,1471.183752,1471.183752,1471.183752,i,0.3692827,1471.583389,1471.583389,1471.583389,1471.583389,1471.583389,1471.583389,1471.882163,1471.882163,1473.327999,1473.327999,1473.327999,1473.327999,1473.327999,1473.327999,1473.327999,1473.327999,1473.327999,1473.327999,1473.327999,1473.327999,1473.327999,1473.327999,1473.327999,1473.327999,1473.327999,61,48,50,48,50,40,3,1.9774283,,,[],[],[],[],[],[],[],0.6,3,,,,,,,,,,,,[],[],[],[],[],[],[],,,,,None,None,1477.84122,1479.743902,1475.837054,1475.837054,1475.837054,1475.837054,1475.837054,,,,,,,,,,,,,,,,,239,f,18,2023-03-21_16h55.55.236,RL,2022.2.4,60.18447746
1,0,122,0,,,,,,,,,,None,1479.743902,1479.743902,1479.743902,1479.743902,1479.743902,1479.743902,j,0.3124065,1480.077704,1480.077704,1480.077704,1480.077704,1480.077704,1480.077704,1480.375732,1480.375732,1481.422525,1481.422525,1481.422525,1481.422525,1481.422525,1481.422525,1481.422525,1481.422525,1481.422525,1481.422525,1481.422525,1481.422525,1481.422525,1481.422525,1481.422525,1481.422525,1481.422525,57,40,41,46,46,84,None,None,83,83,"[-0.02962962962962963, 0.002777777777777778, -0.014814814814814815]","[-0.22962962962962963, -0.35555555555555557, -0.2898148148148148]","[1, 1, 1]","[0, 0, 0]","[0, 0, 0]","[4.014041800008272, 4.429063500007032, 4.728986400004942]",['tijiao'],0.2,0,,,,,,,,,,,,[],[],[],[],[],[],[],1488.681759,1488.681759,1488.681759,1488.681759,10.68518519,1.6629856,1490.363829,1492.259712,,,,,,1483.933281,1483.933281,1483.933281,1483.933281,1483.933281,1483.933281,1483.933281,1483.933281,0.0051427,1483.933281,,,,,,,239,f,18,2023-03-21_16h55.55.236,RL,2022.2.4,60.18447746
0,0,123,0,,,,,,,,,,None,1492.259712,1492.259712,1492.259712,1492.259712,1492.259712,1492.259712,i,0.0354841,1492.326973,1492.326973,1492.326973,1492.326973,1492.326973,1492.326973,1492.625756,1492.625756,1494.270998,1494.270998,1494.270998,1494.270998,1494.270998,1494.270998,1494.270998,1494.270998,1494.270998,1494.270998,1494.270998,1494.270998,1494.270998,1494.270998,1494.270998,1494.270998,1494.270998,62,43,49,57,49,81,2,1.7111683,,,[],[],[],[],[],[],[],0.6,3,,,,,,,,,,,,[],[],[],[],[],[],[],,,,,None,None,1498.516269,1500.354292,1496.780158,1496.780158,1496.780158,1496.780158,1496.780158,,,,,,,,,,,,,,,,,239,f,18,2023-03-21_16h55.55.236,RL,2022.2.4,60.18447746
1,0,124,0,,,,,,,,,,None,1500.354292,1500.354292,1500.354292,1500.354292,1500.354292,1500.354292,f,0.1598115,1500.537285,1500.537285,1500.537285,1500.537285,1500.537285,1500.537285,1500.836507,1500.836507,1502.049602,1502.049602,1502.049602,1502.049602,1502.049602,1502.049602,1502.049602,1502.049602,1502.049602,1502.049602,1502.049602,1502.049602,1502.049602,1502.049602,1502.049602,1502.049602,1502.049602,53,52,46,49,52,35,None,None,,,[],[],[],[],[],[],[],0.2,1,1504.56629,1504.56629,1504.56629,1504.56629,1504.56629,1504.56629,1504.56629,1504.56629,0.0055952,1504.56629,7,[-0.004629629629629629],[-0.3148148148148148],[1],[0],[0],[3.391741400002502],['tijiao_random_2'],1507.970788,1507.970788,1507.970788,1507.970788,4.611111111,1.5941237,1509.57822,1511.174631,,,,,,,,,,,,,,,,,,,,,,239,f,18,2023-03-21_16h55.55.236,RL,2022.2.4,60.18447746
0,0,125,0,,,,,,,,,,None,1511.174631,1511.174631,1511.174631,1511.174631,1511.174631,1511.174631,j,0.2447491,1511.443535,1511.443535,1511.443535,1511.443535,1511.443535,1511.443535,1511.739872,1511.739872,1513.385404,1513.385404,1513.401983,1513.401983,1513.401983,1513.401983,1513.401983,1513.401983,1513.401983,1513.401983,1513.401983,1513.401983,1513.401983,1513.401983,1513.401983,1513.401983,1513.401983,54,41,57,51,51,83,1,1.3456425,,,[],[],[],[],[],[],[],-0.6,2,,,,,,,,,,,,[],[],[],[],[],[],[],,,,,None,None,1517.281455,1519.135891,1515.911147,1515.911147,1515.911147,1515.911147,1515.911147,,,,,,,,,,,,,,,,,239,f,18,2023-03-21_16h55.55.236,RL,2022.2.4,60.18447746
