trials.thisRepN,trials.thisTrialN,trials.thisN,trials.thisIndex,instru_img1.started,instru_img1.stopped,instru_resp.keys,instru_resp.rt,instru_resp.started,instru_resp.stopped,instru_img2.started,instru_img2.stopped,instru_resp2.keys,instru_resp2.rt,instru_resp2.started,instru_resp2.stopped,fixbefore_2.started,fixbefore_2.stopped,rest_image.started,rest_image.stopped,rest_response.keys,rest_response.started,rest_response.stopped,red.started,red.stopped,green.started,green.stopped,yellow.started,yellow.stopped,blue.started,blue.stopped,choose_bandit.keys,choose_bandit.rt,choose_bandit.started,choose_bandit.stopped,Fixation.started,Fixation.stopped,black.started,black.stopped,red_2.started,red_2.stopped,green_2.started,green_2.stopped,yellow_2.started,yellow_2.stopped,blue_2.started,blue_2.stopped,fixation_2.started,fixation_2.stopped,docs.started,docs.stopped,wait_playerB.started,wait_playerB.stopped,black_com.started,black_com.stopped,reward_sub.started,reward_sub.stopped,palyerb.started,palyerb.stopped,reward__sub.started,reward__sub.stopped,compare.started,compare.stopped,red_compare.started,red_compare.stopped,green_com.started,green_com.stopped,yellow_com.started,yellow_com.stopped,blue_com.started,blue_com.stopped,rewardyellow,rewardred,rewardblue,rewardgreen,subchoose,playerb,image_3.started,image_3.stopped,slider.response,slider.rt,slider.started,slider.stopped,text.started,text.stopped,image_4.started,image_4.stopped,image_5.started,image_5.stopped,expectself.text,expectself.started,expectself.stopped,value_expect_self,expect_self_black.started,expect_self_black.stopped,expect_self.started,expect_self.stopped,expect_self_red.started,expect_self_red.stopped,expect_self_green.started,expect_self_green.stopped,expect_self_yellow.started,expect_self_yellow.stopped,expect_self_blue.started,expect_self_blue.stopped,tijiao.started,tijiao.stopped,tijiao_click.x,tijiao_click.y,tijiao_click.leftButton,tijiao_click.midButton,tijiao_click.rightButton,tijiao_click.time,tijiao_click.clicked_name,tijiao_click.started,tijiao_click.stopped,check.started,check.stopped,random_whicharm,whether_ask,jiantou_random.started,jiantou_random.stopped,expect_red.started,expect_red.stopped,expect_green.started,expect_green.stopped,expect_yellow.started,expect_yellow.stopped,expect_blue.started,expect_blue.stopped,expect_random_2.started,expect_random_2.stopped,expect_random_3.text,expect_random_3.started,expect_random_3.stopped,tijiao_random_2.started,tijiao_random_2.stopped,tijiao_random.started,tijiao_random.stopped,check_2.started,check_2.stopped,slider_2.response,slider_2.rt,slider_2.started,slider_2.stopped,image_7.started,image_7.stopped,confi.started,confi.stopped,notconfi.started,notconfi.stopped,bigx.started,bigx.stopped,intertrialfix.started,intertrialfix.stopped,tijiao_random.x,tijiao_random.y,tijiao_random.leftButton,tijiao_random.midButton,tijiao_random.rightButton,tijiao_random.time,tijiao_random.clicked_name,rest_response.rt,image.started,image.stopped,key_resp.keys,key_resp.started,key_resp.stopped,participant,Gender,Age,date,expName,psychopyVersion,frameRate
,,,,19.5818369,None,space,2.4360583,19.5818369,None,,,,,,,,,,,,,,,,,,,,,,,,,,,,,,,,,,,,,,,,,,,,,,,,,,,,,,,,,,,,,,,,,,,,,,,,,,,,,,,,,,,,,,,,,,,,,,,,,,,,,,,,,,,,,,,,,,,,,,,,,,,,,,,,,,,,,,,,,,,,,,,,,,,,,,,,,,,,,,,240,f,18,2023_Mar_21_1655,RL,2021.2.3,59.95189462
,,,,,,,,,,22.0597673,None,s,24.2787115,22.0597673,None,,,,,,,,,,,,,,,,,,,,,,,,,,,,,,,,,,,,,,,,,,,,,,,,,,,,,,,,,,,,,,,,,,,,,,,,,,,,,,,,,,,,,,,,,,,,,,,,,,,,,,,,,,,,,,,,,,,,,,,,,,,,,,,,,,,,,,,,,,,,,,,,,,,,,,,,,240,f,18,2023_Mar_21_1655,RL,2021.2.3,59.95189462
1,0,0,0,,,,,,,,,,,,,46.3748555,None,None,None,None,None,None,47.414907,None,47.414907,None,47.414907,None,47.414907,None,i,0.7232041,47.414907,None,47.414907,None,48.1960001,None,48.1960001,None,48.1960001,None,48.1960001,None,48.1960001,None,48.1960001,None,48.4834555,None,48.4834555,None,49.6715699,None,49.6715699,None,49.6715699,None,49.6715699,None,49.6715699,None,49.6715699,None,49.6715699,None,49.6715699,None,49.6715699,None,34,58,51,33,51,51,None,None,None,None,None,None,None,None,None,None,None,None,50,52.2194184,None,50,52.2194184,None,52.2194184,None,52.2194184,None,52.2194184,None,52.2194184,None,52.2194184,None,52.2194184,None,-0.05859375,-0.282552083,1,0,0,3.6693246,tijiao,0.01627909,None,52.2194184,None,0.6,0,None,None,None,None,None,None,None,None,None,None,None,None,,None,None,None,None,None,None,None,None,5.049479167,1.9545565,55.9455756,None,55.9455756,None,55.9455756,None,55.9455756,None,None,None,57.9245017,None,,,,,,,,,,,,,,240,f,18,2023_Mar_21_1655,RL,2021.2.3,59.95189462
0,0,1,0,,,,,,,,,,,,,,,None,None,None,None,None,59.7791844,None,59.7791844,None,59.7791844,None,59.7791844,None,j,0.3388875,59.7791844,None,59.7791844,None,60.1793286,None,60.1793286,None,60.1793286,None,60.1793286,None,60.1793286,None,60.1793286,None,60.4585187,62.0764884,60.4585187,62.0764884,62.1132135,None,62.1132135,None,62.1132135,None,62.1132135,None,62.1132135,None,62.1132135,None,62.1132135,None,62.1132135,None,62.1132135,None,37,58,56,44,44,43,None,None,None,None,None,None,None,None,None,None,None,None,,None,None,,None,None,None,None,None,None,None,None,None,None,None,None,None,None,,,,,,,,None,None,None,None,0.2,1,64.6698751,None,64.6698751,None,64.6698751,None,64.6698751,None,64.6698751,None,64.6698751,None,50,64.6698751,None,64.6698751,None,0.00077799,None,64.6698751,None,3.96875,1.7718603,68.3926483,None,68.3926483,None,68.3926483,None,68.3926483,None,None,None,70.181202,None,-0.046875,-0.294270833,1,0,0,3.6875539,tijiao_random_2,,,,,,,240,f,18,2023_Mar_21_1655,RL,2021.2.3,59.95189462
1,0,2,0,,,,,,,,,,,,,,,None,None,None,None,None,71.803136,None,71.803136,None,71.803136,None,71.803136,None,f,0.3850989,71.803136,None,71.803136,None,72.2270532,None,72.2270532,None,72.2270532,None,72.2270532,None,72.2270532,None,72.2270532,None,72.5168747,74.4518645,72.5168747,74.4518645,74.487763,None,74.487763,None,74.487763,None,74.487763,None,74.487763,None,74.487763,None,74.487763,None,74.487763,None,74.487763,None,36,51,55,33,51,57,None,None,None,None,None,None,None,None,None,None,None,None,50,77.0141187,None,50,77.0141187,None,77.0141187,None,77.0141187,None,77.0141187,None,77.0141187,None,77.0141187,None,77.0141187,None,-0.087239583,-0.2890625,1,0,0,5.1009477,tijiao,0.01395879,None,77.0141187,None,-0.2,0,None,None,None,None,None,None,None,None,None,None,None,None,,None,None,None,None,None,None,None,None,3.96875,1.7384186,82.1550625,None,82.1550625,None,82.1550625,None,82.1550625,None,None,None,83.9074445,None,,,,,,,,,,,,,,240,f,18,2023_Mar_21_1655,RL,2021.2.3,59.95189462
0,0,3,0,,,,,,,,,,,,,,,None,None,None,None,None,85.7966576,None,85.7966576,None,85.7966576,None,85.7966576,None,r,0.3516739,85.7966576,None,85.7966576,None,86.1907644,None,86.1907644,None,86.1907644,None,86.1907644,None,86.1907644,None,86.1907644,None,86.476572,87.3107433,86.476572,87.3107433,87.34684,None,87.34684,None,87.34684,None,87.34684,None,87.34684,None,87.34684,None,87.34684,None,87.34684,None,87.34684,None,47,59,65,36,47,63,89.865743,None,1,1.6535793,89.865743,None,89.865743,None,89.865743,None,89.865743,None,,None,None,,None,None,None,None,None,None,None,None,None,None,None,None,None,None,,,,,,,,None,None,None,None,0.6,3,None,None,None,None,None,None,None,None,None,None,None,None,,None,None,None,None,None,None,None,None,None,None,None,None,None,None,None,None,None,None,None,None,91.5806008,None,,,,,,,,,,,,,,240,f,18,2023_Mar_21_1655,RL,2021.2.3,59.95189462
1,0,4,0,,,,,,,,,,,,,,,None,None,None,None,None,93.4523471,None,93.4523471,None,93.4523471,None,93.4523471,None,i,0.6660336,93.4523471,None,93.4523471,None,94.171544,None,94.171544,None,94.171544,None,94.171544,None,94.171544,None,94.171544,None,94.4654331,95.7829799,94.4654331,95.7829799,95.8146823,None,95.8146823,None,95.8146823,None,95.8146823,None,95.8146823,None,95.8146823,None,95.8146823,None,95.8146823,None,95.8146823,None,41,65,54,37,54,52,None,None,None,None,None,None,None,None,None,None,None,None,,None,None,,None,None,None,None,None,None,None,None,None,None,None,None,None,None,,,,,,,,None,None,None,None,0.6,1,98.3561826,None,98.3561826,None,98.3561826,None,98.3561826,None,98.3561826,None,98.3561826,None,60,98.3561826,None,98.3561826,None,0.00349809,None,98.3561826,None,4.020833333,2.7117271,102.5981214,None,102.5981214,None,102.5981214,None,102.5981214,None,None,None,105.322189,None,-0.063802083,-0.298177083,1,0,0,4.208091,tijiao_random_2,,,,,,,240,f,18,2023_Mar_21_1655,RL,2021.2.3,59.95189462
0,0,5,0,,,,,,,,,,,,,,,None,None,None,None,None,106.9773801,None,106.9773801,None,106.9773801,None,106.9773801,None,j,0.5620964,106.9773801,None,106.9773801,None,107.5810739,None,107.5810739,None,107.5810739,None,107.5810739,None,107.5810739,None,107.5810739,None,107.8747077,108.8255109,107.8747077,108.8255109,108.8617871,None,108.8617871,None,108.8617871,None,108.8617871,None,108.8617871,None,108.8617871,None,108.8617871,None,108.8617871,None,108.8617871,None,47,64,59,31,31,50,111.3990162,None,2,1.9842451,111.3990162,None,111.3990162,None,111.3990162,None,111.3990162,None,,None,None,,None,None,None,None,None,None,None,None,None,None,None,None,None,None,,,,,,,,None,None,None,None,0.2,3,None,None,None,None,None,None,None,None,None,None,None,None,,None,None,None,None,None,None,None,None,None,None,None,None,None,None,None,None,None,None,None,None,113.4330766,None,,,,,,,,,,,,,,240,f,18,2023_Mar_21_1655,RL,2021.2.3,59.95189462
1,0,6,0,,,,,,,,,,,,,,,None,None,None,None,None,115.4167897,None,115.4167897,None,115.4167897,None,115.4167897,None,None,,115.4167897,None,115.4167897,None,None,None,None,None,None,None,None,None,None,None,None,None,None,None,None,None,None,None,None,None,None,None,None,None,None,None,None,None,None,None,None,None,None,None,48,71,57,30,0,**,None,None,None,None,None,None,None,None,None,None,None,None,,None,None,,None,None,None,None,None,None,None,None,None,None,None,None,None,None,,,,,,,,None,None,None,None,-0.2,3,None,None,None,None,None,None,None,None,None,None,None,None,,None,None,None,None,None,None,None,None,None,None,None,None,None,None,None,None,None,None,117.0096246,None,123.0186092,None,,,,,,,,,,,,,,240,f,18,2023_Mar_21_1655,RL,2021.2.3,59.95189462
0,0,7,0,,,,,,,,,,,,,,,None,None,None,None,None,124.874586,None,124.874586,None,124.874586,None,124.874586,None,r,0.475115,124.874586,None,124.874586,None,125.3932176,None,125.3932176,None,125.3932176,None,125.3932176,None,125.3932176,None,125.3932176,None,125.6870239,127.455187,125.6870239,127.455187,127.4894534,None,127.4894534,None,127.4894534,None,127.4894534,None,127.4894534,None,127.4894534,None,127.4894534,None,127.4894534,None,127.4894534,None,45,67,66,39,45,39,None,None,None,None,None,None,None,None,None,None,None,None,40,130.0234338,None,40,130.0234338,None,130.0234338,None,130.0234338,None,130.0234338,None,130.0234338,None,130.0234338,None,130.0234338,None,0.024739583,-0.298177083,1,0,0,5.3643281,tijiao,0.00917029,None,130.0234338,None,-0.6,0,None,None,None,None,None,None,None,None,None,None,None,None,,None,None,None,None,None,None,None,None,4.958333333,2.7451724,135.4378182,None,135.4378182,None,135.4378182,None,135.4378182,None,None,None,138.1950631,None,,,,,,,,,,,,,,240,f,18,2023_Mar_21_1655,RL,2021.2.3,59.95189462
1,0,8,0,,,,,,,,,,,,,,,None,None,None,None,None,140.0843245,None,140.0843245,None,140.0843245,None,140.0843245,None,r,0.3155181,140.0843245,None,140.0843245,None,140.4518336,None,140.4518336,None,140.4518336,None,140.4518336,None,140.4518336,None,140.4518336,None,140.7470525,None,140.7470525,None,142.0117271,None,142.0117271,None,142.0117271,None,142.0117271,None,142.0117271,None,142.0117271,None,142.0117271,None,142.0117271,None,142.0117271,None,42,75,55,36,42,22,144.5388173,None,7,2.2975451,144.5388173,None,144.5388173,None,144.5388173,None,144.5388173,None,,None,None,,None,None,None,None,None,None,None,None,None,None,None,None,None,None,,,,,,,,None,None,None,None,-0.2,2,None,None,None,None,None,None,None,None,None,None,None,None,,None,None,None,None,None,None,None,None,None,None,None,None,None,None,None,None,None,None,None,None,146.9022087,None,,,,,,,,,,,,,,240,f,18,2023_Mar_21_1655,RL,2021.2.3,59.95189462
0,0,9,0,,,,,,,,,,,,,,,None,None,None,None,None,148.8899796,None,148.8899796,None,148.8899796,None,148.8899796,None,r,1.040179,148.8899796,None,148.8899796,None,149.9767695,None,149.9767695,None,149.9767695,None,149.9767695,None,149.9767695,None,149.9767695,None,150.270923,151.9222323,150.270923,151.9222323,151.9525623,None,151.9525623,None,151.9525623,None,151.9525623,None,151.9525623,None,151.9525623,None,151.9525623,None,151.9525623,None,151.9525623,None,41,75,50,26,41,60,None,None,None,None,None,None,None,None,None,None,None,None,40,154.4818646,None,40,154.4818646,None,154.4818646,None,154.4818646,None,154.4818646,None,154.4818646,None,154.4818646,None,154.4818646,None,-0.020833333,-0.294270833,1,0,0,4.186896,tijiao,4.65E-05,None,154.4818646,None,-0.6,0,None,None,None,None,None,None,None,None,None,None,None,None,,None,None,None,None,None,None,None,None,7.966145833,1.9150822,158.7172075,None,158.7172075,None,158.7172075,None,158.7172075,None,None,None,160.6592281,None,,,,,,,,,,,,,,240,f,18,2023_Mar_21_1655,RL,2021.2.3,59.95189462
1,0,10,0,,,,,,,,,,,,,,,None,None,None,None,None,162.267063,None,162.267063,None,162.267063,None,162.267063,None,j,0.2028192,162.267063,None,162.267063,None,162.5181695,None,162.5181695,None,162.5181695,None,162.5181695,None,162.5181695,None,162.5181695,None,162.8128728,164.0133457,162.8128728,164.0133457,164.0529554,None,164.0529554,None,164.0529554,None,164.0529554,None,164.0529554,None,164.0529554,None,164.0529554,None,164.0529554,None,164.0529554,None,50,73,55,31,31,48,None,None,None,None,None,None,None,None,None,None,None,None,,None,None,,None,None,None,None,None,None,None,None,None,None,None,None,None,None,,,,,,,,None,None,None,None,-0.2,1,166.5967982,None,166.5967982,None,166.5967982,None,166.5967982,None,166.5967982,None,166.5967982,None,55,166.5967982,None,166.5967982,None,0.01042362,None,166.5967982,None,3.9296875,2.0458151,172.0772578,None,172.0772578,None,172.0772578,None,172.0772578,None,None,None,174.1370111,None,0.08203125,-0.28515625,1,0,0,5.4481268,tijiao_random_2,,,,,,,240,f,18,2023_Mar_21_1655,RL,2021.2.3,59.95189462
0,0,11,0,,,,,,,,,,,,,,,None,None,None,None,None,175.72622,None,175.72622,None,175.72622,None,175.72622,None,f,0.2738925,175.72622,None,175.72622,None,176.0455511,None,176.0455511,None,176.0455511,None,176.0455511,None,176.0455511,None,176.0455511,None,176.3391328,None,176.3391328,None,177.3275054,None,177.3275054,None,177.3275054,None,177.3275054,None,177.3275054,None,177.3275054,None,177.3275054,None,177.3275054,None,177.3275054,None,36,74,48,21,74,44,None,None,None,None,None,None,None,None,None,None,None,None,,None,None,,None,None,None,None,None,None,None,None,None,None,None,None,None,None,,,,,,,,None,None,None,None,-0.6,1,179.8636322,None,179.8636322,None,179.8636322,None,179.8636322,None,179.8636322,None,179.8636322,None,45,179.8636322,None,179.8636322,None,0.00192609,None,179.8636322,None,5.895833333,1.6307075,183.0168636,None,183.0168636,None,183.0168636,None,183.0168636,None,None,None,184.6609411,None,-0.072916667,-0.286458333,1,0,0,3.1215985,tijiao_random_2,,,,,,,240,f,18,2023_Mar_21_1655,RL,2021.2.3,59.95189462
1,0,12,0,,,,,,,,,,,,,,,None,None,None,None,None,186.3000524,None,186.3000524,None,186.3000524,None,186.3000524,None,i,0.3298946,186.3000524,None,186.3000524,None,186.6707927,None,186.6707927,None,186.6707927,None,186.6707927,None,186.6707927,None,186.6707927,None,186.9628602,188.8976729,186.9628602,188.8976729,188.9297018,None,188.9297018,None,188.9297018,None,188.9297018,None,188.9297018,None,188.9297018,None,188.9297018,None,188.9297018,None,188.9297018,None,44,71,50,28,50,58,None,None,None,None,None,None,None,None,None,None,None,None,,None,None,,None,None,None,None,None,None,None,None,None,None,None,None,None,None,,,,,,,,None,None,None,None,-0.6,1,191.4716896,None,191.4716896,None,191.4716896,None,191.4716896,None,191.4716896,None,191.4716896,None,45,191.4716896,None,191.4716896,None,0.00272859,None,191.4716896,None,5.895833333,1.7600877,195.8914318,None,195.8914318,None,195.8914318,None,195.8914318,None,None,None,197.6697691,None,-0.016927083,-0.295572917,1,0,0,4.3734059,tijiao_random_2,,,,,,,240,f,18,2023_Mar_21_1655,RL,2021.2.3,59.95189462
0,0,13,0,,,,,,,,,,,,,,,None,None,None,None,None,199.2759651,None,199.2759651,None,199.2759651,None,199.2759651,None,f,0.3241306,199.2759651,None,199.2759651,None,199.6436326,None,199.6436326,None,199.6436326,None,199.6436326,None,199.6436326,None,199.6436326,None,199.9386358,None,199.9386358,None,201.8606984,None,201.8606984,None,201.8606984,None,201.8606984,None,201.8606984,None,201.8606984,None,201.8606984,None,201.8606984,None,201.8606984,None,46,65,52,19,65,38,None,None,None,None,None,None,None,None,None,None,None,None,,None,None,,None,None,None,None,None,None,None,None,None,None,None,None,None,None,,,,,,,,None,None,None,None,-0.2,1,204.4163395,None,204.4163395,None,204.4163395,None,204.4163395,None,204.4163395,None,204.4163395,None,65,204.4163395,None,204.4163395,None,0.01638312,None,204.4163395,None,7.979166667,2.3136582,208.4007354,None,208.4007354,None,208.4007354,None,208.4007354,None,None,None,210.7287967,None,-0.041666667,-0.294270833,1,0,0,3.9533959,tijiao_random_2,,,,,,,240,f,18,2023_Mar_21_1655,RL,2021.2.3,59.95189462
1,0,14,0,,,,,,,,,,,,,,,None,None,None,None,None,212.4357454,None,212.4357454,None,212.4357454,None,212.4357454,None,f,0.3844193,212.4357454,None,212.4357454,None,212.8700187,None,212.8700187,None,212.8700187,None,212.8700187,None,212.8700187,None,212.8700187,None,213.1645178,None,213.1645178,None,214.264554,None,214.264554,None,214.264554,None,214.264554,None,214.264554,None,214.264554,None,214.264554,None,214.264554,None,214.264554,None,50,68,52,21,68,53,None,None,None,None,None,None,None,None,None,None,None,None,70,216.7991526,None,70,216.7991526,None,216.7991526,None,216.7991526,None,216.7991526,None,216.7991526,None,216.7991526,None,216.7991526,None,0.0703125,-0.282552083,1,0,0,3.9966894,tijiao,0.00912259,None,216.7991526,None,0.2,0,None,None,None,None,None,None,None,None,None,None,None,None,,None,None,None,None,None,None,None,None,9.059895833,2.4732159,220.8422665,None,220.8422665,None,220.8422665,None,220.8422665,None,None,None,223.3377423,None,,,,,,,,,,,,,,240,f,18,2023_Mar_21_1655,RL,2021.2.3,59.95189462
0,0,15,0,,,,,,,,,,,,,,,None,None,None,None,None,225.1763878,None,225.1763878,None,225.1763878,None,225.1763878,None,f,0.5740881,225.1763878,None,225.1763878,None,225.7948201,None,225.7948201,None,225.7948201,None,225.7948201,None,225.7948201,None,225.7948201,None,226.0901917,None,226.0901917,None,226.9541842,None,226.9541842,None,226.9541842,None,226.9541842,None,226.9541842,None,226.9541842,None,226.9541842,None,226.9541842,None,226.9541842,None,35,74,56,23,74,22,229.4609809,None,7,1.9997276,229.4609809,None,229.4609809,None,229.4609809,None,229.4609809,None,,None,None,,None,None,None,None,None,None,None,None,None,None,None,None,None,None,,,,,,,,None,None,None,None,-0.2,2,None,None,None,None,None,None,None,None,None,None,None,None,,None,None,None,None,None,None,None,None,None,None,None,None,None,None,None,None,None,None,None,None,231.515293,None,,,,,,,,,,,,,,240,f,18,2023_Mar_21_1655,RL,2021.2.3,59.95189462
1,0,16,0,,,,,,,,,,,,,,,None,None,None,None,None,233.5152003,None,233.5152003,None,233.5152003,None,233.5152003,None,i,0.5953939,233.5152003,None,233.5152003,None,234.1513722,None,234.1513722,None,234.1513722,None,234.1513722,None,234.1513722,None,234.1513722,None,234.4461934,235.9637048,234.4461934,235.9637048,235.996097,None,235.996097,None,235.996097,None,235.996097,None,235.996097,None,235.996097,None,235.996097,None,235.996097,None,235.996097,None,45,70,61,21,61,50,None,None,None,None,None,None,None,None,None,None,None,None,65,238.5295798,None,65,238.5295798,None,238.5295798,None,238.5295798,None,238.5295798,None,238.5295798,None,238.5295798,None,238.5295798,None,0.139322917,-0.295572917,1,0,0,3.515147,tijiao,0.01143199,None,238.5295798,None,0.6,0,None,None,None,None,None,None,None,None,None,None,None,None,,None,None,None,None,None,None,None,None,6.963541667,2.136182,242.0880591,None,242.0880591,None,242.0880591,None,242.0880591,None,None,None,244.2507057,None,,,,,,,,,,,,,,240,f,18,2023_Mar_21_1655,RL,2021.2.3,59.95189462
0,0,17,0,,,,,,,,,,,,,,,None,None,None,None,None,245.907057,None,245.907057,None,245.907057,None,245.907057,None,f,0.2935483,245.907057,None,245.907057,None,246.2455234,None,246.2455234,None,246.2455234,None,246.2455234,None,246.2455234,None,246.2455234,None,246.5212668,248.2389697,246.5212668,248.2389697,248.2889036,None,248.2889036,None,248.2889036,None,248.2889036,None,248.2889036,None,248.2889036,None,248.2889036,None,248.2889036,None,248.2889036,None,49,65,61,20,65,22,None,None,None,None,None,None,None,None,None,None,None,None,,None,None,,None,None,None,None,None,None,None,None,None,None,None,None,None,None,,,,,,,,None,None,None,None,-0.2,1,250.8401923,None,250.8401923,None,250.8401923,None,250.8401923,None,250.8401923,None,250.8401923,None,70,250.8401923,None,250.8401923,None,0.00827582,None,250.8401923,None,10.03645833,1.4319259,254.7015989,None,254.7015989,None,254.7015989,None,254.7015989,None,None,None,256.1589317,None,0.067708333,-0.279947917,1,0,0,3.8284693,tijiao_random_2,,,,,,,240,f,18,2023_Mar_21_1655,RL,2021.2.3,59.95189462
1,0,18,0,,,,,,,,,,,,,,,None,None,None,None,None,257.7656507,None,257.7656507,None,257.7656507,None,257.7656507,None,f,0.4048526,257.7656507,None,257.7656507,None,258.2194001,None,258.2194001,None,258.2194001,None,258.2194001,None,258.2194001,None,258.2194001,None,258.5126188,259.9303874,258.5126188,259.9303874,259.9621692,None,259.9621692,None,259.9621692,None,259.9621692,None,259.9621692,None,259.9621692,None,259.9621692,None,259.9621692,None,259.9621692,None,48,69,53,14,69,53,262.4815294,None,6,1.1039666,262.4815294,None,262.4815294,None,262.4815294,None,262.4815294,None,,None,None,,None,None,None,None,None,None,None,None,None,None,None,None,None,None,,,,,,,,None,None,None,None,0.2,3,None,None,None,None,None,None,None,None,None,None,None,None,,None,None,None,None,None,None,None,None,None,None,None,None,None,None,None,None,None,None,None,None,263.6436971,None,,,,,,,,,,,,,,240,f,18,2023_Mar_21_1655,RL,2021.2.3,59.95189462
0,0,19,0,,,,,,,,,,,,,,,None,None,None,None,None,265.2703303,None,265.2703303,None,265.2703303,None,265.2703303,None,f,0.4803607,265.2703303,None,265.2703303,None,265.789929,None,265.789929,None,265.789929,None,265.789929,None,265.789929,None,265.789929,None,266.084577,267.1019864,266.084577,267.1019864,267.1333032,None,267.1333032,None,267.1333032,None,267.1333032,None,267.1333032,None,267.1333032,None,267.1333032,None,267.1333032,None,267.1333032,None,47,63,55,16,63,56,None,None,None,None,None,None,None,None,None,None,None,None,65,269.6721881,None,65,269.6721881,None,269.6721881,None,269.6721881,None,269.6721881,None,269.6721881,None,269.6721881,None,269.6721881,None,0.067708333,-0.2890625,1,0,0,3.7965893,tijiao,0.00937459,None,269.6721881,None,-0.2,0,None,None,None,None,None,None,None,None,None,None,None,None,,None,None,None,None,None,None,None,None,8.018229167,1.4295271,273.5114467,None,273.5114467,None,273.5114467,None,273.5114467,None,None,None,274.9569891,None,,,,,,,,,,,,,,240,f,18,2023_Mar_21_1655,RL,2021.2.3,59.95189462
1,0,20,0,,,,,,,,,,,,,,,None,None,None,None,None,276.9453089,None,276.9453089,None,276.9453089,None,276.9453089,None,i,0.7863017,276.9453089,None,276.9453089,None,277.7880242,None,277.7880242,None,277.7880242,None,277.7880242,None,277.7880242,None,277.7880242,None,278.0763463,279.594103,278.0763463,279.594103,279.6262224,None,279.6262224,None,279.6262224,None,279.6262224,None,279.6262224,None,279.6262224,None,279.6262224,None,279.6262224,None,279.6262224,None,48,64,49,22,49,26,282.1462272,None,5,1.8529588,282.1462272,None,282.1462272,None,282.1462272,None,282.1462272,None,,None,None,,None,None,None,None,None,None,None,None,None,None,None,None,None,None,,,,,,,,None,None,None,None,-0.6,2,None,None,None,None,None,None,None,None,None,None,None,None,,None,None,None,None,None,None,None,None,None,None,None,None,None,None,None,None,None,None,None,None,284.0504367,None,,,,,,,,,,,,,,240,f,18,2023_Mar_21_1655,RL,2021.2.3,59.95189462
0,0,21,0,,,,,,,,,,,,,,,None,None,None,None,None,285.8020039,None,285.8020039,None,285.8020039,None,285.8020039,None,f,0.6196666,285.8020039,None,285.8020039,None,286.4698105,None,286.4698105,None,286.4698105,None,286.4698105,None,286.4698105,None,286.4698105,None,286.7657243,None,286.7657243,None,287.946626,None,287.946626,None,287.946626,None,287.946626,None,287.946626,None,287.946626,None,287.946626,None,287.946626,None,287.946626,None,57,66,54,22,66,22,290.4733639,None,7,1.1322485,290.4733639,None,290.4733639,None,290.4733639,None,290.4733639,None,,None,None,,None,None,None,None,None,None,None,None,None,None,None,None,None,None,,,,,,,,None,None,None,None,-0.6,3,None,None,None,None,None,None,None,None,None,None,None,None,,None,None,None,None,None,None,None,None,None,None,None,None,None,None,None,None,None,None,None,None,291.6545482,None,,,,,,,,,,,,,,240,f,18,2023_Mar_21_1655,RL,2021.2.3,59.95189462
1,0,22,0,,,,,,,,,,,,,,,None,None,None,None,None,293.5076945,None,293.5076945,None,293.5076945,None,293.5076945,None,f,0.5141631,293.5076945,None,293.5076945,None,294.0608076,None,294.0608076,None,294.0608076,None,294.0608076,None,294.0608076,None,294.0608076,None,294.3541324,None,294.3541324,None,295.1883498,None,295.1883498,None,295.1883498,None,295.1883498,None,295.1883498,None,295.1883498,None,295.1883498,None,295.1883498,None,295.1883498,None,62,67,58,25,67,35,None,None,None,None,None,None,None,None,None,None,None,None,65,297.7234268,None,65,297.7234268,None,297.7234268,None,297.7234268,None,297.7234268,None,297.7234268,None,297.7234268,None,297.7234268,None,0.083333333,-0.279947917,1,0,0,4.6783602,tijiao,0.00799619,None,297.7234268,None,0.2,0,None,None,None,None,None,None,None,None,None,None,None,None,,None,None,None,None,None,None,None,None,10.94791667,1.5320945,302.450553,None,302.450553,None,302.450553,None,302.450553,None,None,None,304.0125467,None,,,,,,,,,,,,,,240,f,18,2023_Mar_21_1655,RL,2021.2.3,59.95189462
0,0,23,0,,,,,,,,,,,,,,,None,None,None,None,None,305.7162344,None,305.7162344,None,305.7162344,None,305.7162344,None,f,0.3356525,305.7162344,None,305.7162344,None,306.1057569,None,306.1057569,None,306.1057569,None,306.1057569,None,306.1057569,None,306.1057569,None,306.3792922,307.1959297,306.3792922,307.1959297,307.2458858,None,307.2458858,None,307.2458858,None,307.2458858,None,307.2458858,None,307.2458858,None,307.2458858,None,307.2458858,None,307.2458858,None,54,59,55,26,59,62,None,None,None,None,None,None,None,None,None,None,None,None,65,309.7776292,None,65,309.7776292,None,309.7776292,None,309.7776292,None,309.7776292,None,309.7776292,None,309.7776292,None,309.7776292,None,-0.075520833,-0.299479167,1,0,0,3.5327614,tijiao,0.01263669,None,309.7776292,None,-0.6,0,None,None,None,None,None,None,None,None,None,None,None,None,,None,None,None,None,None,None,None,None,8.005208333,1.9513223,313.3611799,None,313.3611799,None,313.3611799,None,313.3611799,None,None,None,315.3333229,None,,,,,,,,,,,,,,240,f,18,2023_Mar_21_1655,RL,2021.2.3,59.95189462
1,0,24,0,,,,,,,,,,,,,,,None,None,None,None,None,316.9742317,None,316.9742317,None,316.9742317,None,316.9742317,None,i,0.2577275,316.9742317,None,316.9742317,None,317.2748843,None,317.2748843,None,317.2748843,None,317.2748843,None,317.2748843,None,317.2748843,None,317.5704709,None,317.5704709,None,319.4368399,None,319.4368399,None,319.4368399,None,319.4368399,None,319.4368399,None,319.4368399,None,319.4368399,None,319.4368399,None,319.4368399,None,63,68,55,18,55,32,321.9585776,None,5,1.1182529,321.9585776,None,321.9585776,None,321.9585776,None,321.9585776,None,,None,None,,None,None,None,None,None,None,None,None,None,None,None,None,None,None,,,,,,,,None,None,None,None,0.2,2,None,None,None,None,None,None,None,None,None,None,None,None,,None,None,None,None,None,None,None,None,None,None,None,None,None,None,None,None,None,None,None,None,323.1298718,None,,,,,,,,,,,,,,240,f,18,2023_Mar_21_1655,RL,2021.2.3,59.95189462
0,0,25,0,,,,,,,,,,,,,,,None,None,None,None,None,324.7621534,None,324.7621534,None,324.7621534,None,324.7621534,None,j,0.3497222,324.7621534,None,324.7621534,None,325.1692034,None,325.1692034,None,325.1692034,None,325.1692034,None,325.1692034,None,325.1692034,None,325.4594097,327.277102,325.4594097,327.277102,327.3092265,None,327.3092265,None,327.3092265,None,327.3092265,None,327.3092265,None,327.3092265,None,327.3092265,None,327.3092265,None,327.3092265,None,60,63,53,23,23,49,None,None,None,None,None,None,None,None,None,None,None,None,30,329.837251,None,30,329.837251,None,329.837251,None,329.837251,None,329.837251,None,329.837251,None,329.837251,None,329.837251,None,0.088541667,-0.328125,1,0,0,4.020891,tijiao,0.00015046,None,329.837251,None,-0.6,0,None,None,None,None,None,None,None,None,None,None,None,None,,None,None,None,None,None,None,None,None,8.890625,1.8660565,333.9043773,None,333.9043773,None,333.9043773,None,333.9043773,None,None,None,335.7977291,None,,,,,,,,,,,,,,240,f,18,2023_Mar_21_1655,RL,2021.2.3,59.95189462
1,0,26,0,,,,,,,,,,,,,,,None,None,None,None,None,337.6054262,None,337.6054262,None,337.6054262,None,337.6054262,None,f,0.2865769,337.6054262,None,337.6054262,None,337.938924,None,337.938924,None,337.938924,None,337.938924,None,337.938924,None,337.938924,None,338.2347781,None,338.2347781,None,339.6331255,None,339.6331255,None,339.6331255,None,339.6331255,None,339.6331255,None,339.6331255,None,339.6331255,None,339.6331255,None,339.6331255,None,65,60,55,30,60,47,None,None,None,None,None,None,None,None,None,None,None,None,,None,None,,None,None,None,None,None,None,None,None,None,None,None,None,None,None,,,,,,,,None,None,None,None,0.6,1,342.181844,None,342.181844,None,342.181844,None,342.181844,None,342.181844,None,342.181844,None,30,342.181844,None,342.181844,None,0.01356742,None,342.181844,None,7.9140625,2.3249502,346.5525252,None,346.5525252,None,346.5525252,None,346.5525252,None,None,None,348.9086733,None,0.063802083,-0.2890625,1,0,0,4.3339232,tijiao_random_2,,,,,,,240,f,18,2023_Mar_21_1655,RL,2021.2.3,59.95189462
0,0,27,0,,,,,,,,,,,,,,,None,None,None,None,None,350.7643057,None,350.7643057,None,350.7643057,None,350.7643057,None,f,0.3880944,350.7643057,None,350.7643057,None,351.1979,None,351.1979,None,351.1979,None,351.1979,None,351.1979,None,351.1979,None,351.4938961,None,351.4938961,None,352.9580475,None,352.9580475,None,352.9580475,None,352.9580475,None,352.9580475,None,352.9580475,None,352.9580475,None,352.9580475,None,352.9580475,None,61,68,70,31,68,47,355.4765864,None,6,1.4083604,355.4765864,None,355.4765864,None,355.4765864,None,355.4765864,None,,None,None,,None,None,None,None,None,None,None,None,None,None,None,None,None,None,,,,,,,,None,None,None,None,0.6,3,None,None,None,None,None,None,None,None,None,None,None,None,,None,None,None,None,None,None,None,None,None,None,None,None,None,None,None,None,None,None,None,None,356.9385385,None,,,,,,,,,,,,,,240,f,18,2023_Mar_21_1655,RL,2021.2.3,59.95189462
1,0,28,0,,,,,,,,,,,,,,,None,None,None,None,None,358.569053,None,358.569053,None,358.569053,None,358.569053,None,i,0.9531296,358.569053,None,358.569053,None,359.5702339,None,359.5702339,None,359.5702339,None,359.5702339,None,359.5702339,None,359.5702339,None,359.8664481,None,359.8664481,None,361.8883735,None,361.8883735,None,361.8883735,None,361.8883735,None,361.8883735,None,361.8883735,None,361.8883735,None,361.8883735,None,361.8883735,None,57,64,51,28,51,44,None,None,None,None,None,None,None,None,None,None,None,None,55,364.4321144,None,55,364.4321144,None,364.4321144,None,364.4321144,None,364.4321144,None,364.4321144,None,364.4321144,None,364.4321144,None,0.026041667,-0.2890625,1,0,0,3.2498771,tijiao,0.01340559,None,364.4321144,None,-0.6,0,None,None,None,None,None,None,None,None,None,None,None,None,,None,None,None,None,None,None,None,None,6.950520833,1.0977411,367.7272907,None,367.7272907,None,367.7272907,None,367.7272907,None,None,None,368.8386815,None,,,,,,,,,,,,,,240,f,18,2023_Mar_21_1655,RL,2021.2.3,59.95189462
0,0,29,0,,,,,,,,,,,,,,,None,None,None,None,None,370.544767,None,370.544767,None,370.544767,None,370.544767,None,f,0.3074578,370.544767,None,370.544767,None,370.8967574,None,370.8967574,None,370.8967574,None,370.8967574,None,370.8967574,None,370.8967574,None,371.1909302,None,371.1909302,None,372.2901557,None,372.2901557,None,372.2901557,None,372.2901557,None,372.2901557,None,372.2901557,None,372.2901557,None,372.2901557,None,372.2901557,None,50,75,48,22,75,54,None,None,None,None,None,None,None,None,None,None,None,None,65,374.8173804,None,65,374.8173804,None,374.8173804,None,374.8173804,None,374.8173804,None,374.8173804,None,374.8173804,None,374.8173804,None,0.096354167,-0.276041667,1,0,0,4.0386537,tijiao,0.00129266,None,374.8173804,None,0.2,0,None,None,None,None,None,None,None,None,None,None,None,None,,None,None,None,None,None,None,None,None,5.921875,1.0701726,378.9066123,None,378.9066123,None,378.9066123,None,378.9066123,None,None,None,380.0056009,None,,,,,,,,,,,,,,240,f,18,2023_Mar_21_1655,RL,2021.2.3,59.95189462
1,0,30,0,,,,,,,,,,,,,,,None,None,None,None,None,381.7526296,None,381.7526296,None,381.7526296,None,381.7526296,None,f,0.4897189,381.7526296,None,381.7526296,None,382.2887681,None,382.2887681,None,382.2887681,None,382.2887681,None,382.2887681,None,382.2887681,None,382.5821567,None,382.5821567,None,383.4976182,None,383.4976182,None,383.4976182,None,383.4976182,None,383.4976182,None,383.4976182,None,383.4976182,None,383.4976182,None,383.4976182,None,47,67,60,22,67,27,386.019523,None,6,1.3682244,386.019523,None,386.019523,None,386.019523,None,386.019523,None,,None,None,,None,None,None,None,None,None,None,None,None,None,None,None,None,None,,,,,,,,None,None,None,None,-0.2,3,None,None,None,None,None,None,None,None,None,None,None,None,,None,None,None,None,None,None,None,None,None,None,None,None,None,None,None,None,None,None,None,None,387.4637509,None,,,,,,,,,,,,,,240,f,18,2023_Mar_21_1655,RL,2021.2.3,59.95189462
0,0,31,0,,,,,,,,,,,,,,,None,None,None,None,None,389.4070622,None,389.4070622,None,389.4070622,None,389.4070622,None,f,0.3154482,389.4070622,None,389.4070622,None,389.7743754,None,389.7743754,None,389.7743754,None,389.7743754,None,389.7743754,None,389.7743754,None,390.0707766,None,390.0707766,None,391.6021839,None,391.6021839,None,391.6021839,None,391.6021839,None,391.6021839,None,391.6021839,None,391.6021839,None,391.6021839,None,391.6021839,None,46,70,47,29,70,48,394.1221729,None,6,1.0714965,394.1221729,None,394.1221729,None,394.1221729,None,394.1221729,None,,None,None,,None,None,None,None,None,None,None,None,None,None,None,None,None,None,,,,,,,,None,None,None,None,0.2,2,None,None,None,None,None,None,None,None,None,None,None,None,,None,None,None,None,None,None,None,None,None,None,None,None,None,None,None,None,None,None,None,None,395.2511193,None,,,,,,,,,,,,,,240,f,18,2023_Mar_21_1655,RL,2021.2.3,59.95189462
1,0,32,0,,,,,,,,,,,,,,,None,None,None,None,None,396.913264,None,396.913264,None,396.913264,None,396.913264,None,f,0.4093592,396.913264,None,396.913264,None,397.3674407,None,397.3674407,None,397.3674407,None,397.3674407,None,397.3674407,None,397.3674407,None,397.6425531,398.7100557,397.6425531,398.7100557,398.7599936,None,398.7599936,None,398.7599936,None,398.7599936,None,398.7599936,None,398.7599936,None,398.7599936,None,398.7599936,None,398.7599936,None,48,68,48,29,68,57,None,None,None,None,None,None,None,None,None,None,None,None,,None,None,,None,None,None,None,None,None,None,None,None,None,None,None,None,None,,,,,,,,None,None,None,None,0.6,1,401.3064813,None,401.3064813,None,401.3064813,None,401.3064813,None,401.3064813,None,401.3064813,None,45,401.3064813,None,401.3064813,None,0.01497212,None,401.3064813,None,3.005208333,3.1130613,404.2734299,None,404.2734299,None,404.2734299,None,404.2734299,None,None,None,407.3986401,None,0.091145833,-0.29296875,1,0,0,2.9345132,tijiao_random_2,,,,,,,240,f,18,2023_Mar_21_1655,RL,2021.2.3,59.95189462
0,0,33,0,,,,,,,,,,,,,,,None,None,None,None,None,409.053811,None,409.053811,None,409.053811,None,409.053811,None,f,0.4587539,409.053811,None,409.053811,None,409.5581384,None,409.5581384,None,409.5581384,None,409.5581384,None,409.5581384,None,409.5581384,None,409.8510876,None,409.8510876,None,410.9823488,None,410.9823488,None,410.9823488,None,410.9823488,None,410.9823488,None,410.9823488,None,410.9823488,None,410.9823488,None,410.9823488,None,55,65,49,20,65,42,413.5088494,None,5,1.6500878,413.5088494,None,413.5088494,None,413.5088494,None,413.5088494,None,,None,None,,None,None,None,None,None,None,None,None,None,None,None,None,None,None,,,,,,,,None,None,None,None,0.6,3,None,None,None,None,None,None,None,None,None,None,None,None,,None,None,None,None,None,None,None,None,None,None,None,None,None,None,None,None,None,None,None,None,415.2276437,None,,,,,,,,,,,,,,240,f,18,2023_Mar_21_1655,RL,2021.2.3,59.95189462
1,0,34,0,,,,,,,,,,,,,,,None,None,None,None,None,416.8428305,None,416.8428305,None,416.8428305,None,416.8428305,None,f,0.3398386,416.8428305,None,416.8428305,None,417.2269819,None,417.2269819,None,417.2269819,None,417.2269819,None,417.2269819,None,417.2269819,None,417.5231266,None,417.5231266,None,418.3725236,None,418.3725236,None,418.3725236,None,418.3725236,None,418.3725236,None,418.3725236,None,418.3725236,None,418.3725236,None,418.3725236,None,50,68,47,30,68,25,None,None,None,None,None,None,None,None,None,None,None,None,,None,None,,None,None,None,None,None,None,None,None,None,None,None,None,None,None,,,,,,,,None,None,None,None,0.6,1,420.9112362,None,420.9112362,None,420.9112362,None,420.9112362,None,420.9112362,None,420.9112362,None,40,420.9112362,None,420.9112362,None,0.00562769,None,420.9112362,None,2.953125,2.6380264,424.4225037,None,424.4225037,None,424.4225037,None,424.4225037,None,None,None,427.0792468,None,0.076822917,-0.32421875,1,0,0,3.4755161,tijiao_random_2,,,,,,,240,f,18,2023_Mar_21_1655,RL,2021.2.3,59.95189462
0,0,35,0,,,,,,,,,,,,,,,None,None,None,None,None,428.9856437,None,428.9856437,None,428.9856437,None,428.9856437,None,i,0.2670226,428.9856437,None,428.9856437,None,429.3027406,None,429.3027406,None,429.3027406,None,429.3027406,None,429.3027406,None,429.3027406,None,429.5983162,None,429.5983162,None,431.4463632,None,431.4463632,None,431.4463632,None,431.4463632,None,431.4463632,None,431.4463632,None,431.4463632,None,431.4463632,None,431.4463632,None,54,71,45,30,45,42,433.973019,None,4,1.9345336,433.973019,None,433.973019,None,433.973019,None,433.973019,None,,None,None,,None,None,None,None,None,None,None,None,None,None,None,None,None,None,,,,,,,,None,None,None,None,-0.2,3,None,None,None,None,None,None,None,None,None,None,None,None,,None,None,None,None,None,None,None,None,None,None,None,None,None,None,None,None,None,None,None,None,435.9666093,None,,,,,,,,,,,,,,240,f,18,2023_Mar_21_1655,RL,2021.2.3,59.95189462
1,0,36,0,,,,,,,,,,,,,,,None,None,None,None,None,437.8915779,None,437.8915779,None,437.8915779,None,437.8915779,None,f,0.4922803,437.8915779,None,437.8915779,None,438.4271466,None,438.4271466,None,438.4271466,None,438.4271466,None,438.4271466,None,438.4271466,None,438.7212611,None,438.7212611,None,439.9027321,None,439.9027321,None,439.9027321,None,439.9027321,None,439.9027321,None,439.9027321,None,439.9027321,None,439.9027321,None,439.9027321,None,50,64,51,31,64,38,None,None,None,None,None,None,None,None,None,None,None,None,65,442.4321295,None,65,442.4321295,None,442.4321295,None,442.4321295,None,442.4321295,None,442.4321295,None,442.4321295,None,442.4321295,None,0.052083333,-0.282552083,1,0,0,3.2367605,tijiao,0.00061576,None,442.4321295,None,-0.6,0,None,None,None,None,None,None,None,None,None,None,None,None,,None,None,None,None,None,None,None,None,7.028645833,1.6509653,445.7134514,None,445.7134514,None,445.7134514,None,445.7134514,None,None,None,447.3970059,None,,,,,,,,,,,,,,240,f,18,2023_Mar_21_1655,RL,2021.2.3,59.95189462
0,0,37,0,,,,,,,,,,,,,,,None,None,None,None,None,449.2482976,None,449.2482976,None,449.2482976,None,449.2482976,None,f,0.2854811,449.2482976,None,449.2482976,None,449.5846761,None,449.5846761,None,449.5846761,None,449.5846761,None,449.5846761,None,449.5846761,None,449.8788508,None,449.8788508,None,451.4252584,None,451.4252584,None,451.4252584,None,451.4252584,None,451.4252584,None,451.4252584,None,451.4252584,None,451.4252584,None,451.4252584,None,52,62,45,26,62,58,None,None,None,None,None,None,None,None,None,None,None,None,,None,None,,None,None,None,None,None,None,None,None,None,None,None,None,None,None,,,,,,,,None,None,None,None,-0.2,1,453.9791847,None,453.9791847,None,453.9791847,None,453.9791847,None,453.9791847,None,453.9791847,None,66,453.9791847,None,453.9791847,None,0.01096372,None,453.9791847,None,6.013020833,1.4285361,458.8106767,None,458.8106767,None,458.8106767,None,458.8106767,None,None,None,460.2674859,None,0.028645833,-0.2890625,1,0,0,4.7983371,tijiao_random_2,,,,,,,240,f,18,2023_Mar_21_1655,RL,2021.2.3,59.95189462
1,0,38,0,,,,,,,,,,,,,,,None,None,None,None,None,461.8906393,None,461.8906393,None,461.8906393,None,461.8906393,None,f,0.3135381,461.8906393,None,461.8906393,None,462.2441647,None,462.2441647,None,462.2441647,None,462.2441647,None,462.2441647,None,462.2441647,None,462.5376973,None,462.5376973,None,464.1255826,None,464.1255826,None,464.1255826,None,464.1255826,None,464.1255826,None,464.1255826,None,464.1255826,None,464.1255826,None,464.1255826,None,51,61,47,31,61,51,466.6368889,None,4,1.7723639,466.6368889,None,466.6368889,None,466.6368889,None,466.6368889,None,,None,None,,None,None,None,None,None,None,None,None,None,None,None,None,None,None,,,,,,,,None,None,None,None,-0.6,3,None,None,None,None,None,None,None,None,None,None,None,None,,None,None,None,None,None,None,None,None,None,None,None,None,None,None,None,None,None,None,None,None,468.4659545,None,,,,,,,,,,,,,,240,f,18,2023_Mar_21_1655,RL,2021.2.3,59.95189462
0,0,39,0,,,,,,,,,,,,,,,None,None,None,None,None,470.2632659,None,470.2632659,None,470.2632659,None,470.2632659,None,f,0.6408194,470.2632659,None,470.2632659,None,470.950866,None,470.950866,None,470.950866,None,470.950866,None,470.950866,None,470.950866,None,471.243681,None,471.243681,None,472.8087738,None,472.8087738,None,472.8087738,None,472.8087738,None,472.8087738,None,472.8087738,None,472.8087738,None,472.8087738,None,472.8087738,None,54,61,44,37,61,59,None,None,None,None,None,None,None,None,None,None,None,None,65,475.3425831,None,65,475.3425831,None,475.3425831,None,475.3425831,None,475.3425831,None,475.3425831,None,475.3425831,None,475.3425831,None,-0.079427083,-0.27734375,1,0,0,3.5333709,tijiao,0.01319919,None,475.3425831,None,0.2,0,None,None,None,None,None,None,None,None,None,None,None,None,,None,None,None,None,None,None,None,None,5.075520833,1.4600086,478.9139769,None,478.9139769,None,478.9139769,None,478.9139769,None,None,None,480.3994239,None,,,,,,,,,,,,,,240,f,18,2023_Mar_21_1655,RL,2021.2.3,59.95189462
1,0,40,0,,,,,,,,,,,,,,,None,None,None,None,None,482.3226985,None,482.3226985,None,482.3226985,None,482.3226985,None,i,0.2414278,482.3226985,None,482.3226985,None,482.6081915,None,482.6081915,None,482.6081915,None,482.6081915,None,482.6081915,None,482.6081915,None,482.9018558,None,482.9018558,None,484.1322728,None,484.1322728,None,484.1322728,None,484.1322728,None,484.1322728,None,484.1322728,None,484.1322728,None,484.1322728,None,484.1322728,None,54,61,56,33,56,63,486.6525122,None,2,1.2386825,486.6525122,None,486.6525122,None,486.6525122,None,486.6525122,None,,None,None,,None,None,None,None,None,None,None,None,None,None,None,None,None,None,,,,,,,,None,None,None,None,0.2,2,None,None,None,None,None,None,None,None,None,None,None,None,,None,None,None,None,None,None,None,None,None,None,None,None,None,None,None,None,None,None,None,None,487.945836,None,,,,,,,,,,,,,,240,f,18,2023_Mar_21_1655,RL,2021.2.3,59.95189462
0,0,41,0,,,,,,,,,,,,,,,None,None,None,None,None,489.5937268,None,489.5937268,None,489.5937268,None,489.5937268,None,f,0.4603124,489.5937268,None,489.5937268,None,490.0965812,None,490.0965812,None,490.0965812,None,490.0965812,None,490.0965812,None,490.0965812,None,490.3904336,491.65801,490.3904336,491.65801,491.6905774,None,491.6905774,None,491.6905774,None,491.6905774,None,491.6905774,None,491.6905774,None,491.6905774,None,491.6905774,None,491.6905774,None,53,59,60,36,59,46,494.2092474,None,4,1.8852939,494.2092474,None,494.2092474,None,494.2092474,None,494.2092474,None,,None,None,,None,None,None,None,None,None,None,None,None,None,None,None,None,None,,,,,,,,None,None,None,None,-0.6,2,None,None,None,None,None,None,None,None,None,None,None,None,,None,None,None,None,None,None,None,None,None,None,None,None,None,None,None,None,None,None,None,None,496.1473176,None,,,,,,,,,,,,,,240,f,18,2023_Mar_21_1655,RL,2021.2.3,59.95189462
1,0,42,0,,,,,,,,,,,,,,,None,None,None,None,None,497.9829923,None,497.9829923,None,497.9829923,None,497.9829923,None,f,0.2711539,497.9829923,None,497.9829923,None,498.3010062,None,498.3010062,None,498.3010062,None,498.3010062,None,498.3010062,None,498.3010062,None,498.5961659,None,498.5961659,None,500.4113474,None,500.4113474,None,500.4113474,None,500.4113474,None,500.4113474,None,500.4113474,None,500.4113474,None,500.4113474,None,500.4113474,None,56,58,54,40,58,54,None,None,None,None,None,None,None,None,None,None,None,None,58,502.9473031,None,58,502.9473031,None,502.9473031,None,502.9473031,None,502.9473031,None,502.9473031,None,502.9473031,None,502.9473031,None,0.04296875,-0.286458333,1,0,0,4.1964652,tijiao,0.00966549,None,502.9473031,None,0.2,0,None,None,None,None,None,None,None,None,None,None,None,None,,None,None,None,None,None,None,None,None,5.908854167,1.4572931,507.1891935,None,507.1891935,None,507.1891935,None,507.1891935,None,None,None,508.6792307,None,,,,,,,,,,,,,,240,f,18,2023_Mar_21_1655,RL,2021.2.3,59.95189462
0,0,43,0,,,,,,,,,,,,,,,None,None,None,None,None,510.6071895,None,510.6071895,None,510.6071895,None,510.6071895,None,i,0.2370389,510.6071895,None,510.6071895,None,510.8961098,None,510.8961098,None,510.8961098,None,510.8961098,None,510.8961098,None,510.8961098,None,511.1880242,None,511.1880242,None,512.2559434,None,512.2559434,None,512.2559434,None,512.2559434,None,512.2559434,None,512.2559434,None,512.2559434,None,512.2559434,None,512.2559434,None,64,50,52,38,52,39,514.7712218,None,4,1.4890786,514.7712218,None,514.7712218,None,514.7712218,None,514.7712218,None,,None,None,,None,None,None,None,None,None,None,None,None,None,None,None,None,None,,,,,,,,None,None,None,None,-0.2,3,None,None,None,None,None,None,None,None,None,None,None,None,,None,None,None,None,None,None,None,None,None,None,None,None,None,None,None,None,None,None,None,None,516.3117096,None,,,,,,,,,,,,,,240,f,18,2023_Mar_21_1655,RL,2021.2.3,59.95189462
1,0,44,0,,,,,,,,,,,,,,,None,None,None,None,None,518.2637376,None,518.2637376,None,518.2637376,None,518.2637376,None,i,0.2307575,518.2637376,None,518.2637376,None,518.5334473,None,518.5334473,None,518.5334473,None,518.5334473,None,518.5334473,None,518.5334473,None,518.8267826,None,518.8267826,None,520.4966248,None,520.4966248,None,520.4966248,None,520.4966248,None,520.4966248,None,520.4966248,None,520.4966248,None,520.4966248,None,520.4966248,None,61,54,61,34,61,40,523.0090561,None,5,1.2070442,523.0090561,None,523.0090561,None,523.0090561,None,523.0090561,None,,None,None,,None,None,None,None,None,None,None,None,None,None,None,None,None,None,,,,,,,,None,None,None,None,-0.2,2,None,None,None,None,None,None,None,None,None,None,None,None,,None,None,None,None,None,None,None,None,None,None,None,None,None,None,None,None,None,None,None,None,524.2793779,None,,,,,,,,,,,,,,240,f,18,2023_Mar_21_1655,RL,2021.2.3,59.95189462
0,0,45,0,,,,,,,,,,,,,,,None,None,None,None,None,526.136077,None,526.136077,None,526.136077,None,526.136077,None,i,0.2782612,526.136077,None,526.136077,None,526.4552506,None,526.4552506,None,526.4552506,None,526.4552506,None,526.4552506,None,526.4552506,None,526.748927,527.8496079,526.748927,527.8496079,527.8813089,None,527.8813089,None,527.8813089,None,527.8813089,None,527.8813089,None,527.8813089,None,527.8813089,None,527.8813089,None,527.8813089,None,48,59,52,41,52,53,530.3958477,None,3,1.4923575,530.3958477,None,530.3958477,None,530.3958477,None,530.3958477,None,,None,None,,None,None,None,None,None,None,None,None,None,None,None,None,None,None,,,,,,,,None,None,None,None,0.6,3,None,None,None,None,None,None,None,None,None,None,None,None,,None,None,None,None,None,None,None,None,None,None,None,None,None,None,None,None,None,None,None,None,531.9504157,None,,,,,,,,,,,,,,240,f,18,2023_Mar_21_1655,RL,2021.2.3,59.95189462
1,0,46,0,,,,,,,,,,,,,,,None,None,None,None,None,533.7905263,None,533.7905263,None,533.7905263,None,533.7905263,None,r,1.1040342,533.7905263,None,533.7905263,None,534.9469458,None,534.9469458,None,534.9469458,None,534.9469458,None,534.9469458,None,534.9469458,None,535.23817,None,535.23817,None,536.2188358,None,536.2188358,None,536.2188358,None,536.2188358,None,536.2188358,None,536.2188358,None,536.2188358,None,536.2188358,None,536.2188358,None,51,58,57,33,51,21,None,None,None,None,None,None,None,None,None,None,None,None,45,538.7480832,None,45,538.7480832,None,538.7480832,None,538.7480832,None,538.7480832,None,538.7480832,None,538.7480832,None,538.7480832,None,-0.10546875,-0.282552083,1,0,0,3.0537189,tijiao,0.00098736,None,538.7480832,None,-0.2,0,None,None,None,None,None,None,None,None,None,None,None,None,,None,None,None,None,None,None,None,None,5.921875,1.7002698,541.8473825,None,541.8473825,None,541.8473825,None,541.8473825,None,None,None,543.5751715,None,,,,,,,,,,,,,,240,f,18,2023_Mar_21_1655,RL,2021.2.3,59.95189462
0,0,47,0,,,,,,,,,,,,,,,None,None,None,None,None,545.1816218,None,545.1816218,None,545.1816218,None,545.1816218,None,j,0.2629488,545.1816218,None,545.1816218,None,545.4850528,None,545.4850528,None,545.4850528,None,545.4850528,None,545.4850528,None,545.4850528,None,545.7786755,None,545.7786755,None,547.0771573,None,547.0771573,None,547.0771573,None,547.0771573,None,547.0771573,None,547.0771573,None,547.0771573,None,547.0771573,None,547.0771573,None,61,48,56,35,35,57,549.5972848,None,1,1.6044912,549.5972848,None,549.5972848,None,549.5972848,None,549.5972848,None,,None,None,,None,None,None,None,None,None,None,None,None,None,None,None,None,None,,,,,,,,None,None,None,None,-0.6,3,None,None,None,None,None,None,None,None,None,None,None,None,,None,None,None,None,None,None,None,None,None,None,None,None,None,None,None,None,None,None,None,None,551.2543763,None,,,,,,,,,,,,,,240,f,18,2023_Mar_21_1655,RL,2021.2.3,59.95189462
1,0,48,0,,,,,,,,,,,,,,,None,None,None,None,None,553.2049785,None,553.2049785,None,553.2049785,None,553.2049785,None,r,0.2895763,553.2049785,None,553.2049785,None,553.5403811,None,553.5403811,None,553.5403811,None,553.5403811,None,553.5403811,None,553.5403811,None,553.8346403,None,553.8346403,None,555.7839312,None,555.7839312,None,555.7839312,None,555.7839312,None,555.7839312,None,555.7839312,None,555.7839312,None,555.7839312,None,555.7839312,None,63,60,55,38,63,53,558.3019459,None,5,2.1911553,558.3019459,None,558.3019459,None,558.3019459,None,558.3019459,None,,None,None,,None,None,None,None,None,None,None,None,None,None,None,None,None,None,,,,,,,,None,None,None,None,-0.2,3,None,None,None,None,None,None,None,None,None,None,None,None,,None,None,None,None,None,None,None,None,None,None,None,None,None,None,None,None,None,None,None,None,560.5526477,None,,,,,,,,,,,,,,240,f,18,2023_Mar_21_1655,RL,2021.2.3,59.95189462
0,0,49,0,,,,,,,,,,,,,,,None,None,None,None,None,562.5610529,None,562.5610529,None,562.5610529,None,562.5610529,None,f,0.2736646,562.5610529,None,562.5610529,None,562.8825712,None,562.8825712,None,562.8825712,None,562.8825712,None,562.8825712,None,562.8825712,None,563.1742689,None,563.1742689,None,564.9091832,None,564.9091832,None,564.9091832,None,564.9091832,None,564.9091832,None,564.9091832,None,564.9091832,None,564.9091832,None,564.9091832,None,60,60,56,40,60,43,567.4240826,None,4,1.4215594,567.4240826,None,567.4240826,None,567.4240826,None,567.4240826,None,,None,None,,None,None,None,None,None,None,None,None,None,None,None,None,None,None,,,,,,,,None,None,None,None,-0.6,3,None,None,None,None,None,None,None,None,None,None,None,None,,None,None,None,None,None,None,None,None,None,None,None,None,None,None,None,None,None,None,None,None,568.9207318,None,,,,,,,,,,,,,,240,f,18,2023_Mar_21_1655,RL,2021.2.3,59.95189462
1,0,50,0,,,,,,,,,,,,,,,None,None,None,None,None,570.9005005,None,570.9005005,None,570.9005005,None,570.9005005,None,i,0.2741366,570.9005005,None,570.9005005,None,571.2222873,None,571.2222873,None,571.2222873,None,571.2222873,None,571.2222873,None,571.2222873,None,571.4966874,573.2645526,571.4966874,573.2645526,573.2968624,None,573.2968624,None,573.2968624,None,573.2968624,None,573.2968624,None,573.2968624,None,573.2968624,None,573.2968624,None,573.2968624,None,59,62,55,46,55,39,None,None,None,None,None,None,None,None,None,None,None,None,50,575.8242551,None,50,575.8242551,None,575.8242551,None,575.8242551,None,575.8242551,None,575.8242551,None,575.8242551,None,575.8242551,None,-0.046875,-0.291666667,1,0,0,2.9032459,tijiao,0.00041646,None,575.8242551,None,-0.6,0,None,None,None,None,None,None,None,None,None,None,None,None,,None,None,None,None,None,None,None,None,4.984375,1.7195458,578.7707135,None,578.7707135,None,578.7707135,None,578.7707135,None,None,None,580.5175737,None,,,,,,,,,,,,,,240,f,18,2023_Mar_21_1655,RL,2021.2.3,59.95189462
0,0,51,0,,,,,,,,,,,,,,,None,None,None,None,None,582.2252487,None,582.2252487,None,582.2252487,None,582.2252487,None,f,0.2895194,582.2252487,None,582.2252487,None,582.5600475,None,582.5600475,None,582.5600475,None,582.5600475,None,582.5600475,None,582.5600475,None,582.8544745,None,582.8544745,None,583.7549274,None,583.7549274,None,583.7549274,None,583.7549274,None,583.7549274,None,583.7549274,None,583.7549274,None,583.7549274,None,583.7549274,None,53,59,51,40,59,39,586.2748367,None,5,1.6873454,586.2748367,None,586.2748367,None,586.2748367,None,586.2748367,None,,None,None,,None,None,None,None,None,None,None,None,None,None,None,None,None,None,,,,,,,,None,None,None,None,0.2,3,None,None,None,None,None,None,None,None,None,None,None,None,,None,None,None,None,None,None,None,None,None,None,None,None,None,None,None,None,None,None,None,None,588.0211032,None,,,,,,,,,,,,,,240,f,18,2023_Mar_21_1655,RL,2021.2.3,59.95189462
1,0,52,0,,,,,,,,,,,,,,,None,None,None,None,None,589.6286847,None,589.6286847,None,589.6286847,None,589.6286847,None,r,0.3760891,589.6286847,None,589.6286847,None,590.0507063,None,590.0507063,None,590.0507063,None,590.0507063,None,590.0507063,None,590.0507063,None,590.3431269,592.3277568,590.3431269,592.3277568,592.366311,None,592.366311,None,592.366311,None,592.366311,None,592.366311,None,592.366311,None,592.366311,None,592.366311,None,592.366311,None,57,52,62,35,57,55,None,None,None,None,None,None,None,None,None,None,None,None,55,594.896324,None,55,594.896324,None,594.896324,None,594.896324,None,594.896324,None,594.896324,None,594.896324,None,594.896324,None,-0.01171875,-0.27734375,1,0,0,4.0620643,tijiao,0.00878839,None,594.896324,None,-0.2,0,None,None,None,None,None,None,None,None,None,None,None,None,,None,None,None,None,None,None,None,None,5.947916667,2.8390459,599.0047597,None,599.0047597,None,599.0047597,None,599.0047597,None,None,None,601.8725506,None,,,,,,,,,,,,,,240,f,18,2023_Mar_21_1655,RL,2021.2.3,59.95189462
0,0,53,0,,,,,,,,,,,,,,,None,None,None,None,None,603.7394536,None,603.7394536,None,603.7394536,None,603.7394536,None,f,0.3264701,603.7394536,None,603.7394536,None,604.1097774,None,604.1097774,None,604.1097774,None,604.1097774,None,604.1097774,None,604.1097774,None,604.3861592,605.2368203,604.3861592,605.2368203,605.288447,None,605.288447,None,605.288447,None,605.288447,None,605.288447,None,605.288447,None,605.288447,None,605.288447,None,605.288447,None,62,54,68,33,54,24,607.8027781,None,6,1.8069766,607.8027781,None,607.8027781,None,607.8027781,None,607.8027781,None,,None,None,,None,None,None,None,None,None,None,None,None,None,None,None,None,None,,,,,,,,None,None,None,None,-0.2,2,None,None,None,None,None,None,None,None,None,None,None,None,,None,None,None,None,None,None,None,None,None,None,None,None,None,None,None,None,None,None,None,None,609.6760484,None,,,,,,,,,,,,,,240,f,18,2023_Mar_21_1655,RL,2021.2.3,59.95189462
1,0,54,0,,,,,,,,,,,,,,,None,None,None,None,None,611.4953555,None,611.4953555,None,611.4953555,None,611.4953555,None,i,0.3110435,611.4953555,None,611.4953555,None,611.8458867,None,611.8458867,None,611.8458867,None,611.8458867,None,611.8458867,None,611.8458867,None,612.1416207,613.9094425,612.1416207,613.9094425,613.9453831,None,613.9453831,None,613.9453831,None,613.9453831,None,613.9453831,None,613.9453831,None,613.9453831,None,613.9453831,None,613.9453831,None,52,51,73,38,73,50,616.4572066,None,5,1.0744591,616.4572066,None,616.4572066,None,616.4572066,None,616.4572066,None,,None,None,,None,None,None,None,None,None,None,None,None,None,None,None,None,None,,,,,,,,None,None,None,None,-0.6,3,None,None,None,None,None,None,None,None,None,None,None,None,,None,None,None,None,None,None,None,None,None,None,None,None,None,None,None,None,None,None,None,None,617.5926844,None,,,,,,,,,,,,,,240,f,18,2023_Mar_21_1655,RL,2021.2.3,59.95189462
0,0,55,0,,,,,,,,,,,,,,,None,None,None,None,None,619.2005063,None,619.2005063,None,619.2005063,None,619.2005063,None,i,0.3956379,619.2005063,None,619.2005063,None,619.6359329,None,619.6359329,None,619.6359329,None,619.6359329,None,619.6359329,None,619.6359329,None,619.9303031,621.7816087,619.9303031,621.7816087,621.8159329,None,621.8159329,None,621.8159329,None,621.8159329,None,621.8159329,None,621.8159329,None,621.8159329,None,621.8159329,None,621.8159329,None,55,54,75,49,75,43,624.3331148,None,7,0.8690904,624.3331148,None,624.3331148,None,624.3331148,None,624.3331148,None,,None,None,,None,None,None,None,None,None,None,None,None,None,None,None,None,None,,,,,,,,None,None,None,None,0.6,3,None,None,None,None,None,None,None,None,None,None,None,None,,None,None,None,None,None,None,None,None,None,None,None,None,None,None,None,None,None,None,None,None,625.2517447,None,,,,,,,,,,,,,,240,f,18,2023_Mar_21_1655,RL,2021.2.3,59.95189462
1,0,56,0,,,,,,,,,,,,,,,None,None,None,None,None,627.005914,None,627.005914,None,627.005914,None,627.005914,None,j,0.2901558,627.005914,None,627.005914,None,627.3404683,None,627.3404683,None,627.3404683,None,627.3404683,None,627.3404683,None,627.3404683,None,627.6357276,None,627.6357276,None,629.1516166,None,629.1516166,None,629.1516166,None,629.1516166,None,629.1516166,None,629.1516166,None,629.1516166,None,629.1516166,None,629.1516166,None,52,54,75,49,49,58,631.6688383,None,2,1.9084134,631.6688383,None,631.6688383,None,631.6688383,None,631.6688383,None,,None,None,,None,None,None,None,None,None,None,None,None,None,None,None,None,None,,,,,,,,None,None,None,None,0.6,2,None,None,None,None,None,None,None,None,None,None,None,None,,None,None,None,None,None,None,None,None,None,None,None,None,None,None,None,None,None,None,None,None,633.6271079,None,,,,,,,,,,,,,,240,f,18,2023_Mar_21_1655,RL,2021.2.3,59.95189462
0,0,57,0,,,,,,,,,,,,,,,None,None,None,None,None,635.6128763,None,635.6128763,None,635.6128763,None,635.6128763,None,f,0.3132256,635.6128763,None,635.6128763,None,635.962669,None,635.962669,None,635.962669,None,635.962669,None,635.962669,None,635.962669,None,636.2583576,None,636.2583576,None,637.4292958,None,637.4292958,None,637.4292958,None,637.4292958,None,637.4292958,None,637.4292958,None,637.4292958,None,637.4292958,None,637.4292958,None,49,42,69,55,42,61,639.9407135,None,1,1.4219554,639.9407135,None,639.9407135,None,639.9407135,None,639.9407135,None,,None,None,,None,None,None,None,None,None,None,None,None,None,None,None,None,None,,,,,,,,None,None,None,None,-0.2,3,None,None,None,None,None,None,None,None,None,None,None,None,,None,None,None,None,None,None,None,None,None,None,None,None,None,None,None,None,None,None,None,None,641.4379162,None,,,,,,,,,,,,,,240,f,18,2023_Mar_21_1655,RL,2021.2.3,59.95189462
1,0,58,0,,,,,,,,,,,,,,,None,None,None,None,None,642.9673773,None,642.9673773,None,642.9673773,None,642.9673773,None,r,0.278959,642.9673773,None,642.9673773,None,643.2845617,None,643.2845617,None,643.2845617,None,643.2845617,None,643.2845617,None,643.2845617,None,643.580377,None,643.580377,None,644.7605707,None,644.7605707,None,644.7605707,None,644.7605707,None,644.7605707,None,644.7605707,None,644.7605707,None,644.7605707,None,644.7605707,None,53,47,73,35,53,65,647.287697,None,2,1.0184806,647.287697,None,647.287697,None,647.287697,None,647.287697,None,,None,None,,None,None,None,None,None,None,None,None,None,None,None,None,None,None,,,,,,,,None,None,None,None,-0.2,2,None,None,None,None,None,None,None,None,None,None,None,None,,None,None,None,None,None,None,None,None,None,None,None,None,None,None,None,None,None,None,None,None,648.3725137,None,,,,,,,,,,,,,,240,f,18,2023_Mar_21_1655,RL,2021.2.3,59.95189462
0,0,59,0,,,,,,,,,,,,,,,None,None,None,None,None,649.9054788,None,649.9054788,None,649.9054788,None,649.9054788,None,i,0.2707213,649.9054788,None,649.9054788,None,650.2242377,None,650.2242377,None,650.2242377,None,650.2242377,None,650.2242377,None,650.2242377,None,650.5183417,None,650.5183417,None,652.1331613,None,652.1331613,None,652.1331613,None,652.1331613,None,652.1331613,None,652.1331613,None,652.1331613,None,652.1331613,None,652.1331613,None,49,53,78,48,78,45,654.6560744,None,6,1.1861008,654.6560744,None,654.6560744,None,654.6560744,None,654.6560744,None,,None,None,,None,None,None,None,None,None,None,None,None,None,None,None,None,None,,,,,,,,None,None,None,None,-0.2,3,None,None,None,None,None,None,None,None,None,None,None,None,,None,None,None,None,None,None,None,None,None,None,None,None,None,None,None,None,None,None,None,None,655.9064009,None,,,,,,,,,,,,,,240,f,18,2023_Mar_21_1655,RL,2021.2.3,59.95189462
1,0,60,0,,,,,,,,,,,,,,,None,None,None,None,None,657.7444112,None,657.7444112,None,657.7444112,None,657.7444112,None,i,0.2818027,657.7444112,None,657.7444112,None,658.0775544,None,658.0775544,None,658.0775544,None,658.0775544,None,658.0775544,None,658.0775544,None,658.3736345,None,658.3736345,None,659.3740912,None,659.3740912,None,659.3740912,None,659.3740912,None,659.3740912,None,659.3740912,None,659.3740912,None,659.3740912,None,659.3740912,None,61,50,76,51,76,33,None,None,None,None,None,None,None,None,None,None,None,None,75,661.9056775,None,75,661.9056775,None,661.9056775,None,661.9056775,None,661.9056775,None,661.9056775,None,661.9056775,None,661.9056775,None,0.065104167,-0.299479167,1,0,0,3.5159853,tijiao,0.01199959,None,661.9056775,None,0.6,0,None,None,None,None,None,None,None,None,None,None,None,None,,None,None,None,None,None,None,None,None,6.911458333,2.3304203,665.4647701,None,665.4647701,None,665.4647701,None,665.4647701,None,None,None,667.8129681,None,,,,,,,,,,,,,,240,f,18,2023_Mar_21_1655,RL,2021.2.3,59.95189462
0,0,61,0,,,,,,,,,,,,,,,None,None,None,None,None,669.819838,None,669.819838,None,669.819838,None,669.819838,None,i,0.2566583,669.819838,None,669.819838,None,670.1227611,None,670.1227611,None,670.1227611,None,670.1227611,None,670.1227611,None,670.1227611,None,670.3987305,671.7162607,670.3987305,671.7162607,671.7480895,None,671.7480895,None,671.7480895,None,671.7480895,None,671.7480895,None,671.7480895,None,671.7480895,None,671.7480895,None,671.7480895,None,55,56,66,68,66,67,None,None,None,None,None,None,None,None,None,None,None,None,68,674.2756491,None,68,674.2756491,None,674.2756491,None,674.2756491,None,674.2756491,None,674.2756491,None,674.2756491,None,674.2756491,None,-0.055989583,-0.299479167,1,0,0,3.6541828,tijiao,0.00086576,None,674.2756491,None,0.2,0,None,None,None,None,None,None,None,None,None,None,None,None,,None,None,None,None,None,None,None,None,6.989583333,1.6095886,677.9811099,None,677.9811099,None,677.9811099,None,677.9811099,None,None,None,679.6198569,None,,,,,,,,,,,,,,240,f,18,2023_Mar_21_1655,RL,2021.2.3,59.95189462
1,0,62,0,,,,,,,,,,,,,,,None,None,None,None,None,681.160548,None,681.160548,None,681.160548,None,681.160548,None,i,0.2859963,681.160548,None,681.160548,None,681.4938611,None,681.4938611,None,681.4938611,None,681.4938611,None,681.4938611,None,681.4938611,None,681.7899298,None,681.7899298,None,682.6897077,None,682.6897077,None,682.6897077,None,682.6897077,None,682.6897077,None,682.6897077,None,682.6897077,None,682.6897077,None,682.6897077,None,62,54,78,55,78,44,None,None,None,None,None,None,None,None,None,None,None,None,,None,None,,None,None,None,None,None,None,None,None,None,None,None,None,None,None,,,,,,,,None,None,None,None,-0.6,1,685.2321679,None,685.2321679,None,685.2321679,None,685.2321679,None,685.2321679,None,685.2321679,None,65,685.2321679,None,685.2321679,None,0.00188379,None,685.2321679,None,4.958333333,3.829502,688.5508637,None,688.5508637,None,688.5508637,None,688.5508637,None,None,None,692.3965951,None,-0.06640625,-0.298177083,1,0,0,3.2878891,tijiao_random_2,,,,,,,240,f,18,2023_Mar_21_1655,RL,2021.2.3,59.95189462
0,0,63,0,,,,,,,,,,,,,,,None,None,None,None,None,694.3697698,None,694.3697698,None,694.3697698,None,694.3697698,None,r,0.4666961,694.3697698,None,694.3697698,None,694.8881205,None,694.8881205,None,694.8881205,None,694.8881205,None,694.8881205,None,694.8881205,None,695.1824907,None,695.1824907,None,696.6299956,None,696.6299956,None,696.6299956,None,696.6299956,None,696.6299956,None,696.6299956,None,696.6299956,None,696.6299956,None,696.6299956,None,55,56,75,54,55,55,699.148086,None,2,1.3724574,699.148086,None,699.148086,None,699.148086,None,699.148086,None,,None,None,,None,None,None,None,None,None,None,None,None,None,None,None,None,None,,,,,,,,None,None,None,None,0.6,3,None,None,None,None,None,None,None,None,None,None,None,None,,None,None,None,None,None,None,None,None,None,None,None,None,None,None,None,None,None,None,None,None,700.5789294,None,,,,,,,,,,,,,,240,f,18,2023_Mar_21_1655,RL,2021.2.3,59.95189462
1,0,64,0,,,,,,,,,,,,,,,None,None,None,None,None,702.4084862,None,702.4084862,None,702.4084862,None,702.4084862,None,i,0.4080658,702.4084862,None,702.4084862,None,702.8630143,None,702.8630143,None,702.8630143,None,702.8630143,None,702.8630143,None,702.8630143,None,703.1546638,704.8058574,703.1546638,704.8058574,704.8381829,None,704.8381829,None,704.8381829,None,704.8381829,None,704.8381829,None,704.8381829,None,704.8381829,None,704.8381829,None,704.8381829,None,52,64,72,49,72,50,707.3547752,None,6,1.3549461,707.3547752,None,707.3547752,None,707.3547752,None,707.3547752,None,,None,None,,None,None,None,None,None,None,None,None,None,None,None,None,None,None,,,,,,,,None,None,None,None,-0.6,2,None,None,None,None,None,None,None,None,None,None,None,None,,None,None,None,None,None,None,None,None,None,None,None,None,None,None,None,None,None,None,None,None,708.7635835,None,,,,,,,,,,,,,,240,f,18,2023_Mar_21_1655,RL,2021.2.3,59.95189462
0,0,65,0,,,,,,,,,,,,,,,None,None,None,None,None,710.2970342,None,710.2970342,None,710.2970342,None,710.2970342,None,i,0.3095283,710.2970342,None,710.2970342,None,710.6481061,None,710.6481061,None,710.6481061,None,710.6481061,None,710.6481061,None,710.6481061,None,710.9434988,None,710.9434988,None,711.8893294,None,711.8893294,None,711.8893294,None,711.8893294,None,711.8893294,None,711.8893294,None,711.8893294,None,711.8893294,None,711.8893294,None,62,67,70,60,70,67,714.4113662,None,4,1.7537709,714.4113662,None,714.4113662,None,714.4113662,None,714.4113662,None,,None,None,,None,None,None,None,None,None,None,None,None,None,None,None,None,None,,,,,,,,None,None,None,None,-0.6,2,None,None,None,None,None,None,None,None,None,None,None,None,,None,None,None,None,None,None,None,None,None,None,None,None,None,None,None,None,None,None,None,None,716.2232636,None,,,,,,,,,,,,,,240,f,18,2023_Mar_21_1655,RL,2021.2.3,59.95189462
1,0,66,0,,,,,,,,,,,,,,,None,None,None,None,None,718.1853717,None,718.1853717,None,718.1853717,None,718.1853717,None,r,0.2816613,718.1853717,None,718.1853717,None,718.5045584,None,718.5045584,None,718.5045584,None,718.5045584,None,718.5045584,None,718.5045584,None,718.7988308,None,718.7988308,None,720.7506681,None,720.7506681,None,720.7506681,None,720.7506681,None,720.7506681,None,720.7506681,None,720.7506681,None,720.7506681,None,720.7506681,None,64,58,73,69,64,34,None,None,None,None,None,None,None,None,None,None,None,None,65,723.277176,None,65,723.277176,None,723.277176,None,723.277176,None,723.277176,None,723.277176,None,723.277176,None,723.277176,None,0.041666667,-0.286458333,1,0,0,3.6207403,tijiao,0.00039546,None,723.277176,None,0.6,0,None,None,None,None,None,None,None,None,None,None,None,None,,None,None,None,None,None,None,None,None,7.940104167,1.8204887,726.942146,None,726.942146,None,726.942146,None,726.942146,None,None,None,728.7868739,None,,,,,,,,,,,,,,240,f,18,2023_Mar_21_1655,RL,2021.2.3,59.95189462
0,0,67,0,,,,,,,,,,,,,,,None,None,None,None,None,730.6772759,None,730.6772759,None,730.6772759,None,730.6772759,None,r,0.3595383,730.6772759,None,730.6772759,None,731.0844662,None,731.0844662,None,731.0844662,None,731.0844662,None,731.0844662,None,731.0844662,None,731.3744534,732.8255865,731.3744534,732.8255865,732.8570992,None,732.8570992,None,732.8570992,None,732.8570992,None,732.8570992,None,732.8570992,None,732.8570992,None,732.8570992,None,732.8570992,None,54,61,79,63,54,29,735.3753162,None,6,1.4724282,735.3753162,None,735.3753162,None,735.3753162,None,735.3753162,None,,None,None,,None,None,None,None,None,None,None,None,None,None,None,None,None,None,,,,,,,,None,None,None,None,0.6,3,None,None,None,None,None,None,None,None,None,None,None,None,,None,None,None,None,None,None,None,None,None,None,None,None,None,None,None,None,None,None,None,None,736.9000005,None,,,,,,,,,,,,,,240,f,18,2023_Mar_21_1655,RL,2021.2.3,59.95189462
1,0,68,0,,,,,,,,,,,,,,,None,None,None,None,None,738.4669187,None,738.4669187,None,738.4669187,None,738.4669187,None,i,0.3498758,738.4669187,None,738.4669187,None,738.870391,None,738.870391,None,738.870391,None,738.870391,None,738.870391,None,738.870391,None,739.1464299,740.7644886,739.1464299,740.7644886,740.7979828,None,740.7979828,None,740.7979828,None,740.7979828,None,740.7979828,None,740.7979828,None,740.7979828,None,740.7979828,None,740.7979828,None,55,76,81,58,81,53,743.3160153,None,7,1.0686179,743.3160153,None,743.3160153,None,743.3160153,None,743.3160153,None,,None,None,,None,None,None,None,None,None,None,None,None,None,None,None,None,None,,,,,,,,None,None,None,None,0.6,3,None,None,None,None,None,None,None,None,None,None,None,None,,None,None,None,None,None,None,None,None,None,None,None,None,None,None,None,None,None,None,None,None,744.4349925,None,,,,,,,,,,,,,,240,f,18,2023_Mar_21_1655,RL,2021.2.3,59.95189462
0,0,69,0,,,,,,,,,,,,,,,None,None,None,None,None,746.2053858,None,746.2053858,None,746.2053858,None,746.2053858,None,i,0.3816292,746.2053858,None,746.2053858,None,746.6397608,None,746.6397608,None,746.6397608,None,746.6397608,None,746.6397608,None,746.6397608,None,746.9350713,None,746.9350713,None,748.3350083,None,748.3350083,None,748.3350083,None,748.3350083,None,748.3350083,None,748.3350083,None,748.3350083,None,748.3350083,None,748.3350083,None,67,79,68,60,68,62,750.8566663,None,4,2.2516841,750.8566663,None,750.8566663,None,750.8566663,None,750.8566663,None,,None,None,,None,None,None,None,None,None,None,None,None,None,None,None,None,None,,,,,,,,None,None,None,None,0.2,3,None,None,None,None,None,None,None,None,None,None,None,None,,None,None,None,None,None,None,None,None,None,None,None,None,None,None,None,None,None,None,None,None,753.1665554,None,,,,,,,,,,,,,,240,f,18,2023_Mar_21_1655,RL,2021.2.3,59.95189462
1,0,70,0,,,,,,,,,,,,,,,None,None,None,None,None,755.0114484,None,755.0114484,None,755.0114484,None,755.0114484,None,r,0.2656036,755.0114484,None,755.0114484,None,755.3288017,None,755.3288017,None,755.3288017,None,755.3288017,None,755.3288017,None,755.3288017,None,755.6244785,756.5084282,755.6244785,756.5084282,756.5423441,None,756.5423441,None,756.5423441,None,756.5423441,None,756.5423441,None,756.5423441,None,756.5423441,None,756.5423441,None,756.5423441,None,68,76,77,61,68,67,None,None,None,None,None,None,None,None,None,None,None,None,67,759.0695419,None,67,759.0695419,None,759.0695419,None,759.0695419,None,759.0695419,None,759.0695419,None,759.0695419,None,759.0695419,None,-0.108072917,-0.294270833,1,0,0,3.5364681,tijiao,3.33E-05,None,759.0695419,None,0.2,0,None,None,None,None,None,None,None,None,None,None,None,None,,None,None,None,None,None,None,None,None,7.041666667,2.3358651,762.6491886,None,762.6491886,None,762.6491886,None,762.6491886,None,None,None,765.0122818,None,,,,,,,,,,,,,,240,f,18,2023_Mar_21_1655,RL,2021.2.3,59.95189462
0,0,71,0,,,,,,,,,,,,,,,None,None,None,None,None,766.8857891,None,766.8857891,None,766.8857891,None,766.8857891,None,i,0.3124627,766.8857891,None,766.8857891,None,767.2388761,None,767.2388761,None,767.2388761,None,767.2388761,None,767.2388761,None,767.2388761,None,767.5329988,None,767.5329988,None,769.4301332,None,769.4301332,None,769.4301332,None,769.4301332,None,769.4301332,None,769.4301332,None,769.4301332,None,769.4301332,None,769.4301332,None,67,67,63,61,63,34,771.9476455,None,6,1.7749957,771.9476455,None,771.9476455,None,771.9476455,None,771.9476455,None,,None,None,,None,None,None,None,None,None,None,None,None,None,None,None,None,None,,,,,,,,None,None,None,None,0.6,3,None,None,None,None,None,None,None,None,None,None,None,None,,None,None,None,None,None,None,None,None,None,None,None,None,None,None,None,None,None,None,None,None,773.7749624,None,,,,,,,,,,,,,,240,f,18,2023_Mar_21_1655,RL,2021.2.3,59.95189462
1,0,72,0,,,,,,,,,,,,,,,None,None,None,None,None,775.2912443,None,775.2912443,None,775.2912443,None,775.2912443,None,i,0.3567922,775.2912443,None,775.2912443,None,775.6936754,None,775.6936754,None,775.6936754,None,775.6936754,None,775.6936754,None,775.6936754,None,775.9887777,777.6563759,775.9887777,777.6563759,777.6895647,None,777.6895647,None,777.6895647,None,777.6895647,None,777.6895647,None,777.6895647,None,777.6895647,None,777.6895647,None,777.6895647,None,65,63,64,60,64,62,None,None,None,None,None,None,None,None,None,None,None,None,63,780.2165513,None,63,780.2165513,None,780.2165513,None,780.2165513,None,780.2165513,None,780.2165513,None,780.2165513,None,780.2165513,None,0.095052083,-0.296875,1,0,0,5.1212695,tijiao,6.82E-05,None,780.2165513,None,0.6,0,None,None,None,None,None,None,None,None,None,None,None,None,,None,None,None,None,None,None,None,None,7.953125,2.6299254,785.3940736,None,785.3940736,None,785.3940736,None,785.3940736,None,None,None,788.0448502,None,,,,,,,,,,,,,,240,f,18,2023_Mar_21_1655,RL,2021.2.3,59.95189462
0,0,73,0,,,,,,,,,,,,,,,None,None,None,None,None,789.8689669,None,789.8689669,None,789.8689669,None,789.8689669,None,r,0.2691103,789.8689669,None,789.8689669,None,790.1883501,None,790.1883501,None,790.1883501,None,790.1883501,None,790.1883501,None,790.1883501,None,790.482398,None,790.482398,None,791.6955474,None,791.6955474,None,791.6955474,None,791.6955474,None,791.6955474,None,791.6955474,None,791.6955474,None,791.6955474,None,791.6955474,None,60,71,69,56,60,21,794.2144513,None,7,1.188712,794.2144513,None,794.2144513,None,794.2144513,None,794.2144513,None,,None,None,,None,None,None,None,None,None,None,None,None,None,None,None,None,None,,,,,,,,None,None,None,None,0.6,2,None,None,None,None,None,None,None,None,None,None,None,None,,None,None,None,None,None,None,None,None,None,None,None,None,None,None,None,None,None,None,None,None,795.4626735,None,,,,,,,,,,,,,,240,f,18,2023_Mar_21_1655,RL,2021.2.3,59.95189462
1,0,74,0,,,,,,,,,,,,,,,None,None,None,None,None,797.1563433,None,797.1563433,None,797.1563433,None,797.1563433,None,r,0.4817921,797.1563433,None,797.1563433,None,797.6745724,None,797.6745724,None,797.6745724,None,797.6745724,None,797.6745724,None,797.6745724,None,797.9707573,None,797.9707573,None,799.536378,None,799.536378,None,799.536378,None,799.536378,None,799.536378,None,799.536378,None,799.536378,None,799.536378,None,799.536378,None,45,80,59,60,45,61,802.0559452,None,2,1.3706378,802.0559452,None,802.0559452,None,802.0559452,None,802.0559452,None,,None,None,,None,None,None,None,None,None,None,None,None,None,None,None,None,None,,,,,,,,None,None,None,None,-0.6,3,None,None,None,None,None,None,None,None,None,None,None,None,,None,None,None,None,None,None,None,None,None,None,None,None,None,None,None,None,None,None,None,None,803.4957276,None,,,,,,,,,,,,,,240,f,18,2023_Mar_21_1655,RL,2021.2.3,59.95189462
0,0,75,0,,,,,,,,,,,,,,,805.4757607,None,q,805.4757607,None,919.370828,None,919.370828,None,919.370828,None,919.370828,None,i,0.5803702,919.370828,None,919.370828,None,919.9936919,None,919.9936919,None,919.9936919,None,919.9936919,None,919.9936919,None,919.9936919,None,920.2888859,None,920.2888859,None,921.1372922,None,921.1372922,None,921.1372922,None,921.1372922,None,921.1372922,None,921.1372922,None,921.1372922,None,921.1372922,None,921.1372922,None,50,65,63,63,63,54,923.6596551,None,4,1.9204404,923.6596551,None,923.6596551,None,923.6596551,None,923.6596551,None,,None,None,,None,None,None,None,None,None,None,None,None,None,None,None,None,None,,,,,,,,None,None,None,None,0.2,3,None,None,None,None,None,None,None,None,None,None,None,None,,None,None,None,None,None,None,None,None,None,None,None,None,None,None,None,None,None,None,None,None,925.6332972,None,,,,,,,,113.8673765,,,,,,240,f,18,2023_Mar_21_1655,RL,2021.2.3,59.95189462
1,0,76,0,,,,,,,,,,,,,,,None,None,None,None,None,927.23123,None,927.23123,None,927.23123,None,927.23123,None,i,0.32976,927.23123,None,927.23123,None,927.6009408,None,927.6009408,None,927.6009408,None,927.6009408,None,927.6009408,None,927.6009408,None,927.894395,929.2117058,927.894395,929.2117058,929.2418576,None,929.2418576,None,929.2418576,None,929.2418576,None,929.2418576,None,929.2418576,None,929.2418576,None,929.2418576,None,929.2418576,None,33,74,54,64,54,43,None,None,None,None,None,None,None,None,None,None,None,None,,None,None,,None,None,None,None,None,None,None,None,None,None,None,None,None,None,,,,,,,,None,None,None,None,0.2,1,931.7863514,None,931.7863514,None,931.7863514,None,931.7863514,None,931.7863514,None,931.7863514,None,55,931.7863514,None,931.7863514,None,0.00248459,None,931.7863514,None,5.908854167,2.3967055,935.1910912,None,935.1910912,None,935.1910912,None,935.1910912,None,None,None,937.6003204,None,-0.045572917,-0.295572917,1,0,0,3.3721863,tijiao_random_2,,,,,,,240,f,18,2023_Mar_21_1655,RL,2021.2.3,59.95189462
0,0,77,0,,,,,,,,,,,,,,,None,None,None,None,None,939.190795,None,939.190795,None,939.190795,None,939.190795,None,r,0.2705238,939.190795,None,939.190795,None,939.5087337,None,939.5087337,None,939.5087337,None,939.5087337,None,939.5087337,None,939.5087337,None,939.802402,940.7199429,939.802402,940.7199429,940.7535978,None,940.7535978,None,940.7535978,None,940.7535978,None,940.7535978,None,940.7535978,None,940.7535978,None,940.7535978,None,940.7535978,None,49,77,80,65,49,58,None,None,None,None,None,None,None,None,None,None,None,None,50,943.2798381,None,50,943.2798381,None,943.2798381,None,943.2798381,None,943.2798381,None,943.2798381,None,943.2798381,None,943.2798381,None,-0.029947917,-0.291666667,1,0,0,2.6044733,tijiao,0.00136426,None,943.2798381,None,0.2,0,None,None,None,None,None,None,None,None,None,None,None,None,,None,None,None,None,None,None,None,None,5.986979167,1.7653449,945.9288024,None,945.9288024,None,945.9288024,None,945.9288024,None,None,None,947.7075156,None,,,,,,,,,,,,,,240,f,18,2023_Mar_21_1655,RL,2021.2.3,59.95189462
1,0,78,0,,,,,,,,,,,,,,,None,None,None,None,None,949.5131297,None,949.5131297,None,949.5131297,None,949.5131297,None,f,0.2886071,949.5131297,None,949.5131297,None,949.8493015,None,949.8493015,None,949.8493015,None,949.8493015,None,949.8493015,None,949.8493015,None,950.1431655,None,950.1431655,None,951.8455203,None,951.8455203,None,951.8455203,None,951.8455203,None,951.8455203,None,951.8455203,None,951.8455203,None,951.8455203,None,951.8455203,None,48,77,67,67,77,48,None,None,None,None,None,None,None,None,None,None,None,None,75,954.3788525,None,75,954.3788525,None,954.3788525,None,954.3788525,None,954.3788525,None,954.3788525,None,954.3788525,None,954.3788525,None,0.009114583,-0.287760417,1,0,0,2.5279043,tijiao,0.00903629,None,954.3788525,None,-0.2,0,None,None,None,None,None,None,None,None,None,None,None,None,,None,None,None,None,None,None,None,None,6.950520833,2.4411623,956.951073,None,956.951073,None,956.951073,None,956.951073,None,None,None,959.4234733,None,,,,,,,,,,,,,,240,f,18,2023_Mar_21_1655,RL,2021.2.3,59.95189462
0,0,79,0,,,,,,,,,,,,,,,None,None,None,None,None,961.3539416,None,961.3539416,None,961.3539416,None,961.3539416,None,j,0.2574917,961.3539416,None,961.3539416,None,961.6571891,None,961.6571891,None,961.6571891,None,961.6571891,None,961.6571891,None,961.6571891,None,961.9512082,963.6022872,961.9512082,963.6022872,963.6361243,None,963.6361243,None,963.6361243,None,963.6361243,None,963.6361243,None,963.6361243,None,963.6361243,None,963.6361243,None,963.6361243,None,46,80,77,67,67,52,None,None,None,None,None,None,None,None,None,None,None,None,,None,None,,None,None,None,None,None,None,None,None,None,None,None,None,None,None,,,,,,,,None,None,None,None,0.6,1,966.1788422,None,966.1788422,None,966.1788422,None,966.1788422,None,966.1788422,None,966.1788422,None,65,966.1788422,None,966.1788422,None,2.01E-05,None,966.1788422,None,6.924479167,1.3964999,969.2458761,None,969.2458761,None,969.2458761,None,969.2458761,None,None,None,970.6718027,None,0.052083333,-0.278645833,1,0,0,3.035538,tijiao_random_2,,,,,,,240,f,18,2023_Mar_21_1655,RL,2021.2.3,59.95189462
1,0,80,0,,,,,,,,,,,,,,,None,None,None,None,None,972.6799547,None,972.6799547,None,972.6799547,None,972.6799547,None,f,0.2814433,972.6799547,None,972.6799547,None,973.0142994,None,973.0142994,None,973.0142994,None,973.0142994,None,973.0142994,None,973.0142994,None,973.3090367,974.2096242,973.3090367,974.2096242,974.2420064,None,974.2420064,None,974.2420064,None,974.2420064,None,974.2420064,None,974.2420064,None,974.2420064,None,974.2420064,None,974.2420064,None,45,78,70,67,78,19,None,None,None,None,None,None,None,None,None,None,None,None,,None,None,,None,None,None,None,None,None,None,None,None,None,None,None,None,None,,,,,,,,None,None,None,None,0.6,1,976.791314,None,976.791314,None,976.791314,None,976.791314,None,976.791314,None,976.791314,None,75,976.791314,None,976.791314,None,0.01109682,None,976.791314,None,8.109375,2.9126462,980.3372764,None,980.3372764,None,980.3372764,None,980.3372764,None,None,None,983.2789318,None,0.109375,-0.283854167,1,0,0,3.5139908,tijiao_random_2,,,,,,,240,f,18,2023_Mar_21_1655,RL,2021.2.3,59.95189462
0,0,81,0,,,,,,,,,,,,,,,None,None,None,None,None,985.1713035,None,985.1713035,None,985.1713035,None,985.1713035,None,f,0.2601617,985.1713035,None,985.1713035,None,985.4731903,None,985.4731903,None,985.4731903,None,985.4731903,None,985.4731903,None,985.4731903,None,985.7679475,None,985.7679475,None,986.881686,None,986.881686,None,986.881686,None,986.881686,None,986.881686,None,986.881686,None,986.881686,None,986.881686,None,986.881686,None,47,75,57,68,75,21,989.4074061,None,7,1.3672265,989.4074061,None,989.4074061,None,989.4074061,None,989.4074061,None,,None,None,,None,None,None,None,None,None,None,None,None,None,None,None,None,None,,,,,,,,None,None,None,None,-0.6,2,None,None,None,None,None,None,None,None,None,None,None,None,,None,None,None,None,None,None,None,None,None,None,None,None,None,None,None,None,None,None,None,None,990.8330452,None,,,,,,,,,,,,,,240,f,18,2023_Mar_21_1655,RL,2021.2.3,59.95189462
1,0,82,0,,,,,,,,,,,,,,,None,None,None,None,None,992.4586396,None,992.4586396,None,992.4586396,None,992.4586396,None,f,0.3330304,992.4586396,None,992.4586396,None,992.8450352,None,992.8450352,None,992.8450352,None,992.8450352,None,992.8450352,None,992.8450352,None,993.1394961,None,993.1394961,None,994.9545776,None,994.9545776,None,994.9545776,None,994.9545776,None,994.9545776,None,994.9545776,None,994.9545776,None,994.9545776,None,994.9545776,None,54,72,52,76,72,55,997.4744092,None,5,1.6216516,997.4744092,None,997.4744092,None,997.4744092,None,997.4744092,None,,None,None,,None,None,None,None,None,None,None,None,None,None,None,None,None,None,,,,,,,,None,None,None,None,-0.2,2,None,None,None,None,None,None,None,None,None,None,None,None,,None,None,None,None,None,None,None,None,None,None,None,None,None,None,None,None,None,None,None,None,999.1638265,None,,,,,,,,,,,,,,240,f,18,2023_Mar_21_1655,RL,2021.2.3,59.95189462
0,0,83,0,,,,,,,,,,,,,,,None,None,None,None,None,1001.148505,None,1001.148505,None,1001.148505,None,1001.148505,None,i,0.2331349,1001.148505,None,1001.148505,None,1001.433344,None,1001.433344,None,1001.433344,None,1001.433344,None,1001.433344,None,1001.433344,None,1001.728634,None,1001.728634,None,1002.894002,None,1002.894002,None,1002.894002,None,1002.894002,None,1002.894002,None,1002.894002,None,1002.894002,None,1002.894002,None,1002.894002,None,51,70,67,64,67,34,None,None,None,None,None,None,None,None,None,None,None,None,,None,None,,None,None,None,None,None,None,None,None,None,None,None,None,None,None,,,,,,,,None,None,None,None,0.2,1,1005.437655,None,1005.437655,None,1005.437655,None,1005.437655,None,1005.437655,None,1005.437655,None,67,1005.437655,None,1005.437655,None,0.00182509,None,1005.437655,None,7.901041667,2.4651142,1008.424121,None,1008.424121,None,1008.424121,None,1008.424121,None,None,None,1010.916358,None,0.04296875,-0.290364583,1,0,0,2.954682,tijiao_random_2,,,,,,,240,f,18,2023_Mar_21_1655,RL,2021.2.3,59.95189462
1,0,84,0,,,,,,,,,,,,,,,None,None,None,None,None,1012.857627,None,1012.857627,None,1012.857627,None,1012.857627,None,f,0.2940535,1012.857627,None,1012.857627,None,1013.194253,None,1013.194253,None,1013.194253,None,1013.194253,None,1013.194253,None,1013.194253,None,1013.470263,1014.387744,1013.470263,1014.387744,1014.418795,None,1014.418795,None,1014.418795,None,1014.418795,None,1014.418795,None,1014.418795,None,1014.418795,None,1014.418795,None,1014.418795,None,55,80,61,67,80,37,None,None,None,None,None,None,None,None,None,None,None,None,75,1016.945452,None,75,1016.945452,None,1016.945452,None,1016.945452,None,1016.945452,None,1016.945452,None,1016.945452,None,1016.945452,None,0.075520833,-0.26953125,1,0,0,2.8888188,tijiao,0.00210366,None,1016.945452,None,-0.6,0,None,None,None,None,None,None,None,None,None,None,None,None,,None,None,None,None,None,None,None,None,8.135416667,1.4528368,1019.887191,None,1019.887191,None,1019.887191,None,1019.887191,None,None,None,1021.373691,None,,,,,,,,,,,,,,240,f,18,2023_Mar_21_1655,RL,2021.2.3,59.95189462
0,0,85,0,,,,,,,,,,,,,,,None,None,None,None,None,1022.964883,None,1022.964883,None,1022.964883,None,1022.964883,None,f,0.2880796,1022.964883,None,1022.964883,None,1023.301364,None,1023.301364,None,1023.301364,None,1023.301364,None,1023.301364,None,1023.301364,None,1023.577511,1024.828175,1023.577511,1024.828175,1024.87572,None,1024.87572,None,1024.87572,None,1024.87572,None,1024.87572,None,1024.87572,None,1024.87572,None,1024.87572,None,1024.87572,None,52,72,65,61,72,51,1027.393784,None,5,1.2049263,1027.393784,None,1027.393784,None,1027.393784,None,1027.393784,None,,None,None,,None,None,None,None,None,None,None,None,None,None,None,None,None,None,,,,,,,,None,None,None,None,-0.6,2,None,None,None,None,None,None,None,None,None,None,None,None,,None,None,None,None,None,None,None,None,None,None,None,None,None,None,None,None,None,None,None,None,1028.652535,None,,,,,,,,,,,,,,240,f,18,2023_Mar_21_1655,RL,2021.2.3,59.95189462
1,0,86,0,,,,,,,,,,,,,,,None,None,None,None,None,1030.434415,None,1030.434415,None,1030.434415,None,1030.434415,None,r,0.2585153,1030.434415,None,1030.434415,None,1030.738483,None,1030.738483,None,1030.738483,None,1030.738483,None,1030.738483,None,1030.738483,None,1031.032281,1032.450207,1031.032281,1032.450207,1032.482311,None,1032.482311,None,1032.482311,None,1032.482311,None,1032.482311,None,1032.482311,None,1032.482311,None,1032.482311,None,1032.482311,None,57,65,71,61,57,57,None,None,None,None,None,None,None,None,None,None,None,None,,None,None,,None,None,None,None,None,None,None,None,None,None,None,None,None,None,,,,,,,,None,None,None,None,0.2,1,1035.024038,None,1035.024038,None,1035.024038,None,1035.024038,None,1035.024038,None,1035.024038,None,65,1035.024038,None,1035.024038,None,0.00235569,None,1035.024038,None,2.927083333,2.2307442,1039.444667,None,1039.444667,None,1039.444667,None,1039.444667,None,None,None,1041.689333,None,0.100260417,-0.2890625,1,0,0,4.3903124,tijiao_random_2,,,,,,,240,f,18,2023_Mar_21_1655,RL,2021.2.3,59.95189462
0,0,87,0,,,,,,,,,,,,,,,None,None,None,None,None,1043.211629,None,1043.211629,None,1043.211629,None,1043.211629,None,i,0.2312618,1043.211629,None,1043.211629,None,1043.497698,None,1043.497698,None,1043.497698,None,1043.497698,None,1043.497698,None,1043.497698,None,1043.774523,1045.559219,1043.774523,1045.559219,1045.591802,None,1045.591802,None,1045.591802,None,1045.591802,None,1045.591802,None,1045.591802,None,1045.591802,None,1045.591802,None,1045.591802,None,55,63,58,55,58,48,1048.114607,None,3,1.6193845,1048.114607,None,1048.114607,None,1048.114607,None,1048.114607,None,,None,None,,None,None,None,None,None,None,None,None,None,None,None,None,None,None,,,,,,,,None,None,None,None,-0.6,3,None,None,None,None,None,None,None,None,None,None,None,None,,None,None,None,None,None,None,None,None,None,None,None,None,None,None,None,None,None,None,None,None,1049.801569,None,,,,,,,,,,,,,,240,f,18,2023_Mar_21_1655,RL,2021.2.3,59.95189462
1,0,88,0,,,,,,,,,,,,,,,None,None,None,None,None,1051.751199,None,1051.751199,None,1051.751199,None,1051.751199,None,j,0.2318541,1051.751199,None,1051.751199,None,1052.035404,None,1052.035404,None,1052.035404,None,1052.035404,None,1052.035404,None,1052.035404,None,1052.330804,None,1052.330804,None,1054.079034,None,1054.079034,None,1054.079034,None,1054.079034,None,1054.079034,None,1054.079034,None,1054.079034,None,1054.079034,None,1054.079034,None,50,60,45,55,55,50,1056.604829,None,4,1.1156502,1056.604829,None,1056.604829,None,1056.604829,None,1056.604829,None,,None,None,,None,None,None,None,None,None,None,None,None,None,None,None,None,None,,,,,,,,None,None,None,None,-0.2,3,None,None,None,None,None,None,None,None,None,None,None,None,,None,None,None,None,None,None,None,None,None,None,None,None,None,None,None,None,None,None,None,None,1057.7727,None,,,,,,,,,,,,,,240,f,18,2023_Mar_21_1655,RL,2021.2.3,59.95189462
0,0,89,0,,,,,,,,,,,,,,,None,None,None,None,None,1059.47335,None,1059.47335,None,1059.47335,None,1059.47335,None,f,0.2696221,1059.47335,None,1059.47335,None,1059.792298,None,1059.792298,None,1059.792298,None,1059.792298,None,1059.792298,None,1059.792298,None,1060.085878,None,1060.085878,None,1061.123798,None,1061.123798,None,1061.123798,None,1061.123798,None,1061.123798,None,1061.123798,None,1061.123798,None,1061.123798,None,1061.123798,None,58,70,48,48,70,48,None,None,None,None,None,None,None,None,None,None,None,None,,None,None,,None,None,None,None,None,None,None,None,None,None,None,None,None,None,,,,,,,,None,None,None,None,-0.6,1,1063.677049,None,1063.677049,None,1063.677049,None,1063.677049,None,1063.677049,None,1063.677049,None,65,1063.677049,None,1063.677049,None,0.00272439,None,1063.677049,None,6.989583333,1.5231075,1066.453403,None,1066.453403,None,1066.453403,None,1066.453403,None,None,None,1067.990664,None,0.016927083,-0.3125,1,0,0,2.7394586,tijiao_random_2,,,,,,,240,f,18,2023_Mar_21_1655,RL,2021.2.3,59.95189462
1,0,90,0,,,,,,,,,,,,,,,None,None,None,None,None,1069.68029,None,1069.68029,None,1069.68029,None,1069.68029,None,f,0.2529245,1069.68029,None,1069.68029,None,1069.982194,None,1069.982194,None,1069.982194,None,1069.982194,None,1069.982194,None,1069.982194,None,1070.276347,None,1070.276347,None,1072.107945,None,1072.107945,None,1072.107945,None,1072.107945,None,1072.107945,None,1072.107945,None,1072.107945,None,1072.107945,None,1072.107945,None,53,67,50,51,67,19,1074.629557,None,7,1.0027894,1074.629557,None,1074.629557,None,1074.629557,None,1074.629557,None,,None,None,,None,None,None,None,None,None,None,None,None,None,None,None,None,None,,,,,,,,None,None,None,None,-0.2,3,None,None,None,None,None,None,None,None,None,None,None,None,,None,None,None,None,None,None,None,None,None,None,None,None,None,None,None,None,None,None,None,None,1075.707944,None,,,,,,,,,,,,,,240,f,18,2023_Mar_21_1655,RL,2021.2.3,59.95189462
0,0,91,0,,,,,,,,,,,,,,,None,None,None,None,None,1077.651791,None,1077.651791,None,1077.651791,None,1077.651791,None,f,0.3513267,1077.651791,None,1077.651791,None,1078.05321,None,1078.05321,None,1078.05321,None,1078.05321,None,1078.05321,None,1078.05321,None,1078.348646,None,1078.348646,None,1079.679525,None,1079.679525,None,1079.679525,None,1079.679525,None,1079.679525,None,1079.679525,None,1079.679525,None,1079.679525,None,1079.679525,None,51,52,42,63,52,58,None,None,None,None,None,None,None,None,None,None,None,None,60,1082.212676,None,60,1082.212676,None,1082.212676,None,1082.212676,None,1082.212676,None,1082.212676,None,1082.212676,None,1082.212676,None,0.087239583,-0.28515625,1,0,0,3.7341253,tijiao,0.01418009,None,1082.212676,None,0.6,0,None,None,None,None,None,None,None,None,None,None,None,None,,None,None,None,None,None,None,None,None,4.971354167,1.7003838,1085.992402,None,1085.992402,None,1085.992402,None,1085.992402,None,None,None,1087.719933,None,,,,,,,,,,,,,,240,f,18,2023_Mar_21_1655,RL,2021.2.3,59.95189462
1,0,92,0,,,,,,,,,,,,,,,None,None,None,None,None,1089.293712,None,1089.293712,None,1089.293712,None,1089.293712,None,r,0.2995993,1089.293712,None,1089.293712,None,1089.644308,None,1089.644308,None,1089.644308,None,1089.644308,None,1089.644308,None,1089.644308,None,1089.940098,None,1089.940098,None,1091.706998,None,1091.706998,None,1091.706998,None,1091.706998,None,1091.706998,None,1091.706998,None,1091.706998,None,1091.706998,None,1091.706998,None,51,56,58,54,51,52,None,None,None,None,None,None,None,None,None,None,None,None,50,1094.237425,None,50,1094.237425,None,1094.237425,None,1094.237425,None,1094.237425,None,1094.237425,None,1094.237425,None,1094.237425,None,-0.078125,-0.272135417,1,0,0,2.8173119,tijiao,0.01516149,None,1094.237425,None,0.6,0,None,None,None,None,None,None,None,None,None,None,None,None,,None,None,None,None,None,None,None,None,5.9609375,1.1991309,1097.100813,None,1097.100813,None,1097.100813,None,1097.100813,None,None,None,1098.326988,None,,,,,,,,,,,,,,240,f,18,2023_Mar_21_1655,RL,2021.2.3,59.95189462
0,0,93,0,,,,,,,,,,,,,,,None,None,None,None,None,1100.101167,None,1100.101167,None,1100.101167,None,1100.101167,None,f,0.2522133,1100.101167,None,1100.101167,None,1100.401473,None,1100.401473,None,1100.401473,None,1100.401473,None,1100.401473,None,1100.401473,None,1100.697607,None,1100.697607,None,1102.527616,None,1102.527616,None,1102.527616,None,1102.527616,None,1102.527616,None,1102.527616,None,1102.527616,None,1102.527616,None,1102.527616,None,51,59,42,54,59,46,1105.048977,None,4,1.9220011,1105.048977,None,1105.048977,None,1105.048977,None,1105.048977,None,,None,None,,None,None,None,None,None,None,None,None,None,None,None,None,None,None,,,,,,,,None,None,None,None,0.6,3,None,None,None,None,None,None,None,None,None,None,None,None,,None,None,None,None,None,None,None,None,None,None,None,None,None,None,None,None,None,None,None,None,1107.023069,None,,,,,,,,,,,,,,240,f,18,2023_Mar_21_1655,RL,2021.2.3,59.95189462
1,0,94,0,,,,,,,,,,,,,,,None,None,None,None,None,1108.807688,None,1108.807688,None,1108.807688,None,1108.807688,None,i,0.2256756,1108.807688,None,1108.807688,None,1109.075611,None,1109.075611,None,1109.075611,None,1109.075611,None,1109.075611,None,1109.075611,None,1109.370035,None,1109.370035,None,1110.901144,None,1110.901144,None,1110.901144,None,1110.901144,None,1110.901144,None,1110.901144,None,1110.901144,None,1110.901144,None,1110.901144,None,54,50,31,56,31,23,1113.42715,None,3,1.2987418,1113.42715,None,1113.42715,None,1113.42715,None,1113.42715,None,,None,None,,None,None,None,None,None,None,None,None,None,None,None,None,None,None,,,,,,,,None,None,None,None,0.6,3,None,None,None,None,None,None,None,None,None,None,None,None,,None,None,None,None,None,None,None,None,None,None,None,None,None,None,None,None,None,None,None,None,1114.776131,None,,,,,,,,,,,,,,240,f,18,2023_Mar_21_1655,RL,2021.2.3,59.95189462
0,0,95,0,,,,,,,,,,,,,,,None,None,None,None,None,1116.412632,None,1116.412632,None,1116.412632,None,1116.412632,None,j,0.2507609,1116.412632,None,1116.412632,None,1116.712286,None,1116.712286,None,1116.712286,None,1116.712286,None,1116.712286,None,1116.712286,None,1117.00875,1117.926204,1117.00875,1117.926204,1117.962014,None,1117.962014,None,1117.962014,None,1117.962014,None,1117.962014,None,1117.962014,None,1117.962014,None,1117.962014,None,1117.962014,None,57,57,36,51,51,55,1120.474175,None,2,1.5216932,1120.474175,None,1120.474175,None,1120.474175,None,1120.474175,None,,None,None,,None,None,None,None,None,None,None,None,None,None,None,None,None,None,,,,,,,,None,None,None,None,0.2,2,None,None,None,None,None,None,None,None,None,None,None,None,,None,None,None,None,None,None,None,None,None,None,None,None,None,None,None,None,None,None,None,None,1122.048266,None,,,,,,,,,,,,,,240,f,18,2023_Mar_21_1655,RL,2021.2.3,59.95189462
1,0,96,0,,,,,,,,,,,,,,,None,None,None,None,None,1123.5677,None,1123.5677,None,1123.5677,None,1123.5677,None,f,0.2759009,1123.5677,None,1123.5677,None,1123.887157,None,1123.887157,None,1123.887157,None,1123.887157,None,1123.887157,None,1123.887157,None,1124.180416,None,1124.180416,None,1125.49533,None,1125.49533,None,1125.49533,None,1125.49533,None,1125.49533,None,1125.49533,None,1125.49533,None,1125.49533,None,1125.49533,None,50,65,37,62,65,41,1128.021762,None,5,1.2328091,1128.021762,None,1128.021762,None,1128.021762,None,1128.021762,None,,None,None,,None,None,None,None,None,None,None,None,None,None,None,None,None,None,,,,,,,,None,None,None,None,0.6,2,None,None,None,None,None,None,None,None,None,None,None,None,,None,None,None,None,None,None,None,None,None,None,None,None,None,None,None,None,None,None,None,None,1129.302031,None,,,,,,,,,,,,,,240,f,18,2023_Mar_21_1655,RL,2021.2.3,59.95189462
0,0,97,0,,,,,,,,,,,,,,,None,None,None,None,None,1131.122657,None,1131.122657,None,1131.122657,None,1131.122657,None,f,0.2508339,1131.122657,None,1131.122657,None,1131.422925,None,1131.422925,None,1131.422925,None,1131.422925,None,1131.422925,None,1131.422925,None,1131.71912,None,1131.71912,None,1133.517636,None,1133.517636,None,1133.517636,None,1133.517636,None,1133.517636,None,1133.517636,None,1133.517636,None,1133.517636,None,1133.517636,None,49,55,50,57,55,48,None,None,None,None,None,None,None,None,None,None,None,None,,None,None,,None,None,None,None,None,None,None,None,None,None,None,None,None,None,,,,,,,,None,None,None,None,-0.6,1,1136.068781,None,1136.068781,None,1136.068781,None,1136.068781,None,1136.068781,None,1136.068781,None,50,1136.068781,None,1136.068781,None,0.01116342,None,1136.068781,None,5.908854167,1.2701925,1139.260826,None,1139.260826,None,1139.260826,None,1139.260826,None,None,None,1140.541384,None,0.06640625,-0.279947917,1,0,0,3.147364,tijiao_random_2,,,,,,,240,f,18,2023_Mar_21_1655,RL,2021.2.3,59.95189462
