bandit0,black_x_pos_random,black_y_pos_random,trials.thisRepN,trials.thisTrialN,trials.thisN,trials.thisIndex,instru_img1.started,instru_img1.stopped,instru_resp.keys,instru_resp.rt,instru_resp.started,instru_resp.stopped,instru_img2.started,instru_img2.stopped,instru_resp2.keys,instru_resp2.rt,instru_resp2.started,instru_resp2.stopped,fixbefore_2.started,fixbefore_2.stopped,rest_image.started,rest_image.stopped,rest_response.keys,rest_response.started,rest_response.stopped,red.started,red.stopped,green.started,green.stopped,yellow.started,yellow.stopped,blue.started,blue.stopped,choose_bandit.keys,choose_bandit.rt,choose_bandit.started,choose_bandit.stopped,Fixation.started,Fixation.stopped,black.started,black.stopped,red_2.started,red_2.stopped,green_2.started,green_2.stopped,yellow_2.started,yellow_2.stopped,blue_2.started,blue_2.stopped,fixation_2.started,fixation_2.stopped,docs.started,docs.stopped,wait_playerB.started,wait_playerB.stopped,black_com.started,black_com.stopped,reward_sub.started,reward_sub.stopped,palyerb.started,palyerb.stopped,reward__sub.started,reward__sub.stopped,compare.started,compare.stopped,red_compare.started,red_compare.stopped,green_com.started,green_com.stopped,yellow_com.started,yellow_com.stopped,blue_com.started,blue_com.stopped,rewardyellow,rewardred,rewardblue,rewardgreen,subchoose,playerb,image_3.started,image_3.stopped,slider.response,slider.rt,slider.started,slider.stopped,text.started,text.stopped,image_4.started,image_4.stopped,image_5.started,image_5.stopped,expectself.text,expectself.started,expectself.stopped,value_expect_self,expect_self_black.started,expect_self_black.stopped,expect_self.started,expect_self.stopped,expect_self_red.started,expect_self_red.stopped,expect_self_green.started,expect_self_green.stopped,expect_self_yellow.started,expect_self_yellow.stopped,expect_self_blue.started,expect_self_blue.stopped,tijiao.started,tijiao.stopped,tijiao_click.started,tijiao_click.stopped,check.started,check.stopped,random_whicharm,whether_ask,jiantou_random.started,jiantou_random.stopped,expect_red.started,expect_red.stopped,expect_green.started,expect_green.stopped,expect_yellow.started,expect_yellow.stopped,expect_blue.started,expect_blue.stopped,expect_random_2.started,expect_random_2.stopped,expect_random_3.text,expect_random_3.started,expect_random_3.stopped,tijiao_random_2.started,tijiao_random_2.stopped,tijiao_random.x,tijiao_random.y,tijiao_random.leftButton,tijiao_random.midButton,tijiao_random.rightButton,tijiao_random.time,tijiao_random.clicked_name,tijiao_random.started,tijiao_random.stopped,check_2.started,check_2.stopped,slider_2.response,slider_2.rt,slider_2.started,slider_2.stopped,image_7.started,image_7.stopped,confi.started,confi.stopped,notconfi.started,notconfi.stopped,bigx.started,bigx.stopped,intertrialfix.started,intertrialfix.stopped,tijiao_click.x,tijiao_click.y,tijiao_click.leftButton,tijiao_click.midButton,tijiao_click.rightButton,tijiao_click.time,tijiao_click.clicked_name,rest_response.rt,participant,Gender,Age,date,expName,psychopyVersion,frameRate,
,,,,,,,13.870718199992552,None,space,2.2098605999490246,13.870718199992552,None,,,,,,,,,,,,,,,,,,,,,,,,,,,,,,,,,,,,,,,,,,,,,,,,,,,,,,,,,,,,,,,,,,,,,,,,,,,,,,,,,,,,,,,,,,,,,,,,,,,,,,,,,,,,,,,,,,,,,,,,,,,,,,,,,,,,,,,,,,,,,,,,,,,,,,,,,,241,f,22,2023_Mar_22_1003,RL,2021.2.3,59.93701819014226,
,,,,,,,,,,,,,16.115819400001783,None,s,10.594589799991809,16.115819400001783,None,,,,,,,,,,,,,,,,,,,,,,,,,,,,,,,,,,,,,,,,,,,,,,,,,,,,,,,,,,,,,,,,,,,,,,,,,,,,,,,,,,,,,,,,,,,,,,,,,,,,,,,,,,,,,,,,,,,,,,,,,,,,,,,,,,,,,,,,,,,,,,,,,,,,241,f,22,2023_Mar_22_1003,RL,2021.2.3,59.93701819014226,
1,-0.3,-0.225,0,0,0,0,,,,,,,,,,,,,26.73773130000336,None,None,None,None,None,None,27.822256900020875,None,27.822256900020875,None,27.822256900020875,None,27.822256900020875,None,r,0.5083317999960855,27.822256900020875,None,27.822256900020875,None,28.44584549998399,None,28.44584549998399,None,28.44584549998399,None,28.44584549998399,None,28.44584549998399,None,28.44584549998399,None,28.729029999987688,29.929587899998296,28.729029999987688,29.929587899998296,30.018119600019418,None,30.018119600019418,None,30.018119600019418,None,30.018119600019418,None,30.018119600019418,None,30.018119600019418,None,30.018119600019418,None,30.018119600019418,None,30.018119600019418,None,48,26,57,46,48,44,None,None,None,None,None,None,None,None,None,None,None,None,,None,None,,None,None,None,None,None,None,None,None,None,None,None,None,None,None,None,None,None,None,-0.6,1,32.93933120003203,None,32.93933120003203,None,32.93933120003203,None,32.93933120003203,None,32.93933120003203,None,32.93933120003203,None,48,32.93933120003203,None,32.93933120003203,None,-0.033854166666666664,-0.2864583333333333,1,0,0,4.87178159999894,tijiao_random_2,0.0005556500400416553,None,32.93933120003203,None,11,3.6419525999808684,37.987284400034696,None,37.987284400034696,None,37.987284400034696,None,37.987284400034696,None,None,None,41.71915289998287,None,,,,,,,,,241,f,22,2023_Mar_22_1003,RL,2021.2.3,59.93701819014226,
0,0.3,0.225,0,1,1,1,,,,,,,,,,,,,,,None,None,None,None,None,43.45924150000792,None,43.45924150000792,None,43.45924150000792,None,43.45924150000792,None,f,0.4316433999920264,43.45924150000792,None,43.45924150000792,None,43.93203790002735,None,43.93203790002735,None,43.93203790002735,None,43.93203790002735,None,43.93203790002735,None,43.93203790002735,None,44.222883599984925,None,44.222883599984925,None,45.574344800028484,None,45.574344800028484,None,45.574344800028484,None,45.574344800028484,None,45.574344800028484,None,45.574344800028484,None,45.574344800028484,None,45.574344800028484,None,45.574344800028484,None,58,34,66,45,34,39,None,None,None,None,None,None,None,None,None,None,None,None,,None,None,,None,None,None,None,None,None,None,None,None,None,None,None,None,None,None,None,None,None,-0.2,1,48.11902809998719,None,48.11902809998719,None,48.11902809998719,None,48.11902809998719,None,48.11902809998719,None,48.11902809998719,None,34,48.11902809998719,None,48.11902809998719,None,0.11067708333333333,-0.29296875,1,0,0,5.202437400002964,tijiao_random_2,0.014814319962169975,None,48.11902809998719,None,10.947916666666668,1.2956587999942712,53.35917300003348,None,53.35917300003348,None,53.35917300003348,None,53.35917300003348,None,None,None,54.678227600001264,None,,,,,,,,,241,f,22,2023_Mar_22_1003,RL,2021.2.3,59.93701819014226,
1,-0.3,-0.225,0,2,2,2,,,,,,,,,,,,,,,None,None,None,None,None,56.518673399987165,None,56.518673399987165,None,56.518673399987165,None,56.518673399987165,None,i,0.4919674000120722,56.518673399987165,None,56.518673399987165,None,57.05948029999854,None,57.05948029999854,None,57.05948029999854,None,57.05948029999854,None,57.05948029999854,None,57.05948029999854,None,57.34870370000135,None,57.34870370000135,None,58.64840780000668,None,58.64840780000668,None,58.64840780000668,None,58.64840780000668,None,58.64840780000668,None,58.64840780000668,None,58.64840780000668,None,58.64840780000668,None,58.64840780000668,None,59,28,63,41,63,61,None,None,None,None,None,None,None,None,None,None,None,None,,None,None,,None,None,None,None,None,None,None,None,None,None,None,None,None,None,None,None,None,None,-0.2,1,61.191279600025155,None,61.191279600025155,None,61.191279600025155,None,61.191279600025155,None,61.191279600025155,None,61.191279600025155,None,34,61.191279600025155,None,61.191279600025155,None,0.10286458333333333,-0.2903645833333333,1,0,0,6.756794500048272,tijiao_random_2,0.0012800900149159133,None,61.191279600025155,None,7.940104166666666,2.2066956000053324,67.99168670002837,None,67.99168670002837,None,67.99168670002837,None,67.99168670002837,None,None,None,70.22418940003263,None,,,,,,,,,241,f,22,2023_Mar_22_1003,RL,2021.2.3,59.93701819014226,
0,0.3,0.225,0,3,3,3,,,,,,,,,,,,,,,None,None,None,None,None,71.84691530000418,None,71.84691530000418,None,71.84691530000418,None,71.84691530000418,None,j,0.37381269998149946,71.84691530000418,None,71.84691530000418,None,72.26710230001481,None,72.26710230001481,None,72.26710230001481,None,72.26710230001481,None,72.26710230001481,None,72.26710230001481,None,72.559188299987,74.24395490001189,72.559188299987,74.24395490001189,74.28337509999983,None,74.28337509999983,None,74.28337509999983,None,74.28337509999983,None,74.28337509999983,None,74.28337509999983,None,74.28337509999983,None,74.28337509999983,None,74.28337509999983,None,54,41,58,44,44,53,76.79810299997916,None,6.0,2.3709433000185527,76.79810299997916,None,76.79810299997916,None,76.79810299997916,None,76.79810299997916,None,,None,None,,None,None,None,None,None,None,None,None,None,None,None,None,None,None,None,None,None,None,0.2,3,None,None,None,None,None,None,None,None,None,None,None,None,,None,None,None,None,,,,,,,,None,None,None,None,None,None,None,None,None,None,None,None,None,None,None,None,79.33994149998762,None,,,,,,,,,241,f,22,2023_Mar_22_1003,RL,2021.2.3,59.93701819014226,
1,-0.3,-0.225,0,4,4,4,,,,,,,,,,,,,,,None,None,None,None,None,81.18610019999323,None,81.18610019999323,None,81.18610019999323,None,81.18610019999323,None,i,0.5146574999671429,81.18610019999323,None,81.18610019999323,None,81.7398987999768,None,81.7398987999768,None,81.7398987999768,None,81.7398987999768,None,81.7398987999768,None,81.7398987999768,None,82.03248100000201,None,82.03248100000201,None,83.83004620001884,None,83.83004620001884,None,83.83004620001884,None,83.83004620001884,None,83.83004620001884,None,83.83004620001884,None,83.83004620001884,None,83.83004620001884,None,83.83004620001884,None,44,36,58,48,58,62,86.35490510001546,None,6.0,2.084746200009249,86.35490510001546,None,86.35490510001546,None,86.35490510001546,None,86.35490510001546,None,,None,None,,None,None,None,None,None,None,None,None,None,None,None,None,None,None,None,None,None,None,0.6,2,None,None,None,None,None,None,None,None,None,None,None,None,,None,None,None,None,,,,,,,,None,None,None,None,None,None,None,None,None,None,None,None,None,None,None,None,88.50019150000298,None,,,,,,,,,241,f,22,2023_Mar_22_1003,RL,2021.2.3,59.93701819014226,
0,0.3,0.225,0,5,5,5,,,,,,,,,,,,,,,None,None,None,None,None,90.37716909998562,None,90.37716909998562,None,90.37716909998562,None,90.37716909998562,None,f,0.33365889999549836,90.37716909998562,None,90.37716909998562,None,90.76039670000318,None,90.76039670000318,None,90.76039670000318,None,90.76039670000318,None,90.76039670000318,None,90.76039670000318,None,91.05550399998901,None,91.05550399998901,None,92.82139749999624,None,92.82139749999624,None,92.82139749999624,None,92.82139749999624,None,92.82139749999624,None,92.82139749999624,None,92.82139749999624,None,92.82139749999624,None,92.82139749999624,None,45,43,59,45,43,34,None,None,None,None,None,None,None,None,None,None,None,None,,None,None,,None,None,None,None,None,None,None,None,None,None,None,None,None,None,None,None,None,None,-0.6,1,95.37427500000922,None,95.37427500000922,None,95.37427500000922,None,95.37427500000922,None,95.37427500000922,None,95.37427500000922,None,41,95.37427500000922,None,95.37427500000922,None,0.08854166666666667,-0.2890625,1,0,0,9.966427900013514,tijiao_random_2,0.008820820017717779,None,95.37427500000922,None,6.078125,5.932911200041417,105.37343229999533,None,105.37343229999533,None,105.37343229999533,None,105.37343229999533,None,None,None,111.31890060001751,None,,,,,,,,,241,f,22,2023_Mar_22_1003,RL,2021.2.3,59.93701819014226,
1,-0.3,-0.225,0,6,6,6,,,,,,,,,,,,,,,None,None,None,None,None,112.84164160001092,None,112.84164160001092,None,112.84164160001092,None,112.84164160001092,None,r,0.4304668999975547,112.84164160001092,None,112.84164160001092,None,113.30891630001133,None,113.30891630001133,None,113.30891630001133,None,113.30891630001133,None,113.30891630001133,None,113.30891630001133,None,113.60473000002094,114.58844110002974,113.60473000002094,114.58844110002974,114.6211856000009,None,114.6211856000009,None,114.6211856000009,None,114.6211856000009,None,114.6211856000009,None,114.6211856000009,None,114.6211856000009,None,114.6211856000009,None,114.6211856000009,None,49,43,58,59,49,51,None,None,None,None,None,None,None,None,None,None,None,None,,None,None,,None,None,None,None,None,None,None,None,None,None,None,None,None,None,None,None,None,None,0.6,1,117.17573660000926,None,117.17573660000926,None,117.17573660000926,None,117.17573660000926,None,117.17573660000926,None,117.17573660000926,None,52,117.17573660000926,None,117.17573660000926,None,0.01953125,-0.2994791666666667,1,0,0,7.0616328999749385,tijiao_random_2,0.006257519999053329,None,117.17573660000926,None,3.981770833333334,2.996296600031201,124.27243379998254,None,124.27243379998254,None,124.27243379998254,None,124.27243379998254,None,None,None,127.28011180000613,None,,,,,,,,,241,f,22,2023_Mar_22_1003,RL,2021.2.3,59.93701819014226,
0,0.3,0.225,0,7,7,7,,,,,,,,,,,,,,,None,None,None,None,None,129.03568780003116,None,129.03568780003116,None,129.03568780003116,None,129.03568780003116,None,i,0.3465688999858685,129.03568780003116,None,129.03568780003116,None,129.41873939998914,None,129.41873939998914,None,129.41873939998914,None,129.41873939998914,None,129.41873939998914,None,129.41873939998914,None,129.71499090001453,None,129.71499090001453,None,130.6790953000309,None,130.6790953000309,None,130.6790953000309,None,130.6790953000309,None,130.6790953000309,None,130.6790953000309,None,130.6790953000309,None,130.6790953000309,None,130.6790953000309,None,49,39,65,47,65,46,None,None,None,None,None,None,None,None,None,None,None,None,65,133.21923659997992,None,65,133.21923659997992,None,133.21923659997992,None,133.21923659997992,None,133.21923659997992,None,133.21923659997992,None,133.21923659997992,None,133.21923659997992,None,0.009019390039611608,None,133.21923659997992,None,0.2,0,None,None,None,None,None,None,None,None,None,None,None,None,,None,None,None,None,,,,,,,,None,None,None,None,5.895833333333333,2.3895451999851502,138.35221749998163,None,138.35221749998163,None,138.35221749998163,None,138.35221749998163,None,None,None,140.77108859998407,None,-0.04296875,-0.28125,1,0,0,5.064024800027255,tijiao,,241,f,22,2023_Mar_22_1003,RL,2021.2.3,59.93701819014226,
1,-0.3,-0.225,0,8,8,8,,,,,,,,,,,,,,,None,None,None,None,None,142.64416660001734,None,142.64416660001734,None,142.64416660001734,None,142.64416660001734,None,i,0.5480458000092767,142.64416660001734,None,142.64416660001734,None,143.23113919998286,None,143.23113919998286,None,143.23113919998286,None,143.23113919998286,None,143.23113919998286,None,143.23113919998286,None,143.5251401999849,144.99292450002395,143.5251401999849,144.99292450002395,145.02871739998227,None,145.02871739998227,None,145.02871739998227,None,145.02871739998227,None,145.02871739998227,None,145.02871739998227,None,145.02871739998227,None,145.02871739998227,None,145.02871739998227,None,55,43,60,61,60,51,None,None,None,None,None,None,None,None,None,None,None,None,58,147.56230190000497,None,58,147.56230190000497,None,147.56230190000497,None,147.56230190000497,None,147.56230190000497,None,147.56230190000497,None,147.56230190000497,None,147.56230190000497,None,0.008622390043456107,None,147.56230190000497,None,-0.2,0,None,None,None,None,None,None,None,None,None,None,None,None,,None,None,None,None,,,,,,,,None,None,None,None,3.018229166666667,8.119260299950838,162.21095179999247,None,162.21095179999247,None,162.21095179999247,None,162.21095179999247,None,None,None,170.35841370001435,None,0.0013020833333333333,-0.296875,1,0,0,14.60243550001178,tijiao,,241,f,22,2023_Mar_22_1003,RL,2021.2.3,59.93701819014226,
0,0.3,0.225,0,9,9,9,,,,,,,,,,,,,,,None,None,None,None,None,172.16566519998014,None,172.16566519998014,None,172.16566519998014,None,172.16566519998014,None,j,0.3768835000228137,172.16566519998014,None,172.16566519998014,None,172.58618009998463,None,172.58618009998463,None,172.58618009998463,None,172.58618009998463,None,172.58618009998463,None,172.58618009998463,None,172.86217849998502,174.69722279999405,172.86217849998502,174.69722279999405,174.74864310002886,None,174.74864310002886,None,174.74864310002886,None,174.74864310002886,None,174.74864310002886,None,174.74864310002886,None,174.74864310002886,None,174.74864310002886,None,174.74864310002886,None,50,41,59,53,53,57,177.26487559999805,None,5.0,3.3203034000471234,177.26487559999805,None,177.26487559999805,None,177.26487559999805,None,177.26487559999805,None,,None,None,,None,None,None,None,None,None,None,None,None,None,None,None,None,None,None,None,None,None,-0.2,3,None,None,None,None,None,None,None,None,None,None,None,None,,None,None,None,None,,,,,,,,None,None,None,None,None,None,None,None,None,None,None,None,None,None,None,None,180.63954910001485,None,,,,,,,,,241,f,22,2023_Mar_22_1003,RL,2021.2.3,59.93701819014226,
1,-0.3,-0.225,0,10,10,10,,,,,,,,,,,,,,,None,None,None,None,None,182.52414910000516,None,182.52414910000516,None,182.52414910000516,None,182.52414910000516,None,r,0.5483312000287697,182.52414910000516,None,182.52414910000516,None,183.1256732000038,None,183.1256732000038,None,183.1256732000038,None,183.1256732000038,None,183.1256732000038,None,183.1256732000038,None,183.41948420001427,184.7038934000302,183.41948420001427,184.7038934000302,184.73512510000728,None,184.73512510000728,None,184.73512510000728,None,184.73512510000728,None,184.73512510000728,None,184.73512510000728,None,184.73512510000728,None,184.73512510000728,None,184.73512510000728,None,53,48,55,51,53,37,187.25354340003105,None,5.0,4.924503500049468,187.25354340003105,None,187.25354340003105,None,187.25354340003105,None,187.25354340003105,None,,None,None,,None,None,None,None,None,None,None,None,None,None,None,None,None,None,None,None,None,None,0.6,2,None,None,None,None,None,None,None,None,None,None,None,None,,None,None,None,None,,,,,,,,None,None,None,None,None,None,None,None,None,None,None,None,None,None,None,None,192.23718860000372,None,,,,,,,,,241,f,22,2023_Mar_22_1003,RL,2021.2.3,59.93701819014226,
0,0.3,0.225,0,11,11,11,,,,,,,,,,,,,,,None,None,None,None,None,194.18131860002177,None,194.18131860002177,None,194.18131860002177,None,194.18131860002177,None,f,0.6813818999798968,194.18131860002177,None,194.18131860002177,None,194.9161539999768,None,194.9161539999768,None,194.9161539999768,None,194.9161539999768,None,194.9161539999768,None,194.9161539999768,None,195.21125669998582,196.52872719999868,195.21125669998582,196.52872719999868,196.56372019997798,None,196.56372019997798,None,196.56372019997798,None,196.56372019997798,None,196.56372019997798,None,196.56372019997798,None,196.56372019997798,None,196.56372019997798,None,196.56372019997798,None,57,50,61,61,50,57,199.0773685000022,None,5.0,2.056471799965948,199.0773685000022,None,199.0773685000022,None,199.0773685000022,None,199.0773685000022,None,,None,None,,None,None,None,None,None,None,None,None,None,None,None,None,None,None,None,None,None,None,0.6,2,None,None,None,None,None,None,None,None,None,None,None,None,,None,None,None,None,,,,,,,,None,None,None,None,None,None,None,None,None,None,None,None,None,None,None,None,201.18798580003204,None,,,,,,,,,241,f,22,2023_Mar_22_1003,RL,2021.2.3,59.93701819014226,
1,-0.3,-0.225,0,12,12,12,,,,,,,,,,,,,,,None,None,None,None,None,203.18750719999662,None,203.18750719999662,None,203.18750719999662,None,203.18750719999662,None,i,0.3651462999987416,203.18750719999662,None,203.18750719999662,None,203.60451340000145,None,203.60451340000145,None,203.60451340000145,None,203.60451340000145,None,203.60451340000145,None,203.60451340000145,None,203.90044480003417,None,203.90044480003417,None,205.68228499998804,None,205.68228499998804,None,205.68228499998804,None,205.68228499998804,None,205.68228499998804,None,205.68228499998804,None,205.68228499998804,None,205.68228499998804,None,205.68228499998804,None,55,50,50,61,50,28,208.21060520003084,None,5.0,1.6326882000430487,208.21060520003084,None,208.21060520003084,None,208.21060520003084,None,208.21060520003084,None,,None,None,,None,None,None,None,None,None,None,None,None,None,None,None,None,None,None,None,None,None,0.6,2,None,None,None,None,None,None,None,None,None,None,None,None,,None,None,None,None,,,,,,,,None,None,None,None,None,None,None,None,None,None,None,None,None,None,None,None,209.8904263000004,None,,,,,,,,,241,f,22,2023_Mar_22_1003,RL,2021.2.3,59.93701819014226,
0,0.3,0.225,0,13,13,13,,,,,,,,,,,,,,,None,None,None,None,None,211.67718240001705,None,211.67718240001705,None,211.67718240001705,None,211.67718240001705,None,j,0.5155525999725796,211.67718240001705,None,211.67718240001705,None,212.24593199999072,None,212.24593199999072,None,212.24593199999072,None,212.24593199999072,None,212.24593199999072,None,212.24593199999072,None,212.53971829998773,None,212.53971829998773,None,213.43937199999345,None,213.43937199999345,None,213.43937199999345,None,213.43937199999345,None,213.43937199999345,None,213.43937199999345,None,213.43937199999345,None,213.43937199999345,None,213.43937199999345,None,58,49,49,50,50,51,215.95775200001663,None,6.0,3.5383852000231855,215.95775200001663,None,215.95775200001663,None,215.95775200001663,None,215.95775200001663,None,,None,None,,None,None,None,None,None,None,None,None,None,None,None,None,None,None,None,None,None,None,-0.6,2,None,None,None,None,None,None,None,None,None,None,None,None,,None,None,None,None,,,,,,,,None,None,None,None,None,None,None,None,None,None,None,None,None,None,None,None,219.5496540000313,None,,,,,,,,,241,f,22,2023_Mar_22_1003,RL,2021.2.3,59.93701819014226,
1,-0.3,-0.225,0,14,14,14,,,,,,,,,,,,,,,None,None,None,None,None,221.43352150003193,None,221.43352150003193,None,221.43352150003193,None,221.43352150003193,None,f,0.4292468000203371,221.43352150003193,None,221.43352150003193,None,221.90493690001313,None,221.90493690001313,None,221.90493690001313,None,221.90493690001313,None,221.90493690001313,None,221.90493690001313,None,222.1799641000107,223.180535099993,222.1799641000107,223.180535099993,223.2107556000119,None,223.2107556000119,None,223.2107556000119,None,223.2107556000119,None,223.2107556000119,None,223.2107556000119,None,223.2107556000119,None,223.2107556000119,None,223.2107556000119,None,45,54,60,52,54,54,None,None,None,None,None,None,None,None,None,None,None,None,45,225.7453781000222,None,45,225.7453781000222,None,225.7453781000222,None,225.7453781000222,None,225.7453781000222,None,225.7453781000222,None,225.7453781000222,None,225.7453781000222,None,0.012866489996667951,None,225.7453781000222,None,0.2,0,None,None,None,None,None,None,None,None,None,None,None,None,,None,None,None,None,,,,,,,,None,None,None,None,3.0703125,3.5318310000002384,234.0783210999798,None,234.0783210999798,None,234.0783210999798,None,234.0783210999798,None,None,None,237.6312995000044,None,0.07161458333333333,-0.2799479166666667,1,0,0,8.287004499987233,tijiao,,241,f,22,2023_Mar_22_1003,RL,2021.2.3,59.93701819014226,
0,0.3,0.225,0,15,15,15,,,,,,,,,,,,,,,None,None,None,None,None,239.17932639998617,None,239.17932639998617,None,239.17932639998617,None,239.17932639998617,None,i,0.4337746000383049,239.17932639998617,None,239.17932639998617,None,239.6645220000064,None,239.6645220000064,None,239.6645220000064,None,239.6645220000064,None,239.6645220000064,None,239.6645220000064,None,239.9587726999889,241.72690850001527,239.9587726999889,241.72690850001527,241.76044620003086,None,241.76044620003086,None,241.76044620003086,None,241.76044620003086,None,241.76044620003086,None,241.76044620003086,None,241.76044620003086,None,241.76044620003086,None,241.76044620003086,None,48,48,53,44,53,52,None,None,None,None,None,None,None,None,None,None,None,None,36,244.29481900000246,None,36,244.29481900000246,None,244.29481900000246,None,244.29481900000246,None,244.29481900000246,None,244.29481900000246,None,244.29481900000246,None,244.29481900000246,None,0.00903379003284499,None,244.29481900000246,None,0.6,0,None,None,None,None,None,None,None,None,None,None,None,None,,None,None,None,None,,,,,,,,None,None,None,None,2.9921875,3.8469359000446275,253.486832900031,None,253.486832900031,None,253.486832900031,None,253.486832900031,None,None,None,257.3534466000274,None,-0.0234375,-0.2955729166666667,1,0,0,9.149937699956354,tijiao,,241,f,22,2023_Mar_22_1003,RL,2021.2.3,59.93701819014226,
1,-0.3,-0.225,0,16,16,16,,,,,,,,,,,,,,,None,None,None,None,None,259.25966560002416,None,259.25966560002416,None,259.25966560002416,None,259.25966560002416,None,i,0.4735937000368722,259.25966560002416,None,259.25966560002416,None,259.78037230001064,None,259.78037230001064,None,259.78037230001064,None,259.78037230001064,None,259.78037230001064,None,259.78037230001064,None,260.05604260001564,261.97415339999134,260.05604260001564,261.97415339999134,262.00449500000104,None,262.00449500000104,None,262.00449500000104,None,262.00449500000104,None,262.00449500000104,None,262.00449500000104,None,262.00449500000104,None,262.00449500000104,None,262.00449500000104,None,48,47,64,51,64,28,264.52292279998073,None,5.0,2.7745136999874376,264.52292279998073,None,264.52292279998073,None,264.52292279998073,None,264.52292279998073,None,,None,None,,None,None,None,None,None,None,None,None,None,None,None,None,None,None,None,None,None,None,0.6,2,None,None,None,None,None,None,None,None,None,None,None,None,,None,None,None,None,,,,,,,,None,None,None,None,None,None,None,None,None,None,None,None,None,None,None,None,267.35635970003204,None,,,,,,,,,241,f,22,2023_Mar_22_1003,RL,2021.2.3,59.93701819014226,
0,0.3,0.225,0,17,17,17,,,,,,,,,,,,,,,None,None,None,None,None,269.1002727000159,None,269.1002727000159,None,269.1002727000159,None,269.1002727000159,None,f,0.6427914999658242,269.1002727000159,None,269.1002727000159,None,269.7896064000088,None,269.7896064000088,None,269.7896064000088,None,269.7896064000088,None,269.7896064000088,None,269.7896064000088,None,270.07992970000487,None,270.07992970000487,None,271.09544810000807,None,271.09544810000807,None,271.09544810000807,None,271.09544810000807,None,271.09544810000807,None,271.09544810000807,None,271.09544810000807,None,271.09544810000807,None,271.09544810000807,None,55,58,63,39,58,33,273.6117527000024,None,5.0,3.224868199962657,273.6117527000024,None,273.6117527000024,None,273.6117527000024,None,273.6117527000024,None,,None,None,,None,None,None,None,None,None,None,None,None,None,None,None,None,None,None,None,None,None,-0.2,2,None,None,None,None,None,None,None,None,None,None,None,None,,None,None,None,None,,,,,,,,None,None,None,None,None,None,None,None,None,None,None,None,None,None,None,None,276.88779000000795,None,,,,,,,,,241,f,22,2023_Mar_22_1003,RL,2021.2.3,59.93701819014226,
1,-0.3,-0.225,0,18,18,18,,,,,,,,,,,,,,,None,None,None,None,None,278.40654270001687,None,278.40654270001687,None,278.40654270001687,None,278.40654270001687,None,i,0.4277427999768406,278.40654270001687,None,278.40654270001687,None,278.87671959999716,None,278.87671959999716,None,278.87671959999716,None,278.87671959999716,None,278.87671959999716,None,278.87671959999716,None,279.16937610000605,None,279.16937610000605,None,280.467621400021,None,280.467621400021,None,280.467621400021,None,280.467621400021,None,280.467621400021,None,280.467621400021,None,280.467621400021,None,280.467621400021,None,280.467621400021,None,47,52,55,46,55,50,None,None,None,None,None,None,None,None,None,None,None,None,56,282.9971707999939,None,56,282.9971707999939,None,282.9971707999939,None,282.9971707999939,None,282.9971707999939,None,282.9971707999939,None,282.9971707999939,None,282.9971707999939,None,0.00011545995948836207,None,282.9971707999939,None,0.2,0,None,None,None,None,None,None,None,None,None,None,None,None,,None,None,None,None,,,,,,,,None,None,None,None,2.080729166666667,3.391243099991698,293.3932981999824,None,293.3932981999824,None,293.3932981999824,None,293.3932981999824,None,None,None,296.8128694000188,None,0.08333333333333333,-0.3072916666666667,1,0,0,10.342108900018502,tijiao,,241,f,22,2023_Mar_22_1003,RL,2021.2.3,59.93701819014226,
0,0.3,0.225,0,19,19,19,,,,,,,,,,,,,,,None,None,None,None,None,298.40379040001426,None,298.40379040001426,None,298.40379040001426,None,298.40379040001426,None,r,0.4504351000068709,298.40379040001426,None,298.40379040001426,None,298.90510109998286,None,298.90510109998286,None,298.90510109998286,None,298.90510109998286,None,298.90510109998286,None,298.90510109998286,None,299.1999982999987,None,299.1999982999987,None,300.93220969999675,None,300.93220969999675,None,300.93220969999675,None,300.93220969999675,None,300.93220969999675,None,300.93220969999675,None,300.93220969999675,None,300.93220969999675,None,300.93220969999675,None,50,54,58,49,50,58,303.449446899991,None,4.0,4.909269800002221,303.449446899991,None,303.449446899991,None,303.449446899991,None,303.449446899991,None,,None,None,,None,None,None,None,None,None,None,None,None,None,None,None,None,None,None,None,None,None,-0.2,2,None,None,None,None,None,None,None,None,None,None,None,None,,None,None,None,None,,,,,,,,None,None,None,None,None,None,None,None,None,None,None,None,None,None,None,None,308.4127340000123,None,,,,,,,,,241,f,22,2023_Mar_22_1003,RL,2021.2.3,59.93701819014226,
1,-0.3,-0.225,0,20,20,20,,,,,,,,,,,,,,,None,None,None,None,None,310.1952846000204,None,310.1952846000204,None,310.1952846000204,None,310.1952846000204,None,i,0.4792922999477014,310.1952846000204,None,310.1952846000204,None,310.71387420000974,None,310.71387420000974,None,310.71387420000974,None,310.71387420000974,None,310.71387420000974,None,310.71387420000974,None,311.0082607999793,None,311.0082607999793,None,312.1884919999866,None,312.1884919999866,None,312.1884919999866,None,312.1884919999866,None,312.1884919999866,None,312.1884919999866,None,312.1884919999866,None,312.1884919999866,None,312.1884919999866,None,52,50,56,41,56,63,314.7143124000286,None,4.0,2.017168099991977,314.7143124000286,None,314.7143124000286,None,314.7143124000286,None,314.7143124000286,None,,None,None,,None,None,None,None,None,None,None,None,None,None,None,None,None,None,None,None,None,None,0.6,3,None,None,None,None,None,None,None,None,None,None,None,None,,None,None,None,None,,,,,,,,None,None,None,None,None,None,None,None,None,None,None,None,None,None,None,None,316.7799683000194,None,,,,,,,,,241,f,22,2023_Mar_22_1003,RL,2021.2.3,59.93701819014226,
0,0.3,0.225,0,21,21,21,,,,,,,,,,,,,,,None,None,None,None,None,318.75080919999164,None,318.75080919999164,None,318.75080919999164,None,318.75080919999164,None,j,0.5138175000320189,318.75080919999164,None,318.75080919999164,None,319.3050013000029,None,319.3050013000029,None,319.3050013000029,None,319.3050013000029,None,319.3050013000029,None,319.3050013000029,None,319.5808361999807,320.5982788000256,319.5808361999807,320.5982788000256,320.64629639999475,None,320.64629639999475,None,320.64629639999475,None,320.64629639999475,None,320.64629639999475,None,320.64629639999475,None,320.64629639999475,None,320.64629639999475,None,320.64629639999475,None,51,50,48,36,36,57,None,None,None,None,None,None,None,None,None,None,None,None,60,323.17492910003057,None,60,323.17492910003057,None,323.17492910003057,None,323.17492910003057,None,323.17492910003057,None,323.17492910003057,None,323.17492910003057,None,323.17492910003057,None,0.00016226002480834723,None,323.17492910003057,None,0.2,0,None,None,None,None,None,None,None,None,None,None,None,None,,None,None,None,None,,,,,,,,None,None,None,None,1.130208333333333,3.8182266000076197,330.19552840001415,None,330.19552840001415,None,330.19552840001415,None,330.19552840001415,None,None,None,334.04210369999055,None,0.06510416666666667,-0.28515625,1,0,0,6.972446399973705,tijiao,,241,f,22,2023_Mar_22_1003,RL,2021.2.3,59.93701819014226,
1,-0.3,-0.225,0,22,22,22,,,,,,,,,,,,,,,None,None,None,None,None,335.9088918999769,None,335.9088918999769,None,335.9088918999769,None,335.9088918999769,None,f,0.3957050000317395,335.9088918999769,None,335.9088918999769,None,336.34900540002855,None,336.34900540002855,None,336.34900540002855,None,336.34900540002855,None,336.34900540002855,None,336.34900540002855,None,336.6422427999787,None,336.6422427999787,None,338.17311680002604,None,338.17311680002604,None,338.17311680002604,None,338.17311680002604,None,338.17311680002604,None,338.17311680002604,None,338.17311680002604,None,338.17311680002604,None,338.17311680002604,None,54,49,49,39,49,63,None,None,None,None,None,None,None,None,None,None,None,None,,None,None,,None,None,None,None,None,None,None,None,None,None,None,None,None,None,None,None,None,None,0.6,1,340.7187965000048,None,340.7187965000048,None,340.7187965000048,None,340.7187965000048,None,340.7187965000048,None,340.7187965000048,None,43,340.7187965000048,None,340.7187965000048,None,-0.10546875,-0.3046875,1,0,0,7.14095010003075,tijiao_random_2,0.0013220900436863303,None,340.7187965000048,None,1.091145833333333,2.201262099959422,347.9145751000033,None,347.9145751000033,None,347.9145751000033,None,347.9145751000033,None,None,None,350.1181496999925,None,,,,,,,,,241,f,22,2023_Mar_22_1003,RL,2021.2.3,59.93701819014226,
0,0.3,0.225,0,23,23,23,,,,,,,,,,,,,,,None,None,None,None,None,352.0395654999884,None,352.0395654999884,None,352.0395654999884,None,352.0395654999884,None,i,0.8050572999636643,352.0395654999884,None,352.0395654999884,None,352.8902599000139,None,352.8902599000139,None,352.8902599000139,None,352.8902599000139,None,352.8902599000139,None,352.8902599000139,None,353.18743960000575,None,353.18743960000575,None,355.1069707000279,None,355.1069707000279,None,355.1069707000279,None,355.1069707000279,None,355.1069707000279,None,355.1069707000279,None,355.1069707000279,None,355.1069707000279,None,355.1069707000279,None,61,50,43,36,43,58,None,None,None,None,None,None,None,None,None,None,None,None,48,357.63260620000074,None,48,357.63260620000074,None,357.63260620000074,None,357.63260620000074,None,357.63260620000074,None,357.63260620000074,None,357.63260620000074,None,357.63260620000074,None,5.226000212132931e-05,None,357.63260620000074,None,0.6,0,None,None,None,None,None,None,None,None,None,None,None,None,,None,None,None,None,,,,,,,,None,None,None,None,3.005208333333333,3.029503100027796,368.604332900024,None,368.604332900024,None,368.604332900024,None,368.604332900024,None,None,None,371.64960449998034,None,0.006510416666666667,-0.28125,1,0,0,10.925050999969244,tijiao,,241,f,22,2023_Mar_22_1003,RL,2021.2.3,59.93701819014226,
1,-0.3,-0.225,0,24,24,24,,,,,,,,,,,,,,,None,None,None,None,None,373.52243200002704,None,373.52243200002704,None,373.52243200002704,None,373.52243200002704,None,i,0.5623322000028566,373.52243200002704,None,373.52243200002704,None,374.1261976999813,None,374.1261976999813,None,374.1261976999813,None,374.1261976999813,None,374.1261976999813,None,374.1261976999813,None,374.4021282999893,375.3025915999897,374.4021282999893,375.3025915999897,375.3512007999816,None,375.3512007999816,None,375.3512007999816,None,375.3512007999816,None,375.3512007999816,None,375.3512007999816,None,375.3512007999816,None,375.3512007999816,None,375.3512007999816,None,49,62,34,35,34,40,None,None,None,None,None,None,None,None,None,None,None,None,38,377.879151000001,None,38,377.879151000001,None,377.879151000001,None,377.879151000001,None,377.879151000001,None,377.879151000001,None,377.879151000001,None,377.879151000001,None,0.0004079599748365581,None,377.879151000001,None,-0.2,0,None,None,None,None,None,None,None,None,None,None,None,None,,None,None,None,None,,,,,,,,None,None,None,None,3.942708333333334,2.915042100008577,386.5184292999911,None,386.5184292999911,None,386.5184292999911,None,386.5184292999911,None,None,None,389.4606270000222,None,0.01171875,-0.2838541666666667,1,0,0,8.591048700036481,tijiao,,241,f,22,2023_Mar_22_1003,RL,2021.2.3,59.93701819014226,
0,0.3,0.225,0,25,25,25,,,,,,,,,,,,,,,None,None,None,None,None,391.2347394999815,None,391.2347394999815,None,391.2347394999815,None,391.2347394999815,None,r,0.5501732000266202,391.2347394999815,None,391.2347394999815,None,391.83855980000226,None,391.83855980000226,None,391.83855980000226,None,391.83855980000226,None,391.83855980000226,None,391.83855980000226,None,392.13113039999735,None,392.13113039999735,None,393.0124763000058,None,393.0124763000058,None,393.0124763000058,None,393.0124763000058,None,393.0124763000058,None,393.0124763000058,None,393.0124763000058,None,393.0124763000058,None,393.0124763000058,None,44,51,33,45,44,54,None,None,None,None,None,None,None,None,None,None,None,None,44,395.5413146999781,None,44,395.5413146999781,None,395.5413146999781,None,395.5413146999781,None,395.5413146999781,None,395.5413146999781,None,395.5413146999781,None,395.5413146999781,None,0.0004361600149422884,None,395.5413146999781,None,-0.6,0,None,None,None,None,None,None,None,None,None,None,None,None,,None,None,None,None,,,,,,,,None,None,None,None,4.046875,2.8173538999981247,401.69510459998855,None,401.69510459998855,None,401.69510459998855,None,401.69510459998855,None,None,None,404.53801190003287,None,0.04296875,-0.2903645833333333,1,0,0,6.106008999980986,tijiao,,241,f,22,2023_Mar_22_1003,RL,2021.2.3,59.93701819014226,
1,-0.3,-0.225,0,26,26,26,,,,,,,,,,,,,,,None,None,None,None,None,406.46169209998334,None,406.46169209998334,None,406.46169209998334,None,406.46169209998334,None,f,0.38339540001470596,406.46169209998334,None,406.46169209998334,None,406.89780839998275,None,406.89780839998275,None,406.89780839998275,None,406.89780839998275,None,406.89780839998275,None,406.89780839998275,None,407.19172719999915,408.6595349999843,407.19172719999915,408.6595349999843,408.6935287999804,None,408.6935287999804,None,408.6935287999804,None,408.6935287999804,None,408.6935287999804,None,408.6935287999804,None,408.6935287999804,None,408.6935287999804,None,408.6935287999804,None,48,57,38,46,57,59,411.21227110002656,None,5.0,2.2176112000015564,411.21227110002656,None,411.21227110002656,None,411.21227110002656,None,411.21227110002656,None,,None,None,,None,None,None,None,None,None,None,None,None,None,None,None,None,None,None,None,None,None,0.6,3,None,None,None,None,None,None,None,None,None,None,None,None,,None,None,None,None,,,,,,,,None,None,None,None,None,None,None,None,None,None,None,None,None,None,None,None,413.48263079999015,None,,,,,,,,,241,f,22,2023_Mar_22_1003,RL,2021.2.3,59.93701819014226,
0,0.3,0.225,0,27,27,27,,,,,,,,,,,,,,,None,None,None,None,None,415.18437390000327,None,415.18437390000327,None,415.18437390000327,None,415.18437390000327,None,i,0.6307821000227705,415.18437390000327,None,415.18437390000327,None,415.8543810999836,None,415.8543810999836,None,415.8543810999836,None,415.8543810999836,None,415.8543810999836,None,415.8543810999836,None,416.147791800031,None,416.147791800031,None,417.24618309998186,None,417.24618309998186,None,417.24618309998186,None,417.24618309998186,None,417.24618309998186,None,417.24618309998186,None,417.24618309998186,None,417.24618309998186,None,417.24618309998186,None,44,66,35,48,35,62,419.76929409999866,None,5.0,2.318191799975466,419.76929409999866,None,419.76929409999866,None,419.76929409999866,None,419.76929409999866,None,,None,None,,None,None,None,None,None,None,None,None,None,None,None,None,None,None,None,None,None,None,-0.2,2,None,None,None,None,None,None,None,None,None,None,None,None,,None,None,None,None,,,,,,,,None,None,None,None,None,None,None,None,None,None,None,None,None,None,None,None,422.13453009998193,None,,,,,,,,,241,f,22,2023_Mar_22_1003,RL,2021.2.3,59.93701819014226,
1,-0.3,-0.225,0,28,28,28,,,,,,,,,,,,,,,None,None,None,None,None,423.82384169998113,None,423.82384169998113,None,423.82384169998113,None,423.82384169998113,None,f,0.8214917999575846,423.82384169998113,None,423.82384169998113,None,424.6922559000086,None,424.6922559000086,None,424.6922559000086,None,424.6922559000086,None,424.6922559000086,None,424.6922559000086,None,424.98762630001875,None,424.98762630001875,None,425.9226232999936,None,425.9226232999936,None,425.9226232999936,None,425.9226232999936,None,425.9226232999936,None,425.9226232999936,None,425.9226232999936,None,425.9226232999936,None,425.9226232999936,None,48,59,36,49,59,56,None,None,None,None,None,None,None,None,None,None,None,None,,None,None,,None,None,None,None,None,None,None,None,None,None,None,None,None,None,None,None,None,None,-0.2,1,428.4634529000032,None,428.4634529000032,None,428.4634529000032,None,428.4634529000032,None,428.4634529000032,None,428.4634529000032,None,59,428.4634529000032,None,428.4634529000032,None,0.15364583333333334,-0.2890625,1,0,0,4.373250400007237,tijiao_random_2,0.0020688899676315486,None,428.4634529000032,None,8.96875,3.796246699988842,432.8687195000239,None,432.8687195000239,None,432.8687195000239,None,432.8687195000239,None,None,None,436.6785186000052,None,,,,,,,,,241,f,22,2023_Mar_22_1003,RL,2021.2.3,59.93701819014226,
0,0.3,0.225,0,29,29,29,,,,,,,,,,,,,,,None,None,None,None,None,438.38450649997685,None,438.38450649997685,None,438.38450649997685,None,438.38450649997685,None,i,0.3919737999676727,438.38450649997685,None,438.38450649997685,None,438.81794290000107,None,438.81794290000107,None,438.81794290000107,None,438.81794290000107,None,438.81794290000107,None,438.81794290000107,None,439.1137633000035,None,439.1137633000035,None,440.9326546000084,None,440.9326546000084,None,440.9326546000084,None,440.9326546000084,None,440.9326546000084,None,440.9326546000084,None,440.9326546000084,None,440.9326546000084,None,440.9326546000084,None,44,53,39,46,39,55,None,None,None,None,None,None,None,None,None,None,None,None,,None,None,,None,None,None,None,None,None,None,None,None,None,None,None,None,None,None,None,None,None,0.2,1,443.48275010002544,None,443.48275010002544,None,443.48275010002544,None,443.48275010002544,None,443.48275010002544,None,443.48275010002544,None,39,443.48275010002544,None,443.48275010002544,None,0.09635416666666667,-0.2903645833333333,1,0,0,3.8292136000236496,tijiao_random_2,0.008820820017717779,None,443.48275010002544,None,9.90625,4.704606399987824,447.3431458999985,None,447.3431458999985,None,447.3431458999985,None,447.3431458999985,None,None,None,452.07388510002056,None,,,,,,,,,241,f,22,2023_Mar_22_1003,RL,2021.2.3,59.93701819014226,
1,-0.3,-0.225,0,30,30,30,,,,,,,,,,,,,,,None,None,None,None,None,453.9282802999951,None,453.9282802999951,None,453.9282802999951,None,453.9282802999951,None,j,0.4483104000100866,453.9282802999951,None,453.9282802999951,None,454.4288991999929,None,454.4288991999929,None,454.4288991999929,None,454.4288991999929,None,454.4288991999929,None,454.4288991999929,None,454.7246288000024,None,454.7246288000024,None,456.43962140002986,None,456.43962140002986,None,456.43962140002986,None,456.43962140002986,None,456.43962140002986,None,456.43962140002986,None,456.43962140002986,None,456.43962140002986,None,456.43962140002986,None,47,58,33,49,49,64,None,None,None,None,None,None,None,None,None,None,None,None,49,458.97325889999047,None,49,458.97325889999047,None,458.97325889999047,None,458.97325889999047,None,458.97325889999047,None,458.97325889999047,None,458.97325889999047,None,458.97325889999047,None,0.013568489986937493,None,458.97325889999047,None,0.2,0,None,None,None,None,None,None,None,None,None,None,None,None,,None,None,None,None,,,,,,,,None,None,None,None,4.984375,3.0529233999550343,467.34897510003066,None,467.34897510003066,None,467.34897510003066,None,467.34897510003066,None,None,None,470.4165346000227,None,0.13020833333333334,-0.2890625,1,0,0,8.320433099986985,tijiao,,241,f,22,2023_Mar_22_1003,RL,2021.2.3,59.93701819014226,
0,0.3,0.225,0,31,31,31,,,,,,,,,,,,,,,None,None,None,None,None,472.157629000023,None,472.157629000023,None,472.157629000023,None,472.157629000023,None,f,0.4189172000042163,472.157629000023,None,472.157629000023,None,472.6265352999908,None,472.6265352999908,None,472.6265352999908,None,472.6265352999908,None,472.6265352999908,None,472.6265352999908,None,472.9205344999791,474.4382924999809,472.9205344999791,474.4382924999809,474.46993429999566,None,474.46993429999566,None,474.46993429999566,None,474.46993429999566,None,474.46993429999566,None,474.46993429999566,None,474.46993429999566,None,474.46993429999566,None,474.46993429999566,None,58,62,31,44,62,50,None,None,None,None,None,None,None,None,None,None,None,None,64,476.99440030002734,None,64,476.99440030002734,None,476.99440030002734,None,476.99440030002734,None,476.99440030002734,None,476.99440030002734,None,476.99440030002734,None,476.99440030002734,None,0.0032708600047044456,None,476.99440030002734,None,0.2,0,None,None,None,None,None,None,None,None,None,None,None,None,,None,None,None,None,,,,,,,,None,None,None,None,5.934895833333333,2.879508899990469,487.104965800012,None,487.104965800012,None,487.104965800012,None,487.104965800012,None,None,None,489.9985844999901,None,0.006510416666666667,-0.27734375,1,0,0,10.062138999986928,tijiao,,241,f,22,2023_Mar_22_1003,RL,2021.2.3,59.93701819014226,
1,-0.3,-0.225,0,32,32,32,,,,,,,,,,,,,,,None,None,None,None,None,491.58805840002606,None,491.58805840002606,None,491.58805840002606,None,491.58805840002606,None,f,0.41866440000012517,491.58805840002606,None,491.58805840002606,None,492.05612690001726,None,492.05612690001726,None,492.05612690001726,None,492.05612690001726,None,492.05612690001726,None,492.05612690001726,None,492.3506659999839,None,492.3506659999839,None,493.29806030000327,None,493.29806030000327,None,493.29806030000327,None,493.29806030000327,None,493.29806030000327,None,493.29806030000327,None,493.29806030000327,None,493.29806030000327,None,493.29806030000327,None,54,56,32,41,56,65,None,None,None,None,None,None,None,None,None,None,None,None,,None,None,,None,None,None,None,None,None,None,None,None,None,None,None,None,None,None,None,None,None,0.2,1,495.85220640001353,None,495.85220640001353,None,495.85220640001353,None,495.85220640001353,None,495.85220640001353,None,495.85220640001353,None,36,495.85220640001353,None,495.85220640001353,None,0.06901041666666667,-0.3020833333333333,1,0,0,8.365305099985562,tijiao_random_2,0.009236620040610433,None,495.85220640001353,None,2.979166666666667,3.8308362000389025,504.24739809997845,None,504.24739809997845,None,504.24739809997845,None,504.24739809997845,None,None,None,508.09424070001114,None,,,,,,,,,241,f,22,2023_Mar_22_1003,RL,2021.2.3,59.93701819014226,
0,0.3,0.225,0,33,33,33,,,,,,,,,,,,,,,None,None,None,None,None,509.8663690999965,None,509.8663690999965,None,509.8663690999965,None,509.8663690999965,None,r,0.36035010003251955,509.8663690999965,None,509.8663690999965,None,510.26718389999587,None,510.26718389999587,None,510.26718389999587,None,510.26718389999587,None,510.26718389999587,None,510.26718389999587,None,510.5634608999826,None,510.5634608999826,None,512.5307739999844,None,512.5307739999844,None,512.5307739999844,None,512.5307739999844,None,512.5307739999844,None,512.5307739999844,None,512.5307739999844,None,512.5307739999844,None,512.5307739999844,None,59,54,31,44,59,80,None,None,None,None,None,None,None,None,None,None,None,None,,None,None,,None,None,None,None,None,None,None,None,None,None,None,None,None,None,None,None,None,None,0.6,1,515.0760159000056,None,515.0760159000056,None,515.0760159000056,None,515.0760159000056,None,515.0760159000056,None,515.0760159000056,None,40,515.0760159000056,None,515.0760159000056,None,-0.06640625,-0.29296875,1,0,0,7.955341699998826,tijiao_random_2,0.014814120018854737,None,515.0760159000056,None,2.979166666666667,4.247245999984443,523.0630874999915,None,523.0630874999915,None,523.0630874999915,None,523.0630874999915,None,None,None,527.3242684000288,None,,,,,,,,,241,f,22,2023_Mar_22_1003,RL,2021.2.3,59.93701819014226,
1,-0.3,-0.225,0,34,34,34,,,,,,,,,,,,,,,None,None,None,None,None,528.9637257999857,None,528.9637257999857,None,528.9637257999857,None,528.9637257999857,None,i,0.6231532000238076,528.9637257999857,None,528.9637257999857,None,529.6315855000285,None,529.6315855000285,None,529.6315855000285,None,529.6315855000285,None,529.6315855000285,None,529.6315855000285,None,529.9270389000303,None,529.9270389000303,None,531.45752549998,None,531.45752549998,None,531.45752549998,None,531.45752549998,None,531.45752549998,None,531.45752549998,None,531.45752549998,None,531.45752549998,None,531.45752549998,None,56,63,28,43,28,66,533.9850707000005,None,5.0,3.834869600017555,533.9850707000005,None,533.9850707000005,None,533.9850707000005,None,533.9850707000005,None,,None,None,,None,None,None,None,None,None,None,None,None,None,None,None,None,None,None,None,None,None,0.6,2,None,None,None,None,None,None,None,None,None,None,None,None,,None,None,None,None,,,,,,,,None,None,None,None,None,None,None,None,None,None,None,None,None,None,None,None,537.8824236000073,None,,,,,,,,,241,f,22,2023_Mar_22_1003,RL,2021.2.3,59.93701819014226,
0,0.3,0.225,0,35,35,35,,,,,,,,,,,,,,,None,None,None,None,None,539.5544600000139,None,539.5544600000139,None,539.5544600000139,None,539.5544600000139,None,j,0.6727607000502758,539.5544600000139,None,539.5544600000139,None,540.2826332999975,None,540.2826332999975,None,540.2826332999975,None,540.2826332999975,None,540.2826332999975,None,540.2826332999975,None,540.5674724000273,541.585031900031,540.5674724000273,541.585031900031,541.6188604999916,None,541.6188604999916,None,541.6188604999916,None,541.6188604999916,None,541.6188604999916,None,541.6188604999916,None,541.6188604999916,None,541.6188604999916,None,541.6188604999916,None,56,66,23,35,35,63,544.1331444000243,None,5.0,1.7049824999994598,544.1331444000243,None,544.1331444000243,None,544.1331444000243,None,544.1331444000243,None,,None,None,,None,None,None,None,None,None,None,None,None,None,None,None,None,None,None,None,None,None,-0.2,2,None,None,None,None,None,None,None,None,None,None,None,None,,None,None,None,None,,,,,,,,None,None,None,None,None,None,None,None,None,None,None,None,None,None,None,None,545.9047427999903,None,,,,,,,,,241,f,22,2023_Mar_22_1003,RL,2021.2.3,59.93701819014226,
1,-0.3,-0.225,0,36,36,36,,,,,,,,,,,,,,,None,None,None,None,None,547.4753454999882,None,547.4753454999882,None,547.4753454999882,None,547.4753454999882,None,r,0.621572699979879,547.4753454999882,None,547.4753454999882,None,548.1431384999887,None,548.1431384999887,None,548.1431384999887,None,548.1431384999887,None,548.1431384999887,None,548.1431384999887,None,548.4395225000335,None,548.4395225000335,None,549.4718331000186,None,549.4718331000186,None,549.4718331000186,None,549.4718331000186,None,549.4718331000186,None,549.4718331000186,None,549.4718331000186,None,549.4718331000186,None,549.4718331000186,None,61,57,24,41,61,68,None,None,None,None,None,None,None,None,None,None,None,None,55,551.9996614999836,None,55,551.9996614999836,None,551.9996614999836,None,551.9996614999836,None,551.9996614999836,None,551.9996614999836,None,551.9996614999836,None,551.9996614999836,None,0.0013568599824793637,None,551.9996614999836,None,-0.2,0,None,None,None,None,None,None,None,None,None,None,None,None,,None,None,None,None,,,,,,,,None,None,None,None,4.0078125,4.11975860001985,555.6464024999877,None,555.6464024999877,None,555.6464024999877,None,555.6464024999877,None,None,None,559.7803175000008,None,0.01171875,-0.3020833333333333,1,0,0,3.6042643999680877,tijiao,,241,f,22,2023_Mar_22_1003,RL,2021.2.3,59.93701819014226,
0,0.3,0.225,0,37,37,37,,,,,,,,,,,,,,,None,None,None,None,None,561.3695595000172,None,561.3695595000172,None,561.3695595000172,None,561.3695595000172,None,f,0.4075963000068441,561.3695595000172,None,561.3695595000172,None,561.8221939000068,None,561.8221939000068,None,561.8221939000068,None,561.8221939000068,None,561.8221939000068,None,561.8221939000068,None,562.115813100012,None,562.115813100012,None,563.7660569000291,None,563.7660569000291,None,563.7660569000291,None,563.7660569000291,None,563.7660569000291,None,563.7660569000291,None,563.7660569000291,None,563.7660569000291,None,563.7660569000291,None,62,53,36,36,53,61,None,None,None,None,None,None,None,None,None,None,None,None,,None,None,,None,None,None,None,None,None,None,None,None,None,None,None,None,None,None,None,None,None,-0.6,1,566.3078932000208,None,566.3078932000208,None,566.3078932000208,None,566.3078932000208,None,566.3078932000208,None,566.3078932000208,None,47,566.3078932000208,None,566.3078932000208,None,0.024739583333333332,-0.2981770833333333,1,0,0,8.609146100003272,tijiao_random_2,0.0018524900078773499,None,566.3078932000208,None,3.005208333333333,3.3149056999827735,574.9649267999921,None,574.9649267999921,None,574.9649267999921,None,574.9649267999921,None,None,None,578.3084770999849,None,,,,,,,,,241,f,22,2023_Mar_22_1003,RL,2021.2.3,59.93701819014226,
1,-0.3,-0.225,0,38,38,38,,,,,,,,,,,,,,,None,None,None,None,None,580.3164646999794,None,580.3164646999794,None,580.3164646999794,None,580.3164646999794,None,i,0.5018438999541104,580.3164646999794,None,580.3164646999794,None,580.8663927000016,None,580.8663927000016,None,580.8663927000016,None,580.8663927000016,None,580.8663927000016,None,580.8663927000016,None,581.1624947999953,None,581.1624947999953,None,582.0097283999785,None,582.0097283999785,None,582.0097283999785,None,582.0097283999785,None,582.0097283999785,None,582.0097283999785,None,582.0097283999785,None,582.0097283999785,None,582.0097283999785,None,72,46,36,32,36,67,584.5318346000277,None,5.0,3.420259899983648,584.5318346000277,None,584.5318346000277,None,584.5318346000277,None,584.5318346000277,None,,None,None,,None,None,None,None,None,None,None,None,None,None,None,None,None,None,None,None,None,None,0.6,2,None,None,None,None,None,None,None,None,None,None,None,None,,None,None,None,None,,,,,,,,None,None,None,None,None,None,None,None,None,None,None,None,None,None,None,None,588.0040983000072,None,,,,,,,,,241,f,22,2023_Mar_22_1003,RL,2021.2.3,59.93701819014226,
0,0.3,0.225,0,39,39,39,,,,,,,,,,,,,,,None,None,None,None,None,589.7226143000298,None,589.7226143000298,None,589.7226143000298,None,589.7226143000298,None,j,0.9250032000127248,589.7226143000298,None,589.7226143000298,None,590.6935440999805,None,590.6935440999805,None,590.6935440999805,None,590.6935440999805,None,590.6935440999805,None,590.6935440999805,None,590.969089900027,591.936783400015,590.969089900027,591.936783400015,591.9857154000201,None,591.9857154000201,None,591.9857154000201,None,591.9857154000201,None,591.9857154000201,None,591.9857154000201,None,591.9857154000201,None,591.9857154000201,None,591.9857154000201,None,57,41,28,30,30,61,None,None,None,None,None,None,None,None,None,None,None,None,,None,None,,None,None,None,None,None,None,None,None,None,None,None,None,None,None,None,None,None,None,-0.6,1,594.5357966999873,None,594.5357966999873,None,594.5357966999873,None,594.5357966999873,None,594.5357966999873,None,594.5357966999873,None,60,594.5357966999873,None,594.5357966999873,None,0.06640625,-0.2825520833333333,1,0,0,11.63585520000197,tijiao_random_2,0.01070521998917684,None,594.5357966999873,None,4.033854166666666,2.4650207000086084,606.20250210003,None,606.20250210003,None,606.20250210003,None,606.20250210003,None,None,None,608.6809978000238,None,,,,,,,,,241,f,22,2023_Mar_22_1003,RL,2021.2.3,59.93701819014226,
1,-0.3,-0.225,0,40,40,40,,,,,,,,,,,,,,,None,None,None,None,None,610.6708204000024,None,610.6708204000024,None,610.6708204000024,None,610.6708204000024,None,r,0.5276484999922104,610.6708204000024,None,610.6708204000024,None,611.2371239999775,None,611.2371239999775,None,611.2371239999775,None,611.2371239999775,None,611.2371239999775,None,611.2371239999775,None,611.5335263999877,612.6011994000291,611.5335263999877,612.6011994000291,612.6349696000107,None,612.6349696000107,None,612.6349696000107,None,612.6349696000107,None,612.6349696000107,None,612.6349696000107,None,612.6349696000107,None,612.6349696000107,None,612.6349696000107,None,64,45,40,29,64,58,615.1524068000144,None,6.0,3.004538399982266,615.1524068000144,None,615.1524068000144,None,615.1524068000144,None,615.1524068000144,None,,None,None,,None,None,None,None,None,None,None,None,None,None,None,None,None,None,None,None,None,None,0.6,2,None,None,None,None,None,None,None,None,None,None,None,None,,None,None,None,None,,,,,,,,None,None,None,None,None,None,None,None,None,None,None,None,None,None,None,None,618.2121353999828,None,,,,,,,,,241,f,22,2023_Mar_22_1003,RL,2021.2.3,59.93701819014226,
0,0.3,0.225,0,41,41,41,,,,,,,,,,,,,,,None,None,None,None,None,620.1608473000233,None,620.1608473000233,None,620.1608473000233,None,620.1608473000233,None,f,0.6978917000233196,620.1608473000233,None,620.1608473000233,None,620.9118589999853,None,620.9118589999853,None,620.9118589999853,None,620.9118589999853,None,620.9118589999853,None,620.9118589999853,None,621.2068674000329,623.1916296000127,621.2068674000329,623.1916296000127,623.2227163999924,None,623.2227163999924,None,623.2227163999924,None,623.2227163999924,None,623.2227163999924,None,623.2227163999924,None,623.2227163999924,None,623.2227163999924,None,623.2227163999924,None,63,48,35,37,48,63,625.7409065000247,None,6.0,1.804209100024309,625.7409065000247,None,625.7409065000247,None,625.7409065000247,None,625.7409065000247,None,,None,None,,None,None,None,None,None,None,None,None,None,None,None,None,None,None,None,None,None,None,0.6,3,None,None,None,None,None,None,None,None,None,None,None,None,,None,None,None,None,,,,,,,,None,None,None,None,None,None,None,None,None,None,None,None,None,None,None,None,627.5971164000221,None,,,,,,,,,241,f,22,2023_Mar_22_1003,RL,2021.2.3,59.93701819014226,
1,-0.3,-0.225,0,42,42,42,,,,,,,,,,,,,,,None,None,None,None,None,629.500005799986,None,629.500005799986,None,629.500005799986,None,629.500005799986,None,i,0.5085730000282638,629.500005799986,None,629.500005799986,None,630.0508694000309,None,630.0508694000309,None,630.0508694000309,None,630.0508694000309,None,630.0508694000309,None,630.0508694000309,None,630.3464768999838,None,630.3464768999838,None,631.2011848000111,None,631.2011848000111,None,631.2011848000111,None,631.2011848000111,None,631.2011848000111,None,631.2011848000111,None,631.2011848000111,None,631.2011848000111,None,631.2011848000111,None,66,45,29,33,29,54,633.7370284000062,None,6.0,2.2673930000164546,633.7370284000062,None,633.7370284000062,None,633.7370284000062,None,633.7370284000062,None,,None,None,,None,None,None,None,None,None,None,None,None,None,None,None,None,None,None,None,None,None,-0.6,2,None,None,None,None,None,None,None,None,None,None,None,None,,None,None,None,None,,,,,,,,None,None,None,None,None,None,None,None,None,None,None,None,None,None,None,None,636.0628152000136,None,,,,,,,,,241,f,22,2023_Mar_22_1003,RL,2021.2.3,59.93701819014226,
0,0.3,0.225,0,43,43,43,,,,,,,,,,,,,,,None,None,None,None,None,637.7894191999803,None,637.7894191999803,None,637.7894191999803,None,637.7894191999803,None,j,0.48937499994644895,637.7894191999803,None,637.7894191999803,None,638.323703400034,None,638.323703400034,None,638.323703400034,None,638.323703400034,None,638.323703400034,None,638.323703400034,None,638.6188788000145,640.6202087000129,638.6188788000145,640.6202087000129,640.6519672999857,None,640.6519672999857,None,640.6519672999857,None,640.6519672999857,None,640.6519672999857,None,640.6519672999857,None,640.6519672999857,None,640.6519672999857,None,640.6519672999857,None,62,49,35,28,28,64,643.1716284999857,None,6.0,3.4878373999963515,643.1716284999857,None,643.1716284999857,None,643.1716284999857,None,643.1716284999857,None,,None,None,,None,None,None,None,None,None,None,None,None,None,None,None,None,None,None,None,None,None,0.2,2,None,None,None,None,None,None,None,None,None,None,None,None,,None,None,None,None,,,,,,,,None,None,None,None,None,None,None,None,None,None,None,None,None,None,None,None,646.7266609999933,None,,,,,,,,,241,f,22,2023_Mar_22_1003,RL,2021.2.3,59.93701819014226,
1,-0.3,-0.225,0,44,44,44,,,,,,,,,,,,,,,None,None,None,None,None,648.6470322000096,None,648.6470322000096,None,648.6470322000096,None,648.6470322000096,None,f,0.4816225999966264,648.6470322000096,None,648.6470322000096,None,649.1810063000303,None,649.1810063000303,None,649.1810063000303,None,649.1810063000303,None,649.1810063000303,None,649.1810063000303,None,649.4763800000073,None,649.4763800000073,None,651.4262890000246,None,651.4262890000246,None,651.4262890000246,None,651.4262890000246,None,651.4262890000246,None,651.4262890000246,None,651.4262890000246,None,651.4262890000246,None,651.4262890000246,None,57,55,38,40,55,64,None,None,None,None,None,None,None,None,None,None,None,None,,None,None,,None,None,None,None,None,None,None,None,None,None,None,None,None,None,None,None,None,None,0.6,1,653.9773657000042,None,653.9773657000042,None,653.9773657000042,None,653.9773657000042,None,653.9773657000042,None,653.9773657000042,None,52,653.9773657000042,None,653.9773657000042,None,0.09765625,-0.2838541666666667,1,0,0,5.098418299981859,tijiao_random_2,0.010121519968379289,None,653.9773657000042,None,3.03125,3.1144574000500143,659.1091639000224,None,659.1091639000224,None,659.1091639000224,None,659.1091639000224,None,None,None,662.2351135999779,None,,,,,,,,,241,f,22,2023_Mar_22_1003,RL,2021.2.3,59.93701819014226,
0,0.3,0.225,0,45,45,45,,,,,,,,,,,,,,,None,None,None,None,None,664.1577567000058,None,664.1577567000058,None,664.1577567000058,None,664.1577567000058,None,f,0.5009792000055313,664.1577567000058,None,664.1577567000058,None,664.7131582000293,None,664.7131582000293,None,664.7131582000293,None,664.7131582000293,None,664.7131582000293,None,664.7131582000293,None,665.0040723999846,None,665.0040723999846,None,666.8679348999867,None,666.8679348999867,None,666.8679348999867,None,666.8679348999867,None,666.8679348999867,None,666.8679348999867,None,666.8679348999867,None,666.8679348999867,None,666.8679348999867,None,60,51,41,45,51,65,669.3947369999951,None,5.0,4.115748000040185,669.3947369999951,None,669.3947369999951,None,669.3947369999951,None,669.3947369999951,None,,None,None,,None,None,None,None,None,None,None,None,None,None,None,None,None,None,None,None,None,None,0.2,3,None,None,None,None,None,None,None,None,None,None,None,None,,None,None,None,None,,,,,,,,None,None,None,None,None,None,None,None,None,None,None,None,None,None,None,None,673.5641442000051,None,,,,,,,,,241,f,22,2023_Mar_22_1003,RL,2021.2.3,59.93701819014226,
1,-0.3,-0.225,0,46,46,46,,,,,,,,,,,,,,,None,None,None,None,None,675.3490140999784,None,675.3490140999784,None,675.3490140999784,None,675.3490140999784,None,r,0.7508372999727726,675.3490140999784,None,675.3490140999784,None,676.1500152000226,None,676.1500152000226,None,676.1500152000226,None,676.1500152000226,None,676.1500152000226,None,676.1500152000226,None,676.445339900034,None,676.445339900034,None,677.846403100004,None,677.846403100004,None,677.846403100004,None,677.846403100004,None,677.846403100004,None,677.846403100004,None,677.846403100004,None,677.846403100004,None,677.846403100004,None,71,43,37,39,71,55,None,None,None,None,None,None,None,None,None,None,None,None,50,680.3740407000296,None,50,680.3740407000296,None,680.3740407000296,None,680.3740407000296,None,680.3740407000296,None,680.3740407000296,None,680.3740407000296,None,680.3740407000296,None,0.01593799004331231,None,680.3740407000296,None,0.2,0,None,None,None,None,None,None,None,None,None,None,None,None,,None,None,None,None,,,,,,,,None,None,None,None,5.986979166666667,2.5082794000045396,685.5565058999928,None,685.5565058999928,None,685.5565058999928,None,685.5565058999928,None,None,None,688.0847307000076,None,0.040364583333333336,-0.2994791666666667,1,0,0,5.136910900007933,tijiao,,241,f,22,2023_Mar_22_1003,RL,2021.2.3,59.93701819014226,
0,0.3,0.225,0,47,47,47,,,,,,,,,,,,,,,None,None,None,None,None,689.7750706999796,None,689.7750706999796,None,689.7750706999796,None,689.7750706999796,None,r,0.6438810999970883,689.7750706999796,None,689.7750706999796,None,690.4636642999831,None,690.4636642999831,None,690.4636642999831,None,690.4636642999831,None,690.4636642999831,None,690.4636642999831,None,690.7384910000255,692.2894490000326,690.7384910000255,692.2894490000326,692.3404890000238,None,692.3404890000238,None,692.3404890000238,None,692.3404890000238,None,692.3404890000238,None,692.3404890000238,None,692.3404890000238,None,692.3404890000238,None,692.3404890000238,None,80,52,49,43,80,69,694.8619634999777,None,6.0,2.9836459000362083,694.8619634999777,None,694.8619634999777,None,694.8619634999777,None,694.8619634999777,None,,None,None,,None,None,None,None,None,None,None,None,None,None,None,None,None,None,None,None,None,None,-0.6,2,None,None,None,None,None,None,None,None,None,None,None,None,,None,None,None,None,,,,,,,,None,None,None,None,None,None,None,None,None,None,None,None,None,None,None,None,697.8991271000123,None,,,,,,,,,241,f,22,2023_Mar_22_1003,RL,2021.2.3,59.93701819014226,
1,-0.3,-0.225,0,48,48,48,,,,,,,,,,,,,,,None,None,None,None,None,699.7994196999935,None,699.7994196999935,None,699.7994196999935,None,699.7994196999935,None,f,1.0697622000006959,699.7994196999935,None,699.7994196999935,None,700.9165475000045,None,700.9165475000045,None,700.9165475000045,None,700.9165475000045,None,700.9165475000045,None,700.9165475000045,None,701.2124046999961,None,701.2124046999961,None,702.2110464000143,None,702.2110464000143,None,702.2110464000143,None,702.2110464000143,None,702.2110464000143,None,702.2110464000143,None,702.2110464000143,None,702.2110464000143,None,702.2110464000143,None,84,47,39,44,47,62,None,None,None,None,None,None,None,None,None,None,None,None,,None,None,,None,None,None,None,None,None,None,None,None,None,None,None,None,None,None,None,None,None,-0.6,1,704.7600957999821,None,704.7600957999821,None,704.7600957999821,None,704.7600957999821,None,704.7600957999821,None,704.7600957999821,None,56,704.7600957999821,None,704.7600957999821,None,0.08072916666666667,-0.2890625,1,0,0,6.502061999985017,tijiao_random_2,0.01327872002730146,None,704.7600957999821,None,5.908854166666667,3.4625158999697305,711.2916814999771,None,711.2916814999771,None,711.2916814999771,None,711.2916814999771,None,None,None,714.7846038999851,None,,,,,,,,,241,f,22,2023_Mar_22_1003,RL,2021.2.3,59.93701819014226,
0,0.3,0.225,0,49,49,49,,,,,,,,,,,,,,,None,None,None,None,None,716.6110984000261,None,716.6110984000261,None,716.6110984000261,None,716.6110984000261,None,i,0.3181800000020303,716.6110984000261,None,716.6110984000261,None,716.9775833000313,None,716.9775833000313,None,716.9775833000313,None,716.9775833000313,None,716.9775833000313,None,716.9775833000313,None,717.273122899991,None,717.273122899991,None,719.1624114000006,None,719.1624114000006,None,719.1624114000006,None,719.1624114000006,None,719.1624114000006,None,719.1624114000006,None,719.1624114000006,None,719.1624114000006,None,719.1624114000006,None,72,56,46,36,46,63,None,None,None,None,None,None,None,None,None,None,None,None,,None,None,,None,None,None,None,None,None,None,None,None,None,None,None,None,None,None,None,None,None,0.2,1,721.7078676000237,None,721.7078676000237,None,721.7078676000237,None,721.7078676000237,None,721.7078676000237,None,721.7078676000237,None,46,721.7078676000237,None,721.7078676000237,None,0.10807291666666667,-0.28515625,1,0,0,3.947200900001917,tijiao_random_2,0.0102325199986808,None,721.7078676000237,None,5.908854166666667,2.80879050004296,725.6867803999921,None,725.6867803999921,None,725.6867803999921,None,725.6867803999921,None,None,None,728.5142723000026,None,,,,,,,,,241,f,22,2023_Mar_22_1003,RL,2021.2.3,59.93701819014226,
1,-0.3,-0.225,0,50,50,50,,,,,,,,,,,,,,,None,None,None,None,None,730.1523941999767,None,730.1523941999767,None,730.1523941999767,None,730.1523941999767,None,r,0.3769395000417717,730.1523941999767,None,730.1523941999767,None,730.574351200019,None,730.574351200019,None,730.574351200019,None,730.574351200019,None,730.574351200019,None,730.574351200019,None,730.866353999998,732.7010035000276,730.866353999998,732.7010035000276,732.7322393999784,None,732.7322393999784,None,732.7322393999784,None,732.7322393999784,None,732.7322393999784,None,732.7322393999784,None,732.7322393999784,None,732.7322393999784,None,732.7322393999784,None,82,52,46,34,82,68,None,None,None,None,None,None,None,None,None,None,None,None,75,735.2614307000185,None,75,735.2614307000185,None,735.2614307000185,None,735.2614307000185,None,735.2614307000185,None,735.2614307000185,None,735.2614307000185,None,735.2614307000185,None,0.00018386001465842128,None,735.2614307000185,None,0.2,0,None,None,None,None,None,None,None,None,None,None,None,None,,None,None,None,None,,,,,,,,None,None,None,None,7.0546875,2.051297699974384,743.1777084000059,None,743.1777084000059,None,743.1777084000059,None,743.1777084000059,None,None,None,745.2600262000342,None,0.033854166666666664,-0.2890625,1,0,0,7.873307100031525,tijiao,,241,f,22,2023_Mar_22_1003,RL,2021.2.3,59.93701819014226,
0,0.3,0.225,0,51,51,51,,,,,,,,,,,,,,,None,None,None,None,None,747.0152902000118,None,747.0152902000118,None,747.0152902000118,None,747.0152902000118,None,r,0.4642803000169806,747.0152902000118,None,747.0152902000118,None,747.5186931000208,None,747.5186931000208,None,747.5186931000208,None,747.5186931000208,None,747.5186931000208,None,747.5186931000208,None,747.8115367999999,749.1289711000281,747.8115367999999,749.1289711000281,749.1604199000285,None,749.1604199000285,None,749.1604199000285,None,749.1604199000285,None,749.1604199000285,None,749.1604199000285,None,749.1604199000285,None,749.1604199000285,None,749.1604199000285,None,75,56,47,33,75,59,751.6859446000308,None,6.0,1.9679947000113316,751.6859446000308,None,751.6859446000308,None,751.6859446000308,None,751.6859446000308,None,,None,None,,None,None,None,None,None,None,None,None,None,None,None,None,None,None,None,None,None,None,0.2,3,None,None,None,None,None,None,None,None,None,None,None,None,,None,None,None,None,,,,,,,,None,None,None,None,None,None,None,None,None,None,None,None,None,None,None,None,753.7049482000293,None,,,,,,,,,241,f,22,2023_Mar_22_1003,RL,2021.2.3,59.93701819014226,
1,-0.3,-0.225,0,52,52,52,,,,,,,,,,,,,,,None,None,None,None,None,755.4881298000109,None,755.4881298000109,None,755.4881298000109,None,755.4881298000109,None,i,0.5112987000029534,755.4881298000109,None,755.4881298000109,None,756.0402561000083,None,756.0402561000083,None,756.0402561000083,None,756.0402561000083,None,756.0402561000083,None,756.0402561000083,None,756.3340090999845,None,756.3340090999845,None,757.6308634000015,None,757.6308634000015,None,757.6308634000015,None,757.6308634000015,None,757.6308634000015,None,757.6308634000015,None,757.6308634000015,None,757.6308634000015,None,757.6308634000015,None,72,59,34,38,34,63,760.1564323999919,None,5.0,2.0006318999803625,760.1564323999919,None,760.1564323999919,None,760.1564323999919,None,760.1564323999919,None,,None,None,,None,None,None,None,None,None,None,None,None,None,None,None,None,None,None,None,None,None,0.2,2,None,None,None,None,None,None,None,None,None,None,None,None,,None,None,None,None,,,,,,,,None,None,None,None,None,None,None,None,None,None,None,None,None,None,None,None,762.238782200031,None,,,,,,,,,241,f,22,2023_Mar_22_1003,RL,2021.2.3,59.93701819014226,
0,0.3,0.225,0,53,53,53,,,,,,,,,,,,,,,None,None,None,None,None,763.8758999999845,None,763.8758999999845,None,763.8758999999845,None,763.8758999999845,None,r,0.6248500000219792,763.8758999999845,None,763.8758999999845,None,764.544107099995,None,764.544107099995,None,764.544107099995,None,764.544107099995,None,764.544107099995,None,764.544107099995,None,764.8400550999795,766.6745196999982,764.8400550999795,766.6745196999982,766.7054082999821,None,766.7054082999821,None,766.7054082999821,None,766.7054082999821,None,766.7054082999821,None,766.7054082999821,None,766.7054082999821,None,766.7054082999821,None,766.7054082999821,None,61,57,36,44,61,72,769.2220821999945,None,5.0,3.3070761000271887,769.2220821999945,None,769.2220821999945,None,769.2220821999945,None,769.2220821999945,None,,None,None,,None,None,None,None,None,None,None,None,None,None,None,None,None,None,None,None,None,None,0.2,3,None,None,None,None,None,None,None,None,None,None,None,None,,None,None,None,None,,,,,,,,None,None,None,None,None,None,None,None,None,None,None,None,None,None,None,None,772.5819459999911,None,,,,,,,,,241,f,22,2023_Mar_22_1003,RL,2021.2.3,59.93701819014226,
1,-0.3,-0.225,0,54,54,54,,,,,,,,,,,,,,,None,None,None,None,None,774.100527499977,None,774.100527499977,None,774.100527499977,None,774.100527499977,None,f,0.46995200001401827,774.100527499977,None,774.100527499977,None,774.618410199997,None,774.618410199997,None,774.618410199997,None,774.618410199997,None,774.618410199997,None,774.618410199997,None,774.9139044000185,None,774.9139044000185,None,776.683780500025,None,776.683780500025,None,776.683780500025,None,776.683780500025,None,776.683780500025,None,776.683780500025,None,776.683780500025,None,776.683780500025,None,776.683780500025,None,68,59,40,46,59,68,779.1960965000326,None,5.0,5.508515099994838,779.1960965000326,None,779.1960965000326,None,779.1960965000326,None,779.1960965000326,None,,None,None,,None,None,None,None,None,None,None,None,None,None,None,None,None,None,None,None,None,None,-0.6,3,None,None,None,None,None,None,None,None,None,None,None,None,,None,None,None,None,,,,,,,,None,None,None,None,None,None,None,None,None,None,None,None,None,None,None,None,784.7804544999963,None,,,,,,,,,241,f,22,2023_Mar_22_1003,RL,2021.2.3,59.93701819014226,
0,0.3,0.225,0,55,55,55,,,,,,,,,,,,,,,None,None,None,None,None,786.2925946000032,None,786.2925946000032,None,786.2925946000032,None,786.2925946000032,None,j,0.4883282000082545,786.2925946000032,None,786.2925946000032,None,786.8289061000105,None,786.8289061000105,None,786.8289061000105,None,786.8289061000105,None,786.8289061000105,None,786.8289061000105,None,787.1055504999822,788.4062940999866,787.1055504999822,788.4062940999866,788.4391049999977,None,788.4391049999977,None,788.4391049999977,None,788.4391049999977,None,788.4391049999977,None,788.4391049999977,None,788.4391049999977,None,788.4391049999977,None,788.4391049999977,None,73,54,37,39,39,71,None,None,None,None,None,None,None,None,None,None,None,None,66,790.9741866000113,None,66,790.9741866000113,None,790.9741866000113,None,790.9741866000113,None,790.9741866000113,None,790.9741866000113,None,790.9741866000113,None,790.9741866000113,None,0.009295089985243976,None,790.9741866000113,None,-0.6,0,None,None,None,None,None,None,None,None,None,None,None,None,,None,None,None,None,,,,,,,,None,None,None,None,7.041666666666666,1.9664257999975234,795.648631100019,None,795.648631100019,None,795.648631100019,None,795.648631100019,None,None,None,797.6286112000234,None,0.09114583333333333,-0.2721354166666667,1,0,0,4.6297093000030145,tijiao,,241,f,22,2023_Mar_22_1003,RL,2021.2.3,59.93701819014226,
1,-0.3,-0.225,0,56,56,56,,,,,,,,,,,,,,,None,None,None,None,None,799.6183629999869,None,799.6183629999869,None,799.6183629999869,None,799.6183629999869,None,r,0.4423658999730833,799.6183629999869,None,799.6183629999869,None,800.1025964000146,None,800.1025964000146,None,800.1025964000146,None,800.1025964000146,None,800.1025964000146,None,800.1025964000146,None,800.397998600034,None,800.397998600034,None,802.348200700013,None,802.348200700013,None,802.348200700013,None,802.348200700013,None,802.348200700013,None,802.348200700013,None,802.348200700013,None,802.348200700013,None,802.348200700013,None,72,62,43,44,72,76,804.8716432999936,None,6.0,2.035372299957089,804.8716432999936,None,804.8716432999936,None,804.8716432999936,None,804.8716432999936,None,,None,None,,None,None,None,None,None,None,None,None,None,None,None,None,None,None,None,None,None,None,0.6,3,None,None,None,None,None,None,None,None,None,None,None,None,,None,None,None,None,,,,,,,,None,None,None,None,None,None,None,None,None,None,None,None,None,None,None,None,806.9631141999853,None,,,,,,,,,241,f,22,2023_Mar_22_1003,RL,2021.2.3,59.93701819014226,
0,0.3,0.225,0,57,57,57,,,,,,,,,,,,,,,None,None,None,None,None,808.6749868000043,None,808.6749868000043,None,808.6749868000043,None,808.6749868000043,None,r,0.6057768000173382,808.6749868000043,None,808.6749868000043,None,809.3263057000004,None,809.3263057000004,None,809.3263057000004,None,809.3263057000004,None,809.3263057000004,None,809.3263057000004,None,809.6210135000292,None,809.6210135000292,None,810.6032662999933,None,810.6032662999933,None,810.6032662999933,None,810.6032662999933,None,810.6032662999933,None,810.6032662999933,None,810.6032662999933,None,810.6032662999933,None,810.6032662999933,None,79,63,46,36,79,73,813.1212520999834,None,6.0,1.8880135000217706,813.1212520999834,None,813.1212520999834,None,813.1212520999834,None,813.1212520999834,None,,None,None,,None,None,None,None,None,None,None,None,None,None,None,None,None,None,None,None,None,None,-0.6,3,None,None,None,None,None,None,None,None,None,None,None,None,,None,None,None,None,,,,,,,,None,None,None,None,None,None,None,None,None,None,None,None,None,None,None,None,815.0705233000335,None,,,,,,,,,241,f,22,2023_Mar_22_1003,RL,2021.2.3,59.93701819014226,
1,-0.3,-0.225,0,58,58,58,,,,,,,,,,,,,,,None,None,None,None,None,816.8469559000223,None,816.8469559000223,None,816.8469559000223,None,816.8469559000223,None,r,0.6238325999584049,816.8469559000223,None,816.8469559000223,None,817.5151516000042,None,817.5151516000042,None,817.5151516000042,None,817.5151516000042,None,817.5151516000042,None,817.5151516000042,None,817.8099712000112,None,817.8099712000112,None,818.8080758000142,None,818.8080758000142,None,818.8080758000142,None,818.8080758000142,None,818.8080758000142,None,818.8080758000142,None,818.8080758000142,None,818.8080758000142,None,818.8080758000142,None,75,61,40,39,75,79,None,None,None,None,None,None,None,None,None,None,None,None,80,821.345318800013,None,80,821.345318800013,None,821.345318800013,None,821.345318800013,None,821.345318800013,None,821.345318800013,None,821.345318800013,None,821.345318800013,None,0.009532890049740672,None,821.345318800013,None,0.6,0,None,None,None,None,None,None,None,None,None,None,None,None,,None,None,None,None,,,,,,,,None,None,None,None,7.979166666666666,2.5537348999641836,829.7406789999804,None,829.7406789999804,None,829.7406789999804,None,829.7406789999804,None,None,None,832.3196317999973,None,0.11588541666666667,-0.3020833333333333,1,0,0,8.349584400013555,tijiao,,241,f,22,2023_Mar_22_1003,RL,2021.2.3,59.93701819014226,
0,0.3,0.225,0,59,59,59,,,,,,,,,,,,,,,None,None,None,None,None,834.1924937000149,None,834.1924937000149,None,834.1924937000149,None,834.1924937000149,None,r,0.4884551999857649,834.1924937000149,None,834.1924937000149,None,834.7305421999772,None,834.7305421999772,None,834.7305421999772,None,834.7305421999772,None,834.7305421999772,None,834.7305421999772,None,835.0213971000048,836.8732310000341,835.0213971000048,836.8732310000341,836.9046263999771,None,836.9046263999771,None,836.9046263999771,None,836.9046263999771,None,836.9046263999771,None,836.9046263999771,None,836.9046263999771,None,836.9046263999771,None,836.9046263999771,None,69,55,40,43,69,59,None,None,None,None,None,None,None,None,None,None,None,None,75,839.4390582999913,None,75,839.4390582999913,None,839.4390582999913,None,839.4390582999913,None,839.4390582999913,None,839.4390582999913,None,839.4390582999913,None,839.4390582999913,None,0.011712089995853603,None,839.4390582999913,None,0.6,0,None,None,None,None,None,None,None,None,None,None,None,None,,None,None,None,None,,,,,,,,None,None,None,None,9.059895833333332,2.170691800012719,847.285968000011,None,847.285968000011,None,847.285968000011,None,847.285968000011,None,None,None,849.4825054000248,None,0.08723958333333333,-0.2890625,1,0,0,7.801409800013062,tijiao,,241,f,22,2023_Mar_22_1003,RL,2021.2.3,59.93701819014226,
1,-0.3,-0.225,0,60,60,60,,,,,,,,,,,,,,,None,None,None,None,None,851.23675739998,None,851.23675739998,None,851.23675739998,None,851.23675739998,None,r,0.5042438000091352,851.23675739998,None,851.23675739998,None,851.7873969000066,None,851.7873969000066,None,851.7873969000066,None,851.7873969000066,None,851.7873969000066,None,851.7873969000066,None,852.0839093999821,None,852.0839093999821,None,853.7158968999865,None,853.7158968999865,None,853.7158968999865,None,853.7158968999865,None,853.7158968999865,None,853.7158968999865,None,853.7158968999865,None,853.7158968999865,None,853.7158968999865,None,78,58,35,34,78,71,856.2375827999786,None,7.0,4.97257990000071,856.2375827999786,None,856.2375827999786,None,856.2375827999786,None,856.2375827999786,None,,None,None,,None,None,None,None,None,None,None,None,None,None,None,None,None,None,None,None,None,None,0.2,3,None,None,None,None,None,None,None,None,None,None,None,None,,None,None,None,None,,,,,,,,None,None,None,None,None,None,None,None,None,None,None,None,None,None,None,None,861.2771191999782,None,,,,,,,,,241,f,22,2023_Mar_22_1003,RL,2021.2.3,59.93701819014226,
0,0.3,0.225,0,61,61,61,,,,,,,,,,,,,,,None,None,None,None,None,863.0620382000343,None,863.0620382000343,None,863.0620382000343,None,863.0620382000343,None,r,0.48924450000049546,863.0620382000343,None,863.0620382000343,None,863.5977842999855,None,863.5977842999855,None,863.5977842999855,None,863.5977842999855,None,863.5977842999855,None,863.5977842999855,None,863.892401900026,864.8760059000342,863.892401900026,864.8760059000342,864.9067045000265,None,864.9067045000265,None,864.9067045000265,None,864.9067045000265,None,864.9067045000265,None,864.9067045000265,None,864.9067045000265,None,864.9067045000265,None,864.9067045000265,None,78,62,35,37,78,70,None,None,None,None,None,None,None,None,None,None,None,None,88,867.4365353999892,None,88,867.4365353999892,None,867.4365353999892,None,867.4365353999892,None,867.4365353999892,None,867.4365353999892,None,867.4365353999892,None,867.4365353999892,None,3.816001117229462e-05,None,867.4365353999892,None,-0.2,0,None,None,None,None,None,None,None,None,None,None,None,None,,None,None,None,None,,,,,,,,None,None,None,None,10.947916666666668,4.846659799979534,875.1773057000246,None,875.1773057000246,None,875.1773057000246,None,875.1773057000246,None,None,None,880.0362582000089,None,0.11197916666666667,-0.3059895833333333,1,0,0,7.689376199967228,tijiao,,241,f,22,2023_Mar_22_1003,RL,2021.2.3,59.93701819014226,
1,-0.3,-0.225,0,62,62,62,,,,,,,,,,,,,,,None,None,None,None,None,881.754420000012,None,881.754420000012,None,881.754420000012,None,881.754420000012,None,r,0.6068132999935187,881.754420000012,None,881.754420000012,None,882.4106304000015,None,882.4106304000015,None,882.4106304000015,None,882.4106304000015,None,882.4106304000015,None,882.4106304000015,None,882.7052266999963,None,882.7052266999963,None,884.5536016999977,None,884.5536016999977,None,884.5536016999977,None,884.5536016999977,None,884.5536016999977,None,884.5536016999977,None,884.5536016999977,None,884.5536016999977,None,884.5536016999977,None,75,63,37,46,75,73,None,None,None,None,None,None,None,None,None,None,None,None,,None,None,,None,None,None,None,None,None,None,None,None,None,None,None,None,None,None,None,None,None,0.2,1,887.1001549999928,None,887.1001549999928,None,887.1001549999928,None,887.1001549999928,None,887.1001549999928,None,887.1001549999928,None,86,887.1001549999928,None,887.1001549999928,None,0.06901041666666667,-0.3125,1,0,0,10.924603799998295,tijiao_random_2,0.016169019974768162,None,887.1001549999928,None,6.0,3.811781399999745,898.0595924999798,None,898.0595924999798,None,898.0595924999798,None,898.0595924999798,None,None,None,901.8848096000147,None,,,,,,,,,241,f,22,2023_Mar_22_1003,RL,2021.2.3,59.93701819014226,
0,0.3,0.225,0,63,63,63,,,,,,,,,,,,,,,None,None,None,None,None,903.6076074999874,None,903.6076074999874,None,903.6076074999874,None,903.6076074999874,None,r,0.4538651999901049,903.6076074999874,None,903.6076074999874,None,904.1068717000308,None,904.1068717000308,None,904.1068717000308,None,904.1068717000308,None,904.1068717000308,None,904.1068717000308,None,904.4030269000214,None,904.4030269000214,None,906.4025668000104,None,906.4025668000104,None,906.4025668000104,None,906.4025668000104,None,906.4025668000104,None,906.4025668000104,None,906.4025668000104,None,906.4025668000104,None,906.4025668000104,None,72,50,29,48,72,67,None,None,None,None,None,None,None,None,None,None,None,None,,None,None,,None,None,None,None,None,None,None,None,None,None,None,None,None,None,None,None,None,None,0.6,1,908.9493748000241,None,908.9493748000241,None,908.9493748000241,None,908.9493748000241,None,908.9493748000241,None,908.9493748000241,None,74,908.9493748000241,None,908.9493748000241,None,0.032552083333333336,-0.2877604166666667,1,0,0,9.789705900009722,tijiao_random_2,0.014977619983255863,None,908.9493748000241,None,8.018229166666666,4.043318299984094,918.7747148000053,None,918.7747148000053,None,918.7747148000053,None,918.7747148000053,None,None,None,922.8321936000139,None,,,,,,,,,241,f,22,2023_Mar_22_1003,RL,2021.2.3,59.93701819014226,
1,-0.3,-0.225,0,64,64,64,,,,,,,,,,,,,,,None,None,None,None,None,924.6220367000205,None,924.6220367000205,None,924.6220367000205,None,924.6220367000205,None,r,0.761147000011988,924.6220367000205,None,924.6220367000205,None,925.4210991000291,None,925.4210991000291,None,925.4210991000291,None,925.4210991000291,None,925.4210991000291,None,925.4210991000291,None,925.7180598999839,None,925.7180598999839,None,926.5663430999848,None,926.5663430999848,None,926.5663430999848,None,926.5663430999848,None,926.5663430999848,None,926.5663430999848,None,926.5663430999848,None,926.5663430999848,None,926.5663430999848,None,73,51,31,47,73,67,None,None,None,None,None,None,None,None,None,None,None,None,,None,None,,None,None,None,None,None,None,None,None,None,None,None,None,None,None,None,None,None,None,-0.6,1,929.1176593999844,None,929.1176593999844,None,929.1176593999844,None,929.1176593999844,None,929.1176593999844,None,929.1176593999844,None,73,929.1176593999844,None,929.1176593999844,None,0.11588541666666667,-0.2825520833333333,1,0,0,4.0812368000042625,tijiao_random_2,0.010945520014502108,None,929.1176593999844,None,11.0,1.9288010000018403,933.2309624000336,None,933.2309624000336,None,933.2309624000336,None,933.2309624000336,None,None,None,935.174399600015,None,,,,,,,,,241,f,22,2023_Mar_22_1003,RL,2021.2.3,59.93701819014226,
0,0.3,0.225,0,65,65,65,,,,,,,,,,,,,,,None,None,None,None,None,936.8639481000137,None,936.8639481000137,None,936.8639481000137,None,936.8639481000137,None,r,0.5787588999955915,936.8639481000137,None,936.8639481000137,None,937.4852549000061,None,937.4852549000061,None,937.4852549000061,None,937.4852549000061,None,937.4852549000061,None,937.4852549000061,None,937.759912199981,939.4448254000163,937.759912199981,939.4448254000163,939.4793778000167,None,939.4793778000167,None,939.4793778000167,None,939.4793778000167,None,939.4793778000167,None,939.4793778000167,None,939.4793778000167,None,939.4793778000167,None,939.4793778000167,None,73,50,35,50,73,71,None,None,None,None,None,None,None,None,None,None,None,None,,None,None,,None,None,None,None,None,None,None,None,None,None,None,None,None,None,None,None,None,None,-0.2,1,942.0270754999947,None,942.0270754999947,None,942.0270754999947,None,942.0270754999947,None,942.0270754999947,None,942.0270754999947,None,71,942.0270754999947,None,942.0270754999947,None,0.1171875,-0.29296875,1,0,0,5.231137699971441,tijiao_random_2,0.010505319980438799,None,942.0270754999947,None,10.1015625,2.8304036000045016,947.2899573000032,None,947.2899573000032,None,947.2899573000032,None,947.2899573000032,None,None,None,950.1345632000011,None,,,,,,,,,241,f,22,2023_Mar_22_1003,RL,2021.2.3,59.93701819014226,
1,-0.3,-0.225,0,66,66,66,,,,,,,,,,,,,,,None,None,None,None,None,952.1241822000011,None,952.1241822000011,None,952.1241822000011,None,952.1241822000011,None,r,1.0485517000197433,952.1241822000011,None,952.1241822000011,None,953.22599180002,None,953.22599180002,None,953.22599180002,None,953.22599180002,None,953.22599180002,None,953.22599180002,None,953.5208576000296,None,953.5208576000296,None,955.4030259000137,None,955.4030259000137,None,955.4030259000137,None,955.4030259000137,None,955.4030259000137,None,955.4030259000137,None,955.4030259000137,None,955.4030259000137,None,955.4030259000137,None,73,54,32,47,73,63,None,None,None,None,None,None,None,None,None,None,None,None,73,957.9313365999842,None,73,957.9313365999842,None,957.9313365999842,None,957.9313365999842,None,957.9313365999842,None,957.9313365999842,None,957.9313365999842,None,957.9313365999842,None,0.0011461600079201162,None,957.9313365999842,None,-0.2,0,None,None,None,None,None,None,None,None,None,None,None,None,,None,None,None,None,,,,,,,,None,None,None,None,10.973958333333332,4.551549799973145,963.4663822000148,None,963.4663822000148,None,963.4663822000148,None,963.4663822000148,None,None,None,968.0475887000212,None,0.12239583333333333,-0.3020833333333333,1,0,0,5.488812300027348,tijiao,,241,f,22,2023_Mar_22_1003,RL,2021.2.3,59.93701819014226,
0,0.3,0.225,0,67,67,67,,,,,,,,,,,,,,,None,None,None,None,None,969.8194237999851,None,969.8194237999851,None,969.8194237999851,None,969.8194237999851,None,r,1.193614299991168,969.8194237999851,None,969.8194237999851,None,971.0564196999767,None,971.0564196999767,None,971.0564196999767,None,971.0564196999767,None,971.0564196999767,None,971.0564196999767,None,971.3499396999832,972.1505622999975,971.3499396999832,972.1505622999975,972.187506599992,None,972.187506599992,None,972.187506599992,None,972.187506599992,None,972.187506599992,None,972.187506599992,None,972.187506599992,None,972.187506599992,None,972.187506599992,None,73,56,47,47,73,54,974.7074137000018,None,7.0,4.2345198999973945,974.7074137000018,None,974.7074137000018,None,974.7074137000018,None,974.7074137000018,None,,None,None,,None,None,None,None,None,None,None,None,None,None,None,None,None,None,None,None,None,None,0.2,3,None,None,None,None,None,None,None,None,None,None,None,None,,None,None,None,None,,,,,,,,None,None,None,None,None,None,None,None,None,None,None,None,None,None,None,None,978.9919773000292,None,,,,,,,,,241,f,22,2023_Mar_22_1003,RL,2021.2.3,59.93701819014226,
1,-0.3,-0.225,0,68,68,68,,,,,,,,,,,,,,,None,None,None,None,None,980.6441321999882,None,980.6441321999882,None,980.6441321999882,None,980.6441321999882,None,r,0.6088849999941885,980.6441321999882,None,980.6441321999882,None,981.297464800009,None,981.297464800009,None,981.297464800009,None,981.297464800009,None,981.297464800009,None,981.297464800009,None,981.5904658000218,983.2752310999786,981.5904658000218,983.2752310999786,983.307244900032,None,983.307244900032,None,983.307244900032,None,983.307244900032,None,983.307244900032,None,983.307244900032,None,983.307244900032,None,983.307244900032,None,983.307244900032,None,72,35,34,47,72,56,None,None,None,None,None,None,None,None,None,None,None,None,,None,None,,None,None,None,None,None,None,None,None,None,None,None,None,None,None,None,None,None,None,0.2,1,985.8569249000284,None,985.8569249000284,None,985.8569249000284,None,985.8569249000284,None,985.8569249000284,None,985.8569249000284,None,75,985.8569249000284,None,985.8569249000284,None,0.061197916666666664,-0.3046875,1,0,0,6.632867300009821,tijiao_random_2,0.01077792001888156,None,985.8569249000284,None,9.059895833333332,3.2112297999556176,992.5237528000143,None,992.5237528000143,None,992.5237528000143,None,992.5237528000143,None,None,None,995.749758800026,None,,,,,,,,,241,f,22,2023_Mar_22_1003,RL,2021.2.3,59.93701819014226,
0,0.3,0.225,0,69,69,69,,,,,,,,,,,,,,,None,None,None,None,None,997.5892732000211,None,997.5892732000211,None,997.5892732000211,None,997.5892732000211,None,r,0.9137876000022516,997.5892732000211,None,997.5892732000211,None,998.5397133000079,None,998.5397133000079,None,998.5397133000079,None,998.5397133000079,None,998.5397133000079,None,998.5397133000079,None,998.8358658999787,None,998.8358658999787,None,1000.2708092000103,None,1000.2708092000103,None,1000.2708092000103,None,1000.2708092000103,None,1000.2708092000103,None,1000.2708092000103,None,1000.2708092000103,None,1000.2708092000103,None,1000.2708092000103,None,72,49,37,47,72,50,1002.7975248000002,None,6.0,2.468564899987541,1002.7975248000002,None,1002.7975248000002,None,1002.7975248000002,None,1002.7975248000002,None,,None,None,,None,None,None,None,None,None,None,None,None,None,None,None,None,None,None,None,None,None,-0.2,3,None,None,None,None,None,None,None,None,None,None,None,None,,None,None,None,None,,,,,,,,None,None,None,None,None,None,None,None,None,None,None,None,None,None,None,None,1005.3131175999879,None,,,,,,,,,241,f,22,2023_Mar_22_1003,RL,2021.2.3,59.93701819014226,
1,-0.3,-0.225,0,70,70,70,,,,,,,,,,,,,,,None,None,None,None,None,1007.0625137999887,None,1007.0625137999887,None,1007.0625137999887,None,1007.0625137999887,None,r,0.8005799000384286,1007.0625137999887,None,1007.0625137999887,None,1007.9168857000186,None,1007.9168857000186,None,1007.9168857000186,None,1007.9168857000186,None,1007.9168857000186,None,1007.9168857000186,None,1008.2089391000336,None,1008.2089391000336,None,1010.1896837999811,None,1010.1896837999811,None,1010.1896837999811,None,1010.1896837999811,None,1010.1896837999811,None,1010.1896837999811,None,1010.1896837999811,None,1010.1896837999811,None,1010.1896837999811,None,65,53,28,43,65,71,1012.7172113999841,None,6.0,1.5493192999856547,1012.7172113999841,None,1012.7172113999841,None,1012.7172113999841,None,1012.7172113999841,None,,None,None,,None,None,None,None,None,None,None,None,None,None,None,None,None,None,None,None,None,None,-0.2,3,None,None,None,None,None,None,None,None,None,None,None,None,,None,None,None,None,,,,,,,,None,None,None,None,None,None,None,None,None,None,None,None,None,None,None,None,1014.3394839999964,None,,,,,,,,,241,f,22,2023_Mar_22_1003,RL,2021.2.3,59.93701819014226,
0,0.3,0.225,0,71,71,71,,,,,,,,,,,,,,,None,None,None,None,None,1016.2354281999869,None,1016.2354281999869,None,1016.2354281999869,None,1016.2354281999869,None,f,0.8077411000267603,1016.2354281999869,None,1016.2354281999869,None,1017.0882654000307,None,1017.0882654000307,None,1017.0882654000307,None,1017.0882654000307,None,1017.0882654000307,None,1017.0882654000307,None,1017.3821061000344,None,1017.3821061000344,None,1019.2625299000065,None,1019.2625299000065,None,1019.2625299000065,None,1019.2625299000065,None,1019.2625299000065,None,1019.2625299000065,None,1019.2625299000065,None,1019.2625299000065,None,1019.2625299000065,None,67,50,36,43,50,54,None,None,None,None,None,None,None,None,None,None,None,None,,None,None,,None,None,None,None,None,None,None,None,None,None,None,None,None,None,None,None,None,None,0.2,1,1021.8174274000339,None,1021.8174274000339,None,1021.8174274000339,None,1021.8174274000339,None,1021.8174274000339,None,1021.8174274000339,None,73,1021.8174274000339,None,1021.8174274000339,None,0.10416666666666667,-0.2682291666666667,1,0,0,6.448811000038404,tijiao_random_2,0.009995720000006258,None,1021.8174274000339,None,4.971354166666667,2.49926620000042,1028.2963679999812,None,1028.2963679999812,None,1028.2963679999812,None,1028.2963679999812,None,None,None,1030.8225085000158,None,,,,,,,,,241,f,22,2023_Mar_22_1003,RL,2021.2.3,59.93701819014226,
1,-0.3,-0.225,0,72,72,72,,,,,,,,,,,,,,,None,None,None,None,None,1032.6468030000106,None,1032.6468030000106,None,1032.6468030000106,None,1032.6468030000106,None,i,0.8765981000033207,1032.6468030000106,None,1032.6468030000106,None,1033.564276900026,None,1033.564276900026,None,1033.564276900026,None,1033.564276900026,None,1033.564276900026,None,1033.564276900026,None,1033.8600137000321,1034.7440884999814,1033.8600137000321,1034.7440884999814,1034.7822482000338,None,1034.7822482000338,None,1034.7822482000338,None,1034.7822482000338,None,1034.7822482000338,None,1034.7822482000338,None,1034.7822482000338,None,1034.7822482000338,None,1034.7822482000338,None,57,47,40,39,40,78,1037.3099211999797,None,6.0,1.7076384000247344,1037.3099211999797,None,1037.3099211999797,None,1037.3099211999797,None,1037.3099211999797,None,,None,None,,None,None,None,None,None,None,None,None,None,None,None,None,None,None,None,None,None,None,-0.2,2,None,None,None,None,None,None,None,None,None,None,None,None,,None,None,None,None,,,,,,,,None,None,None,None,None,None,None,None,None,None,None,None,None,None,None,None,1039.0712640000274,None,,,,,,,,,241,f,22,2023_Mar_22_1003,RL,2021.2.3,59.93701819014226,
0,0.3,0.225,0,73,73,73,,,,,,,,,,,,,,,None,None,None,None,None,1040.885092600016,None,1040.885092600016,None,1040.885092600016,None,1040.885092600016,None,r,0.5288459000294097,1040.885092600016,None,1040.885092600016,None,1041.459419700026,None,1041.459419700026,None,1041.459419700026,None,1041.459419700026,None,1041.459419700026,None,1041.459419700026,None,1041.7488187000272,1043.4666997999884,1041.7488187000272,1043.4666997999884,1043.4986871000146,None,1043.4986871000146,None,1043.4986871000146,None,1043.4986871000146,None,1043.4986871000146,None,1043.4986871000146,None,1043.4986871000146,None,1043.4986871000146,None,1043.4986871000146,None,50,50,35,46,50,73,None,None,None,None,None,None,None,None,None,None,None,None,80,1046.0350169999874,None,80,1046.0350169999874,None,1046.0350169999874,None,1046.0350169999874,None,1046.0350169999874,None,1046.0350169999874,None,1046.0350169999874,None,1046.0350169999874,None,0.008869790006428957,None,1046.0350169999874,None,-0.2,0,None,None,None,None,None,None,None,None,None,None,None,None,,None,None,None,None,,,,,,,,None,None,None,None,5.140625,2.3992145999800414,1051.2272063000128,None,1051.2272063000128,None,1051.2272063000128,None,1051.2272063000128,None,None,None,1053.6470906999893,None,0.048177083333333336,-0.28515625,1,0,0,5.1474389000213705,tijiao,,241,f,22,2023_Mar_22_1003,RL,2021.2.3,59.93701819014226,
1,-0.3,-0.225,0,74,74,74,,,,,,,,,,,,,,,None,None,None,None,None,1055.4796876999899,None,1055.4796876999899,None,1055.4796876999899,None,1055.4796876999899,None,j,0.37379019998479635,1055.4796876999899,None,1055.4796876999899,None,1055.8988352000015,None,1055.8988352000015,None,1055.8988352000015,None,1055.8988352000015,None,1055.8988352000015,None,1055.8988352000015,None,1056.1921823000303,1057.6266549000284,1056.1921823000303,1057.6266549000284,1057.657332999981,None,1057.657332999981,None,1057.657332999981,None,1057.657332999981,None,1057.657332999981,None,1057.657332999981,None,1057.657332999981,None,1057.657332999981,None,1057.657332999981,None,61,65,41,43,43,77,None,None,None,None,None,None,None,None,None,None,None,None,75,1060.1908698999905,None,75,1060.1908698999905,None,1060.1908698999905,None,1060.1908698999905,None,1060.1908698999905,None,1060.1908698999905,None,1060.1908698999905,None,1060.1908698999905,None,0.01147859008051455,None,1060.1908698999905,None,0.2,0,None,None,None,None,None,None,None,None,None,None,None,None,,None,None,None,None,,,,,,,,None,None,None,None,5.0234375,3.167127900000196,1065.3214644999825,None,1065.3214644999825,None,1065.3214644999825,None,1065.3214644999825,None,None,None,1068.515429000021,None,-0.046875,-0.2903645833333333,1,0,0,5.083542299980763,tijiao,,241,f,22,2023_Mar_22_1003,RL,2021.2.3,59.93701819014226,
0,0.3,0.225,0,75,75,75,,,,,,,,,,,,,,,1070.402050100034,None,q,1070.402050100034,None,1129.658161600004,None,1129.658161600004,None,1129.658161600004,None,1129.658161600004,None,r,0.95779339998262,1129.658161600004,None,1129.658161600004,None,1130.665059800027,None,1130.665059800027,None,1130.665059800027,None,1130.665059800027,None,1130.665059800027,None,1130.665059800027,None,1130.9610055999947,1131.9115460999892,1130.9610055999947,1131.9115460999892,1131.9432074999786,None,1131.9432074999786,None,1131.9432074999786,None,1131.9432074999786,None,1131.9432074999786,None,1131.9432074999786,None,1131.9432074999786,None,1131.9432074999786,None,1131.9432074999786,None,54,56,36,42,54,60,1134.4607623000047,None,5.0,2.8208095000009052,1134.4607623000047,None,1134.4607623000047,None,1134.4607623000047,None,1134.4607623000047,None,,None,None,,None,None,None,None,None,None,None,None,None,None,None,None,None,None,None,None,None,None,0.6,3,None,None,None,None,None,None,None,None,None,None,None,None,,None,None,None,None,,,,,,,,None,None,None,None,None,None,None,None,None,None,None,None,None,None,None,None,1137.3375714999856,None,,,,,,,,59.21418770001037,241,f,22,2023_Mar_22_1003,RL,2021.2.3,59.93701819014226,
