bandit0,black_x_pos_random,black_y_pos_random,trials.thisRepN,trials.thisTrialN,trials.thisN,trials.thisIndex,instru_img1.started,instru_resp.started,instru_resp.keys,instru_resp.rt,instru_img2.started,instru_resp2.started,instru_resp2.keys,instru_resp2.rt,fixbefore_2.started,rest_response.keys,red.started,green.started,yellow.started,blue.started,choose_bandit.started,Fixation.started,choose_bandit.keys,choose_bandit.rt,black.started,red_2.started,green_2.started,yellow_2.started,blue_2.started,fixation_2.started,docs.started,wait_playerB.started,docs.stopped,wait_playerB.stopped,black.stopped,red_2.stopped,green_2.stopped,yellow_2.stopped,blue_2.stopped,fixation_2.stopped,black_com.started,reward_sub.started,palyerb.started,reward__sub.started,compare.started,red_compare.started,green_com.started,yellow_com.started,blue_com.started,image_3.started,slider.started,text.started,image_4.started,image_5.started,rewardyellow,rewardred,rewardblue,rewardgreen,subchoose,playerb,slider.response,slider.rt,expectself.text,value_expect_self,tijiao_click.x,tijiao_click.y,tijiao_click.leftButton,tijiao_click.midButton,tijiao_click.rightButton,tijiao_click.time,tijiao_click.clicked_name,random_whicharm,whether_ask,expect_random_3.text,tijiao_random.x,tijiao_random.y,tijiao_random.leftButton,tijiao_random.midButton,tijiao_random.rightButton,tijiao_random.time,tijiao_random.clicked_name,slider_2.response,slider_2.rt,intertrialfix.started,intertrialfix.stopped,expectself.started,expect_self_black.started,expect_self.started,expect_self_red.started,expect_self_green.started,expect_self_yellow.started,expect_self_blue.started,tijiao.started,tijiao_click.started,check.started,slider_2.started,image_7.started,confi.started,notconfi.started,jiantou_random.started,expect_red.started,expect_green.started,expect_yellow.started,expect_blue.started,expect_random_2.started,expect_random_3.started,tijiao_random_2.started,tijiao_random.started,check_2.started,rest_image.started,rest_response.started,rest_response.rt,participant,Gender,Age,date,expName,psychopyVersion,frameRate,
,,,,,,,36.42789571099274,36.42789571099274,space,4.200742257002275,,,,,,,,,,,,,,,,,,,,,,,,,,,,,,,,,,,,,,,,,,,,,,,,,,,,,,,,,,,,,,,,,,,,,,,,,,,,,,,,,,,,,,,,,,,,,,,,,,,,,,,242,f,22,2023-03-22_10h03.04.780,RL,2022.2.4,59.857970205464284,
,,,,,,,,,,,40.69332978199236,40.69332978199236,s,34.825585751998005,,,,,,,,,,,,,,,,,,,,,,,,,,,,,,,,,,,,,,,,,,,,,,,,,,,,,,,,,,,,,,,,,,,,,,,,,,,,,,,,,,,,,,,,,,,,,,,,,,,242,f,22,2023-03-22_10h03.04.780,RL,2022.2.4,59.857970205464284,
1,-0.3,-0.225,0,0,0,0,,,,,,,,,75.57450726800016,None,76.6361876699957,76.6361876699957,76.6361876699957,76.6361876699957,76.6361876699957,76.6361876699957,r,0.1902558029978536,76.92017856799066,76.92017856799066,76.92017856799066,76.92017856799066,76.92017856799066,76.92017856799066,77.16026227499242,77.16026227499242,79.09119677699346,79.09119677699346,79.17027875399799,79.17027875399799,79.17027875399799,79.17027875399799,79.17027875399799,79.17027875399799,79.17027875399799,79.17027875399799,79.17027875399799,79.17027875399799,79.17027875399799,79.17027875399799,79.17027875399799,79.17027875399799,79.17027875399799,81.66405322699575,81.66405322699575,81.66405322699575,81.66405322699575,81.66405322699575,37,60,71,31,37,46,4.0,3.165287915006047,,,[],[],[],[],[],[],[],0.6,2,,[],[],[],[],[],[],[],None,None,85.11371813999722,87.02795582599356,,,,,,,,,,,,,,,,,,,,,,,,,,,,242,f,22,2023-03-22_10h03.04.780,RL,2022.2.4,59.857970205464284,
0,0.3,0.225,0,1,1,1,,,,,,,,,,None,87.02795582599356,87.02795582599356,87.02795582599356,87.02795582599356,87.02795582599356,87.02795582599356,f,0.4221059950068593,87.50991656898987,87.50991656898987,87.50991656898987,87.50991656898987,87.50991656898987,87.50991656898987,87.7622296759946,87.7622296759946,89.56446694199985,89.56446694199985,89.62472352400073,89.62472352400073,89.62472352400073,89.62472352400073,89.62472352400073,89.62472352400073,89.62472352400073,89.62472352400073,89.62472352400073,89.62472352400073,89.62472352400073,89.62472352400073,89.62472352400073,89.62472352400073,89.62472352400073,92.11148012099147,92.11148012099147,92.11148012099147,92.11148012099147,92.11148012099147,38,63,65,32,63,73,5.0,1.7704014749906491,,,[],[],[],[],[],[],[],0.2,3,,[],[],[],[],[],[],[],None,None,93.94931292800175,95.86290120299964,,,,,,,,,,,,,,,,,,,,,,,,,,,,242,f,22,2023-03-22_10h03.04.780,RL,2022.2.4,59.857970205464284,
1,-0.3,-0.225,0,2,2,2,,,,,,,,,,None,95.86290120299964,95.86290120299964,95.86290120299964,95.86290120299964,95.86290120299964,95.86290120299964,f,0.40836195000156295,96.31988502599415,96.31988502599415,96.31988502599415,96.31988502599415,96.31988502599415,96.31988502599415,96.58060436300002,96.58060436300002,98.03690285499033,98.03690285499033,98.08118480700068,98.08118480700068,98.08118480700068,98.08118480700068,98.08118480700068,98.08118480700068,98.08118480700068,98.08118480700068,98.08118480700068,98.08118480700068,98.08118480700068,98.08118480700068,98.08118480700068,98.08118480700068,98.08118480700068,,,,,,40,64,69,32,64,44,None,None,70,70,[0.02],[-0.29125],[1],[0],[0],[6.587772344995756],['tijiao'],-0.2,0,,[],[],[],[],[],[],[],7.9125000000000005,2.3920001280057477,109.65606151899556,111.60104558800231,100.6244352759968,100.6244352759968,100.6244352759968,100.6244352759968,100.6244352759968,100.6244352759968,100.6244352759968,100.6244352759968,0.009525147994281724,100.6244352759968,107.27449328100192,107.27449328100192,107.27449328100192,107.27449328100192,,,,,,,,,,,,,,242,f,22,2023-03-22_10h03.04.780,RL,2022.2.4,59.857970205464284,
0,0.3,0.225,0,3,3,3,,,,,,,,,,None,111.60104558800231,111.60104558800231,111.60104558800231,111.60104558800231,111.60104558800231,111.60104558800231,f,0.23974399900180288,111.9043930189946,111.9043930189946,111.9043930189946,111.9043930189946,111.9043930189946,111.9043930189946,112.16863260199898,112.16863260199898,113.35504361600033,113.35504361600033,113.40806820298894,113.40806820298894,113.40806820298894,113.40806820298894,113.40806820298894,113.40806820298894,113.40806820298894,113.40806820298894,113.40806820298894,113.40806820298894,113.40806820298894,113.40806820298894,113.40806820298894,113.40806820298894,113.40806820298894,,,,,,40,69,71,35,69,48,None,None,,,[],[],[],[],[],[],[],0.6,1,38,[-0.0025],[-0.2975],[1],[0],[0],[9.66563299500558],['tijiao_random_2'],7.9875,2.517268346986384,128.16801181300252,129.82968178999727,,,,,,,,,,,125.63906015199609,125.63906015199609,125.63906015199609,125.63906015199609,115.94603741499304,115.94603741499304,115.94603741499304,115.94603741499304,115.94603741499304,115.94603741499304,115.94603741499304,115.94603741499304,0.011520843996549957,115.94603741499304,,,,242,f,22,2023-03-22_10h03.04.780,RL,2022.2.4,59.857970205464284,
1,-0.3,-0.225,0,4,4,4,,,,,,,,,,None,129.82968178999727,129.82968178999727,129.82968178999727,129.82968178999727,129.82968178999727,129.82968178999727,f,0.4730317829962587,130.36639514999115,130.36639514999115,130.36639514999115,130.36639514999115,130.36639514999115,130.36639514999115,130.6446896409907,130.6446896409907,131.82466425299936,131.82466425299936,131.86399808399437,131.86399808399437,131.86399808399437,131.86399808399437,131.86399808399437,131.86399808399437,131.86399808399437,131.86399808399437,131.86399808399437,131.86399808399437,131.86399808399437,131.86399808399437,131.86399808399437,131.86399808399437,131.86399808399437,,,,,,50,63,69,29,63,51,None,None,68,68,[0.01125],[-0.29875],[1],[0],[0],[6.6504569460084895],['tijiao'],0.2,0,,[],[],[],[],[],[],[],8.9375,2.4277532220003195,143.50657740898896,145.4502718779986,134.37376934599888,134.37376934599888,134.37376934599888,134.37376934599888,134.37376934599888,134.37376934599888,134.37376934599888,134.37376934599888,0.013187979013309814,134.37376934599888,141.0652652610006,141.0652652610006,141.0652652610006,141.0652652610006,,,,,,,,,,,,,,242,f,22,2023-03-22_10h03.04.780,RL,2022.2.4,59.857970205464284,
0,0.3,0.225,0,5,5,5,,,,,,,,,,None,145.4502718779986,145.4502718779986,145.4502718779986,145.4502718779986,145.4502718779986,145.4502718779986,f,0.27319102799810935,145.78418682698975,145.78418682698975,145.78418682698975,145.78418682698975,145.78418682698975,145.78418682698975,146.05660103898845,146.05660103898845,147.8336167499947,147.8336167499947,147.86479084999883,147.86479084999883,147.86479084999883,147.86479084999883,147.86479084999883,147.86479084999883,147.86479084999883,147.86479084999883,147.86479084999883,147.86479084999883,147.86479084999883,147.86479084999883,147.86479084999883,147.86479084999883,147.86479084999883,150.36284537699248,150.36284537699248,150.36284537699248,150.36284537699248,150.36284537699248,51,67,64,21,67,67,5.0,2.7393297550006537,,,[],[],[],[],[],[],[],-0.6,3,,[],[],[],[],[],[],[],None,None,153.14723622098973,154.6769101339887,,,,,,,,,,,,,,,,,,,,,,,,,,,,242,f,22,2023-03-22_10h03.04.780,RL,2022.2.4,59.857970205464284,
1,-0.3,-0.225,0,6,6,6,,,,,,,,,,None,154.6769101339887,154.6769101339887,154.6769101339887,154.6769101339887,154.6769101339887,154.6769101339887,f,0.34797394199995324,155.0903160309972,155.0903160309972,155.0903160309972,155.0903160309972,155.0903160309972,155.0903160309972,155.35789658800059,155.35789658800059,157.36602294599288,157.36602294599288,157.41281010999228,157.41281010999228,157.41281010999228,157.41281010999228,157.41281010999228,157.41281010999228,157.41281010999228,157.41281010999228,157.41281010999228,157.41281010999228,157.41281010999228,157.41281010999228,157.41281010999228,157.41281010999228,157.41281010999228,,,,,,52,56,64,32,56,73,None,None,65,65,[0.025],[-0.27875],[1],[0],[0],[6.272293409012491],['tijiao'],-0.2,0,,[],[],[],[],[],[],[],7.9875,2.110562403991935,168.38298693399702,170.3779916959902,159.9400318179978,159.9400318179978,159.9400318179978,159.9400318179978,159.9400318179978,159.9400318179978,159.9400318179978,159.9400318179978,0.008650316012790427,159.9400318179978,166.25564325699816,166.25564325699816,166.25564325699816,166.25564325699816,,,,,,,,,,,,,,242,f,22,2023-03-22_10h03.04.780,RL,2022.2.4,59.857970205464284,
0,0.3,0.225,0,7,7,7,,,,,,,,,,None,170.3779916959902,170.3779916959902,170.3779916959902,170.3779916959902,170.3779916959902,170.3779916959902,f,0.2855391160119325,170.71961654699408,170.71961654699408,170.71961654699408,170.71961654699408,170.71961654699408,170.71961654699408,170.99735568699543,170.99735568699543,172.18774358498922,172.18774358498922,172.21284563699737,172.21284563699737,172.21284563699737,172.21284563699737,172.21284563699737,172.21284563699737,172.21284563699737,172.21284563699737,172.21284563699737,172.21284563699737,172.21284563699737,172.21284563699737,172.21284563699737,172.21284563699737,172.21284563699737,,,,,,52,57,50,27,57,27,None,None,60,60,"[0.1025, -0.00625]","[0.2525, -0.28375]","[1, 1]","[0, 0]","[0, 0]","[2.3622680850094184, 9.274008691005292]",['tijiao'],0.2,0,,[],[],[],[],[],[],[],8.0375,3.1332052030047635,187.19286443699093,189.10679494899523,174.73308119799185,174.73308119799185,174.73308119799185,174.73308119799185,174.73308119799185,174.73308119799185,174.73308119799185,174.73308119799185,0.00850090800668113,174.73308119799185,184.04129830100283,184.04129830100283,184.04129830100283,184.04129830100283,,,,,,,,,,,,,,242,f,22,2023-03-22_10h03.04.780,RL,2022.2.4,59.857970205464284,
1,-0.3,-0.225,0,8,8,8,,,,,,,,,,None,189.10679494899523,189.10679494899523,189.10679494899523,189.10679494899523,189.10679494899523,189.10679494899523,f,0.5183310590073233,189.67770141399524,189.67770141399524,189.67770141399524,189.67770141399524,189.67770141399524,189.67770141399524,189.9464785559976,189.9464785559976,191.0519540739915,191.0519540739915,191.0758155520016,191.0758155520016,191.0758155520016,191.0758155520016,191.0758155520016,191.0758155520016,191.0758155520016,191.0758155520016,191.0758155520016,191.0758155520016,191.0758155520016,191.0758155520016,191.0758155520016,191.0758155520016,191.0758155520016,,,,,,57,57,62,29,57,67,None,None,57,57,[-0.00375],[-0.29875],[1],[0],[0],[5.774517159996321],['tijiao'],0.2,0,,[],[],[],[],[],[],[],7.1125,2.6175331810081843,202.06680832299753,203.73052026799996,193.5922296159988,193.5922296159988,193.5922296159988,193.5922296159988,193.5922296159988,193.5922296159988,193.5922296159988,193.5922296159988,0.008928485010983422,193.5922296159988,199.43567360300221,199.43567360300221,199.43567360300221,199.43567360300221,,,,,,,,,,,,,,242,f,22,2023-03-22_10h03.04.780,RL,2022.2.4,59.857970205464284,
0,0.3,0.225,0,9,9,9,,,,,,,,,,None,203.73052026799996,203.73052026799996,203.73052026799996,203.73052026799996,203.73052026799996,203.73052026799996,f,0.5115627930063056,204.29900009899575,204.29900009899575,204.29900009899575,204.29900009899575,204.29900009899575,204.29900009899575,204.57398509599443,204.57398509599443,205.56330293999054,205.56330293999054,205.6066265720001,205.6066265720001,205.6066265720001,205.6066265720001,205.6066265720001,205.6066265720001,205.6066265720001,205.6066265720001,205.6066265720001,205.6066265720001,205.6066265720001,205.6066265720001,205.6066265720001,205.6066265720001,205.6066265720001,,,,,,52,58,65,39,58,34,None,None,,,[],[],[],[],[],[],[],0.6,1,38,"[0.095, 0.00625]","[0.30875, -0.305]","[1, 1]","[0, 0]","[0, 0]","[2.9062455399980536, 6.386670022999169]",['tijiao_random_2'],8.0,2.2112184510042425,216.81683830700058,218.48443571999087,,,,,,,,,,,214.58066721000068,214.58066721000068,214.58066721000068,214.58066721000068,208.17002507399593,208.17002507399593,208.17002507399593,208.17002507399593,208.17002507399593,208.17002507399593,208.17002507399593,208.17002507399593,0.014829328007181175,208.17002507399593,,,,242,f,22,2023-03-22_10h03.04.780,RL,2022.2.4,59.857970205464284,
1,-0.3,-0.225,0,10,10,10,,,,,,,,,,None,218.48443571999087,218.48443571999087,218.48443571999087,218.48443571999087,218.48443571999087,218.48443571999087,f,1.0249068810080644,219.55091566999909,219.55091566999909,219.55091566999909,219.55091566999909,219.55091566999909,219.55091566999909,219.82893910299754,219.82893910299754,221.1319162509899,221.1319162509899,221.1720544169948,221.1720544169948,221.1720544169948,221.1720544169948,221.1720544169948,221.1720544169948,221.1720544169948,221.1720544169948,221.1720544169948,221.1720544169948,221.1720544169948,221.1720544169948,221.1720544169948,221.1720544169948,221.1720544169948,,,,,,62,52,55,37,52,22,None,None,,,[],[],[],[],[],[],[],-0.6,1,48,"[0.10125, 0.0]","[0.30375, -0.2825]","[1, 1]","[0, 0]","[0, 0]","[1.9467031370004406, 5.986659720001626]",['tijiao_random_2'],6.925000000000001,3.3011326720006764,233.0305732939887,234.59274757798994,,,,,,,,,,,229.71637585799908,229.71637585799908,229.71637585799908,229.71637585799908,223.7037657109904,223.7037657109904,223.7037657109904,223.7037657109904,223.7037657109904,223.7037657109904,223.7037657109904,223.7037657109904,0.01009595999494195,223.7037657109904,,,,242,f,22,2023-03-22_10h03.04.780,RL,2022.2.4,59.857970205464284,
0,0.3,0.225,0,11,11,11,,,,,,,,,,None,234.59274757798994,234.59274757798994,234.59274757798994,234.59274757798994,234.59274757798994,234.59274757798994,f,0.3081212469987804,234.95630363500095,234.95630363500095,234.95630363500095,234.95630363500095,234.95630363500095,234.95630363500095,235.2277212409972,235.2277212409972,236.46759006100183,236.46759006100183,236.49230836199422,236.49230836199422,236.49230836199422,236.49230836199422,236.49230836199422,236.49230836199422,236.49230836199422,236.49230836199422,236.49230836199422,236.49230836199422,236.49230836199422,236.49230836199422,236.49230836199422,236.49230836199422,236.49230836199422,,,,,,64,59,59,33,59,70,None,None,,,[],[],[],[],[],[],[],0.2,1,60,"[0.1025, 0.0025]","[0.31125, -0.30875]","[1, 1]","[0, 0]","[0, 0]","[1.6779341070068767, 10.818442931005848]",['tijiao_random_2'],4.0874999999999995,3.8953955070028314,253.77787643799093,255.40179821199854,,,,,,,,,,,249.86912408699573,249.86912408699573,249.86912408699573,249.86912408699573,239.03039878499112,239.03039878499112,239.03039878499112,239.03039878499112,239.03039878499112,239.03039878499112,239.03039878499112,239.03039878499112,0.010146116997930221,239.03039878499112,,,,242,f,22,2023-03-22_10h03.04.780,RL,2022.2.4,59.857970205464284,
1,-0.3,-0.225,0,12,12,12,,,,,,,,,,None,255.40179821199854,255.40179821199854,255.40179821199854,255.40179821199854,255.40179821199854,255.40179821199854,f,0.8675950670003658,256.3217193039891,256.3217193039891,256.3217193039891,256.3217193039891,256.3217193039891,256.3217193039891,256.5888873489894,256.5888873489894,257.88840724799957,257.88840724799957,257.9361627670005,257.9361627670005,257.9361627670005,257.9361627670005,257.9361627670005,257.9361627670005,257.9361627670005,257.9361627670005,257.9361627670005,257.9361627670005,257.9361627670005,257.9361627670005,257.9361627670005,257.9361627670005,257.9361627670005,,,,,,56,58,62,34,58,72,None,None,58,58,[0.0325],[-0.285],[1],[0],[0],[6.888644143997226],['tijiao'],-0.2,0,,[],[],[],[],[],[],[],7.9125000000000005,2.141412771990872,269.55288463499164,271.2977146409976,260.4478930059995,260.4478930059995,260.4478930059995,260.4478930059995,260.4478930059995,260.4478930059995,260.4478930059995,260.4478930059995,0.008551261998945847,260.4478930059995,267.37551102299767,267.37551102299767,267.37551102299767,267.37551102299767,,,,,,,,,,,,,,242,f,22,2023-03-22_10h03.04.780,RL,2022.2.4,59.857970205464284,
0,0.3,0.225,0,13,13,13,,,,,,,,,,None,271.2977146409976,271.2977146409976,271.2977146409976,271.2977146409976,271.2977146409976,271.2977146409976,j,0.26122560699877795,271.61941836899496,271.61941836899496,271.61941836899496,271.61941836899496,271.61941836899496,271.61941836899496,271.8773012409947,271.8773012409947,272.9843449889886,272.9843449889886,273.03535589900275,273.03535589900275,273.03535589900275,273.03535589900275,273.03535589900275,273.03535589900275,273.03535589900275,273.03535589900275,273.03535589900275,273.03535589900275,273.03535589900275,273.03535589900275,273.03535589900275,273.03535589900275,273.03535589900275,275.54145019299176,275.54145019299176,275.54145019299176,275.54145019299176,275.54145019299176,52,54,49,25,25,73,3.0,2.2891274330031592,,,[],[],[],[],[],[],[],0.6,2,,[],[],[],[],[],[],[],None,None,277.9006868430006,279.89731469099934,,,,,,,,,,,,,,,,,,,,,,,,,,,,242,f,22,2023-03-22_10h03.04.780,RL,2022.2.4,59.857970205464284,
1,-0.3,-0.225,0,14,14,14,,,,,,,,,,None,279.89731469099934,279.89731469099934,279.89731469099934,279.89731469099934,279.89731469099934,279.89731469099934,i,0.5061863969895057,280.4641492739902,280.4641492739902,280.4641492739902,280.4641492739902,280.4641492739902,280.4641492739902,280.73196660898975,280.73196660898975,282.03362773799745,282.03362773799745,282.08102099499956,282.08102099499956,282.08102099499956,282.08102099499956,282.08102099499956,282.08102099499956,282.08102099499956,282.08102099499956,282.08102099499956,282.08102099499956,282.08102099499956,282.08102099499956,282.08102099499956,282.08102099499956,282.08102099499956,284.5878920949908,284.5878920949908,284.5878920949908,284.5878920949908,284.5878920949908,58,50,59,25,59,77,3.0,1.9749510800029384,,,[],[],[],[],[],[],[],-0.2,3,,[],[],[],[],[],[],[],None,None,286.60562510699674,288.1838665730029,,,,,,,,,,,,,,,,,,,,,,,,,,,,242,f,22,2023-03-22_10h03.04.780,RL,2022.2.4,59.857970205464284,
0,0.3,0.225,0,15,15,15,,,,,,,,,,None,288.1838665730029,288.1838665730029,288.1838665730029,288.1838665730029,288.1838665730029,288.1838665730029,r,0.31849119599792175,288.55384250800125,288.55384250800125,288.55384250800125,288.55384250800125,288.55384250800125,288.55384250800125,288.8279205220024,288.8279205220024,290.7877124069928,290.7877124069928,290.81850442399445,290.81850442399445,290.81850442399445,290.81850442399445,290.81850442399445,290.81850442399445,290.81850442399445,290.81850442399445,290.81850442399445,290.81850442399445,290.81850442399445,290.81850442399445,290.81850442399445,290.81850442399445,290.81850442399445,,,,,,49,53,57,40,49,71,None,None,,,[],[],[],[],[],[],[],-0.6,1,50,"[0.10375, -0.01375]","[0.30125, -0.2975]","[1, 1]","[0, 0]","[0, 0]","[2.1061535399931017, 4.9662641619943315]",['tijiao_random_2'],6.05,1.4735369769914541,299.82134863900137,301.5572471280029,,,,,,,,,,,298.32937521499116,298.32937521499116,298.32937521499116,298.32937521499116,293.3478356419946,293.3478356419946,293.3478356419946,293.3478356419946,293.3478356419946,293.3478356419946,293.3478356419946,293.3478356419946,0.010230443993350491,293.3478356419946,,,,242,f,22,2023-03-22_10h03.04.780,RL,2022.2.4,59.857970205464284,
1,-0.3,-0.225,0,16,16,16,,,,,,,,,,None,301.5572471280029,301.5572471280029,301.5572471280029,301.5572471280029,301.5572471280029,301.5572471280029,f,0.24272200200357474,301.8546054039907,301.8546054039907,301.8546054039907,301.8546054039907,301.8546054039907,301.8546054039907,302.12542430098983,302.12542430098983,304.12719516499783,304.12719516499783,304.1675613569969,304.1675613569969,304.1675613569969,304.1675613569969,304.1675613569969,304.1675613569969,304.1675613569969,304.1675613569969,304.1675613569969,304.1675613569969,304.1675613569969,304.1675613569969,304.1675613569969,304.1675613569969,304.1675613569969,,,,,,43,58,55,43,58,76,None,None,,,[],[],[],[],[],[],[],0.6,1,60,[-0.01],[-0.2775],[1],[0],[0],[5.856499389003147],['tijiao_random_2'],5.0249999999999995,2.8258963319967734,315.42667290900135,317.1154039690009,,,,,,,,,,,312.58340491999115,312.58340491999115,312.58340491999115,312.58340491999115,306.7081680629926,306.7081680629926,306.7081680629926,306.7081680629926,306.7081680629926,306.7081680629926,306.7081680629926,306.7081680629926,0.010245123994536698,306.7081680629926,,,,242,f,22,2023-03-22_10h03.04.780,RL,2022.2.4,59.857970205464284,
0,0.3,0.225,0,17,17,17,,,,,,,,,,None,317.1154039690009,317.1154039690009,317.1154039690009,317.1154039690009,317.1154039690009,317.1154039690009,f,0.20190155899035744,317.3606946279906,317.3606946279906,317.3606946279906,317.3606946279906,317.3606946279906,317.3606946279906,317.62754946699715,317.62754946699715,319.37078114999167,319.37078114999167,319.3972637449915,319.3972637449915,319.3972637449915,319.3972637449915,319.3972637449915,319.3972637449915,319.3972637449915,319.3972637449915,319.3972637449915,319.3972637449915,319.3972637449915,319.3972637449915,319.3972637449915,319.3972637449915,319.3972637449915,321.89403933299764,321.89403933299764,321.89403933299764,321.89403933299764,321.89403933299764,45,52,56,33,52,75,3.0,1.8065162830025656,,,[],[],[],[],[],[],[],-0.2,2,,[],[],[],[],[],[],[],None,None,323.7462700239994,325.3012376370025,,,,,,,,,,,,,,,,,,,,,,,,,,,,242,f,22,2023-03-22_10h03.04.780,RL,2022.2.4,59.857970205464284,
1,-0.3,-0.225,0,18,18,18,,,,,,,,,,None,325.3012376370025,325.3012376370025,325.3012376370025,325.3012376370025,325.3012376370025,325.3012376370025,f,0.4484907619917067,325.8006434049894,325.8006434049894,325.8006434049894,325.8006434049894,325.8006434049894,325.8006434049894,326.07456681299664,326.07456681299664,327.20379221499024,327.20379221499024,327.2441699649935,327.2441699649935,327.2441699649935,327.2441699649935,327.2441699649935,327.2441699649935,327.2441699649935,327.2441699649935,327.2441699649935,327.2441699649935,327.2441699649935,327.2441699649935,327.2441699649935,327.2441699649935,327.2441699649935,329.74345559799985,329.74345559799985,329.74345559799985,329.74345559799985,329.74345559799985,43,56,56,40,56,77,4.0,1.7956423860014183,,,[],[],[],[],[],[],[],0.2,2,,[],[],[],[],[],[],[],None,None,331.6166131009959,333.19390513098915,,,,,,,,,,,,,,,,,,,,,,,,,,,,242,f,22,2023-03-22_10h03.04.780,RL,2022.2.4,59.857970205464284,
0,0.3,0.225,0,19,19,19,,,,,,,,,,None,333.19390513098915,333.19390513098915,333.19390513098915,333.19390513098915,333.19390513098915,333.19390513098915,f,0.954078976996243,334.19502659799764,334.19502659799764,334.19502659799764,334.19502659799764,334.19502659799764,334.19502659799764,334.46078010900237,334.46078010900237,335.54671601500013,335.54671601500013,335.58699607200106,335.58699607200106,335.58699607200106,335.58699607200106,335.58699607200106,335.58699607200106,335.58699607200106,335.58699607200106,335.58699607200106,335.58699607200106,335.58699607200106,335.58699607200106,335.58699607200106,335.58699607200106,335.58699607200106,,,,,,43,55,51,38,55,71,None,None,57,57,[0.00125],[-0.2775],[1],[0],[0],[6.298276929010171],['tijiao'],-0.2,0,,[],[],[],[],[],[],[],6.862499999999999,3.064881099999184,347.5286705909966,349.24648372799857,338.10740436699416,338.10740436699416,338.10740436699416,338.10740436699416,338.10740436699416,338.10740436699416,338.10740436699416,338.10740436699416,0.00982551000197418,338.10740436699416,344.46259898100107,344.46259898100107,344.46259898100107,344.46259898100107,,,,,,,,,,,,,,242,f,22,2023-03-22_10h03.04.780,RL,2022.2.4,59.857970205464284,
1,-0.3,-0.225,0,20,20,20,,,,,,,,,,None,349.24648372799857,349.24648372799857,349.24648372799857,349.24648372799857,349.24648372799857,349.24648372799857,f,0.4689605650055455,349.77062862699677,349.77062862699677,349.77062862699677,349.77062862699677,349.77062862699677,349.77062862699677,350.0356509789999,350.0356509789999,351.1917372559983,351.1917372559983,351.23188713499985,351.23188713499985,351.23188713499985,351.23188713499985,351.23188713499985,351.23188713499985,351.23188713499985,351.23188713499985,351.23188713499985,351.23188713499985,351.23188713499985,351.23188713499985,351.23188713499985,351.23188713499985,351.23188713499985,353.7404581640003,353.7404581640003,353.7404581640003,353.7404581640003,353.7404581640003,36,62,57,44,62,81,5.0,7.3928937330056215,,,[],[],[],[],[],[],[],0.2,3,,[],[],[],[],[],[],[],None,None,361.193823693,363.0571929729922,,,,,,,,,,,,,,,,,,,,,,,,,,,,242,f,22,2023-03-22_10h03.04.780,RL,2022.2.4,59.857970205464284,
0,0.3,0.225,0,21,21,21,,,,,,,,,,None,363.0571929729922,363.0571929729922,363.0571929729922,363.0571929729922,363.0571929729922,363.0571929729922,f,0.2735569810029119,363.38797593899653,363.38797593899653,363.38797593899653,363.38797593899653,363.38797593899653,363.38797593899653,363.6497823929967,363.6497823929967,365.4548053019971,365.4548053019971,365.4984309680003,365.4984309680003,365.4984309680003,365.4984309680003,365.4984309680003,365.4984309680003,365.4984309680003,365.4984309680003,365.4984309680003,365.4984309680003,365.4984309680003,365.4984309680003,365.4984309680003,365.4984309680003,365.4984309680003,367.98981879500207,367.98981879500207,367.98981879500207,367.98981879500207,367.98981879500207,37,57,54,40,57,78,4.0,3.674860562008689,,,[],[],[],[],[],[],[],-0.2,2,,[],[],[],[],[],[],[],None,None,371.7103408539988,373.59094549099973,,,,,,,,,,,,,,,,,,,,,,,,,,,,242,f,22,2023-03-22_10h03.04.780,RL,2022.2.4,59.857970205464284,
1,-0.3,-0.225,0,22,22,22,,,,,,,,,,None,373.59094549099973,373.59094549099973,373.59094549099973,373.59094549099973,373.59094549099973,373.59094549099973,f,0.17563779899501242,373.82098450699414,373.82098450699414,373.82098450699414,373.82098450699414,373.82098450699414,373.82098450699414,374.09446142699744,374.09446142699744,375.50465817700024,375.50465817700024,375.54571395998937,375.54571395998937,375.54571395998937,375.54571395998937,375.54571395998937,375.54571395998937,375.54571395998937,375.54571395998937,375.54571395998937,375.54571395998937,375.54571395998937,375.54571395998937,375.54571395998937,375.54571395998937,375.54571395998937,378.0478455879929,378.0478455879929,378.0478455879929,378.0478455879929,378.0478455879929,39,58,50,55,58,75,4.0,2.1821455040044384,,,[],[],[],[],[],[],[],0.6,3,,[],[],[],[],[],[],[],None,None,380.28056821199425,381.8463086999982,,,,,,,,,,,,,,,,,,,,,,,,,,,,242,f,22,2023-03-22_10h03.04.780,RL,2022.2.4,59.857970205464284,
0,0.3,0.225,0,23,23,23,,,,,,,,,,None,381.8463086999982,381.8463086999982,381.8463086999982,381.8463086999982,381.8463086999982,381.8463086999982,f,0.9328562790033175,382.83417937200284,382.83417937200284,382.83417937200284,382.83417937200284,382.83417937200284,382.83417937200284,383.1024409239908,383.1024409239908,385.0112457639916,385.0112457639916,385.03321059899463,385.03321059899463,385.03321059899463,385.03321059899463,385.03321059899463,385.03321059899463,385.03321059899463,385.03321059899463,385.03321059899463,385.03321059899463,385.03321059899463,385.03321059899463,385.03321059899463,385.03321059899463,385.03321059899463,,,,,,40,67,52,53,67,81,None,None,58,58,"[0.1, 0.01125]","[0.25625, -0.28375]","[1, 1]","[0, 0]","[0, 0]","[2.3713703349931166, 4.983485511998879]",['tijiao'],0.2,0,,[],[],[],[],[],[],[],7.8999999999999995,3.043165188995772,395.6453860289912,397.4902103369968,387.54928172599466,387.54928172599466,387.54928172599466,387.54928172599466,387.54928172599466,387.54928172599466,387.54928172599466,387.54928172599466,0.008677769001224078,387.54928172599466,392.5684549869911,392.5684549869911,392.5684549869911,392.5684549869911,,,,,,,,,,,,,,242,f,22,2023-03-22_10h03.04.780,RL,2022.2.4,59.857970205464284,
1,-0.3,-0.225,0,24,24,24,,,,,,,,,,None,397.4902103369968,397.4902103369968,397.4902103369968,397.4902103369968,397.4902103369968,397.4902103369968,r,0.21409748899168335,397.77458818099694,397.77458818099694,397.77458818099694,397.77458818099694,397.77458818099694,397.77458818099694,398.03534563099674,398.03534563099674,399.9341617519967,399.9341617519967,399.9788389089954,399.9788389089954,399.9788389089954,399.9788389089954,399.9788389089954,399.9788389089954,399.9788389089954,399.9788389089954,399.9788389089954,399.9788389089954,399.9788389089954,399.9788389089954,399.9788389089954,399.9788389089954,399.9788389089954,,,,,,32,65,63,48,32,69,None,None,38,38,[-0.01625],[-0.29875],[1],[0],[0],[7.807528643999831],['tijiao'],0.6,0,,[],[],[],[],[],[],[],7.887499999999999,1.9469474770012312,412.32723120300216,414.07766901799187,402.5002418840013,402.5002418840013,402.5002418840013,402.5002418840013,402.5002418840013,402.5002418840013,402.5002418840013,402.5002418840013,0.010278877001837827,402.5002418840013,410.36330653599,410.36330653599,410.36330653599,410.36330653599,,,,,,,,,,,,,,242,f,22,2023-03-22_10h03.04.780,RL,2022.2.4,59.857970205464284,
0,0.3,0.225,0,25,25,25,,,,,,,,,,None,414.07766901799187,414.07766901799187,414.07766901799187,414.07766901799187,414.07766901799187,414.07766901799187,f,0.1321690850018058,414.2575189079944,414.2575189079944,414.2575189079944,414.2575189079944,414.2575189079944,414.2575189079944,414.53280643199105,414.53280643199105,416.3513555649988,416.3513555649988,416.3946352740022,416.3946352740022,416.3946352740022,416.3946352740022,416.3946352740022,416.3946352740022,416.3946352740022,416.3946352740022,416.3946352740022,416.3946352740022,416.3946352740022,416.3946352740022,416.3946352740022,416.3946352740022,416.3946352740022,,,,,,46,60,64,51,60,64,None,None,64,64,[0.02],[-0.28375],[1],[0],[0],[5.1678836939972825],['tijiao'],-0.6,0,,[],[],[],[],[],[],[],7.862500000000001,1.9438804739911575,426.0842469449999,428.08255331798864,418.91938507999294,418.91938507999294,418.91938507999294,418.91938507999294,418.91938507999294,418.91938507999294,418.91938507999294,418.91938507999294,0.012039402005029842,418.91938507999294,424.12208884699794,424.12208884699794,424.12208884699794,424.12208884699794,,,,,,,,,,,,,,242,f,22,2023-03-22_10h03.04.780,RL,2022.2.4,59.857970205464284,
1,-0.3,-0.225,0,26,26,26,,,,,,,,,,None,428.08255331798864,428.08255331798864,428.08255331798864,428.08255331798864,428.08255331798864,428.08255331798864,f,0.2175348290038528,428.35779589699814,428.35779589699814,428.35779589699814,428.35779589699814,428.35779589699814,428.35779589699814,428.6152247979917,428.6152247979917,430.11890689599386,430.11890689599386,430.1601308370009,430.1601308370009,430.1601308370009,430.1601308370009,430.1601308370009,430.1601308370009,430.1601308370009,430.1601308370009,430.1601308370009,430.1601308370009,430.1601308370009,430.1601308370009,430.1601308370009,430.1601308370009,430.1601308370009,,,,,,41,70,61,53,70,59,None,None,67,67,[0.025],[-0.2875],[1],[0],[0],[5.553314198987209],['tijiao'],0.2,0,,[],[],[],[],[],[],[],8.05,3.0855819760035956,441.3662396949949,443.007253112999,432.67497784899024,432.67497784899024,432.67497784899024,432.67497784899024,432.67497784899024,432.67497784899024,432.67497784899024,432.67497784899024,0.009245284993085079,432.67497784899024,438.2575571619964,438.2575571619964,438.2575571619964,438.2575571619964,,,,,,,,,,,,,,242,f,22,2023-03-22_10h03.04.780,RL,2022.2.4,59.857970205464284,
0,0.3,0.225,0,27,27,27,,,,,,,,,,None,443.007253112999,443.007253112999,443.007253112999,443.007253112999,443.007253112999,443.007253112999,f,0.2129328489972977,443.2690155169985,443.2690155169985,443.2690155169985,443.2690155169985,443.2690155169985,443.2690155169985,443.53791228999035,443.53791228999035,444.5646040579886,444.5646040579886,444.60770790198876,444.60770790198876,444.60770790198876,444.60770790198876,444.60770790198876,444.60770790198876,444.60770790198876,444.60770790198876,444.60770790198876,444.60770790198876,444.60770790198876,444.60770790198876,444.60770790198876,444.60770790198876,444.60770790198876,447.1023089520022,447.1023089520022,447.1023089520022,447.1023089520022,447.1023089520022,33,67,58,48,67,60,5.0,1.3835049740009708,,,[],[],[],[],[],[],[],-0.2,2,,[],[],[],[],[],[],[],None,None,448.5275229809922,450.1435428190016,,,,,,,,,,,,,,,,,,,,,,,,,,,,242,f,22,2023-03-22_10h03.04.780,RL,2022.2.4,59.857970205464284,
1,-0.3,-0.225,0,28,28,28,,,,,,,,,,None,450.1435428190016,450.1435428190016,450.1435428190016,450.1435428190016,450.1435428190016,450.1435428190016,f,0.4816829180053901,450.68129325599875,450.68129325599875,450.68129325599875,450.68129325599875,450.68129325599875,450.68129325599875,450.94354611399467,450.94354611399467,451.87214941300044,451.87214941300044,451.91423103499983,451.91423103499983,451.91423103499983,451.91423103499983,451.91423103499983,451.91423103499983,451.91423103499983,451.91423103499983,451.91423103499983,451.91423103499983,451.91423103499983,451.91423103499983,451.91423103499983,451.91423103499983,451.91423103499983,,,,,,31,69,48,48,69,41,None,None,,,[],[],[],[],[],[],[],0.2,1,41,[0.02],[-0.2875],[1],[0],[0],[5.452039504991262],['tijiao_random_2'],6.9750000000000005,3.4844247339933645,463.418854071002,465.28922882599,,,,,,,,,,,459.9145035149995,459.9145035149995,459.9145035149995,459.9145035149995,454.44571853100206,454.44571853100206,454.44571853100206,454.44571853100206,454.44571853100206,454.44571853100206,454.44571853100206,454.44571853100206,0.010365688998717815,454.44571853100206,,,,242,f,22,2023-03-22_10h03.04.780,RL,2022.2.4,59.857970205464284,
0,0.3,0.225,0,29,29,29,,,,,,,,,,None,465.28922882599,465.28922882599,465.28922882599,465.28922882599,465.28922882599,465.28922882599,f,0.24784044599800836,465.59138191799866,465.59138191799866,465.59138191799866,465.59138191799866,465.59138191799866,465.59138191799866,465.8533040659968,465.8533040659968,467.6449612729921,467.6449612729921,467.6734171339922,467.6734171339922,467.6734171339922,467.6734171339922,467.6734171339922,467.6734171339922,467.6734171339922,467.6734171339922,467.6734171339922,467.6734171339922,467.6734171339922,467.6734171339922,467.6734171339922,467.6734171339922,467.6734171339922,470.17349188200023,470.17349188200023,470.17349188200023,470.17349188200023,470.17349188200023,32,63,51,62,63,43,5.0,3.488772152006277,,,[],[],[],[],[],[],[],0.2,3,,[],[],[],[],[],[],[],None,None,473.7236877989926,475.6239810739935,,,,,,,,,,,,,,,,,,,,,,,,,,,,242,f,22,2023-03-22_10h03.04.780,RL,2022.2.4,59.857970205464284,
1,-0.3,-0.225,0,30,30,30,,,,,,,,,,None,475.6239810739935,475.6239810739935,475.6239810739935,475.6239810739935,475.6239810739935,475.6239810739935,f,0.6324200789968017,476.31208759399306,476.31208759399306,476.31208759399306,476.31208759399306,476.31208759399306,476.31208759399306,476.5893679909932,476.5893679909932,477.73631343799934,477.73631343799934,477.78274734999286,477.78274734999286,477.78274734999286,477.78274734999286,477.78274734999286,477.78274734999286,477.78274734999286,477.78274734999286,477.78274734999286,477.78274734999286,477.78274734999286,477.78274734999286,477.78274734999286,477.78274734999286,477.78274734999286,480.3016790469992,480.3016790469992,480.3016790469992,480.3016790469992,480.3016790469992,33,61,41,58,61,60,5.0,2.610069673988619,,,[],[],[],[],[],[],[],0.6,2,,[],[],[],[],[],[],[],None,None,482.96020780499384,484.5105954239989,,,,,,,,,,,,,,,,,,,,,,,,,,,,242,f,22,2023-03-22_10h03.04.780,RL,2022.2.4,59.857970205464284,
0,0.3,0.225,0,31,31,31,,,,,,,,,,None,484.5105954239989,484.5105954239989,484.5105954239989,484.5105954239989,484.5105954239989,484.5105954239989,f,1.0545013289956842,485.6221101400006,485.6221101400006,485.6221101400006,485.6221101400006,485.6221101400006,485.6221101400006,485.9000845099945,485.9000845099945,487.8374657309905,487.8374657309905,487.86755975699634,487.86755975699634,487.86755975699634,487.86755975699634,487.86755975699634,487.86755975699634,487.86755975699634,487.86755975699634,487.86755975699634,487.86755975699634,487.86755975699634,487.86755975699634,487.86755975699634,487.86755975699634,487.86755975699634,,,,,,28,69,46,43,69,50,None,None,67,67,"[0.095, 0.03125]","[0.2525, -0.295]","[1, 1]","[0, 0]","[0, 0]","[2.3110360900027445, 5.6360337090009125]",['tijiao'],-0.2,0,,[],[],[],[],[],[],[],8.837499999999999,2.1875904139888007,498.2676289189985,500.0530243589892,490.3896395999909,490.3896395999909,490.3896395999909,490.3896395999909,490.3896395999909,490.3896395999909,490.3896395999909,490.3896395999909,0.014300260998425074,490.3896395999909,496.07636594198993,496.07636594198993,496.07636594198993,496.07636594198993,,,,,,,,,,,,,,242,f,22,2023-03-22_10h03.04.780,RL,2022.2.4,59.857970205464284,
1,-0.3,-0.225,0,32,32,32,,,,,,,,,,None,500.0530243589892,500.0530243589892,500.0530243589892,500.0530243589892,500.0530243589892,500.0530243589892,f,0.5825039759947686,500.6893902259908,500.6893902259908,500.6893902259908,500.6893902259908,500.6893902259908,500.6893902259908,500.9595637839957,500.9595637839957,502.3113758010004,502.3113758010004,502.33658619799826,502.33658619799826,502.33658619799826,502.33658619799826,502.33658619799826,502.33658619799826,502.33658619799826,502.33658619799826,502.33658619799826,502.33658619799826,502.33658619799826,502.33658619799826,502.33658619799826,502.33658619799826,502.33658619799826,,,,,,32,61,36,66,61,56,None,None,63,63,[0.00125],[-0.28875],[1],[0],[0],[6.262998370002606],['tijiao'],-0.2,0,,[],[],[],[],[],[],[],8.0125,1.6659492290054914,512.8581777310028,514.4101349859993,504.86424900499696,504.86424900499696,504.86424900499696,504.86424900499696,504.86424900499696,504.86424900499696,504.86424900499696,504.86424900499696,0.008444588995189406,504.86424900499696,511.16112485699705,511.16112485699705,511.16112485699705,511.16112485699705,,,,,,,,,,,,,,242,f,22,2023-03-22_10h03.04.780,RL,2022.2.4,59.857970205464284,
0,0.3,0.225,0,33,33,33,,,,,,,,,,None,514.4101349859993,514.4101349859993,514.4101349859993,514.4101349859993,514.4101349859993,514.4101349859993,f,0.6105902290000813,515.076428831002,515.076428831002,515.076428831002,515.076428831002,515.076428831002,515.076428831002,515.3378723630012,515.3378723630012,517.1113278720004,517.1113278720004,517.1523733529903,517.1523733529903,517.1523733529903,517.1523733529903,517.1523733529903,517.1523733529903,517.1523733529903,517.1523733529903,517.1523733529903,517.1523733529903,517.1523733529903,517.1523733529903,517.1523733529903,517.1523733529903,517.1523733529903,,,,,,27,58,41,59,58,63,None,None,,,[],[],[],[],[],[],[],0.6,1,50,"[0.10625, 0.01375]","[0.30375, -0.2975]","[1, 1]","[0, 0]","[0, 0]","[3.005759906998719, 5.904211312998086]",['tijiao_random_2'],3.1500000000000004,2.3475104740064126,527.9858505169977,529.8561617039959,,,,,,,,,,,525.6235290719924,525.6235290719924,525.6235290719924,525.6235290719924,519.6942729399889,519.6942729399889,519.6942729399889,519.6942729399889,519.6942729399889,519.6942729399889,519.6942729399889,519.6942729399889,0.01020323799457401,519.6942729399889,,,,242,f,22,2023-03-22_10h03.04.780,RL,2022.2.4,59.857970205464284,
1,-0.3,-0.225,0,34,34,34,,,,,,,,,,None,529.8561617039959,529.8561617039959,529.8561617039959,529.8561617039959,529.8561617039959,529.8561617039959,f,0.6981372709997231,530.620211987989,530.620211987989,530.620211987989,530.620211987989,530.620211987989,530.620211987989,530.8826783849945,530.8826783849945,532.1929406589916,532.1929406589916,532.2352571949887,532.2352571949887,532.2352571949887,532.2352571949887,532.2352571949887,532.2352571949887,532.2352571949887,532.2352571949887,532.2352571949887,532.2352571949887,532.2352571949887,532.2352571949887,532.2352571949887,532.2352571949887,532.2352571949887,534.7406583249976,534.7406583249976,534.7406583249976,534.7406583249976,534.7406583249976,28,59,44,48,59,58,4.0,1.7402086470101494,,,[],[],[],[],[],[],[],-0.2,2,,[],[],[],[],[],[],[],None,None,536.5418109189923,538.3363658989983,,,,,,,,,,,,,,,,,,,,,,,,,,,,242,f,22,2023-03-22_10h03.04.780,RL,2022.2.4,59.857970205464284,
0,0.3,0.225,0,35,35,35,,,,,,,,,,None,538.3363658989983,538.3363658989983,538.3363658989983,538.3363658989983,538.3363658989983,538.3363658989983,f,0.9838098979962524,539.389412450997,539.389412450997,539.389412450997,539.389412450997,539.389412450997,539.389412450997,539.6574077659898,539.6574077659898,541.3582636259962,541.3582636259962,541.3879231000028,541.3879231000028,541.3879231000028,541.3879231000028,541.3879231000028,541.3879231000028,541.3879231000028,541.3879231000028,541.3879231000028,541.3879231000028,541.3879231000028,541.3879231000028,541.3879231000028,541.3879231000028,541.3879231000028,543.8936393449985,543.8936393449985,543.8936393449985,543.8936393449985,543.8936393449985,30,55,39,62,55,59,3.0,3.219927120997454,,,[],[],[],[],[],[],[],0.6,3,,[],[],[],[],[],[],[],None,None,547.1571550480003,549.058573887989,,,,,,,,,,,,,,,,,,,,,,,,,,,,242,f,22,2023-03-22_10h03.04.780,RL,2022.2.4,59.857970205464284,
1,-0.3,-0.225,0,36,36,36,,,,,,,,,,None,549.058573887989,549.058573887989,549.058573887989,549.058573887989,549.058573887989,549.058573887989,f,0.6205072989978362,549.7336576929956,549.7336576929956,549.7336576929956,549.7336576929956,549.7336576929956,549.7336576929956,550.008996302,550.008996302,551.5623907869885,551.5623907869885,551.5882406869932,551.5882406869932,551.5882406869932,551.5882406869932,551.5882406869932,551.5882406869932,551.5882406869932,551.5882406869932,551.5882406869932,551.5882406869932,551.5882406869932,551.5882406869932,551.5882406869932,551.5882406869932,551.5882406869932,,,,,,29,56,40,61,56,61,None,None,,,[],[],[],[],[],[],[],-0.6,1,38,"[0.09375, 0.02375]","[0.3025, -0.27125]","[1, 1]","[0, 0]","[0, 0]","[2.4203611340053612, 8.925308239005972]",['tijiao_random_2'],4.137499999999999,2.614638783998089,565.7124942779919,567.3167831820028,,,,,,,,,,,563.0857267410029,563.0857267410029,563.0857267410029,563.0857267410029,554.1320784139971,554.1320784139971,554.1320784139971,554.1320784139971,554.1320784139971,554.1320784139971,554.1320784139971,554.1320784139971,0.0108763780008303,554.1320784139971,,,,242,f,22,2023-03-22_10h03.04.780,RL,2022.2.4,59.857970205464284,
0,0.3,0.225,0,37,37,37,,,,,,,,,,None,567.3167831820028,567.3167831820028,567.3167831820028,567.3167831820028,567.3167831820028,567.3167831820028,i,0.3595843000075547,567.7199161989993,567.7199161989993,567.7199161989993,567.7199161989993,567.7199161989993,567.7199161989993,567.9859221629886,567.9859221629886,569.3276967999991,569.3276967999991,569.3699968839937,569.3699968839937,569.3699968839937,569.3699968839937,569.3699968839937,569.3699968839937,569.3699968839937,569.3699968839937,569.3699968839937,569.3699968839937,569.3699968839937,569.3699968839937,569.3699968839937,569.3699968839937,569.3699968839937,,,,,,28,55,43,53,43,59,None,None,45,45,[0.0325],[-0.285],[1],[0],[0],[5.338974768004846],['tijiao'],0.2,0,,[],[],[],[],[],[],[],8.025,1.920072919994709,579.1960252629942,580.9060941779899,571.8855634219944,571.8855634219944,571.8855634219944,571.8855634219944,571.8855634219944,571.8855634219944,571.8855634219944,571.8855634219944,0.008583979011746123,571.8855634219944,577.2579303529928,577.2579303529928,577.2579303529928,577.2579303529928,,,,,,,,,,,,,,242,f,22,2023-03-22_10h03.04.780,RL,2022.2.4,59.857970205464284,
1,-0.3,-0.225,0,38,38,38,,,,,,,,,,None,580.9060941779899,580.9060941779899,580.9060941779899,580.9060941779899,580.9060941779899,580.9060941779899,i,0.3830249759921571,581.3457800249889,581.3457800249889,581.3457800249889,581.3457800249889,581.3457800249889,581.3457800249889,581.615998423993,581.615998423993,582.8189513609977,582.8189513609977,582.8589459429932,582.8589459429932,582.8589459429932,582.8589459429932,582.8589459429932,582.8589459429932,582.8589459429932,582.8589459429932,582.8589459429932,582.8589459429932,582.8589459429932,582.8589459429932,582.8589459429932,582.8589459429932,582.8589459429932,,,,,,24,51,44,56,44,52,None,None,,,[],[],[],[],[],[],[],0.2,1,44,[-0.00625],[-0.28875],[1],[0],[0],[5.934612195997033],['tijiao_random_2'],8.9375,2.4483699499978684,593.8201528929931,595.3488394049928,,,,,,,,,,,591.363111136001,591.363111136001,591.363111136001,591.363111136001,585.4023155569885,585.4023155569885,585.4023155569885,585.4023155569885,585.4023155569885,585.4023155569885,585.4023155569885,585.4023155569885,0.010210555992671289,585.4023155569885,,,,242,f,22,2023-03-22_10h03.04.780,RL,2022.2.4,59.857970205464284,
0,0.3,0.225,0,39,39,39,,,,,,,,,,None,595.3488394049928,595.3488394049928,595.3488394049928,595.3488394049928,595.3488394049928,595.3488394049928,f,0.3432723120058654,595.757715048996,595.757715048996,595.757715048996,595.757715048996,595.757715048996,595.757715048996,596.014607774996,596.014607774996,597.7607131999976,597.7607131999976,597.8064313590003,597.8064313590003,597.8064313590003,597.8064313590003,597.8064313590003,597.8064313590003,597.8064313590003,597.8064313590003,597.8064313590003,597.8064313590003,597.8064313590003,597.8064313590003,597.8064313590003,597.8064313590003,597.8064313590003,600.3086203699932,600.3086203699932,600.3086203699932,600.3086203699932,600.3086203699932,29,55,43,57,55,49,4.0,2.3830662690015743,,,[],[],[],[],[],[],[],0.6,3,,[],[],[],[],[],[],[],None,None,602.7341480179894,604.2520187420014,,,,,,,,,,,,,,,,,,,,,,,,,,,,242,f,22,2023-03-22_10h03.04.780,RL,2022.2.4,59.857970205464284,
1,-0.3,-0.225,0,40,40,40,,,,,,,,,,None,604.2520187420014,604.2520187420014,604.2520187420014,604.2520187420014,604.2520187420014,604.2520187420014,r,0.5645721969922306,604.8723932189896,604.8723932189896,604.8723932189896,604.8723932189896,604.8723932189896,604.8723932189896,605.132885715997,605.132885715997,606.3464757710026,606.3464757710026,606.399902730991,606.399902730991,606.399902730991,606.399902730991,606.399902730991,606.399902730991,606.399902730991,606.399902730991,606.399902730991,606.399902730991,606.399902730991,606.399902730991,606.399902730991,606.399902730991,606.399902730991,,,,,,29,52,51,56,29,54,None,None,30,30,[0.0275],[-0.28375],[1],[0],[0],[4.43454267999914],['tijiao'],-0.2,0,,[],[],[],[],[],[],[],8.1375,2.210524843991152,615.636024374995,617.5215331279906,608.9383641960012,608.9383641960012,608.9383641960012,608.9383641960012,608.9383641960012,608.9383641960012,608.9383641960012,608.9383641960012,0.014316600005258806,608.9383641960012,613.4213442530017,613.4213442530017,613.4213442530017,613.4213442530017,,,,,,,,,,,,,,242,f,22,2023-03-22_10h03.04.780,RL,2022.2.4,59.857970205464284,
0,0.3,0.225,0,41,41,41,,,,,,,,,,None,617.5215331279906,617.5215331279906,617.5215331279906,617.5215331279906,617.5215331279906,617.5215331279906,f,0.3331087580008898,617.9150254510023,617.9150254510023,617.9150254510023,617.9150254510023,617.9150254510023,617.9150254510023,618.1916063329991,618.1916063329991,620.1669888219913,620.1669888219913,620.214917528996,620.214917528996,620.214917528996,620.214917528996,620.214917528996,620.214917528996,620.214917528996,620.214917528996,620.214917528996,620.214917528996,620.214917528996,620.214917528996,620.214917528996,620.214917528996,620.214917528996,622.7124213959905,622.7124213959905,622.7124213959905,622.7124213959905,622.7124213959905,15,46,45,63,46,61,3.0,2.7014635730010923,,,[],[],[],[],[],[],[],-0.2,3,,[],[],[],[],[],[],[],None,None,625.4689450659935,627.415393171992,,,,,,,,,,,,,,,,,,,,,,,,,,,,242,f,22,2023-03-22_10h03.04.780,RL,2022.2.4,59.857970205464284,
1,-0.3,-0.225,0,42,42,42,,,,,,,,,,None,627.415393171992,627.415393171992,627.415393171992,627.415393171992,627.415393171992,627.415393171992,f,0.2448478060105117,627.7233662599901,627.7233662599901,627.7233662599901,627.7233662599901,627.7233662599901,627.7233662599901,627.9953231289983,627.9953231289983,629.181840085992,629.181840085992,629.211835449998,629.211835449998,629.211835449998,629.211835449998,629.211835449998,629.211835449998,629.211835449998,629.211835449998,629.211835449998,629.211835449998,629.211835449998,629.211835449998,629.211835449998,629.211835449998,629.211835449998,631.7136260849948,631.7136260849948,631.7136260849948,631.7136260849948,631.7136260849948,21,47,48,54,47,63,3.0,1.3008546049968572,,,[],[],[],[],[],[],[],0.6,2,,[],[],[],[],[],[],[],None,None,633.0735950669914,634.7576480330026,,,,,,,,,,,,,,,,,,,,,,,,,,,,242,f,22,2023-03-22_10h03.04.780,RL,2022.2.4,59.857970205464284,
0,0.3,0.225,0,43,43,43,,,,,,,,,,None,634.7576480330026,634.7576480330026,634.7576480330026,634.7576480330026,634.7576480330026,634.7576480330026,j,0.29088290900108404,635.1050645259966,635.1050645259966,635.1050645259966,635.1050645259966,635.1050645259966,635.1050645259966,635.3837507999997,635.3837507999997,636.9567243700003,636.9567243700003,636.9821406449919,636.9821406449919,636.9821406449919,636.9821406449919,636.9821406449919,636.9821406449919,636.9821406449919,636.9821406449919,636.9821406449919,636.9821406449919,636.9821406449919,636.9821406449919,636.9821406449919,636.9821406449919,636.9821406449919,639.4900345349888,639.4900345349888,639.4900345349888,639.4900345349888,639.4900345349888,20,59,54,52,52,61,3.0,2.105538832998718,,,[],[],[],[],[],[],[],-0.6,2,,[],[],[],[],[],[],[],None,None,641.6392661589925,643.3199246379954,,,,,,,,,,,,,,,,,,,,,,,,,,,,242,f,22,2023-03-22_10h03.04.780,RL,2022.2.4,59.857970205464284,
1,-0.3,-0.225,0,44,44,44,,,,,,,,,,None,643.3199246379954,643.3199246379954,643.3199246379954,643.3199246379954,643.3199246379954,643.3199246379954,j,0.45516373799182475,643.8344143150025,643.8344143150025,643.8344143150025,643.8344143150025,643.8344143150025,643.8344143150025,644.118913689992,644.118913689992,645.0990434229898,645.0990434229898,645.1214875259902,645.1214875259902,645.1214875259902,645.1214875259902,645.1214875259902,645.1214875259902,645.1214875259902,645.1214875259902,645.1214875259902,645.1214875259902,645.1214875259902,645.1214875259902,645.1214875259902,645.1214875259902,645.1214875259902,647.6251256349933,647.6251256349933,647.6251256349933,647.6251256349933,647.6251256349933,25,50,55,49,49,55,4.0,1.9906873669970082,,,[],[],[],[],[],[],[],-0.2,3,,[],[],[],[],[],[],[],None,None,649.6608532329992,651.2733457269933,,,,,,,,,,,,,,,,,,,,,,,,,,,,242,f,22,2023-03-22_10h03.04.780,RL,2022.2.4,59.857970205464284,
0,0.3,0.225,0,45,45,45,,,,,,,,,,None,651.2733457269933,651.2733457269933,651.2733457269933,651.2733457269933,651.2733457269933,651.2733457269933,f,0.23998914600815624,651.5711043819902,651.5711043819902,651.5711043819902,651.5711043819902,651.5711043819902,651.5711043819902,651.8399460039946,651.8399460039946,653.4480159209925,653.4480159209925,653.4929182209889,653.4929182209889,653.4929182209889,653.4929182209889,653.4929182209889,653.4929182209889,653.4929182209889,653.4929182209889,653.4929182209889,653.4929182209889,653.4929182209889,653.4929182209889,653.4929182209889,653.4929182209889,653.4929182209889,656.0070985069906,656.0070985069906,656.0070985069906,656.0070985069906,656.0070985069906,19,59,47,48,59,21,5.0,2.1733836640050868,,,[],[],[],[],[],[],[],-0.2,2,,[],[],[],[],[],[],[],None,None,658.2261231469893,659.9936789779895,,,,,,,,,,,,,,,,,,,,,,,,,,,,242,f,22,2023-03-22_10h03.04.780,RL,2022.2.4,59.857970205464284,
1,-0.3,-0.225,0,46,46,46,,,,,,,,,,None,659.9936789779895,659.9936789779895,659.9936789779895,659.9936789779895,659.9936789779895,659.9936789779895,f,0.62631977199635,660.666036797993,660.666036797993,660.666036797993,660.666036797993,660.666036797993,660.666036797993,660.9300360030029,660.9300360030029,661.8837902919913,661.8837902919913,661.9083083709993,661.9083083709993,661.9083083709993,661.9083083709993,661.9083083709993,661.9083083709993,661.9083083709993,661.9083083709993,661.9083083709993,661.9083083709993,661.9083083709993,661.9083083709993,661.9083083709993,661.9083083709993,661.9083083709993,664.4213064270007,664.4213064270007,664.4213064270007,664.4213064270007,664.4213064270007,23,48,40,49,48,56,3.0,2.8943926290085074,,,[],[],[],[],[],[],[],0.2,2,,[],[],[],[],[],[],[],None,None,667.3743778439966,668.9179646539997,,,,,,,,,,,,,,,,,,,,,,,,,,,,242,f,22,2023-03-22_10h03.04.780,RL,2022.2.4,59.857970205464284,
0,0.3,0.225,0,47,47,47,,,,,,,,,,None,668.9179646539997,668.9179646539997,668.9179646539997,668.9179646539997,668.9179646539997,668.9179646539997,f,0.9046598699933384,669.8769792719977,669.8769792719977,669.8769792719977,669.8769792719977,669.8769792719977,669.8769792719977,670.1439193549886,670.1439193549886,671.889752292991,671.889752292991,671.9308784239984,671.9308784239984,671.9308784239984,671.9308784239984,671.9308784239984,671.9308784239984,671.9308784239984,671.9308784239984,671.9308784239984,671.9308784239984,671.9308784239984,671.9308784239984,671.9308784239984,671.9308784239984,671.9308784239984,674.4520297190029,674.4520297190029,674.4520297190029,674.4520297190029,674.4520297190029,25,53,43,40,53,64,4.0,2.710937670999556,,,[],[],[],[],[],[],[],0.2,3,,[],[],[],[],[],[],[],None,None,677.2109288759966,679.0376587709907,,,,,,,,,,,,,,,,,,,,,,,,,,,,242,f,22,2023-03-22_10h03.04.780,RL,2022.2.4,59.857970205464284,
1,-0.3,-0.225,0,48,48,48,,,,,,,,,,None,679.0376587709907,679.0376587709907,679.0376587709907,679.0376587709907,679.0376587709907,679.0376587709907,f,0.322841786997742,679.4168710550002,679.4168710550002,679.4168710550002,679.4168710550002,679.4168710550002,679.4168710550002,679.6763240879955,679.6763240879955,681.4247117589985,681.4247117589985,681.4735497969959,681.4735497969959,681.4735497969959,681.4735497969959,681.4735497969959,681.4735497969959,681.4735497969959,681.4735497969959,681.4735497969959,681.4735497969959,681.4735497969959,681.4735497969959,681.4735497969959,681.4735497969959,681.4735497969959,,,,,,29,47,41,50,47,50,None,None,57,57,[0.01625],[-0.28125],[1],[0],[0],[8.111021019998589],['tijiao'],-0.6,0,,[],[],[],[],[],[],[],7.8500000000000005,1.80815595400054,693.9787837319891,695.5104663949896,683.9980293239933,683.9980293239933,683.9980293239933,683.9980293239933,683.9980293239933,683.9980293239933,683.9980293239933,683.9980293239933,0.009187646995997056,683.9980293239933,692.168313133996,692.168313133996,692.168313133996,692.168313133996,,,,,,,,,,,,,,242,f,22,2023-03-22_10h03.04.780,RL,2022.2.4,59.857970205464284,
0,0.3,0.225,0,49,49,49,,,,,,,,,,None,695.5104663949896,695.5104663949896,695.5104663949896,695.5104663949896,695.5104663949896,695.5104663949896,f,0.29213995998725295,695.8578798489907,695.8578798489907,695.8578798489907,695.8578798489907,695.8578798489907,695.8578798489907,696.1303781519964,696.1303781519964,697.6287938449968,697.6287938449968,697.6704484509974,697.6704484509974,697.6704484509974,697.6704484509974,697.6704484509974,697.6704484509974,697.6704484509974,697.6704484509974,697.6704484509974,697.6704484509974,697.6704484509974,697.6704484509974,697.6704484509974,697.6704484509974,697.6704484509974,700.1828297289903,700.1828297289903,700.1828297289903,700.1828297289903,700.1828297289903,26,40,46,53,40,68,3.0,3.2594079859991325,,,[],[],[],[],[],[],[],-0.2,2,,[],[],[],[],[],[],[],None,None,703.515177712994,705.1141482609964,,,,,,,,,,,,,,,,,,,,,,,,,,,,242,f,22,2023-03-22_10h03.04.780,RL,2022.2.4,59.857970205464284,
1,-0.3,-0.225,0,50,50,50,,,,,,,,,,None,705.1141482609964,705.1141482609964,705.1141482609964,705.1141482609964,705.1141482609964,705.1141482609964,f,0.5350421670009382,705.7011989479943,705.7011989479943,705.7011989479943,705.7011989479943,705.7011989479943,705.7011989479943,705.9719722719892,705.9719722719892,707.1847677479964,707.1847677479964,707.2112745289924,707.2112745289924,707.2112745289924,707.2112745289924,707.2112745289924,707.2112745289924,707.2112745289924,707.2112745289924,707.2112745289924,707.2112745289924,707.2112745289924,707.2112745289924,707.2112745289924,707.2112745289924,707.2112745289924,709.7058968100027,709.7058968100027,709.7058968100027,709.7058968100027,709.7058968100027,21,51,37,55,51,74,4.0,1.8927520829893183,,,[],[],[],[],[],[],[],-0.6,3,,[],[],[],[],[],[],[],None,None,711.6413894689904,713.3035558429983,,,,,,,,,,,,,,,,,,,,,,,,,,,,242,f,22,2023-03-22_10h03.04.780,RL,2022.2.4,59.857970205464284,
0,0.3,0.225,0,51,51,51,,,,,,,,,,None,713.3035558429983,713.3035558429983,713.3035558429983,713.3035558429983,713.3035558429983,713.3035558429983,f,0.8482718430022942,714.2046365309943,714.2046365309943,714.2046365309943,714.2046365309943,714.2046365309943,714.2046365309943,714.4751304160018,714.4751304160018,716.2048782310012,716.2048782310012,716.2464116539923,716.2464116539923,716.2464116539923,716.2464116539923,716.2464116539923,716.2464116539923,716.2464116539923,716.2464116539923,716.2464116539923,716.2464116539923,716.2464116539923,716.2464116539923,716.2464116539923,716.2464116539923,716.2464116539923,,,,,,34,50,37,63,50,64,None,None,,,[],[],[],[],[],[],[],0.6,1,40,[0.00625],[-0.275],[1],[0],[0],[6.0888272050069645],['tijiao_random_2'],3.0124999999999997,2.480552818000433,727.3884113489912,729.0939069070009,,,,,,,,,,,724.8786240199988,724.8786240199988,724.8786240199988,724.8786240199988,718.7717454340018,718.7717454340018,718.7717454340018,718.7717454340018,718.7717454340018,718.7717454340018,718.7717454340018,718.7717454340018,0.010312990998500027,718.7717454340018,,,,242,f,22,2023-03-22_10h03.04.780,RL,2022.2.4,59.857970205464284,
1,-0.3,-0.225,0,52,52,52,,,,,,,,,,None,729.0939069070009,729.0939069070009,729.0939069070009,729.0939069070009,729.0939069070009,729.0939069070009,j,0.40110910100338515,729.5473580580001,729.5473580580001,729.5473580580001,729.5473580580001,729.5473580580001,729.5473580580001,729.811616476989,729.811616476989,731.4769815109903,731.4769815109903,731.5206661720003,731.5206661720003,731.5206661720003,731.5206661720003,731.5206661720003,731.5206661720003,731.5206661720003,731.5206661720003,731.5206661720003,731.5206661720003,731.5206661720003,731.5206661720003,731.5206661720003,731.5206661720003,731.5206661720003,734.0245483289909,734.0245483289909,734.0245483289909,734.0245483289909,734.0245483289909,28,56,43,59,59,53,4.0,2.2409011350100627,,,[],[],[],[],[],[],[],-0.6,2,,[],[],[],[],[],[],[],None,None,736.317722435997,737.9185791079944,,,,,,,,,,,,,,,,,,,,,,,,,,,,242,f,22,2023-03-22_10h03.04.780,RL,2022.2.4,59.857970205464284,
0,0.3,0.225,0,53,53,53,,,,,,,,,,None,737.9185791079944,737.9185791079944,737.9185791079944,737.9185791079944,737.9185791079944,737.9185791079944,j,0.25379372399766,738.2316688659921,738.2316688659921,738.2316688659921,738.2316688659921,738.2316688659921,738.2316688659921,738.5050979099906,738.5050979099906,740.1826982929924,740.1826982929924,740.2240779470012,740.2240779470012,740.2240779470012,740.2240779470012,740.2240779470012,740.2240779470012,740.2240779470012,740.2240779470012,740.2240779470012,740.2240779470012,740.2240779470012,740.2240779470012,740.2240779470012,740.2240779470012,740.2240779470012,,,,,,32,54,40,54,54,62,None,None,,,[],[],[],[],[],[],[],0.2,1,50,"[0.105, -0.02125]","[0.30875, -0.29375]","[1, 1]","[0, 0]","[0, 0]","[2.4476156449964037, 7.564233601005981]",['tijiao_random_2'],4.9625,5.206496339000296,755.576480165997,757.259404351993,,,,,,,,,,,750.3665159639932,750.3665159639932,750.3665159639932,750.3665159639932,742.7722179839911,742.7722179839911,742.7722179839911,742.7722179839911,742.7722179839911,742.7722179839911,742.7722179839911,742.7722179839911,0.014813008994678967,742.7722179839911,,,,242,f,22,2023-03-22_10h03.04.780,RL,2022.2.4,59.857970205464284,
1,-0.3,-0.225,0,54,54,54,,,,,,,,,,None,757.259404351993,757.259404351993,757.259404351993,757.259404351993,757.259404351993,757.259404351993,j,0.2767577209888259,757.6005037680006,757.6005037680006,757.6005037680006,757.6005037680006,757.6005037680006,757.6005037680006,757.8783644389914,757.8783644389914,759.479960015,759.479960015,759.5071532009897,759.5071532009897,759.5071532009897,759.5071532009897,759.5071532009897,759.5071532009897,759.5071532009897,759.5071532009897,759.5071532009897,759.5071532009897,759.5071532009897,759.5071532009897,759.5071532009897,759.5071532009897,759.5071532009897,,,,,,31,65,41,65,65,55,None,None,60,60,[-0.0125],[-0.2675],[1],[0],[0],[4.3949927350040525],['tijiao'],-0.6,0,,[],[],[],[],[],[],[],8.837499999999999,2.872236558003351,769.3476541499986,771.1960950520006,762.0259905830026,762.0259905830026,762.0259905830026,762.0259905830026,762.0259905830026,762.0259905830026,762.0259905830026,762.0259905830026,0.0090843789948849,762.0259905830026,766.4612582650007,766.4612582650007,766.4612582650007,766.4612582650007,,,,,,,,,,,,,,242,f,22,2023-03-22_10h03.04.780,RL,2022.2.4,59.857970205464284,
0,0.3,0.225,0,55,55,55,,,,,,,,,,None,771.1960950520006,771.1960950520006,771.1960950520006,771.1960950520006,771.1960950520006,771.1960950520006,j,0.22686129200155847,771.4789177359926,771.4789177359926,771.4789177359926,771.4789177359926,771.4789177359926,771.4789177359926,771.7652061440021,771.7652061440021,773.6726123789995,773.6726123789995,773.6951097830024,773.6951097830024,773.6951097830024,773.6951097830024,773.6951097830024,773.6951097830024,773.6951097830024,773.6951097830024,773.6951097830024,773.6951097830024,773.6951097830024,773.6951097830024,773.6951097830024,773.6951097830024,773.6951097830024,776.2009015789954,776.2009015789954,776.2009015789954,776.2009015789954,776.2009015789954,22,58,40,66,66,55,6.0,1.2777496590133524,,,[],[],[],[],[],[],[],-0.2,3,,[],[],[],[],[],[],[],None,None,777.5199457260023,779.2171585949982,,,,,,,,,,,,,,,,,,,,,,,,,,,,242,f,22,2023-03-22_10h03.04.780,RL,2022.2.4,59.857970205464284,
1,-0.3,-0.225,0,56,56,56,,,,,,,,,,None,779.2171585949982,779.2171585949982,779.2171585949982,779.2171585949982,779.2171585949982,779.2171585949982,j,0.3245647790026851,779.5955115919933,779.5955115919933,779.5955115919933,779.5955115919933,779.5955115919933,779.5955115919933,779.8764351569989,779.8764351569989,781.7107335979963,781.7107335979963,781.7337092139933,781.7337092139933,781.7337092139933,781.7337092139933,781.7337092139933,781.7337092139933,781.7337092139933,781.7337092139933,781.7337092139933,781.7337092139933,781.7337092139933,781.7337092139933,781.7337092139933,781.7337092139933,781.7337092139933,,,,,,29,62,43,69,69,33,None,None,67,67,[0.07],[-0.2825],[1],[0],[0],[5.6983031970012235],['tijiao'],-0.6,0,,[],[],[],[],[],[],[],7.8500000000000005,3.043967171004624,793.0604609259899,794.7565323750023,784.2639516549971,784.2639516549971,784.2639516549971,784.2639516549971,784.2639516549971,784.2639516549971,784.2639516549971,784.2639516549971,0.009308003005571663,784.2639516549971,790.0027910520002,790.0027910520002,790.0027910520002,790.0027910520002,,,,,,,,,,,,,,242,f,22,2023-03-22_10h03.04.780,RL,2022.2.4,59.857970205464284,
0,0.3,0.225,0,57,57,57,,,,,,,,,,None,794.7565323750023,794.7565323750023,794.7565323750023,794.7565323750023,794.7565323750023,794.7565323750023,j,0.3129847200034419,795.1331302499893,795.1331302499893,795.1331302499893,795.1331302499893,795.1331302499893,795.1331302499893,795.404119297993,795.404119297993,796.6243861620023,796.6243861620023,796.6512523129932,796.6512523129932,796.6512523129932,796.6512523129932,796.6512523129932,796.6512523129932,796.6512523129932,796.6512523129932,796.6512523129932,796.6512523129932,796.6512523129932,796.6512523129932,796.6512523129932,796.6512523129932,796.6512523129932,799.1604617519915,799.1604617519915,799.1604617519915,799.1604617519915,799.1604617519915,40,53,46,71,71,61,6.0,2.14247454899305,,,[],[],[],[],[],[],[],-0.2,3,,[],[],[],[],[],[],[],None,None,801.3672666659986,803.1496066059917,,,,,,,,,,,,,,,,,,,,,,,,,,,,242,f,22,2023-03-22_10h03.04.780,RL,2022.2.4,59.857970205464284,
1,-0.3,-0.225,0,58,58,58,,,,,,,,,,None,803.1496066059917,803.1496066059917,803.1496066059917,803.1496066059917,803.1496066059917,803.1496066059917,j,0.2924162779963808,803.5004042319924,803.5004042319924,803.5004042319924,803.5004042319924,803.5004042319924,803.5004042319924,803.7653326409927,803.7653326409927,805.4814422420022,805.4814422420022,805.5122839029937,805.5122839029937,805.5122839029937,805.5122839029937,805.5122839029937,805.5122839029937,805.5122839029937,805.5122839029937,805.5122839029937,805.5122839029937,805.5122839029937,805.5122839029937,805.5122839029937,805.5122839029937,805.5122839029937,,,,,,20,56,42,70,70,14,None,None,70,70,[0.09875],[-0.27875],[1],[0],[0],[5.218565129005583],['tijiao'],0.2,0,,[],[],[],[],[],[],[],8.125,1.934026660004747,815.2553084559913,817.1004565689946,808.0408466389927,808.0408466389927,808.0408466389927,808.0408466389927,808.0408466389927,808.0408466389927,808.0408466389927,808.0408466389927,0.013056031995802186,808.0408466389927,813.3130407499993,813.3130407499993,813.3130407499993,813.3130407499993,,,,,,,,,,,,,,242,f,22,2023-03-22_10h03.04.780,RL,2022.2.4,59.857970205464284,
0,0.3,0.225,0,59,59,59,,,,,,,,,,None,817.1004565689946,817.1004565689946,817.1004565689946,817.1004565689946,817.1004565689946,817.1004565689946,j,0.08291956099856179,817.2299576139922,817.2299576139922,817.2299576139922,817.2299576139922,817.2299576139922,817.2299576139922,817.5080856569984,817.5080856569984,818.8862257979927,818.8862257979927,818.9162425379909,818.9162425379909,818.9162425379909,818.9162425379909,818.9162425379909,818.9162425379909,818.9162425379909,818.9162425379909,818.9162425379909,818.9162425379909,818.9162425379909,818.9162425379909,818.9162425379909,818.9162425379909,818.9162425379909,821.4247406310024,821.4247406310024,821.4247406310024,821.4247406310024,821.4247406310024,24,55,47,69,69,61,6.0,2.2993897379928967,,,[],[],[],[],[],[],[],0.6,3,,[],[],[],[],[],[],[],None,None,823.770035485999,825.3051070609945,,,,,,,,,,,,,,,,,,,,,,,,,,,,242,f,22,2023-03-22_10h03.04.780,RL,2022.2.4,59.857970205464284,
1,-0.3,-0.225,0,60,60,60,,,,,,,,,,None,825.3051070609945,825.3051070609945,825.3051070609945,825.3051070609945,825.3051070609945,825.3051070609945,j,0.20912344699900132,825.5732423000009,825.5732423000009,825.5732423000009,825.5732423000009,825.5732423000009,825.5732423000009,825.8573582949903,825.8573582949903,826.9335201520007,826.9335201520007,826.9568093019916,826.9568093019916,826.9568093019916,826.9568093019916,826.9568093019916,826.9568093019916,826.9568093019916,826.9568093019916,826.9568093019916,826.9568093019916,826.9568093019916,826.9568093019916,826.9568093019916,826.9568093019916,826.9568093019916,,,,,,30,62,45,67,67,58,None,None,,,[],[],[],[],[],[],[],-0.6,1,40,[-0.0325],[-0.295],[1],[0],[0],[5.346683439987828],['tijiao_random_2'],3.075,2.924635312985629,837.8273201269913,839.6296296219953,,,,,,,,,,,834.9058155870007,834.9058155870007,834.9058155870007,834.9058155870007,829.5187404429889,829.5187404429889,829.5187404429889,829.5187404429889,829.5187404429889,829.5187404429889,829.5187404429889,829.5187404429889,0.015166982004302554,829.5187404429889,,,,242,f,22,2023-03-22_10h03.04.780,RL,2022.2.4,59.857970205464284,
0,0.3,0.225,0,61,61,61,,,,,,,,,,None,839.6296296219953,839.6296296219953,839.6296296219953,839.6296296219953,839.6296296219953,839.6296296219953,r,0.008867898999596946,839.6908286249964,839.6908286249964,839.6908286249964,839.6908286249964,839.6908286249964,839.6908286249964,839.9556631049927,839.9556631049927,840.7797981460026,840.7797981460026,840.8229118099989,840.8229118099989,840.8229118099989,840.8229118099989,840.8229118099989,840.8229118099989,840.8229118099989,840.8229118099989,840.8229118099989,840.8229118099989,840.8229118099989,840.8229118099989,840.8229118099989,840.8229118099989,840.8229118099989,,,,,,24,56,53,72,24,55,None,None,30,30,[0.04125],[-0.3],[1],[0],[0],[4.246323401996051],['tijiao'],-0.6,0,,[],[],[],[],[],[],[],6.012499999999999,2.160639911002363,849.8005093699903,851.7854767009994,843.3477669019921,843.3477669019921,843.3477669019921,843.3477669019921,843.3477669019921,843.3477669019921,843.3477669019921,843.3477669019921,0.010915321996435523,843.3477669019921,847.6232643979893,847.6232643979893,847.6232643979893,847.6232643979893,,,,,,,,,,,,,,242,f,22,2023-03-22_10h03.04.780,RL,2022.2.4,59.857970205464284,
1,-0.3,-0.225,0,62,62,62,,,,,,,,,,None,851.7854767009994,851.7854767009994,851.7854767009994,851.7854767009994,851.7854767009994,851.7854767009994,j,0.21069757899385877,852.0491203769925,852.0491203769925,852.0491203769925,852.0491203769925,852.0491203769925,852.0491203769925,852.3281808119937,852.3281808119937,853.2016226909909,853.2016226909909,853.2260721560015,853.2260721560015,853.2260721560015,853.2260721560015,853.2260721560015,853.2260721560015,853.2260721560015,853.2260721560015,853.2260721560015,853.2260721560015,853.2260721560015,853.2260721560015,853.2260721560015,853.2260721560015,853.2260721560015,,,,,,30,64,53,67,67,54,None,None,,,[],[],[],[],[],[],[],0.6,1,67,[-0.01875],[-0.2925],[1],[0],[0],[5.234385994990589],['tijiao_random_2'],7.887499999999999,1.8042032329976792,862.8323777149926,864.5399729060009,,,,,,,,,,,861.0127290579985,861.0127290579985,861.0127290579985,861.0127290579985,855.7580533299915,855.7580533299915,855.7580533299915,855.7580533299915,855.7580533299915,855.7580533299915,855.7580533299915,855.7580533299915,0.009994998996262439,855.7580533299915,,,,242,f,22,2023-03-22_10h03.04.780,RL,2022.2.4,59.857970205464284,
0,0.3,0.225,0,63,63,63,,,,,,,,,,None,864.5399729060009,864.5399729060009,864.5399729060009,864.5399729060009,864.5399729060009,864.5399729060009,j,0.6513336240022909,865.2348424899974,865.2348424899974,865.2348424899974,865.2348424899974,865.2348424899974,865.2348424899974,865.4970204970014,865.4970204970014,866.6168957749906,866.6168957749906,866.6612744640006,866.6612744640006,866.6612744640006,866.6612744640006,866.6612744640006,866.6612744640006,866.6612744640006,866.6612744640006,866.6612744640006,866.6612744640006,866.6612744640006,866.6612744640006,866.6612744640006,866.6612744640006,866.6612744640006,869.1777452160022,869.1777452160022,869.1777452160022,869.1777452160022,869.1777452160022,24,63,62,67,67,32,6.0,1.0899433240119833,,,[],[],[],[],[],[],[],-0.6,3,,[],[],[],[],[],[],[],None,None,870.3139448470029,872.0616186269908,,,,,,,,,,,,,,,,,,,,,,,,,,,,242,f,22,2023-03-22_10h03.04.780,RL,2022.2.4,59.857970205464284,
1,-0.3,-0.225,0,64,64,64,,,,,,,,,,None,872.0616186269908,872.0616186269908,872.0616186269908,872.0616186269908,872.0616186269908,872.0616186269908,j,0.6677390699915122,872.780290374998,872.780290374998,872.780290374998,872.780290374998,872.780290374998,872.780290374998,873.0620267979975,873.0620267979975,873.9034956870019,873.9034956870019,873.931046971993,873.931046971993,873.931046971993,873.931046971993,873.931046971993,873.931046971993,873.931046971993,873.931046971993,873.931046971993,873.931046971993,873.931046971993,873.931046971993,873.931046971993,873.931046971993,873.931046971993,,,,,,33,64,63,72,72,58,None,None,,,[],[],[],[],[],[],[],-0.2,1,30,[0.00375],[-0.2925],[1],[0],[0],[5.688301315996796],['tijiao_random_2'],6.0249999999999995,1.8791822499915725,884.1100289599999,885.9670823399938,,,,,,,,,,,882.2188107629918,882.2188107629918,882.2188107629918,882.2188107629918,876.4853623349918,876.4853623349918,876.4853623349918,876.4853623349918,876.4853623349918,876.4853623349918,876.4853623349918,876.4853623349918,0.012132290998124518,876.4853623349918,,,,242,f,22,2023-03-22_10h03.04.780,RL,2022.2.4,59.857970205464284,
0,0.3,0.225,0,65,65,65,,,,,,,,,,None,885.9670823399938,885.9670823399938,885.9670823399938,885.9670823399938,885.9670823399938,885.9670823399938,j,0.19562387600308284,886.2189660339936,886.2189660339936,886.2189660339936,886.2189660339936,886.2189660339936,886.2189660339936,886.4970290229976,886.4970290229976,887.7831938820018,887.7831938820018,887.8134914469993,887.8134914469993,887.8134914469993,887.8134914469993,887.8134914469993,887.8134914469993,887.8134914469993,887.8134914469993,887.8134914469993,887.8134914469993,887.8134914469993,887.8134914469993,887.8134914469993,887.8134914469993,887.8134914469993,890.3246106239967,890.3246106239967,890.3246106239967,890.3246106239967,890.3246106239967,27,64,69,63,63,58,4.0,1.4448948130011559,,,[],[],[],[],[],[],[],0.2,2,,[],[],[],[],[],[],[],None,None,891.8220958969905,893.6214510360005,,,,,,,,,,,,,,,,,,,,,,,,,,,,242,f,22,2023-03-22_10h03.04.780,RL,2022.2.4,59.857970205464284,
1,-0.3,-0.225,0,66,66,66,,,,,,,,,,None,893.6214510360005,893.6214510360005,893.6214510360005,893.6214510360005,893.6214510360005,893.6214510360005,j,0.5241244510107208,894.2001397409913,894.2001397409913,894.2001397409913,894.2001397409913,894.2001397409913,894.2001397409913,894.4717810079892,894.4717810079892,895.7041439909954,895.7041439909954,895.7437045549887,895.7437045549887,895.7437045549887,895.7437045549887,895.7437045549887,895.7437045549887,895.7437045549887,895.7437045549887,895.7437045549887,895.7437045549887,895.7437045549887,895.7437045549887,895.7437045549887,895.7437045549887,895.7437045549887,898.2579204389913,898.2579204389913,898.2579204389913,898.2579204389913,898.2579204389913,32,56,63,59,59,51,5.0,2.1193752940016566,,,[],[],[],[],[],[],[],-0.2,2,,[],[],[],[],[],[],[],None,None,900.4427148809918,902.2288516709959,,,,,,,,,,,,,,,,,,,,,,,,,,,,242,f,22,2023-03-22_10h03.04.780,RL,2022.2.4,59.857970205464284,
0,0.3,0.225,0,67,67,67,,,,,,,,,,None,902.2288516709959,902.2288516709959,902.2288516709959,902.2288516709959,902.2288516709959,902.2288516709959,j,0.5805722839868395,902.8559915730002,902.8559915730002,902.8559915730002,902.8559915730002,902.8559915730002,902.8559915730002,903.1118897639972,903.1118897639972,903.9389630929945,903.9389630929945,903.9878609969892,903.9878609969892,903.9878609969892,903.9878609969892,903.9878609969892,903.9878609969892,903.9878609969892,903.9878609969892,903.9878609969892,903.9878609969892,903.9878609969892,903.9878609969892,903.9878609969892,903.9878609969892,903.9878609969892,,,,,,16,56,57,55,55,61,None,None,,,[],[],[],[],[],[],[],-0.6,1,29,[0.00625],[-0.31],[1],[0],[0],[7.3878462670109],['tijiao_random_2'],6.0625,2.110875918995589,916.052834836999,917.9827476770006,,,,,,,,,,,913.9253008249943,913.9253008249943,913.9253008249943,913.9253008249943,906.5179501949897,906.5179501949897,906.5179501949897,906.5179501949897,906.5179501949897,906.5179501949897,906.5179501949897,906.5179501949897,0.010862720009754412,906.5179501949897,,,,242,f,22,2023-03-22_10h03.04.780,RL,2022.2.4,59.857970205464284,
1,-0.3,-0.225,0,68,68,68,,,,,,,,,,None,917.9827476770006,917.9827476770006,917.9827476770006,917.9827476770006,917.9827476770006,917.9827476770006,j,0.2141095580009278,918.2473486879899,918.2473486879899,918.2473486879899,918.2473486879899,918.2473486879899,918.2473486879899,918.5221770380012,918.5221770380012,919.5186837660003,919.5186837660003,919.5434805059922,919.5434805059922,919.5434805059922,919.5434805059922,919.5434805059922,919.5434805059922,919.5434805059922,919.5434805059922,919.5434805059922,919.5434805059922,919.5434805059922,919.5434805059922,919.5434805059922,919.5434805059922,919.5434805059922,,,,,,28,49,58,56,56,51,None,None,,,[],[],[],[],[],[],[],0.2,1,38,[0.025],[-0.3125],[1],[0],[0],[6.818486593008856],['tijiao_random_2'],6.875,1.878007785009686,930.8001109189936,932.3891276560025,,,,,,,,,,,928.9065153789998,928.9065153789998,928.9065153789998,928.9065153789998,922.0685207669885,922.0685207669885,922.0685207669885,922.0685207669885,922.0685207669885,922.0685207669885,922.0685207669885,922.0685207669885,0.01153083700046409,922.0685207669885,,,,242,f,22,2023-03-22_10h03.04.780,RL,2022.2.4,59.857970205464284,
0,0.3,0.225,0,69,69,69,,,,,,,,,,None,932.3891276560025,932.3891276560025,932.3891276560025,932.3891276560025,932.3891276560025,932.3891276560025,j,0.21768686799623538,932.6602705209953,932.6602705209953,932.6602705209953,932.6602705209953,932.6602705209953,932.6602705209953,932.9321594329958,932.9321594329958,934.9032506919903,934.9032506919903,934.9433107389923,934.9433107389923,934.9433107389923,934.9433107389923,934.9433107389923,934.9433107389923,934.9433107389923,934.9433107389923,934.9433107389923,934.9433107389923,934.9433107389923,934.9433107389923,934.9433107389923,934.9433107389923,934.9433107389923,,,,,,25,60,65,59,59,50,None,None,56,56,[0.0],[-0.295],[1],[0],[0],[6.384533193006064],['tijiao'],0.6,0,,[],[],[],[],[],[],[],8.887500000000001,2.3798886979930103,946.2996500549925,948.0313794389949,937.4759213380021,937.4759213380021,937.4759213380021,937.4759213380021,937.4759213380021,937.4759213380021,937.4759213380021,937.4759213380021,0.009586585991200991,937.4759213380021,943.9186668170005,943.9186668170005,943.9186668170005,943.9186668170005,,,,,,,,,,,,,,242,f,22,2023-03-22_10h03.04.780,RL,2022.2.4,59.857970205464284,
1,-0.3,-0.225,0,70,70,70,,,,,,,,,,None,948.0313794389949,948.0313794389949,948.0313794389949,948.0313794389949,948.0313794389949,948.0313794389949,j,0.22604767899611033,948.3175962919922,948.3175962919922,948.3175962919922,948.3175962919922,948.3175962919922,948.3175962919922,948.5808014009963,948.5808014009963,949.713125549999,949.713125549999,949.7622178890015,949.7622178890015,949.7622178890015,949.7622178890015,949.7622178890015,949.7622178890015,949.7622178890015,949.7622178890015,949.7622178890015,949.7622178890015,949.7622178890015,949.7622178890015,949.7622178890015,949.7622178890015,949.7622178890015,952.2525154839968,952.2525154839968,952.2525154839968,952.2525154839968,952.2525154839968,42,58,58,59,59,63,6.0,1.7746774219995132,,,[],[],[],[],[],[],[],-0.2,3,,[],[],[],[],[],[],[],None,None,954.0714285360009,956.0680184849916,,,,,,,,,,,,,,,,,,,,,,,,,,,,242,f,22,2023-03-22_10h03.04.780,RL,2022.2.4,59.857970205464284,
0,0.3,0.225,0,71,71,71,,,,,,,,,,None,956.0680184849916,956.0680184849916,956.0680184849916,956.0680184849916,956.0680184849916,956.0680184849916,j,0.26518361500347964,956.4027810219995,956.4027810219995,956.4027810219995,956.4027810219995,956.4027810219995,956.4027810219995,956.670694186003,956.670694186003,958.055037314989,958.055037314989,958.1001877559902,958.1001877559902,958.1001877559902,958.1001877559902,958.1001877559902,958.1001877559902,958.1001877559902,958.1001877559902,958.1001877559902,958.1001877559902,958.1001877559902,958.1001877559902,958.1001877559902,958.1001877559902,958.1001877559902,960.6017338529928,960.6017338529928,960.6017338529928,960.6017338529928,960.6017338529928,35,64,53,48,48,63,3.0,2.663568531992496,,,[],[],[],[],[],[],[],-0.6,3,,[],[],[],[],[],[],[],None,None,963.312864676991,965.1274917739938,,,,,,,,,,,,,,,,,,,,,,,,,,,,242,f,22,2023-03-22_10h03.04.780,RL,2022.2.4,59.857970205464284,
1,-0.3,-0.225,0,72,72,72,,,,,,,,,,None,965.1274917739938,965.1274917739938,965.1274917739938,965.1274917739938,965.1274917739938,965.1274917739938,j,0.5275708159897476,965.7071711239987,965.7071711239987,965.7071711239987,965.7071711239987,965.7071711239987,965.7071711239987,965.9820152589964,965.9820152589964,967.7740194989892,967.7740194989892,967.8217579100019,967.8217579100019,967.8217579100019,967.8217579100019,967.8217579100019,967.8217579100019,967.8217579100019,967.8217579100019,967.8217579100019,967.8217579100019,967.8217579100019,967.8217579100019,967.8217579100019,967.8217579100019,967.8217579100019,970.3230532369926,970.3230532369926,970.3230532369926,970.3230532369926,970.3230532369926,24,57,61,58,58,63,4.0,1.656039358000271,,,[],[],[],[],[],[],[],0.6,2,,[],[],[],[],[],[],[],None,None,972.0254429339984,973.6932703479979,,,,,,,,,,,,,,,,,,,,,,,,,,,,242,f,22,2023-03-22_10h03.04.780,RL,2022.2.4,59.857970205464284,
0,0.3,0.225,0,73,73,73,,,,,,,,,,None,973.6932703479979,973.6932703479979,973.6932703479979,973.6932703479979,973.6932703479979,973.6932703479979,j,0.39764761699188966,974.1442556389957,974.1442556389957,974.1442556389957,974.1442556389957,974.1442556389957,974.1442556389957,974.4130133509898,974.4130133509898,975.7057362319902,975.7057362319902,975.7472142049955,975.7472142049955,975.7472142049955,975.7472142049955,975.7472142049955,975.7472142049955,975.7472142049955,975.7472142049955,975.7472142049955,975.7472142049955,975.7472142049955,975.7472142049955,975.7472142049955,975.7472142049955,975.7472142049955,978.2619758719957,978.2619758719957,978.2619758719957,978.2619758719957,978.2619758719957,34,64,40,54,54,67,4.0,1.5296089879993815,,,[],[],[],[],[],[],[],0.6,3,,[],[],[],[],[],[],[],None,None,979.8384937059891,981.6303290489886,,,,,,,,,,,,,,,,,,,,,,,,,,,,242,f,22,2023-03-22_10h03.04.780,RL,2022.2.4,59.857970205464284,
1,-0.3,-0.225,0,74,74,74,,,,,,,,,,None,981.6303290489886,981.6303290489886,981.6303290489886,981.6303290489886,981.6303290489886,981.6303290489886,j,1.0034025519998977,982.681265384992,982.681265384992,982.681265384992,982.681265384992,982.681265384992,982.681265384992,982.9612076219928,982.9612076219928,983.9646459299984,983.9646459299984,983.989406223991,983.989406223991,983.989406223991,983.989406223991,983.989406223991,983.989406223991,983.989406223991,983.989406223991,983.989406223991,983.989406223991,983.989406223991,983.989406223991,983.989406223991,983.989406223991,983.989406223991,986.4927632939944,986.4927632939944,986.4927632939944,986.4927632939944,986.4927632939944,28,66,56,43,43,65,3.0,1.8302461780112935,,,[],[],[],[],[],[],[],0.2,3,,[],[],[],[],[],[],[],None,None,988.3682338709914,989.9484360959905,,,,,,,,,,,,,,,,,,,,,,,,,,,,242,f,22,2023-03-22_10h03.04.780,RL,2022.2.4,59.857970205464284,
0,0.3,0.225,0,75,75,75,,,,,,,,,,q,1178.07404666199,1178.07404666199,1178.07404666199,1178.07404666199,1178.07404666199,1178.07404666199,j,0.9998433099972317,1179.1289058389957,1179.1289058389957,1179.1289058389957,1179.1289058389957,1179.1289058389957,1179.1289058389957,1179.3980144889938,1179.3980144889938,1180.3182663189946,1180.3182663189946,1180.3413428369968,1180.3413428369968,1180.3413428369968,1180.3413428369968,1180.3413428369968,1180.3413428369968,1180.3413428369968,1180.3413428369968,1180.3413428369968,1180.3413428369968,1180.3413428369968,1180.3413428369968,1180.3413428369968,1180.3413428369968,1180.3413428369968,,,,,,30,74,41,51,51,57,None,None,,,[],[],[],[],[],[],[],-0.6,1,50,[-0.0325],[-0.3],[1],[0],[0],[5.372515652998118],['tijiao_random_2'],6.0249999999999995,2.3838126579939853,1190.6644705029903,1192.4288695669966,,,,,,,,,,,1188.2640717859904,1188.2640717859904,1188.2640717859904,1188.2640717859904,1182.8707685479894,1182.8707685479894,1182.8707685479894,1182.8707685479894,1182.8707685479894,1182.8707685479894,1182.8707685479894,1182.8707685479894,0.012079742999048904,1182.8707685479894,989.9484360959905,989.9484360959905,188.07838231099595,242,f,22,2023-03-22_10h03.04.780,RL,2022.2.4,59.857970205464284,
1,-0.3,-0.225,0,76,76,76,,,,,,,,,,None,1192.4288695669966,1192.4288695669966,1192.4288695669966,1192.4288695669966,1192.4288695669966,1192.4288695669966,r,0.24661664600716904,1192.723713667001,1192.723713667001,1192.723713667001,1192.723713667001,1192.723713667001,1192.723713667001,1192.9952480469947,1192.9952480469947,1194.7937525979942,1194.7937525979942,1194.8169288759964,1194.8169288759964,1194.8169288759964,1194.8169288759964,1194.8169288759964,1194.8169288759964,1194.8169288759964,1194.8169288759964,1194.8169288759964,1194.8169288759964,1194.8169288759964,1194.8169288759964,1194.8169288759964,1194.8169288759964,1194.8169288759964,,,,,,38,63,51,43,38,67,None,None,38,38,[-0.01125],[-0.28125],[1],[0],[0],[4.980558205003035],['tijiao'],0.6,0,,[],[],[],[],[],[],[],6.012499999999999,1.9354663289996097,1204.3308846279979,1206.025572241997,1197.3403082229925,1197.3403082229925,1197.3403082229925,1197.3403082229925,1197.3403082229925,1197.3403082229925,1197.3403082229925,1197.3403082229925,0.008696413991856389,1197.3403082229925,1202.354772035993,1202.354772035993,1202.354772035993,1202.354772035993,,,,,,,,,,,,,,242,f,22,2023-03-22_10h03.04.780,RL,2022.2.4,59.857970205464284,
0,0.3,0.225,0,77,77,77,,,,,,,,,,None,1206.025572241997,1206.025572241997,1206.025572241997,1206.025572241997,1206.025572241997,1206.025572241997,j,0.18099249000078999,1206.2700000100012,1206.2700000100012,1206.2700000100012,1206.2700000100012,1206.2700000100012,1206.2700000100012,1206.5246530860022,1206.5246530860022,1208.006075718993,1208.006075718993,1208.0524093569984,1208.0524093569984,1208.0524093569984,1208.0524093569984,1208.0524093569984,1208.0524093569984,1208.0524093569984,1208.0524093569984,1208.0524093569984,1208.0524093569984,1208.0524093569984,1208.0524093569984,1208.0524093569984,1208.0524093569984,1208.0524093569984,1210.5549030969996,1210.5549030969996,1210.5549030969996,1210.5549030969996,1210.5549030969996,24,76,46,55,55,66,4.0,1.2560459639935289,,,[],[],[],[],[],[],[],-0.6,3,,[],[],[],[],[],[],[],None,None,1211.8726166749984,1213.6986276940006,,,,,,,,,,,,,,,,,,,,,,,,,,,,242,f,22,2023-03-22_10h03.04.780,RL,2022.2.4,59.857970205464284,
1,-0.3,-0.225,0,78,78,78,,,,,,,,,,None,1213.6986276940006,1213.6986276940006,1213.6986276940006,1213.6986276940006,1213.6986276940006,1213.6986276940006,j,0.27764067900716327,1214.032449402992,1214.032449402992,1214.032449402992,1214.032449402992,1214.032449402992,1214.032449402992,1214.297435569999,1214.297435569999,1215.4197007579933,1215.4197007579933,1215.459266152,1215.459266152,1215.459266152,1215.459266152,1215.459266152,1215.459266152,1215.459266152,1215.459266152,1215.459266152,1215.459266152,1215.459266152,1215.459266152,1215.459266152,1215.459266152,1215.459266152,,,,,,25,71,46,51,51,63,None,None,53,53,[0.03],[-0.27875],[1],[0],[0],[6.0857970030047],['tijiao'],0.6,0,,[],[],[],[],[],[],[],6.949999999999999,1.6680854589940282,1225.798563274002,1227.61160095199,1217.9799036399927,1217.9799036399927,1217.9799036399927,1217.9799036399927,1217.9799036399927,1217.9799036399927,1217.9799036399927,1217.9799036399927,0.009745915987878107,1217.9799036399927,1224.1070471919957,1224.1070471919957,1224.1070471919957,1224.1070471919957,,,,,,,,,,,,,,242,f,22,2023-03-22_10h03.04.780,RL,2022.2.4,59.857970205464284,
0,0.3,0.225,0,79,79,79,,,,,,,,,,None,1227.61160095199,1227.61160095199,1227.61160095199,1227.61160095199,1227.61160095199,1227.61160095199,j,0.31272412699763663,1227.971110065002,1227.971110065002,1227.971110065002,1227.971110065002,1227.971110065002,1227.971110065002,1228.2523565009906,1228.2523565009906,1229.7807433179987,1229.7807433179987,1229.8052473409916,1229.8052473409916,1229.8052473409916,1229.8052473409916,1229.8052473409916,1229.8052473409916,1229.8052473409916,1229.8052473409916,1229.8052473409916,1229.8052473409916,1229.8052473409916,1229.8052473409916,1229.8052473409916,1229.8052473409916,1229.8052473409916,1232.3175935920008,1232.3175935920008,1232.3175935920008,1232.3175935920008,1232.3175935920008,30,68,49,51,51,58,4.0,2.6725274409982376,,,[],[],[],[],[],[],[],0.2,2,,[],[],[],[],[],[],[],None,None,1235.0462586450012,1236.7514926909935,,,,,,,,,,,,,,,,,,,,,,,,,,,,242,f,22,2023-03-22_10h03.04.780,RL,2022.2.4,59.857970205464284,
1,-0.3,-0.225,0,80,80,80,,,,,,,,,,None,1236.7514926909935,1236.7514926909935,1236.7514926909935,1236.7514926909935,1236.7514926909935,1236.7514926909935,i,0.32551483499992173,1237.1331725380005,1237.1331725380005,1237.1331725380005,1237.1331725380005,1237.1331725380005,1237.1331725380005,1237.4114405769942,1237.4114405769942,1238.7455949430005,1238.7455949430005,1238.7671326369891,1238.7671326369891,1238.7671326369891,1238.7671326369891,1238.7671326369891,1238.7671326369891,1238.7671326369891,1238.7671326369891,1238.7671326369891,1238.7671326369891,1238.7671326369891,1238.7671326369891,1238.7671326369891,1238.7671326369891,1238.7671326369891,,,,,,20,76,43,57,43,66,None,None,45,45,[0.015],[-0.3175],[1],[0],[0],[4.791263727005571],['tijiao'],0.6,0,,[],[],[],[],[],[],[],8.0125,1.5762439309910405,1247.7136003299966,1249.2239479929995,1241.297399062998,1241.297399062998,1241.297399062998,1241.297399062998,1241.297399062998,1241.297399062998,1241.297399062998,1241.297399062998,0.010392298005172051,1241.297399062998,1246.1153772239923,1246.1153772239923,1246.1153772239923,1246.1153772239923,,,,,,,,,,,,,,242,f,22,2023-03-22_10h03.04.780,RL,2022.2.4,59.857970205464284,
0,0.3,0.225,0,81,81,81,,,,,,,,,,None,1249.2239479929995,1249.2239479929995,1249.2239479929995,1249.2239479929995,1249.2239479929995,1249.2239479929995,i,1.4291579589917092,1250.7077777079976,1250.7077777079976,1250.7077777079976,1250.7077777079976,1250.7077777079976,1250.7077777079976,1250.9809231929976,1250.9809231929976,1251.8650857769971,1251.8650857769971,1251.910572697001,1251.910572697001,1251.910572697001,1251.910572697001,1251.910572697001,1251.910572697001,1251.910572697001,1251.910572697001,1251.910572697001,1251.910572697001,1251.910572697001,1251.910572697001,1251.910572697001,1251.910572697001,1251.910572697001,1254.4132761060027,1254.4132761060027,1254.4132761060027,1254.4132761060027,1254.4132761060027,27,67,44,55,44,64,4.0,2.54062726200209,,,[],[],[],[],[],[],[],-0.2,3,,[],[],[],[],[],[],[],None,None,1256.9992739439913,1258.5474011369952,,,,,,,,,,,,,,,,,,,,,,,,,,,,242,f,22,2023-03-22_10h03.04.780,RL,2022.2.4,59.857970205464284,
1,-0.3,-0.225,0,82,82,82,,,,,,,,,,None,1258.5474011369952,1258.5474011369952,1258.5474011369952,1258.5474011369952,1258.5474011369952,1258.5474011369952,j,0.29179298199596815,1258.892861892993,1258.892861892993,1258.892861892993,1258.892861892993,1258.892861892993,1258.892861892993,1259.173831070002,1259.173831070002,1260.0191574999917,1260.0191574999917,1260.0458739500027,1260.0458739500027,1260.0458739500027,1260.0458739500027,1260.0458739500027,1260.0458739500027,1260.0458739500027,1260.0458739500027,1260.0458739500027,1260.0458739500027,1260.0458739500027,1260.0458739500027,1260.0458739500027,1260.0458739500027,1260.0458739500027,1262.557074092998,1262.557074092998,1262.557074092998,1262.557074092998,1262.557074092998,34,62,35,51,51,60,4.0,2.09377208200749,,,[],[],[],[],[],[],[],-0.2,3,,[],[],[],[],[],[],[],None,None,1264.6984207509959,1266.5487341209955,,,,,,,,,,,,,,,,,,,,,,,,,,,,242,f,22,2023-03-22_10h03.04.780,RL,2022.2.4,59.857970205464284,
0,0.3,0.225,0,83,83,83,,,,,,,,,,None,1266.5487341209955,1266.5487341209955,1266.5487341209955,1266.5487341209955,1266.5487341209955,1266.5487341209955,j,0.05100634600967169,1266.6495229349966,1266.6495229349966,1266.6495229349966,1266.6495229349966,1266.6495229349966,1266.6495229349966,1266.9236655040004,1266.9236655040004,1268.3340527580003,1268.3340527580003,1268.3752044099965,1268.3752044099965,1268.3752044099965,1268.3752044099965,1268.3752044099965,1268.3752044099965,1268.3752044099965,1268.3752044099965,1268.3752044099965,1268.3752044099965,1268.3752044099965,1268.3752044099965,1268.3752044099965,1268.3752044099965,1268.3752044099965,,,,,,27,68,40,63,63,61,None,None,,,[],[],[],[],[],[],[],0.2,1,53,[-0.00875],[-0.29625],[1],[0],[0],[4.505089003010653],['tijiao_random_2'],7.012500000000001,1.5709370959957596,1277.0508460589917,1278.9231728430022,,,,,,,,,,,1275.4698853659938,1275.4698853659938,1275.4698853659938,1275.4698853659938,1270.9220952729956,1270.9220952729956,1270.9220952729956,1270.9220952729956,1270.9220952729956,1270.9220952729956,1270.9220952729956,1270.9220952729956,0.011498070991365239,1270.9220952729956,,,,242,f,22,2023-03-22_10h03.04.780,RL,2022.2.4,59.857970205464284,
1,-0.3,-0.225,0,84,84,84,,,,,,,,,,None,1278.9231728430022,1278.9231728430022,1278.9231728430022,1278.9231728430022,1278.9231728430022,1278.9231728430022,j,0.22649759000341874,1279.2128987890028,1279.2128987890028,1279.2128987890028,1279.2128987890028,1279.2128987890028,1279.2128987890028,1279.4873871029995,1279.4873871029995,1280.4151704589895,1280.4151704589895,1280.4480320619914,1280.4480320619914,1280.4480320619914,1280.4480320619914,1280.4480320619914,1280.4480320619914,1280.4480320619914,1280.4480320619914,1280.4480320619914,1280.4480320619914,1280.4480320619914,1280.4480320619914,1280.4480320619914,1280.4480320619914,1280.4480320619914,1282.9391890169936,1282.9391890169936,1282.9391890169936,1282.9391890169936,1282.9391890169936,39,62,47,58,58,65,3.0,2.1515926490101265,,,[],[],[],[],[],[],[],-0.2,3,,[],[],[],[],[],[],[],None,None,1285.139493640003,1286.7418529889983,,,,,,,,,,,,,,,,,,,,,,,,,,,,242,f,22,2023-03-22_10h03.04.780,RL,2022.2.4,59.857970205464284,
0,0.3,0.225,0,85,85,85,,,,,,,,,,None,1286.7418529889983,1286.7418529889983,1286.7418529889983,1286.7418529889983,1286.7418529889983,1286.7418529889983,j,0.3805314100027317,1287.1704439799942,1287.1704439799942,1287.1704439799942,1287.1704439799942,1287.1704439799942,1287.1704439799942,1287.4426883289998,1287.4426883289998,1288.36085078599,1288.36085078599,1288.401792382996,1288.401792382996,1288.401792382996,1288.401792382996,1288.401792382996,1288.401792382996,1288.401792382996,1288.401792382996,1288.401792382996,1288.401792382996,1288.401792382996,1288.401792382996,1288.401792382996,1288.401792382996,1288.401792382996,,,,,,32,62,38,59,59,55,None,None,,,[],[],[],[],[],[],[],0.2,1,54,[0.01125],[-0.27625],[1],[0],[0],[6.829939867995563],['tijiao_random_2'],5.975,2.458340867990046,1300.2601149169932,1302.183231144998,,,,,,,,,,,1297.8002572900004,1297.8002572900004,1297.8002572900004,1297.8002572900004,1290.9338337609952,1290.9338337609952,1290.9338337609952,1290.9338337609952,1290.9338337609952,1290.9338337609952,1290.9338337609952,1290.9338337609952,0.01082645999849774,1290.9338337609952,,,,242,f,22,2023-03-22_10h03.04.780,RL,2022.2.4,59.857970205464284,
1,-0.3,-0.225,0,86,86,86,,,,,,,,,,None,1302.183231144998,1302.183231144998,1302.183231144998,1302.183231144998,1302.183231144998,1302.183231144998,j,0.22703602199908346,1302.4578409709939,1302.4578409709939,1302.4578409709939,1302.4578409709939,1302.4578409709939,1302.4578409709939,1302.7264523600024,1302.7264523600024,1304.5334838760027,1304.5334838760027,1304.5595080119965,1304.5595080119965,1304.5595080119965,1304.5595080119965,1304.5595080119965,1304.5595080119965,1304.5595080119965,1304.5595080119965,1304.5595080119965,1304.5595080119965,1304.5595080119965,1304.5595080119965,1304.5595080119965,1304.5595080119965,1304.5595080119965,1307.0611830689886,1307.0611830689886,1307.0611830689886,1307.0611830689886,1307.0611830689886,30,69,38,55,55,68,4.0,1.1999778099998366,,,[],[],[],[],[],[],[],0.2,3,,[],[],[],[],[],[],[],None,None,1308.3062761539913,1309.8694826779974,,,,,,,,,,,,,,,,,,,,,,,,,,,,242,f,22,2023-03-22_10h03.04.780,RL,2022.2.4,59.857970205464284,
0,0.3,0.225,0,87,87,87,,,,,,,,,,None,1309.8694826779974,1309.8694826779974,1309.8694826779974,1309.8694826779974,1309.8694826779974,1309.8694826779974,j,0.20066635200055316,1310.1232218919904,1310.1232218919904,1310.1232218919904,1310.1232218919904,1310.1232218919904,1310.1232218919904,1310.39913917199,1310.39913917199,1312.3356503109972,1312.3356503109972,1312.3561923009984,1312.3561923009984,1312.3561923009984,1312.3561923009984,1312.3561923009984,1312.3561923009984,1312.3561923009984,1312.3561923009984,1312.3561923009984,1312.3561923009984,1312.3561923009984,1312.3561923009984,1312.3561923009984,1312.3561923009984,1312.3561923009984,,,,,,21,75,43,48,48,60,None,None,,,[],[],[],[],[],[],[],0.6,1,50,[-0.035],[-0.29625],[1],[0],[0],[8.014070627992623],['tijiao_random_2'],6.9375,5.65954272300587,1328.601638452994,1330.4282048629975,,,,,,,,,,,1322.9252087929926,1322.9252087929926,1322.9252087929926,1322.9252087929926,1314.89117500899,1314.89117500899,1314.89117500899,1314.89117500899,1314.89117500899,1314.89117500899,1314.89117500899,1314.89117500899,0.009885185994789936,1314.89117500899,,,,242,f,22,2023-03-22_10h03.04.780,RL,2022.2.4,59.857970205464284,
1,-0.3,-0.225,0,88,88,88,,,,,,,,,,None,1330.4282048629975,1330.4282048629975,1330.4282048629975,1330.4282048629975,1330.4282048629975,1330.4282048629975,i,0.181885489000706,1330.6555252379912,1330.6555252379912,1330.6555252379912,1330.6555252379912,1330.6555252379912,1330.6555252379912,1330.9279978669947,1330.9279978669947,1332.2456196349958,1332.2456196349958,1332.2893223019928,1332.2893223019928,1332.2893223019928,1332.2893223019928,1332.2893223019928,1332.2893223019928,1332.2893223019928,1332.2893223019928,1332.2893223019928,1332.2893223019928,1332.2893223019928,1332.2893223019928,1332.2893223019928,1332.2893223019928,1332.2893223019928,,,,,,32,61,41,48,41,57,None,None,,,[],[],[],[],[],[],[],0.2,1,43,[0.0025],[-0.2825],[1],[0],[0],[3.716046360990731],['tijiao_random_2'],7.05,1.6082942409993848,1340.2138495079998,1342.1235122569924,,,,,,,,,,,1338.5908826899977,1338.5908826899977,1338.5908826899977,1338.5908826899977,1334.8323569019994,1334.8323569019994,1334.8323569019994,1334.8323569019994,1334.8323569019994,1334.8323569019994,1334.8323569019994,1334.8323569019994,0.014743751991773024,1334.8323569019994,,,,242,f,22,2023-03-22_10h03.04.780,RL,2022.2.4,59.857970205464284,
0,0.3,0.225,0,89,89,89,,,,,,,,,,None,1342.1235122569924,1342.1235122569924,1342.1235122569924,1342.1235122569924,1342.1235122569924,1342.1235122569924,j,0.4332602070062421,1342.605998220999,1342.605998220999,1342.605998220999,1342.605998220999,1342.605998220999,1342.605998220999,1342.862894655991,1342.862894655991,1343.9531477739947,1343.9531477739947,1344.0089382309961,1344.0089382309961,1344.0089382309961,1344.0089382309961,1344.0089382309961,1344.0089382309961,1344.0089382309961,1344.0089382309961,1344.0089382309961,1344.0089382309961,1344.0089382309961,1344.0089382309961,1344.0089382309961,1344.0089382309961,1344.0089382309961,1346.510243119992,1346.510243119992,1346.510243119992,1346.510243119992,1346.510243119992,26,72,51,43,43,55,3.0,2.247380510001676,,,[],[],[],[],[],[],[],0.2,3,,[],[],[],[],[],[],[],None,None,1348.802980250999,1350.570670710993,,,,,,,,,,,,,,,,,,,,,,,,,,,,242,f,22,2023-03-22_10h03.04.780,RL,2022.2.4,59.857970205464284,
1,-0.3,-0.225,0,90,90,90,,,,,,,,,,None,1350.570670710993,1350.570670710993,1350.570670710993,1350.570670710993,1350.570670710993,1350.570670710993,r,0.22263281198684126,1350.8358614629979,1350.8358614629979,1350.8358614629979,1350.8358614629979,1350.8358614629979,1350.8358614629979,1351.1197692580026,1351.1197692580026,1353.0409419759962,1353.0409419759962,1353.0644864469941,1353.0644864469941,1353.0644864469941,1353.0644864469941,1353.0644864469941,1353.0644864469941,1353.0644864469941,1353.0644864469941,1353.0644864469941,1353.0644864469941,1353.0644864469941,1353.0644864469941,1353.0644864469941,1353.0644864469941,1353.0644864469941,1355.572251969992,1355.572251969992,1355.572251969992,1355.572251969992,1355.572251969992,25,77,40,32,25,62,3.0,1.2625265290116658,,,[],[],[],[],[],[],[],0.2,3,,[],[],[],[],[],[],[],None,None,1356.8816345300002,1358.857895381996,,,,,,,,,,,,,,,,,,,,,,,,,,,,242,f,22,2023-03-22_10h03.04.780,RL,2022.2.4,59.857970205464284,
