bandit0,black_x_pos_random,black_y_pos_random,trials.thisRepN,trials.thisTrialN,trials.thisN,trials.thisIndex,instru_img1.started,instru_img1.stopped,instru_resp.keys,instru_resp.rt,instru_resp.started,instru_resp.stopped,instru_img2.started,instru_img2.stopped,instru_resp2.keys,instru_resp2.rt,instru_resp2.started,instru_resp2.stopped,fixbefore_2.started,fixbefore_2.stopped,rest_image.started,rest_image.stopped,rest_response.keys,rest_response.started,rest_response.stopped,red.started,red.stopped,green.started,green.stopped,yellow.started,yellow.stopped,blue.started,blue.stopped,choose_bandit.keys,choose_bandit.rt,choose_bandit.started,choose_bandit.stopped,Fixation.started,Fixation.stopped,black.started,black.stopped,red_2.started,red_2.stopped,green_2.started,green_2.stopped,yellow_2.started,yellow_2.stopped,blue_2.started,blue_2.stopped,fixation_2.started,fixation_2.stopped,docs.started,docs.stopped,wait_playerB.started,wait_playerB.stopped,black_com.started,black_com.stopped,reward_sub.started,reward_sub.stopped,palyerb.started,palyerb.stopped,reward__sub.started,reward__sub.stopped,compare.started,compare.stopped,red_compare.started,red_compare.stopped,green_com.started,green_com.stopped,yellow_com.started,yellow_com.stopped,blue_com.started,blue_com.stopped,rewardyellow,rewardred,rewardblue,rewardgreen,subchoose,playerb,image_3.started,image_3.stopped,slider.response,slider.rt,slider.started,slider.stopped,text.started,text.stopped,image_4.started,image_4.stopped,image_5.started,image_5.stopped,expectself.text,expectself.started,expectself.stopped,value_expect_self,expect_self_black.started,expect_self_black.stopped,expect_self.started,expect_self.stopped,expect_self_red.started,expect_self_red.stopped,expect_self_green.started,expect_self_green.stopped,expect_self_yellow.started,expect_self_yellow.stopped,expect_self_blue.started,expect_self_blue.stopped,tijiao.started,tijiao.stopped,tijiao_click.started,tijiao_click.stopped,check.started,check.stopped,random_whicharm,whether_ask,jiantou_random.started,jiantou_random.stopped,expect_red.started,expect_red.stopped,expect_green.started,expect_green.stopped,expect_yellow.started,expect_yellow.stopped,expect_blue.started,expect_blue.stopped,expect_random_2.started,expect_random_2.stopped,expect_random_3.text,expect_random_3.started,expect_random_3.stopped,tijiao_random_2.started,tijiao_random_2.stopped,tijiao_random.started,tijiao_random.stopped,check_2.started,check_2.stopped,slider_2.response,slider_2.rt,slider_2.started,slider_2.stopped,image_7.started,image_7.stopped,confi.started,confi.stopped,notconfi.started,notconfi.stopped,bigx.started,bigx.stopped,intertrialfix.started,intertrialfix.stopped,tijiao_random.x,tijiao_random.y,tijiao_random.leftButton,tijiao_random.midButton,tijiao_random.rightButton,tijiao_random.time,tijiao_random.clicked_name,tijiao_click.x,tijiao_click.y,tijiao_click.leftButton,tijiao_click.midButton,tijiao_click.rightButton,tijiao_click.time,tijiao_click.clicked_name,rest_response.rt,participant,Gender,Age,date,expName,psychopyVersion,frameRate,
,,,,,,,25.687625799968373,None,space,7.0075387000106275,25.687625799968373,None,,,,,,,,,,,,,,,,,,,,,,,,,,,,,,,,,,,,,,,,,,,,,,,,,,,,,,,,,,,,,,,,,,,,,,,,,,,,,,,,,,,,,,,,,,,,,,,,,,,,,,,,,,,,,,,,,,,,,,,,,,,,,,,,,,,,,,,,,,,,,,,,,,,,,,,,,,243,f,24,2023_Mar_22_1123,RL,2021.2.3,59.95121169534463,
,,,,,,,,,,,,,32.736009099986404,None,s,23.209037700027693,32.736009099986404,None,,,,,,,,,,,,,,,,,,,,,,,,,,,,,,,,,,,,,,,,,,,,,,,,,,,,,,,,,,,,,,,,,,,,,,,,,,,,,,,,,,,,,,,,,,,,,,,,,,,,,,,,,,,,,,,,,,,,,,,,,,,,,,,,,,,,,,,,,,,,,,,,,,,,243,f,24,2023_Mar_22_1123,RL,2021.2.3,59.95121169534463,
1,-0.3,-0.225,0,0,0,0,,,,,,,,,,,,,55.98221559997182,None,None,None,None,None,None,57.06345459999284,None,57.06345459999284,None,57.06345459999284,None,57.06345459999284,None,r,0.3816318000317551,57.06345459999284,None,57.06345459999284,None,57.551251799974125,None,57.551251799974125,None,57.551251799974125,None,57.551251799974125,None,57.551251799974125,None,57.551251799974125,None,57.85578139999416,None,57.85578139999416,None,59.361623400007375,None,59.361623400007375,None,59.361623400007375,None,59.361623400007375,None,59.361623400007375,None,59.361623400007375,None,59.361623400007375,None,59.361623400007375,None,59.361623400007375,None,47,32,72,60,47,41,61.97954390000086,None,5.0,2.3228950000484474,61.97954390000086,None,61.97954390000086,None,61.97954390000086,None,61.97954390000086,None,,None,None,,None,None,None,None,None,None,None,None,None,None,None,None,None,None,None,None,None,None,0.2,2,None,None,None,None,None,None,None,None,None,None,None,None,,None,None,None,None,None,None,None,None,None,None,None,None,None,None,None,None,None,None,None,None,64.9177703000023,None,,,,,,,,,,,,,,,,243,f,24,2023_Mar_22_1123,RL,2021.2.3,59.95121169534463,
0,0.3,0.225,0,1,1,1,,,,,,,,,,,,,,,None,None,None,None,None,66.58302409999305,None,66.58302409999305,None,66.58302409999305,None,66.58302409999305,None,i,0.5522244999883696,66.58302409999305,None,66.58302409999305,None,67.1752523999894,None,67.1752523999894,None,67.1752523999894,None,67.1752523999894,None,67.1752523999894,None,67.1752523999894,None,67.46266649995232,69.31388769997284,67.46266649995232,69.31388769997284,69.34642689995235,None,69.34642689995235,None,69.34642689995235,None,69.34642689995235,None,69.34642689995235,None,69.34642689995235,None,69.34642689995235,None,69.34642689995235,None,69.34642689995235,None,45,31,61,56,61,52,None,None,None,None,None,None,None,None,None,None,None,None,,None,None,,None,None,None,None,None,None,None,None,None,None,None,None,None,None,None,None,None,None,-0.6,1,71.94238739996217,None,71.94238739996217,None,71.94238739996217,None,71.94238739996217,None,71.94238739996217,None,71.94238739996217,None,60,71.94238739996217,None,71.94238739996217,None,3.6360055673867464e-05,None,71.94238739996217,None,7.145833333333334,1.8159337000106461,75.73322379996534,None,75.73322379996534,None,75.73322379996534,None,75.73322379996534,None,None,None,77.56774520000909,None,0.109375,-0.2721354166666667,1,0,0,3.720165700011421,tijiao_random_2,,,,,,,,,243,f,24,2023_Mar_22_1123,RL,2021.2.3,59.95121169534463,
1,-0.3,-0.225,0,2,2,2,,,,,,,,,,,,,,,None,None,None,None,None,79.34217269998044,None,79.34217269998044,None,79.34217269998044,None,79.34217269998044,None,i,0.49300010001752526,79.34217269998044,None,79.34217269998044,None,79.88428959995508,None,79.88428959995508,None,79.88428959995508,None,79.88428959995508,None,79.88428959995508,None,79.88428959995508,None,80.17140019999351,None,80.17140019999351,None,81.07333489996381,None,81.07333489996381,None,81.07333489996381,None,81.07333489996381,None,81.07333489996381,None,81.07333489996381,None,81.07333489996381,None,81.07333489996381,None,81.07333489996381,None,48,38,54,66,54,39,None,None,None,None,None,None,None,None,None,None,None,None,57,83.61000270000659,None,57,83.61000270000659,None,83.61000270000659,None,83.61000270000659,None,83.61000270000659,None,83.61000270000659,None,83.61000270000659,None,83.61000270000659,None,0.008387329988181591,None,83.61000270000659,None,-0.6,0,None,None,None,None,None,None,None,None,None,None,None,None,,None,None,None,None,None,None,None,None,7.028645833333334,2.1386478999629617,87.17458529997384,None,87.17458529997384,None,87.17458529997384,None,87.17458529997384,None,None,None,89.34463929996127,None,,,,,,,,0.11458333333333333,-0.29296875,1,0,0,3.495688800001517,tijiao,,243,f,24,2023_Mar_22_1123,RL,2021.2.3,59.95121169534463,
0,0.3,0.225,0,3,3,3,,,,,,,,,,,,,,,None,None,None,None,None,91.33390839997446,None,91.33390839997446,None,91.33390839997446,None,91.33390839997446,None,i,0.6414262000471354,91.33390839997446,None,91.33390839997446,None,92.0197270999779,None,92.0197270999779,None,92.0197270999779,None,92.0197270999779,None,92.0197270999779,None,92.0197270999779,None,92.31325760000618,None,92.31325760000618,None,93.91243839997333,None,93.91243839997333,None,93.91243839997333,None,93.91243839997333,None,93.91243839997333,None,93.91243839997333,None,93.91243839997333,None,93.91243839997333,None,93.91243839997333,None,40,37,61,57,61,52,None,None,None,None,None,None,None,None,None,None,None,None,,None,None,,None,None,None,None,None,None,None,None,None,None,None,None,None,None,None,None,None,None,0.6,1,96.45551749999868,None,96.45551749999868,None,96.45551749999868,None,96.45551749999868,None,96.45551749999868,None,96.45551749999868,None,65,96.45551749999868,None,96.45551749999868,None,0.002285629976540804,None,96.45551749999868,None,9.033854166666668,1.460815400001593,100.76368499995442,None,100.76368499995442,None,100.76368499995442,None,100.76368499995442,None,None,None,102.23615239997162,None,0.015625,-0.2786458333333333,1,0,0,4.273757699993439,tijiao_random_2,,,,,,,,,243,f,24,2023_Mar_22_1123,RL,2021.2.3,59.95121169534463,
1,-0.3,-0.225,0,4,4,4,,,,,,,,,,,,,,,None,None,None,None,None,104.0586824999773,None,104.0586824999773,None,104.0586824999773,None,104.0586824999773,None,r,0.5368186999694444,104.0586824999773,None,104.0586824999773,None,104.6449878999847,None,104.6449878999847,None,104.6449878999847,None,104.6449878999847,None,104.6449878999847,None,104.6449878999847,None,104.93867740000132,None,104.93867740000132,None,106.65479969995795,None,106.65479969995795,None,106.65479969995795,None,106.65479969995795,None,106.65479969995795,None,106.65479969995795,None,106.65479969995795,None,106.65479969995795,None,106.65479969995795,None,42,39,64,50,42,61,None,None,None,None,None,None,None,None,None,None,None,None,45,109.18227589997696,None,45,109.18227589997696,None,109.18227589997696,None,109.18227589997696,None,109.18227589997696,None,109.18227589997696,None,109.18227589997696,None,109.18227589997696,None,0.0010919200140051544,None,109.18227589997696,None,-0.2,0,None,None,None,None,None,None,None,None,None,None,None,None,,None,None,None,None,None,None,None,None,3.955729166666666,2.1252329000271857,112.95003790000919,None,112.95003790000919,None,112.95003790000919,None,112.95003790000919,None,None,None,115.09562259999802,None,,,,,,,,0.013020833333333334,-0.2942708333333333,1,0,0,3.704432900005486,tijiao,,243,f,24,2023_Mar_22_1123,RL,2021.2.3,59.95121169534463,
0,0.3,0.225,0,5,5,5,,,,,,,,,,,,,,,None,None,None,None,None,116.76784869999392,None,116.76784869999392,None,116.76784869999392,None,116.76784869999392,None,i,0.5176630000350997,116.76784869999392,None,116.76784869999392,None,117.33648790000007,None,117.33648790000007,None,117.33648790000007,None,117.33648790000007,None,117.33648790000007,None,117.33648790000007,None,117.63080479996279,119.54890019999584,117.63080479996279,119.54890019999584,119.58317239995813,None,119.58317239995813,None,119.58317239995813,None,119.58317239995813,None,119.58317239995813,None,119.58317239995813,None,119.58317239995813,None,119.58317239995813,None,119.58317239995813,None,45,35,58,55,58,49,None,None,None,None,None,None,None,None,None,None,None,None,57,122.11404590000166,None,57,122.11404590000166,None,122.11404590000166,None,122.11404590000166,None,122.11404590000166,None,122.11404590000166,None,122.11404590000166,None,122.11404590000166,None,0.011679229966830462,None,122.11404590000166,None,0.6,0,None,None,None,None,None,None,None,None,None,None,None,None,,None,None,None,None,None,None,None,None,10.075520833333332,1.292805299977772,125.72825849999208,None,125.72825849999208,None,125.72825849999208,None,125.72825849999208,None,None,None,127.03654459997779,None,,,,,,,,0.059895833333333336,-0.28515625,1,0,0,3.565475899958983,tijiao,,243,f,24,2023_Mar_22_1123,RL,2021.2.3,59.95121169534463,
1,-0.3,-0.225,0,6,6,6,,,,,,,,,,,,,,,None,None,None,None,None,128.7589777999674,None,128.7589777999674,None,128.7589777999674,None,128.7589777999674,None,r,0.6465551999863237,128.7589777999674,None,128.7589777999674,None,129.44787919998635,None,129.44787919998635,None,129.44787919998635,None,129.44787919998635,None,129.44787919998635,None,129.44787919998635,None,129.73900919995504,None,129.73900919995504,None,131.3372151000076,None,131.3372151000076,None,131.3372151000076,None,131.3372151000076,None,131.3372151000076,None,131.3372151000076,None,131.3372151000076,None,131.3372151000076,None,131.3372151000076,None,42,21,60,52,42,58,None,None,None,None,None,None,None,None,None,None,None,None,40,133.8677054999862,None,40,133.8677054999862,None,133.8677054999862,None,133.8677054999862,None,133.8677054999862,None,133.8677054999862,None,133.8677054999862,None,133.8677054999862,None,0.016345929994713515,None,133.8677054999862,None,-0.2,0,None,None,None,None,None,None,None,None,None,None,None,None,,None,None,None,None,None,None,None,None,10.1015625,1.7247822000063024,136.79123079997953,None,136.79123079997953,None,136.79123079997953,None,136.79123079997953,None,None,None,138.54332459997386,None,,,,,,,,0.11328125,-0.3046875,1,0,0,2.869049599976279,tijiao,,243,f,24,2023_Mar_22_1123,RL,2021.2.3,59.95121169534463,
0,0.3,0.225,0,7,7,7,,,,,,,,,,,,,,,None,None,None,None,None,140.5513079999946,None,140.5513079999946,None,140.5513079999946,None,140.5513079999946,None,f,0.4044953000266105,140.5513079999946,None,140.5513079999946,None,140.99357309995685,None,140.99357309995685,None,140.99357309995685,None,140.99357309995685,None,140.99357309995685,None,140.99357309995685,None,141.28058359998977,142.66520909999963,141.28058359998977,142.66520909999963,142.70055049995426,None,142.70055049995426,None,142.70055049995426,None,142.70055049995426,None,142.70055049995426,None,142.70055049995426,None,142.70055049995426,None,142.70055049995426,None,142.70055049995426,None,47,28,65,57,28,52,None,None,None,None,None,None,None,None,None,None,None,None,,None,None,,None,None,None,None,None,None,None,None,None,None,None,None,None,None,None,None,None,None,0.2,1,145.25406349997502,None,145.25406349997502,None,145.25406349997502,None,145.25406349997502,None,145.25406349997502,None,145.25406349997502,None,61,145.25406349997502,None,145.25406349997502,None,0.004133139969781041,None,145.25406349997502,None,10.947916666666668,1.1480912999832071,150.6085488999961,None,150.6085488999961,None,150.6085488999961,None,150.6085488999961,None,None,None,151.77057529997546,None,0.1328125,-0.2890625,1,0,0,5.3252158999675885,tijiao_random_2,,,,,,,,,243,f,24,2023_Mar_22_1123,RL,2021.2.3,59.95121169534463,
1,-0.3,-0.225,0,8,8,8,,,,,,,,,,,,,,,None,None,None,None,None,153.2925860999967,None,153.2925860999967,None,153.2925860999967,None,153.2925860999967,None,j,0.5440784000093117,153.2925860999967,None,153.2925860999967,None,153.88091849995544,None,153.88091849995544,None,153.88091849995544,None,153.88091849995544,None,153.88091849995544,None,153.88091849995544,None,154.17278590000933,None,154.17278590000933,None,155.0047752999817,None,155.0047752999817,None,155.0047752999817,None,155.0047752999817,None,155.0047752999817,None,155.0047752999817,None,155.0047752999817,None,155.0047752999817,None,155.0047752999817,None,52,33,66,56,56,51,157.52178019995335,None,7.0,2.406015100015793,157.52178019995335,None,157.52178019995335,None,157.52178019995335,None,157.52178019995335,None,,None,None,,None,None,None,None,None,None,None,None,None,None,None,None,None,None,None,None,None,None,0.2,2,None,None,None,None,None,None,None,None,None,None,None,None,,None,None,None,None,None,None,None,None,None,None,None,None,None,None,None,None,None,None,None,None,159.98073219996877,None,,,,,,,,,,,,,,,,243,f,24,2023_Mar_22_1123,RL,2021.2.3,59.95121169534463,
0,0.3,0.225,0,9,9,9,,,,,,,,,,,,,,,None,None,None,None,None,161.89893019996816,None,161.89893019996816,None,161.89893019996816,None,161.89893019996816,None,f,0.48795189999509603,161.89893019996816,None,161.89893019996816,None,162.4340555999661,None,162.4340555999661,None,162.4340555999661,None,162.4340555999661,None,162.4340555999661,None,162.4340555999661,None,162.72878309997031,164.37993319996167,162.72878309997031,164.37993319996167,164.41198629996506,None,164.41198629996506,None,164.41198629996506,None,164.41198629996506,None,164.41198629996506,None,164.41198629996506,None,164.41198629996506,None,164.41198629996506,None,164.41198629996506,None,53,24,62,52,24,66,None,None,None,None,None,None,None,None,None,None,None,None,,None,None,,None,None,None,None,None,None,None,None,None,None,None,None,None,None,None,None,None,None,0.2,1,166.96174579998478,None,166.96174579998478,None,166.96174579998478,None,166.96174579998478,None,166.96174579998478,None,166.96174579998478,None,54,166.96174579998478,None,166.96174579998478,None,0.011183340044226497,None,166.96174579998478,None,5.947916666666667,1.8901692999643274,172.24977659998694,None,172.24977659998694,None,172.24977659998694,None,172.24977659998694,None,None,None,174.15297719999216,None,0.061197916666666664,-0.26953125,1,0,0,5.248878500016872,tijiao_random_2,,,,,,,,,243,f,24,2023_Mar_22_1123,RL,2021.2.3,59.95121169534463,
1,-0.3,-0.225,0,10,10,10,,,,,,,,,,,,,,,None,None,None,None,None,176.07558339997195,None,176.07558339997195,None,176.07558339997195,None,176.07558339997195,None,r,0.47156219999305904,176.07558339997195,None,176.07558339997195,None,176.596213599958,None,176.596213599958,None,176.596213599958,None,176.596213599958,None,176.596213599958,None,176.596213599958,None,176.88853719999315,None,176.88853719999315,None,178.03744509996613,None,178.03744509996613,None,178.03744509996613,None,178.03744509996613,None,178.03744509996613,None,178.03744509996613,None,178.03744509996613,None,178.03744509996613,None,178.03744509996613,None,49,33,59,50,49,47,None,None,None,None,None,None,None,None,None,None,None,None,47,180.58133309998084,None,47,180.58133309998084,None,180.58133309998084,None,180.58133309998084,None,180.58133309998084,None,180.58133309998084,None,180.58133309998084,None,180.58133309998084,None,0.0021347299334593117,None,180.58133309998084,None,-0.6,0,None,None,None,None,None,None,None,None,None,None,None,None,,None,None,None,None,None,None,None,None,8.942708333333332,1.6681245000218041,184.32850679999683,None,184.32850679999683,None,184.32850679999683,None,184.32850679999683,None,None,None,186.0109417999629,None,,,,,,,,0.010416666666666666,-0.2877604166666667,1,0,0,3.7056514999712817,tijiao,,243,f,24,2023_Mar_22_1123,RL,2021.2.3,59.95121169534463,
0,0.3,0.225,0,11,11,11,,,,,,,,,,,,,,,None,None,None,None,None,187.9336182999541,None,187.9336182999541,None,187.9336182999541,None,187.9336182999541,None,j,0.4233030999894254,187.9336182999541,None,187.9336182999541,None,188.4033228000044,None,188.4033228000044,None,188.4033228000044,None,188.4033228000044,None,188.4033228000044,None,188.4033228000044,None,188.69675219996134,None,188.69675219996134,None,190.67922339995857,None,190.67922339995857,None,190.67922339995857,None,190.67922339995857,None,190.67922339995857,None,190.67922339995857,None,190.67922339995857,None,190.67922339995857,None,190.67922339995857,None,44,41,56,51,51,56,None,None,None,None,None,None,None,None,None,None,None,None,,None,None,,None,None,None,None,None,None,None,None,None,None,None,None,None,None,None,None,None,None,0.2,1,193.23153200000525,None,193.23153200000525,None,193.23153200000525,None,193.23153200000525,None,193.23153200000525,None,193.23153200000525,None,65,193.23153200000525,None,193.23153200000525,None,0.010140940023120493,None,193.23153200000525,None,10.9609375,1.0879500999581069,197.54303139995318,None,197.54303139995318,None,197.54303139995318,None,197.54303139995318,None,None,None,198.6531941999565,None,0.08333333333333333,-0.2877604166666667,1,0,0,4.280419399961829,tijiao_random_2,,,,,,,,,243,f,24,2023_Mar_22_1123,RL,2021.2.3,59.95121169534463,
1,-0.3,-0.225,0,12,12,12,,,,,,,,,,,,,,,None,None,None,None,None,200.32541910000145,None,200.32541910000145,None,200.32541910000145,None,200.32541910000145,None,r,0.581711400009226,200.32541910000145,None,200.32541910000145,None,200.9478650999954,None,200.9478650999954,None,200.9478650999954,None,200.9478650999954,None,200.9478650999954,None,200.9478650999954,None,201.222419800004,203.09029570000712,201.222419800004,203.09029570000712,203.12271579995286,None,203.12271579995286,None,203.12271579995286,None,203.12271579995286,None,203.12271579995286,None,203.12271579995286,None,203.12271579995286,None,203.12271579995286,None,203.12271579995286,None,50,28,57,51,50,49,205.64153609995265,None,7.0,2.387035499967169,205.64153609995265,None,205.64153609995265,None,205.64153609995265,None,205.64153609995265,None,,None,None,,None,None,None,None,None,None,None,None,None,None,None,None,None,None,None,None,None,None,0.2,3,None,None,None,None,None,None,None,None,None,None,None,None,,None,None,None,None,None,None,None,None,None,None,None,None,None,None,None,None,None,None,None,None,208.0822107999702,None,,,,,,,,,,,,,,,,243,f,24,2023_Mar_22_1123,RL,2021.2.3,59.95121169534463,
0,0.3,0.225,0,13,13,13,,,,,,,,,,,,,,,None,None,None,None,None,209.7154597999761,None,209.7154597999761,None,209.7154597999761,None,209.7154597999761,None,f,0.5616544999647886,209.7154597999761,None,209.7154597999761,None,210.31732489995193,None,210.31732489995193,None,210.31732489995193,None,210.31732489995193,None,210.31732489995193,None,210.31732489995193,None,210.61193989997264,None,210.61193989997264,None,212.39854520000517,None,212.39854520000517,None,212.39854520000517,None,212.39854520000517,None,212.39854520000517,None,212.39854520000517,None,212.39854520000517,None,212.39854520000517,None,212.39854520000517,None,54,28,58,53,28,51,214.91945309995208,None,7.0,1.7985223000287078,214.91945309995208,None,214.91945309995208,None,214.91945309995208,None,214.91945309995208,None,,None,None,,None,None,None,None,None,None,None,None,None,None,None,None,None,None,None,None,None,None,-0.2,3,None,None,None,None,None,None,None,None,None,None,None,None,,None,None,None,None,None,None,None,None,None,None,None,None,None,None,None,None,None,None,None,None,216.76847399998223,None,,,,,,,,,,,,,,,,243,f,24,2023_Mar_22_1123,RL,2021.2.3,59.95121169534463,
1,-0.3,-0.225,0,14,14,14,,,,,,,,,,,,,,,None,None,None,None,None,218.75540159997763,None,218.75540159997763,None,218.75540159997763,None,218.75540159997763,None,None,,218.75540159997763,None,218.75540159997763,None,None,None,None,None,None,None,None,None,None,None,None,None,None,None,None,None,None,None,None,None,None,None,None,None,None,None,None,None,None,None,None,None,None,None,41,35,53,52,0,**,None,None,None,None,None,None,None,None,None,None,None,None,,None,None,,None,None,None,None,None,None,None,None,None,None,None,None,None,None,None,None,None,None,-0.6,1,None,None,None,None,None,None,None,None,None,None,None,None,,None,None,None,None,None,None,None,None,None,None,None,None,None,None,None,None,None,None,220.48275599995395,None,226.48969299998134,None,,,,,,,,,,,,,,,,243,f,24,2023_Mar_22_1123,RL,2021.2.3,59.95121169534463,
0,0.3,0.225,0,15,15,15,,,,,,,,,,,,,,,None,None,None,None,None,228.08992149995174,None,228.08992149995174,None,228.08992149995174,None,228.08992149995174,None,i,0.3369500999688171,228.08992149995174,None,228.08992149995174,None,228.46739720000187,None,228.46739720000187,None,228.46739720000187,None,228.46739720000187,None,228.46739720000187,None,228.46739720000187,None,228.75821669999277,None,228.75821669999277,None,229.90637119999155,None,229.90637119999155,None,229.90637119999155,None,229.90637119999155,None,229.90637119999155,None,229.90637119999155,None,229.90637119999155,None,229.90637119999155,None,229.90637119999155,None,44,30,62,54,62,61,232.42565389996162,None,5.0,2.320553799974732,232.42565389996162,None,232.42565389996162,None,232.42565389996162,None,232.42565389996162,None,,None,None,,None,None,None,None,None,None,None,None,None,None,None,None,None,None,None,None,None,None,-0.6,2,None,None,None,None,None,None,None,None,None,None,None,None,,None,None,None,None,None,None,None,None,None,None,None,None,None,None,None,None,None,None,None,None,234.79915729997447,None,,,,,,,,,,,,,,,,243,f,24,2023_Mar_22_1123,RL,2021.2.3,59.95121169534463,
1,-0.3,-0.225,0,16,16,16,,,,,,,,,,,,,,,None,None,None,None,None,236.73437279998325,None,236.73437279998325,None,236.73437279998325,None,236.73437279998325,None,j,0.39284919999772683,236.73437279998325,None,236.73437279998325,None,237.170621199999,None,237.170621199999,None,237.170621199999,None,237.170621199999,None,237.170621199999,None,237.170621199999,None,237.46401339996373,238.91524449997814,237.46401339996373,238.91524449997814,238.94744399999036,None,238.94744399999036,None,238.94744399999036,None,238.94744399999036,None,238.94744399999036,None,238.94744399999036,None,238.94744399999036,None,238.94744399999036,None,238.94744399999036,None,43,29,50,57,57,64,None,None,None,None,None,None,None,None,None,None,None,None,,None,None,,None,None,None,None,None,None,None,None,None,None,None,None,None,None,None,None,None,None,0.2,1,241.50743479997618,None,241.50743479997618,None,241.50743479997618,None,241.50743479997618,None,241.50743479997618,None,241.50743479997618,None,67,241.50743479997618,None,241.50743479997618,None,0.0012216399773024023,None,241.50743479997618,None,8.942708333333332,1.4263712000101805,245.38327729998855,None,245.38327729998855,None,245.38327729998855,None,245.38327729998855,None,None,None,246.8353036000044,None,0.013020833333333334,-0.2838541666666667,1,0,0,3.838806400017347,tijiao_random_2,,,,,,,,,243,f,24,2023_Mar_22_1123,RL,2021.2.3,59.95121169534463,
0,0.3,0.225,0,17,17,17,,,,,,,,,,,,,,,None,None,None,None,None,248.75924539996777,None,248.75924539996777,None,248.75924539996777,None,248.75924539996777,None,r,0.4882713999832049,248.75924539996777,None,248.75924539996777,None,249.29279949999182,None,249.29279949999182,None,249.29279949999182,None,249.29279949999182,None,249.29279949999182,None,249.29279949999182,None,249.5891922999872,None,249.5891922999872,None,251.47481849999167,None,251.47481849999167,None,251.47481849999167,None,251.47481849999167,None,251.47481849999167,None,251.47481849999167,None,251.47481849999167,None,251.47481849999167,None,251.47481849999167,None,49,32,59,57,49,37,None,None,None,None,None,None,None,None,None,None,None,None,46,254.00386229995638,None,46,254.00386229995638,None,254.00386229995638,None,254.00386229995638,None,254.00386229995638,None,254.00386229995638,None,254.00386229995638,None,254.00386229995638,None,0.01289323001401499,None,254.00386229995638,None,0.2,0,None,None,None,None,None,None,None,None,None,None,None,None,,None,None,None,None,None,None,None,None,9.072916666666668,2.312180200009607,258.0975754999672,None,258.0975754999672,None,258.0975754999672,None,258.0975754999672,None,None,None,260.42784259998007,None,,,,,,,,0.12890625,-0.28515625,1,0,0,4.050079000007827,tijiao,,243,f,24,2023_Mar_22_1123,RL,2021.2.3,59.95121169534463,
1,-0.3,-0.225,0,18,18,18,,,,,,,,,,,,,,,None,None,None,None,None,262.06856519996654,None,262.06856519996654,None,262.06856519996654,None,262.06856519996654,None,f,0.41899899998679757,262.06856519996654,None,262.06856519996654,None,262.5373183999909,None,262.5373183999909,None,262.5373183999909,None,262.5373183999909,None,262.5373183999909,None,262.5373183999909,None,262.8316089999862,263.7489226000034,262.8316089999862,263.7489226000034,263.78276889998233,None,263.78276889998233,None,263.78276889998233,None,263.78276889998233,None,263.78276889998233,None,263.78276889998233,None,263.78276889998233,None,263.78276889998233,None,263.78276889998233,None,50,29,61,48,29,52,266.3065031999722,None,4.0,2.1210841999854892,266.3065031999722,None,266.3065031999722,None,266.3065031999722,None,266.3065031999722,None,,None,None,,None,None,None,None,None,None,None,None,None,None,None,None,None,None,None,None,None,None,0.2,2,None,None,None,None,None,None,None,None,None,None,None,None,,None,None,None,None,None,None,None,None,None,None,None,None,None,None,None,None,None,None,None,None,268.48022490000585,None,,,,,,,,,,,,,,,,243,f,24,2023_Mar_22_1123,RL,2021.2.3,59.95121169534463,
0,0.3,0.225,0,19,19,19,,,,,,,,,,,,,,,None,None,None,None,None,270.08981129998574,None,270.08981129998574,None,270.08981129998574,None,270.08981129998574,None,i,0.38758810004219413,270.08981129998574,None,270.08981129998574,None,270.5318718999624,None,270.5318718999624,None,270.5318718999624,None,270.5318718999624,None,270.5318718999624,None,270.5318718999624,None,270.8204539999715,272.75526389997685,270.8204539999715,272.75526389997685,272.78737420000834,None,272.78737420000834,None,272.78737420000834,None,272.78737420000834,None,272.78737420000834,None,272.78737420000834,None,272.78737420000834,None,272.78737420000834,None,272.78737420000834,None,50,26,56,50,56,34,None,None,None,None,None,None,None,None,None,None,None,None,57,275.3139819999924,None,57,275.3139819999924,None,275.3139819999924,None,275.3139819999924,None,275.3139819999924,None,275.3139819999924,None,275.3139819999924,None,275.3139819999924,None,0.0011475200299173594,None,275.3139819999924,None,-0.6,0,None,None,None,None,None,None,None,None,None,None,None,None,,None,None,None,None,None,None,None,None,10.947916666666668,1.3875481999712065,278.4640147999744,None,278.4640147999744,None,278.4640147999744,None,278.4640147999744,None,None,None,279.874574699963,None,,,,,,,,0.006510416666666667,-0.2747395833333333,1,0,0,3.104429699946195,tijiao,,243,f,24,2023_Mar_22_1123,RL,2021.2.3,59.95121169534463,
1,-0.3,-0.225,0,20,20,20,,,,,,,,,,,,,,,None,None,None,None,None,281.6488627999788,None,281.6488627999788,None,281.6488627999788,None,281.6488627999788,None,f,0.6189826999907382,281.6488627999788,None,281.6488627999788,None,282.31768269999884,None,282.31768269999884,None,282.31768269999884,None,282.31768269999884,None,282.31768269999884,None,282.31768269999884,None,282.61213570000837,None,282.61213570000837,None,284.06329540000297,None,284.06329540000297,None,284.06329540000297,None,284.06329540000297,None,284.06329540000297,None,284.06329540000297,None,284.06329540000297,None,284.06329540000297,None,284.06329540000297,None,50,34,61,50,34,60,286.57981199998176,None,4.0,3.656561400042847,286.57981199998176,None,286.57981199998176,None,286.57981199998176,None,286.57981199998176,None,,None,None,,None,None,None,None,None,None,None,None,None,None,None,None,None,None,None,None,None,None,-0.2,2,None,None,None,None,None,None,None,None,None,None,None,None,,None,None,None,None,None,None,None,None,None,None,None,None,None,None,None,None,None,None,None,None,290.30431709997356,None,,,,,,,,,,,,,,,,243,f,24,2023_Mar_22_1123,RL,2021.2.3,59.95121169534463,
0,0.3,0.225,0,21,21,21,,,,,,,,,,,,,,,None,None,None,None,None,292.10577809996903,None,292.10577809996903,None,292.10577809996903,None,292.10577809996903,None,r,0.32182640000246465,292.10577809996903,None,292.10577809996903,None,292.475166899967,None,292.475166899967,None,292.475166899967,None,292.475166899967,None,292.475166899967,None,292.475166899967,None,292.76909829996293,None,292.76909829996293,None,294.45139189995825,None,294.45139189995825,None,294.45139189995825,None,294.45139189995825,None,294.45139189995825,None,294.45139189995825,None,294.45139189995825,None,294.45139189995825,None,294.45139189995825,None,47,25,67,54,47,60,None,None,None,None,None,None,None,None,None,None,None,None,,None,None,,None,None,None,None,None,None,None,None,None,None,None,None,None,None,None,None,None,None,0.2,1,296.99368329998106,None,296.99368329998106,None,296.99368329998106,None,296.99368329998106,None,296.99368329998106,None,296.99368329998106,None,58,296.99368329998106,None,296.99368329998106,None,0.0027252300642430782,None,296.99368329998106,None,9.0078125,2.3959122000378557,301.59970989997964,None,301.59970989997964,None,301.59970989997964,None,301.59970989997964,None,None,None,304.0102354999981,None,-0.020833333333333332,-0.2890625,1,0,0,4.573828399996273,tijiao_random_2,,,,,,,,,243,f,24,2023_Mar_22_1123,RL,2021.2.3,59.95121169534463,
1,-0.3,-0.225,0,22,22,22,,,,,,,,,,,,,,,None,None,None,None,None,305.69972440000856,None,305.69972440000856,None,305.69972440000856,None,305.69972440000856,None,f,0.3981280999723822,305.69972440000856,None,305.69972440000856,None,306.1485173999681,None,306.1485173999681,None,306.1485173999681,None,306.1485173999681,None,306.1485173999681,None,306.1485173999681,None,306.4455354999518,None,306.4455354999518,None,308.28156089998083,None,308.28156089998083,None,308.28156089998083,None,308.28156089998083,None,308.28156089998083,None,308.28156089998083,None,308.28156089998083,None,308.28156089998083,None,308.28156089998083,None,42,20,63,40,20,54,310.79917729995213,None,4.0,3.720030999975279,310.79917729995213,None,310.79917729995213,None,310.79917729995213,None,310.79917729995213,None,,None,None,,None,None,None,None,None,None,None,None,None,None,None,None,None,None,None,None,None,None,0.6,3,None,None,None,None,None,None,None,None,None,None,None,None,,None,None,None,None,None,None,None,None,None,None,None,None,None,None,None,None,None,None,None,None,314.5911407999811,None,,,,,,,,,,,,,,,,243,f,24,2023_Mar_22_1123,RL,2021.2.3,59.95121169534463,
0,0.3,0.225,0,23,23,23,,,,,,,,,,,,,,,None,None,None,None,None,316.4900519999792,None,316.4900519999792,None,316.4900519999792,None,316.4900519999792,None,i,0.2687455000123009,316.4900519999792,None,316.4900519999792,None,316.80875609995564,None,316.80875609995564,None,316.80875609995564,None,316.80875609995564,None,316.80875609995564,None,316.80875609995564,None,317.102743299969,None,317.102743299969,None,319.10287279996555,None,319.10287279996555,None,319.10287279996555,None,319.10287279996555,None,319.10287279996555,None,319.10287279996555,None,319.10287279996555,None,319.10287279996555,None,319.10287279996555,None,40,21,69,50,69,55,None,None,None,None,None,None,None,None,None,None,None,None,,None,None,,None,None,None,None,None,None,None,None,None,None,None,None,None,None,None,None,None,None,0.2,1,321.6463989999611,None,321.6463989999611,None,321.6463989999611,None,321.6463989999611,None,321.6463989999611,None,321.6463989999611,None,69,321.6463989999611,None,321.6463989999611,None,0.00029902998358011246,None,321.6463989999611,None,11,4.086572100000922,326.2487570999656,None,326.2487570999656,None,326.2487570999656,None,326.2487570999656,None,None,None,330.3561542999814,None,0.09244791666666667,-0.29296875,1,0,0,4.570807799987961,tijiao_random_2,,,,,,,,,243,f,24,2023_Mar_22_1123,RL,2021.2.3,59.95121169534463,
1,-0.3,-0.225,0,24,24,24,,,,,,,,,,,,,,,None,None,None,None,None,332.1340302999597,None,332.1340302999597,None,332.1340302999597,None,332.1340302999597,None,i,0.34497299999929965,332.1340302999597,None,332.1340302999597,None,332.51845739997225,None,332.51845739997225,None,332.51845739997225,None,332.51845739997225,None,332.51845739997225,None,332.51845739997225,None,332.81356059998507,None,332.81356059998507,None,333.97681899997406,None,333.97681899997406,None,333.97681899997406,None,333.97681899997406,None,333.97681899997406,None,333.97681899997406,None,333.97681899997406,None,333.97681899997406,None,333.97681899997406,None,42,19,73,42,73,64,336.4966502999887,None,7.0,2.337504099996295,336.4966502999887,None,336.4966502999887,None,336.4966502999887,None,336.4966502999887,None,,None,None,,None,None,None,None,None,None,None,None,None,None,None,None,None,None,None,None,None,None,-0.6,3,None,None,None,None,None,None,None,None,None,None,None,None,,None,None,None,None,None,None,None,None,None,None,None,None,None,None,None,None,None,None,None,None,338.8891475999844,None,,,,,,,,,,,,,,,,243,f,24,2023_Mar_22_1123,RL,2021.2.3,59.95121169534463,
0,0.3,0.225,0,25,25,25,,,,,,,,,,,,,,,None,None,None,None,None,340.57321549998596,None,340.57321549998596,None,340.57321549998596,None,340.57321549998596,None,j,0.46574399998644367,340.57321549998596,None,340.57321549998596,None,341.0920876999735,None,341.0920876999735,None,341.0920876999735,None,341.0920876999735,None,341.0920876999735,None,341.0920876999735,None,341.3863623999641,342.820859999978,341.3863623999641,342.820859999978,342.8561147999717,None,342.8561147999717,None,342.8561147999717,None,342.8561147999717,None,342.8561147999717,None,342.8561147999717,None,342.8561147999717,None,342.8561147999717,None,342.8561147999717,None,45,15,67,44,44,48,345.37127209996106,None,5.0,3.0030763000249863,345.37127209996106,None,345.37127209996106,None,345.37127209996106,None,345.37127209996106,None,,None,None,,None,None,None,None,None,None,None,None,None,None,None,None,None,None,None,None,None,None,-0.2,3,None,None,None,None,None,None,None,None,None,None,None,None,,None,None,None,None,None,None,None,None,None,None,None,None,None,None,None,None,None,None,None,None,348.42510299995774,None,,,,,,,,,,,,,,,,243,f,24,2023_Mar_22_1123,RL,2021.2.3,59.95121169534463,
1,-0.3,-0.225,0,26,26,26,,,,,,,,,,,,,,,None,None,None,None,None,350.31335730000865,None,350.31335730000865,None,350.31335730000865,None,350.31335730000865,None,i,0.4156803999794647,350.31335730000865,None,350.31335730000865,None,350.78311479999684,None,350.78311479999684,None,350.78311479999684,None,350.78311479999684,None,350.78311479999684,None,350.78311479999684,None,351.0762223000056,None,351.0762223000056,None,352.90731609996874,None,352.90731609996874,None,352.90731609996874,None,352.90731609996874,None,352.90731609996874,None,352.90731609996874,None,352.90731609996874,None,352.90731609996874,None,352.90731609996874,None,34,12,72,44,72,49,355.43406239995966,None,7.0,2.3360723999794573,355.43406239995966,None,355.43406239995966,None,355.43406239995966,None,355.43406239995966,None,,None,None,,None,None,None,None,None,None,None,None,None,None,None,None,None,None,None,None,None,None,-0.6,2,None,None,None,None,None,None,None,None,None,None,None,None,,None,None,None,None,None,None,None,None,None,None,None,None,None,None,None,None,None,None,None,None,357.8282608999871,None,,,,,,,,,,,,,,,,243,f,24,2023_Mar_22_1123,RL,2021.2.3,59.95121169534463,
0,0.3,0.225,0,27,27,27,,,,,,,,,,,,,,,None,None,None,None,None,359.5033424999565,None,359.5033424999565,None,359.5033424999565,None,359.5033424999565,None,j,0.7458459999761544,359.5033424999565,None,359.5033424999565,None,360.2910789999878,None,360.2910789999878,None,360.2910789999878,None,360.2910789999878,None,360.2910789999878,None,360.2910789999878,None,360.58281729999,361.65027559996815,360.58281729999,361.65027559996815,361.68280939996475,None,361.68280939996475,None,361.68280939996475,None,361.68280939996475,None,361.68280939996475,None,361.68280939996475,None,361.68280939996475,None,361.68280939996475,None,361.68280939996475,None,48,17,77,44,44,49,364.2062200999935,None,4.0,3.2189443999668583,364.2062200999935,None,364.2062200999935,None,364.2062200999935,None,364.2062200999935,None,,None,None,,None,None,None,None,None,None,None,None,None,None,None,None,None,None,None,None,None,None,0.6,2,None,None,None,None,None,None,None,None,None,None,None,None,,None,None,None,None,None,None,None,None,None,None,None,None,None,None,None,None,None,None,None,None,367.4766416999628,None,,,,,,,,,,,,,,,,243,f,24,2023_Mar_22_1123,RL,2021.2.3,59.95121169534463,
1,-0.3,-0.225,0,28,28,28,,,,,,,,,,,,,,,None,None,None,None,None,369.0915937999962,None,369.0915937999962,None,369.0915937999962,None,369.0915937999962,None,j,0.3477792000048794,369.0915937999962,None,369.0915937999962,None,369.4773383999709,None,369.4773383999709,None,369.4773383999709,None,369.4773383999709,None,369.4773383999709,None,369.4773383999709,None,369.7725411999854,371.4404838999617,369.7725411999854,371.4404838999617,371.4726072999765,None,371.4726072999765,None,371.4726072999765,None,371.4726072999765,None,371.4726072999765,None,371.4726072999765,None,371.4726072999765,None,371.4726072999765,None,371.4726072999765,None,47,16,77,39,39,59,373.98985029995674,None,4.0,1.9030330999521539,373.98985029995674,None,373.98985029995674,None,373.98985029995674,None,373.98985029995674,None,,None,None,,None,None,None,None,None,None,None,None,None,None,None,None,None,None,None,None,None,None,0.2,3,None,None,None,None,None,None,None,None,None,None,None,None,,None,None,None,None,None,None,None,None,None,None,None,None,None,None,None,None,None,None,None,None,375.9473646999686,None,,,,,,,,,,,,,,,,243,f,24,2023_Mar_22_1123,RL,2021.2.3,59.95121169534463,
0,0.3,0.225,0,29,29,29,,,,,,,,,,,,,,,None,None,None,None,None,377.8159319999977,None,377.8159319999977,None,377.8159319999977,None,377.8159319999977,None,i,0.23347400000784546,377.8159319999977,None,377.8159319999977,None,378.0995330999722,None,378.0995330999722,None,378.0995330999722,None,378.0995330999722,None,378.0995330999722,None,378.0995330999722,None,378.3951875999919,380.3800926999538,378.3951875999919,380.3800926999538,380.4121996999602,None,380.4121996999602,None,380.4121996999602,None,380.4121996999602,None,380.4121996999602,None,380.4121996999602,None,380.4121996999602,None,380.4121996999602,None,380.4121996999602,None,39,10,71,37,71,53,None,None,None,None,None,None,None,None,None,None,None,None,70,382.9447908999864,None,70,382.9447908999864,None,382.9447908999864,None,382.9447908999864,None,382.9447908999864,None,382.9447908999864,None,382.9447908999864,None,382.9447908999864,None,0.01210172998253256,None,382.9447908999864,None,-0.2,0,None,None,None,None,None,None,None,None,None,None,None,None,,None,None,None,None,None,None,None,None,10.869791666666668,1.9326818999834359,388.24057339999126,None,388.24057339999126,None,388.24057339999126,None,388.24057339999126,None,None,None,390.1861452999874,None,,,,,,,,0.13671875,-0.2747395833333333,1,0,0,5.249740500003099,tijiao,,243,f,24,2023_Mar_22_1123,RL,2021.2.3,59.95121169534463,
1,-0.3,-0.225,0,30,30,30,,,,,,,,,,,,,,,None,None,None,None,None,392.0256645999616,None,392.0256645999616,None,392.0256645999616,None,392.0256645999616,None,f,0.26373840001178905,392.0256645999616,None,392.0256645999616,None,392.3277870999882,None,392.3277870999882,None,392.3277870999882,None,392.3277870999882,None,392.3277870999882,None,392.3277870999882,None,392.62172589998227,394.42306030000327,392.62172589998227,394.42306030000327,394.45440009998856,None,394.45440009998856,None,394.45440009998856,None,394.45440009998856,None,394.45440009998856,None,394.45440009998856,None,394.45440009998856,None,394.45440009998856,None,394.45440009998856,None,33,10,76,37,10,70,396.9763396999915,None,2.0,2.0529068000032566,396.9763396999915,None,396.9763396999915,None,396.9763396999915,None,396.9763396999915,None,,None,None,,None,None,None,None,None,None,None,None,None,None,None,None,None,None,None,None,None,None,-0.6,3,None,None,None,None,None,None,None,None,None,None,None,None,,None,None,None,None,None,None,None,None,None,None,None,None,None,None,None,None,None,None,None,None,399.08204279997153,None,,,,,,,,,,,,,,,,243,f,24,2023_Mar_22_1123,RL,2021.2.3,59.95121169534463,
0,0.3,0.225,0,31,31,31,,,,,,,,,,,,,,,None,None,None,None,None,400.64732739998726,None,400.64732739998726,None,400.64732739998726,None,400.64732739998726,None,f,0.34214830002747476,400.64732739998726,None,400.64732739998726,None,401.0342183999601,None,401.0342183999601,None,401.0342183999601,None,401.0342183999601,None,401.0342183999601,None,401.0342183999601,None,401.3278641999932,402.4452433999977,401.3278641999932,402.4452433999977,402.4777243999997,None,402.4777243999997,None,402.4777243999997,None,402.4777243999997,None,402.4777243999997,None,402.4777243999997,None,402.4777243999997,None,402.4777243999997,None,402.4777243999997,None,37,20,76,39,20,65,None,None,None,None,None,None,None,None,None,None,None,None,,None,None,,None,None,None,None,None,None,None,None,None,None,None,None,None,None,None,None,None,None,0.2,1,405.018924199976,None,405.018924199976,None,405.018924199976,None,405.018924199976,None,405.018924199976,None,405.018924199976,None,57,405.018924199976,None,405.018924199976,None,0.0031174299656413496,None,405.018924199976,None,7.028645833333334,2.8305138999712653,409.10616589995334,None,409.10616589995334,None,409.10616589995334,None,409.10616589995334,None,None,None,411.9511927999556,None,0.01171875,-0.2825520833333333,1,0,0,4.056468199996743,tijiao_random_2,,,,,,,,,243,f,24,2023_Mar_22_1123,RL,2021.2.3,59.95121169534463,
1,-0.3,-0.225,0,32,32,32,,,,,,,,,,,,,,,None,None,None,None,None,413.7743442999781,None,413.7743442999781,None,413.7743442999781,None,413.7743442999781,None,f,0.2754078999860212,413.7743442999781,None,413.7743442999781,None,414.09438989998307,None,414.09438989998307,None,414.09438989998307,None,414.09438989998307,None,414.09438989998307,None,414.09438989998307,None,414.3869067999767,416.03791929996805,414.3869067999767,416.03791929996805,416.0703058000072,None,416.0703058000072,None,416.0703058000072,None,416.0703058000072,None,416.0703058000072,None,416.0703058000072,None,416.0703058000072,None,416.0703058000072,None,416.0703058000072,None,40,19,73,31,19,64,None,None,None,None,None,None,None,None,None,None,None,None,20,418.60158069996396,None,20,418.60158069996396,None,418.60158069996396,None,418.60158069996396,None,418.60158069996396,None,418.60158069996396,None,418.60158069996396,None,418.60158069996396,None,0.016154929937329143,None,418.60158069996396,None,0.2,0,None,None,None,None,None,None,None,None,None,None,None,None,,None,None,None,None,None,None,None,None,11.0,1.7004116000025533,423.31684749998385,None,423.31684749998385,None,423.31684749998385,None,423.31684749998385,None,None,None,425.04214739997406,None,,,,,,,,0.09114583333333333,-0.2734375,1,0,0,4.6702188000199385,tijiao,,243,f,24,2023_Mar_22_1123,RL,2021.2.3,59.95121169534463,
0,0.3,0.225,0,33,33,33,,,,,,,,,,,,,,,None,None,None,None,None,426.76643079996575,None,426.76643079996575,None,426.76643079996575,None,426.76643079996575,None,r,0.3430866000126116,426.76643079996575,None,426.76643079996575,None,427.1507077999995,None,427.1507077999995,None,427.1507077999995,None,427.1507077999995,None,427.1507077999995,None,427.1507077999995,None,427.4458523999783,None,427.4458523999783,None,429.3432415999705,None,429.3432415999705,None,429.3432415999705,None,429.3432415999705,None,429.3432415999705,None,429.3432415999705,None,429.3432415999705,None,429.3432415999705,None,429.3432415999705,None,48,15,68,41,48,29,431.8706704999786,None,5.0,2.515268000017386,431.8706704999786,None,431.8706704999786,None,431.8706704999786,None,431.8706704999786,None,,None,None,,None,None,None,None,None,None,None,None,None,None,None,None,None,None,None,None,None,None,0.6,3,None,None,None,None,None,None,None,None,None,None,None,None,,None,None,None,None,None,None,None,None,None,None,None,None,None,None,None,None,None,None,None,None,434.4377842999529,None,,,,,,,,,,,,,,,,243,f,24,2023_Mar_22_1123,RL,2021.2.3,59.95121169534463,
1,-0.3,-0.225,0,34,34,34,,,,,,,,,,,,,,,None,None,None,None,None,436.0397235999699,None,436.0397235999699,None,436.0397235999699,None,436.0397235999699,None,f,0.4102125000208616,436.0397235999699,None,436.0397235999699,None,436.49222489999374,None,436.49222489999374,None,436.49222489999374,None,436.49222489999374,None,436.49222489999374,None,436.49222489999374,None,436.78598609997425,None,436.78598609997425,None,437.8004880999797,None,437.8004880999797,None,437.8004880999797,None,437.8004880999797,None,437.8004880999797,None,437.8004880999797,None,437.8004880999797,None,437.8004880999797,None,437.8004880999797,None,40,14,70,34,14,66,440.3258571999613,None,2.0,2.451341499981936,440.3258571999613,None,440.3258571999613,None,440.3258571999613,None,440.3258571999613,None,,None,None,,None,None,None,None,None,None,None,None,None,None,None,None,None,None,None,None,None,None,-0.2,3,None,None,None,None,None,None,None,None,None,None,None,None,,None,None,None,None,None,None,None,None,None,None,None,None,None,None,None,None,None,None,None,None,442.83601009997074,None,,,,,,,,,,,,,,,,243,f,24,2023_Mar_22_1123,RL,2021.2.3,59.95121169534463,
0,0.3,0.225,0,35,35,35,,,,,,,,,,,,,,,None,None,None,None,None,444.4443176999921,None,444.4443176999921,None,444.4443176999921,None,444.4443176999921,None,f,0.4655203999718651,444.4443176999921,None,444.4443176999921,None,444.9467214999604,None,444.9467214999604,None,444.9467214999604,None,444.9467214999604,None,444.9467214999604,None,444.9467214999604,None,445.24168129998725,None,445.24168129998725,None,446.89449619996594,None,446.89449619996594,None,446.89449619996594,None,446.89449619996594,None,446.89449619996594,None,446.89449619996594,None,446.89449619996594,None,446.89449619996594,None,446.89449619996594,None,41,15,74,24,15,37,449.4079873999581,None,3.0,3.69122520001838,449.4079873999581,None,449.4079873999581,None,449.4079873999581,None,449.4079873999581,None,,None,None,,None,None,None,None,None,None,None,None,None,None,None,None,None,None,None,None,None,None,-0.6,2,None,None,None,None,None,None,None,None,None,None,None,None,,None,None,None,None,None,None,None,None,None,None,None,None,None,None,None,None,None,None,None,None,453.16816010000184,None,,,,,,,,,,,,,,,,243,f,24,2023_Mar_22_1123,RL,2021.2.3,59.95121169534463,
1,-0.3,-0.225,0,36,36,36,,,,,,,,,,,,,,,None,None,None,None,None,455.052540100005,None,455.052540100005,None,455.052540100005,None,455.052540100005,None,i,0.2672102000215091,455.052540100005,None,455.052540100005,None,455.37194769998314,None,455.37194769998314,None,455.37194769998314,None,455.37194769998314,None,455.37194769998314,None,455.37194769998314,None,455.6654680999927,457.30002359999344,455.6654680999927,457.30002359999344,457.3338089999743,None,457.3338089999743,None,457.3338089999743,None,457.3338089999743,None,457.3338089999743,None,457.3338089999743,None,457.3338089999743,None,457.3338089999743,None,457.3338089999743,None,43,21,70,28,70,41,None,None,None,None,None,None,None,None,None,None,None,None,70,459.86056619999,None,70,459.86056619999,None,459.86056619999,None,459.86056619999,None,459.86056619999,None,459.86056619999,None,459.86056619999,None,459.86056619999,None,0.016637630003970116,None,459.86056619999,None,-0.6,0,None,None,None,None,None,None,None,None,None,None,None,None,,None,None,None,None,None,None,None,None,10.869791666666668,1.027482700010296,463.2394840999623,None,463.2394840999623,None,463.2394840999623,None,463.2394840999623,None,None,None,464.2858550999663,None,,,,,,,,0.057291666666666664,-0.296875,1,0,0,3.3363714999868535,tijiao,,243,f,24,2023_Mar_22_1123,RL,2021.2.3,59.95121169534463,
0,0.3,0.225,0,37,37,37,,,,,,,,,,,,,,,None,None,None,None,None,465.8934062999906,None,465.8934062999906,None,465.8934062999906,None,465.8934062999906,None,j,0.4780248999595642,465.8934062999906,None,465.8934062999906,None,466.41417099995306,None,466.41417099995306,None,466.41417099995306,None,466.41417099995306,None,466.41417099995306,None,466.41417099995306,None,466.70653460000176,468.2244290999952,466.70653460000176,468.2244290999952,468.2577405999764,None,468.2577405999764,None,468.2577405999764,None,468.2577405999764,None,468.2577405999764,None,468.2577405999764,None,468.2577405999764,None,468.2577405999764,None,468.2577405999764,None,45,13,66,27,27,60,470.77666889998363,None,2.0,2.584899800014682,470.77666889998363,None,470.77666889998363,None,470.77666889998363,None,470.77666889998363,None,,None,None,,None,None,None,None,None,None,None,None,None,None,None,None,None,None,None,None,None,None,-0.6,2,None,None,None,None,None,None,None,None,None,None,None,None,,None,None,None,None,None,None,None,None,None,None,None,None,None,None,None,None,None,None,None,None,473.41695699997945,None,,,,,,,,,,,,,,,,243,f,24,2023_Mar_22_1123,RL,2021.2.3,59.95121169534463,
1,-0.3,-0.225,0,38,38,38,,,,,,,,,,,,,,,None,None,None,None,None,475.30016069998965,None,475.30016069998965,None,475.30016069998965,None,475.30016069998965,None,i,0.2810386000201106,475.30016069998965,None,475.30016069998965,None,475.618368299969,None,475.618368299969,None,475.618368299969,None,475.618368299969,None,475.618368299969,None,475.618368299969,None,475.9128119999659,None,475.9128119999659,None,477.3607239999692,None,477.3607239999692,None,477.3607239999692,None,477.3607239999692,None,477.3607239999692,None,477.3607239999692,None,477.3607239999692,None,477.3607239999692,None,477.3607239999692,None,40,16,60,33,60,28,479.8824163999525,None,6.0,2.888824800029397,479.8824163999525,None,479.8824163999525,None,479.8824163999525,None,479.8824163999525,None,,None,None,,None,None,None,None,None,None,None,None,None,None,None,None,None,None,None,None,None,None,0.6,3,None,None,None,None,None,None,None,None,None,None,None,None,,None,None,None,None,None,None,None,None,None,None,None,None,None,None,None,None,None,None,None,None,482.82729539996944,None,,,,,,,,,,,,,,,,243,f,24,2023_Mar_22_1123,RL,2021.2.3,59.95121169534463,
0,0.3,0.225,0,39,39,39,,,,,,,,,,,,,,,None,None,None,None,None,484.7233252999722,None,484.7233252999722,None,484.7233252999722,None,484.7233252999722,None,i,0.44792929996037856,484.7233252999722,None,484.7233252999722,None,485.2209612999577,None,485.2209612999577,None,485.2209612999577,None,485.2209612999577,None,485.2209612999577,None,485.2209612999577,None,485.5195650999667,None,485.5195650999667,None,487.4509514999809,None,487.4509514999809,None,487.4509514999809,None,487.4509514999809,None,487.4509514999809,None,487.4509514999809,None,487.4509514999809,None,487.4509514999809,None,487.4509514999809,None,45,19,72,36,72,45,489.97726219997276,None,7.0,1.848675999965053,489.97726219997276,None,489.97726219997276,None,489.97726219997276,None,489.97726219997276,None,,None,None,,None,None,None,None,None,None,None,None,None,None,None,None,None,None,None,None,None,None,-0.2,3,None,None,None,None,None,None,None,None,None,None,None,None,,None,None,None,None,None,None,None,None,None,None,None,None,None,None,None,None,None,None,None,None,491.87935060000746,None,,,,,,,,,,,,,,,,243,f,24,2023_Mar_22_1123,RL,2021.2.3,59.95121169534463,
1,-0.3,-0.225,0,40,40,40,,,,,,,,,,,,,,,None,None,None,None,None,493.6630906999926,None,493.6630906999926,None,493.6630906999926,None,493.6630906999926,None,i,0.30797940003685653,493.6630906999926,None,493.6630906999926,None,494.01360859995475,None,494.01360859995475,None,494.01360859995475,None,494.01360859995475,None,494.01360859995475,None,494.01360859995475,None,494.30923710000934,None,494.30923710000934,None,495.9906464999658,None,495.9906464999658,None,495.9906464999658,None,495.9906464999658,None,495.9906464999658,None,495.9906464999658,None,495.9906464999658,None,495.9906464999658,None,495.9906464999658,None,38,15,72,36,72,52,498.51714249997167,None,7.0,1.449070299975574,498.51714249997167,None,498.51714249997167,None,498.51714249997167,None,498.51714249997167,None,,None,None,,None,None,None,None,None,None,None,None,None,None,None,None,None,None,None,None,None,None,-0.2,3,None,None,None,None,None,None,None,None,None,None,None,None,,None,None,None,None,None,None,None,None,None,None,None,None,None,None,None,None,None,None,None,None,500.0422358000069,None,,,,,,,,,,,,,,,,243,f,24,2023_Mar_22_1123,RL,2021.2.3,59.95121169534463,
0,0.3,0.225,0,41,41,41,,,,,,,,,,,,,,,None,None,None,None,None,502.03563239995856,None,502.03563239995856,None,502.03563239995856,None,502.03563239995856,None,i,0.7653911000234075,502.03563239995856,None,502.03563239995856,None,502.85350179998204,None,502.85350179998204,None,502.85350179998204,None,502.85350179998204,None,502.85350179998204,None,502.85350179998204,None,503.1486095999717,None,503.1486095999717,None,505.0469864999759,None,505.0469864999759,None,505.0469864999759,None,505.0469864999759,None,505.0469864999759,None,505.0469864999759,None,505.0469864999759,None,505.0469864999759,None,505.0469864999759,None,46,25,72,33,72,55,None,None,None,None,None,None,None,None,None,None,None,None,,None,None,,None,None,None,None,None,None,None,None,None,None,None,None,None,None,None,None,None,None,0.2,1,507.59820869995747,None,507.59820869995747,None,507.59820869995747,None,507.59820869995747,None,507.59820869995747,None,507.59820869995747,None,72,507.59820869995747,None,507.59820869995747,None,0.01165233994834125,None,507.59820869995747,None,10.908854166666668,0.9891851000138558,511.41905579995364,None,511.41905579995364,None,511.41905579995364,None,511.41905579995364,None,None,None,512.4417924999725,None,0.11328125,-0.3059895833333333,1,0,0,3.7819152000010945,tijiao_random_2,,,,,,,,,243,f,24,2023_Mar_22_1123,RL,2021.2.3,59.95121169534463,
1,-0.3,-0.225,0,42,42,42,,,,,,,,,,,,,,,None,None,None,None,None,514.3942018999951,None,514.3942018999951,None,514.3942018999951,None,514.3942018999951,None,j,0.517168499995023,514.3942018999951,None,514.3942018999951,None,514.9640097999945,None,514.9640097999945,None,514.9640097999945,None,514.9640097999945,None,514.9640097999945,None,514.9640097999945,None,515.2401761999936,517.024629099993,515.2401761999936,517.024629099993,517.0753604999627,None,517.0753604999627,None,517.0753604999627,None,517.0753604999627,None,517.0753604999627,None,517.0753604999627,None,517.0753604999627,None,517.0753604999627,None,517.0753604999627,None,48,22,61,35,35,34,None,None,None,None,None,None,None,None,None,None,None,None,,None,None,,None,None,None,None,None,None,None,None,None,None,None,None,None,None,None,None,None,None,-0.6,1,519.623516599997,None,519.623516599997,None,519.623516599997,None,519.623516599997,None,519.623516599997,None,519.623516599997,None,40,519.623516599997,None,519.623516599997,None,0.010674939956516027,None,519.623516599997,None,7.9921875,2.411128599953372,524.4885788999964,None,524.4885788999964,None,524.4885788999964,None,524.4885788999964,None,None,None,526.9142590999836,None,0.13411458333333334,-0.28515625,1,0,0,4.831451600010041,tijiao_random_2,,,,,,,,,243,f,24,2023_Mar_22_1123,RL,2021.2.3,59.95121169534463,
0,0.3,0.225,0,43,43,43,,,,,,,,,,,,,,,None,None,None,None,None,528.5050734999822,None,528.5050734999822,None,528.5050734999822,None,528.5050734999822,None,f,0.36615449999226257,528.5050734999822,None,528.5050734999822,None,528.9317360999994,None,528.9317360999994,None,528.9317360999994,None,528.9317360999994,None,528.9317360999994,None,528.9317360999994,None,529.2167860000045,530.517486799974,529.2167860000045,530.517486799974,530.5511351999594,None,530.5511351999594,None,530.5511351999594,None,530.5511351999594,None,530.5511351999594,None,530.5511351999594,None,530.5511351999594,None,530.5511351999594,None,530.5511351999594,None,49,22,58,37,22,50,533.0669859999907,None,6.0,3.607884800003376,533.0669859999907,None,533.0669859999907,None,533.0669859999907,None,533.0669859999907,None,,None,None,,None,None,None,None,None,None,None,None,None,None,None,None,None,None,None,None,None,None,-0.2,2,None,None,None,None,None,None,None,None,None,None,None,None,,None,None,None,None,None,None,None,None,None,None,None,None,None,None,None,None,None,None,None,None,536.7313806999591,None,,,,,,,,,,,,,,,,243,f,24,2023_Mar_22_1123,RL,2021.2.3,59.95121169534463,
1,-0.3,-0.225,0,44,44,44,,,,,,,,,,,,,,,None,None,None,None,None,538.2437642999575,None,538.2437642999575,None,538.2437642999575,None,538.2437642999575,None,r,0.3176880999817513,538.2437642999575,None,538.2437642999575,None,538.6114832999883,None,538.6114832999883,None,538.6114832999883,None,538.6114832999883,None,538.6114832999883,None,538.6114832999883,None,538.9068778000074,None,538.9068778000074,None,540.8541398000089,None,540.8541398000089,None,540.8541398000089,None,540.8541398000089,None,540.8541398000089,None,540.8541398000089,None,540.8541398000089,None,540.8541398000089,None,540.8541398000089,None,44,28,55,37,44,48,543.3730155999656,None,7.0,2.7903814999735914,543.3730155999656,None,543.3730155999656,None,543.3730155999656,None,543.3730155999656,None,,None,None,,None,None,None,None,None,None,None,None,None,None,None,None,None,None,None,None,None,None,0.2,3,None,None,None,None,None,None,None,None,None,None,None,None,,None,None,None,None,None,None,None,None,None,None,None,None,None,None,None,None,None,None,None,None,546.2280829999945,None,,,,,,,,,,,,,,,,243,f,24,2023_Mar_22_1123,RL,2021.2.3,59.95121169534463,
0,0.3,0.225,0,45,45,45,,,,,,,,,,,,,,,None,None,None,None,None,547.750703800004,None,547.750703800004,None,547.750703800004,None,547.750703800004,None,j,0.40067909995559603,547.750703800004,None,547.750703800004,None,548.2004033999983,None,548.2004033999983,None,548.2004033999983,None,548.2004033999983,None,548.2004033999983,None,548.2004033999983,None,548.4966749000014,None,548.4966749000014,None,549.661423499987,None,549.661423499987,None,549.661423499987,None,549.661423499987,None,549.661423499987,None,549.661423499987,None,549.661423499987,None,549.661423499987,None,549.661423499987,None,43,28,59,39,39,41,552.1879770999658,None,7.0,1.4016096999985166,552.1879770999658,None,552.1879770999658,None,552.1879770999658,None,552.1879770999658,None,,None,None,,None,None,None,None,None,None,None,None,None,None,None,None,None,None,None,None,None,None,-0.6,2,None,None,None,None,None,None,None,None,None,None,None,None,,None,None,None,None,None,None,None,None,None,None,None,None,None,None,None,None,None,None,None,None,553.6393816999625,None,,,,,,,,,,,,,,,,243,f,24,2023_Mar_22_1123,RL,2021.2.3,59.95121169534463,
1,-0.3,-0.225,0,46,46,46,,,,,,,,,,,,,,,None,None,None,None,None,555.5392819999834,None,555.5392819999834,None,555.5392819999834,None,555.5392819999834,None,j,0.49237589997937903,555.5392819999834,None,555.5392819999834,None,556.0749706999632,None,556.0749706999632,None,556.0749706999632,None,556.0749706999632,None,556.0749706999632,None,556.0749706999632,None,556.3686649999581,None,556.3686649999581,None,558.2830898999819,None,558.2830898999819,None,558.2830898999819,None,558.2830898999819,None,558.2830898999819,None,558.2830898999819,None,558.2830898999819,None,558.2830898999819,None,558.2830898999819,None,41,18,59,45,45,48,None,None,None,None,None,None,None,None,None,None,None,None,45,560.8190890999977,None,45,560.8190890999977,None,560.8190890999977,None,560.8190890999977,None,560.8190890999977,None,560.8190890999977,None,560.8190890999977,None,560.8190890999977,None,0.011874529998749495,None,560.8190890999977,None,-0.6,0,None,None,None,None,None,None,None,None,None,None,None,None,,None,None,None,None,None,None,None,None,8.9296875,0.9559018999570981,564.4786380999722,None,564.4786380999722,None,564.4786380999722,None,564.4786380999722,None,None,None,565.4663110999973,None,,,,,,,,-0.11197916666666667,-0.2643229166666667,1,0,0,3.615550499991514,tijiao,,243,f,24,2023_Mar_22_1123,RL,2021.2.3,59.95121169534463,
0,0.3,0.225,0,47,47,47,,,,,,,,,,,,,,,None,None,None,None,None,567.063929099997,None,567.063929099997,None,567.063929099997,None,567.063929099997,None,j,0.3275866000331007,567.063929099997,None,567.063929099997,None,567.4350914999959,None,567.4350914999959,None,567.4350914999959,None,567.4350914999959,None,567.4350914999959,None,567.4350914999959,None,567.7269823999959,569.3446287999977,567.7269823999959,569.3446287999977,569.3768282999517,None,569.3768282999517,None,569.3768282999517,None,569.3768282999517,None,569.3768282999517,None,569.3768282999517,None,569.3768282999517,None,569.3768282999517,None,569.3768282999517,None,45,27,49,39,39,51,None,None,None,None,None,None,None,None,None,None,None,None,41,571.9104167000041,None,41,571.9104167000041,None,571.9104167000041,None,571.9104167000041,None,571.9104167000041,None,571.9104167000041,None,571.9104167000041,None,571.9104167000041,None,0.011441329959779978,None,571.9104167000041,None,0.2,0,None,None,None,None,None,None,None,None,None,None,None,None,,None,None,None,None,None,None,None,None,9.932291666666668,1.057125499995891,575.5806816999684,None,575.5806816999684,None,575.5806816999684,None,575.5806816999684,None,None,None,576.6582066999981,None,,,,,,,,0.12109375,-0.2799479166666667,1,0,0,3.615035099966917,tijiao,,243,f,24,2023_Mar_22_1123,RL,2021.2.3,59.95121169534463,
1,-0.3,-0.225,0,48,48,48,,,,,,,,,,,,,,,None,None,None,None,None,578.3053336999728,None,578.3053336999728,None,578.3053336999728,None,578.3053336999728,None,j,0.36640220001572743,578.3053336999728,None,578.3053336999728,None,578.7233424999868,None,578.7233424999868,None,578.7233424999868,None,578.7233424999868,None,578.7233424999868,None,578.7233424999868,None,579.0178716999944,None,579.0178716999944,None,579.9822975999559,None,579.9822975999559,None,579.9822975999559,None,579.9822975999559,None,579.9822975999559,None,579.9822975999559,None,579.9822975999559,None,579.9822975999559,None,579.9822975999559,None,41,34,48,45,45,46,None,None,None,None,None,None,None,None,None,None,None,None,,None,None,,None,None,None,None,None,None,None,None,None,None,None,None,None,None,None,None,None,None,0.6,1,582.5268735999707,None,582.5268735999707,None,582.5268735999707,None,582.5268735999707,None,582.5268735999707,None,582.5268735999707,None,47,582.5268735999707,None,582.5268735999707,None,0.0015260300133377314,None,582.5268735999707,None,10.9609375,1.1745470000314526,586.2515491999802,None,586.2515491999802,None,586.2515491999802,None,586.2515491999802,None,None,None,587.439555399993,None,0.03515625,-0.28515625,1,0,0,3.6889696000143886,tijiao_random_2,,,,,,,,,243,f,24,2023_Mar_22_1123,RL,2021.2.3,59.95121169534463,
0,0.3,0.225,0,49,49,49,,,,,,,,,,,,,,,None,None,None,None,None,589.3958952999674,None,589.3958952999674,None,589.3958952999674,None,589.3958952999674,None,j,0.29582389997085556,589.3958952999674,None,589.3958952999674,None,589.7324952000054,None,589.7324952000054,None,589.7324952000054,None,589.7324952000054,None,589.7324952000054,None,589.7324952000054,None,590.0254528999794,None,590.0254528999794,None,591.5246609000023,None,591.5246609000023,None,591.5246609000023,None,591.5246609000023,None,591.5246609000023,None,591.5246609000023,None,591.5246609000023,None,591.5246609000023,None,591.5246609000023,None,43,30,45,43,43,41,None,None,None,None,None,None,None,None,None,None,None,None,44,594.057596699975,None,44,594.057596699975,None,594.057596699975,None,594.057596699975,None,594.057596699975,None,594.057596699975,None,594.057596699975,None,594.057596699975,None,0.012835029978305101,None,594.057596699975,None,0.2,0,None,None,None,None,None,None,None,None,None,None,None,None,,None,None,None,None,None,None,None,None,10.9609375,1.2997616999782622,597.4838090999983,None,597.4838090999983,None,597.4838090999983,None,597.4838090999983,None,None,None,598.7977945999592,None,,,,,,,,-0.01953125,-0.2747395833333333,1,0,0,3.3825130000477657,tijiao,,243,f,24,2023_Mar_22_1123,RL,2021.2.3,59.95121169534463,
1,-0.3,-0.225,0,50,50,50,,,,,,,,,,,,,,,None,None,None,None,None,600.587087199965,None,600.587087199965,None,600.587087199965,None,600.587087199965,None,j,0.4549169999663718,600.587087199965,None,600.587087199965,None,601.0906914999941,None,601.0906914999941,None,601.0906914999941,None,601.0906914999941,None,601.0906914999941,None,601.0906914999941,None,601.3666941999691,603.2513308000052,601.3666941999691,603.2513308000052,603.2832030999707,None,603.2832030999707,None,603.2832030999707,None,603.2832030999707,None,603.2832030999707,None,603.2832030999707,None,603.2832030999707,None,603.2832030999707,None,603.2832030999707,None,37,29,42,44,44,52,None,None,None,None,None,None,None,None,None,None,None,None,,None,None,,None,None,None,None,None,None,None,None,None,None,None,None,None,None,None,None,None,None,0.2,1,605.8278369999607,None,605.8278369999607,None,605.8278369999607,None,605.8278369999607,None,605.8278369999607,None,605.8278369999607,None,73,605.8278369999607,None,605.8278369999607,None,0.016508739965502173,None,605.8278369999607,None,10.895833333333332,2.4406528000254184,609.7533489000052,None,609.7533489000052,None,609.7533489000052,None,609.7533489000052,None,None,None,612.2222730999929,None,0.15364583333333334,-0.3020833333333333,1,0,0,3.8863034999812953,tijiao_random_2,,,,,,,,,243,f,24,2023_Mar_22_1123,RL,2021.2.3,59.95121169534463,
0,0.3,0.225,0,51,51,51,,,,,,,,,,,,,,,None,None,None,None,None,613.7638948999811,None,613.7638948999811,None,613.7638948999811,None,613.7638948999811,None,i,0.37793179997242987,613.7638948999811,None,613.7638948999811,None,614.1830367000075,None,614.1830367000075,None,614.1830367000075,None,614.1830367000075,None,614.1830367000075,None,614.1830367000075,None,614.4756255999673,615.6600996999769,614.4756255999673,615.6600996999769,615.6975984000019,None,615.6975984000019,None,615.6975984000019,None,615.6975984000019,None,615.6975984000019,None,615.6975984000019,None,615.6975984000019,None,615.6975984000019,None,615.6975984000019,None,34,35,45,54,45,42,618.2327415999607,None,2.0,2.3162130000418983,618.2327415999607,None,618.2327415999607,None,618.2327415999607,None,618.2327415999607,None,,None,None,,None,None,None,None,None,None,None,None,None,None,None,None,None,None,None,None,None,None,-0.6,3,None,None,None,None,None,None,None,None,None,None,None,None,,None,None,None,None,None,None,None,None,None,None,None,None,None,None,None,None,None,None,None,None,620.6014861000003,None,,,,,,,,,,,,,,,,243,f,24,2023_Mar_22_1123,RL,2021.2.3,59.95121169534463,
1,-0.3,-0.225,0,52,52,52,,,,,,,,,,,,,,,None,None,None,None,None,622.5520186999929,None,622.5520186999929,None,622.5520186999929,None,622.5520186999929,None,i,0.30089099996257573,622.5520186999929,None,622.5520186999929,None,622.903446399956,None,622.903446399956,None,622.903446399956,None,622.903446399956,None,622.903446399956,None,622.903446399956,None,623.198479899962,624.2494573000004,623.198479899962,624.2494573000004,624.2809914999525,None,624.2809914999525,None,624.2809914999525,None,624.2809914999525,None,624.2809914999525,None,624.2809914999525,None,624.2809914999525,None,624.2809914999525,None,624.2809914999525,None,34,26,45,47,45,49,626.7987840999849,None,3.0,2.6540122000151314,626.7987840999849,None,626.7987840999849,None,626.7987840999849,None,626.7987840999849,None,,None,None,,None,None,None,None,None,None,None,None,None,None,None,None,None,None,None,None,None,None,-0.6,2,None,None,None,None,None,None,None,None,None,None,None,None,,None,None,None,None,None,None,None,None,None,None,None,None,None,None,None,None,None,None,None,None,629.5195009000017,None,,,,,,,,,,,,,,,,243,f,24,2023_Mar_22_1123,RL,2021.2.3,59.95121169534463,
0,0.3,0.225,0,53,53,53,,,,,,,,,,,,,,,None,None,None,None,None,631.1248531999881,None,631.1248531999881,None,631.1248531999881,None,631.1248531999881,None,i,0.27826370002003387,631.1248531999881,None,631.1248531999881,None,631.4431363999611,None,631.4431363999611,None,631.4431363999611,None,631.4431363999611,None,631.4431363999611,None,631.4431363999611,None,631.737913799996,None,631.737913799996,None,632.6857868999941,None,632.6857868999941,None,632.6857868999941,None,632.6857868999941,None,632.6857868999941,None,632.6857868999941,None,632.6857868999941,None,632.6857868999941,None,632.6857868999941,None,45,40,47,55,47,32,None,None,None,None,None,None,None,None,None,None,None,None,45,635.2181250999565,None,45,635.2181250999565,None,635.2181250999565,None,635.2181250999565,None,635.2181250999565,None,635.2181250999565,None,635.2181250999565,None,635.2181250999565,None,0.013867229979950935,None,635.2181250999565,None,-0.2,0,None,None,None,None,None,None,None,None,None,None,None,None,,None,None,None,None,None,None,None,None,6.963541666666666,3.350374699977692,640.4016576999566,None,640.4016576999566,None,640.4016576999566,None,640.4016576999566,None,None,None,643.7787742000073,None,,,,,,,,-0.026041666666666668,-0.2630208333333333,1,0,0,5.1353878999943845,tijiao,,243,f,24,2023_Mar_22_1123,RL,2021.2.3,59.95121169534463,
1,-0.3,-0.225,0,54,54,54,,,,,,,,,,,,,,,None,None,None,None,None,645.4686176999821,None,645.4686176999821,None,645.4686176999821,None,645.4686176999821,None,i,0.3346187000279315,645.4686176999821,None,645.4686176999821,None,645.853074899991,None,645.853074899991,None,645.853074899991,None,645.853074899991,None,645.853074899991,None,645.853074899991,None,646.1477471999824,None,646.1477471999824,None,647.5295387000078,None,647.5295387000078,None,647.5295387000078,None,647.5295387000078,None,647.5295387000078,None,647.5295387000078,None,647.5295387000078,None,647.5295387000078,None,647.5295387000078,None,49,38,44,51,44,53,None,None,None,None,None,None,None,None,None,None,None,None,45,650.0572317999904,None,45,650.0572317999904,None,650.0572317999904,None,650.0572317999904,None,650.0572317999904,None,650.0572317999904,None,650.0572317999904,None,650.0572317999904,None,0.0011827199487015605,None,650.0572317999904,None,-0.6,0,None,None,None,None,None,None,None,None,None,None,None,None,,None,None,None,None,None,None,None,None,8.955729166666668,1.5091489999904297,653.540183199977,None,653.540183199977,None,653.540183199977,None,653.540183199977,None,None,None,655.068375599978,None,,,,,,,,0.040364583333333336,-0.29296875,1,0,0,3.4380805999971926,tijiao,,243,f,24,2023_Mar_22_1123,RL,2021.2.3,59.95121169534463,
0,0.3,0.225,0,55,55,55,,,,,,,,,,,,,,,None,None,None,None,None,656.7428111999761,None,656.7428111999761,None,656.7428111999761,None,656.7428111999761,None,i,0.3003205999848433,656.7428111999761,None,656.7428111999761,None,657.0992406999576,None,657.0992406999576,None,657.0992406999576,None,657.0992406999576,None,657.0992406999576,None,657.0992406999576,None,657.3889449999551,None,657.3889449999551,None,659.2393669000012,None,659.2393669000012,None,659.2393669000012,None,659.2393669000012,None,659.2393669000012,None,659.2393669000012,None,659.2393669000012,None,659.2393669000012,None,659.2393669000012,None,43,34,52,64,52,35,None,None,None,None,None,None,None,None,None,None,None,None,50,661.7749628999736,None,50,661.7749628999736,None,661.7749628999736,None,661.7749628999736,None,661.7749628999736,None,661.7749628999736,None,661.7749628999736,None,661.7749628999736,None,0.009177730011288077,None,661.7749628999736,None,0.2,0,None,None,None,None,None,None,None,None,None,None,None,None,,None,None,None,None,None,None,None,None,6.9375,1.7160014999681152,665.1987098999671,None,665.1987098999671,None,665.1987098999671,None,665.1987098999671,None,None,None,666.9281822000048,None,,,,,,,,0.140625,-0.29296875,1,0,0,3.3786155999987386,tijiao,,243,f,24,2023_Mar_22_1123,RL,2021.2.3,59.95121169534463,
1,-0.3,-0.225,0,56,56,56,,,,,,,,,,,,,,,None,None,None,None,None,668.551300399995,None,668.551300399995,None,668.551300399995,None,668.551300399995,None,i,0.3620533000212163,668.551300399995,None,668.551300399995,None,668.9543070999789,None,668.9543070999789,None,668.9543070999789,None,668.9543070999789,None,668.9543070999789,None,668.9543070999789,None,669.2474108999595,None,669.2474108999595,None,670.7485938000027,None,670.7485938000027,None,670.7485938000027,None,670.7485938000027,None,670.7485938000027,None,670.7485938000027,None,670.7485938000027,None,670.7485938000027,None,670.7485938000027,None,53,39,44,59,44,55,673.2688229999621,None,4.0,2.0364188000094146,673.2688229999621,None,673.2688229999621,None,673.2688229999621,None,673.2688229999621,None,,None,None,,None,None,None,None,None,None,None,None,None,None,None,None,None,None,None,None,None,None,-0.6,2,None,None,None,None,None,None,None,None,None,None,None,None,,None,None,None,None,None,None,None,None,None,None,None,None,None,None,None,None,None,None,None,None,675.3608889000025,None,,,,,,,,,,,,,,,,243,f,24,2023_Mar_22_1123,RL,2021.2.3,59.95121169534463,
0,0.3,0.225,0,57,57,57,,,,,,,,,,,,,,,None,None,None,None,None,676.9400232000044,None,676.9400232000044,None,676.9400232000044,None,676.9400232000044,None,i,0.26326249999692664,676.9400232000044,None,676.9400232000044,None,677.2424544999958,None,677.2424544999958,None,677.2424544999958,None,677.2424544999958,None,677.2424544999958,None,677.2424544999958,None,677.5360275999992,679.4877501999727,677.5360275999992,679.4877501999727,679.5193039999576,None,679.5193039999576,None,679.5193039999576,None,679.5193039999576,None,679.5193039999576,None,679.5193039999576,None,679.5193039999576,None,679.5193039999576,None,679.5193039999576,None,44,22,52,58,52,49,None,None,None,None,None,None,None,None,None,None,None,None,,None,None,,None,None,None,None,None,None,None,None,None,None,None,None,None,None,None,None,None,None,-0.6,1,682.0666242999723,None,682.0666242999723,None,682.0666242999723,None,682.0666242999723,None,682.0666242999723,None,682.0666242999723,None,40,682.0666242999723,None,682.0666242999723,None,0.014268140017520636,None,682.0666242999723,None,7.145833333333334,3.5293926000013016,686.7834069000091,None,686.7834069000091,None,686.7834069000091,None,686.7834069000091,None,None,None,690.3264071999583,None,0.06640625,-0.2955729166666667,1,0,0,4.668048000021372,tijiao_random_2,,,,,,,,,243,f,24,2023_Mar_22_1123,RL,2021.2.3,59.95121169534463,
1,-0.3,-0.225,0,58,58,58,,,,,,,,,,,,,,,None,None,None,None,None,692.1507213999867,None,692.1507213999867,None,692.1507213999867,None,692.1507213999867,None,r,0.3026786999544129,692.1507213999867,None,692.1507213999867,None,692.5040351999924,None,692.5040351999924,None,692.5040351999924,None,692.5040351999924,None,692.5040351999924,None,692.5040351999924,None,692.7968450000044,None,692.7968450000044,None,694.4271428000065,None,694.4271428000065,None,694.4271428000065,None,694.4271428000065,None,694.4271428000065,None,694.4271428000065,None,694.4271428000065,None,694.4271428000065,None,694.4271428000065,None,51,29,59,54,51,23,696.9525548999663,None,2.0,2.152592899976298,696.9525548999663,None,696.9525548999663,None,696.9525548999663,None,696.9525548999663,None,,None,None,,None,None,None,None,None,None,None,None,None,None,None,None,None,None,None,None,None,None,-0.2,3,None,None,None,None,None,None,None,None,None,None,None,None,,None,None,None,None,None,None,None,None,None,None,None,None,None,None,None,None,None,None,None,None,699.1638513999642,None,,,,,,,,,,,,,,,,243,f,24,2023_Mar_22_1123,RL,2021.2.3,59.95121169534463,
0,0.3,0.225,0,59,59,59,,,,,,,,,,,,,,,None,None,None,None,None,701.052181499952,None,701.052181499952,None,701.052181499952,None,701.052181499952,None,r,0.3616751999943517,701.052181499952,None,701.052181499952,None,701.4588879999937,None,701.4588879999937,None,701.4588879999937,None,701.4588879999937,None,701.4588879999937,None,701.4588879999937,None,701.7533691999852,None,701.7533691999852,None,703.1339506999939,None,703.1339506999939,None,703.1339506999939,None,703.1339506999939,None,703.1339506999939,None,703.1339506999939,None,703.1339506999939,None,703.1339506999939,None,703.1339506999939,None,46,20,61,55,46,53,None,None,None,None,None,None,None,None,None,None,None,None,,None,None,,None,None,None,None,None,None,None,None,None,None,None,None,None,None,None,None,None,None,0.6,1,705.6767550999648,None,705.6767550999648,None,705.6767550999648,None,705.6767550999648,None,705.6767550999648,None,705.6767550999648,None,46,705.6767550999648,None,705.6767550999648,None,0.004062530002556741,None,705.6767550999648,None,9.0078125,1.543319699994754,710.4522473999532,None,710.4522473999532,None,710.4522473999532,None,710.4522473999532,None,None,None,712.0094390999875,None,-0.037760416666666664,-0.30078125,1,0,0,4.741027500014752,tijiao_random_2,,,,,,,,,243,f,24,2023_Mar_22_1123,RL,2021.2.3,59.95121169534463,
1,-0.3,-0.225,0,60,60,60,,,,,,,,,,,,,,,None,None,None,None,None,713.9991759999539,None,713.9991759999539,None,713.9991759999539,None,713.9991759999539,None,j,0.31445679999887943,713.9991759999539,None,713.9991759999539,None,714.3575325999991,None,714.3575325999991,None,714.3575325999991,None,714.3575325999991,None,714.3575325999991,None,714.3575325999991,None,714.645294499991,None,714.645294499991,None,716.5774076000089,None,716.5774076000089,None,716.5774076000089,None,716.5774076000089,None,716.5774076000089,None,716.5774076000089,None,716.5774076000089,None,716.5774076000089,None,716.5774076000089,None,61,36,62,62,62,61,None,None,None,None,None,None,None,None,None,None,None,None,55,719.1160791000002,None,55,719.1160791000002,None,719.1160791000002,None,719.1160791000002,None,719.1160791000002,None,719.1160791000002,None,719.1160791000002,None,719.1160791000002,None,0.008029529999475926,None,719.1160791000002,None,0.2,0,None,None,None,None,None,None,None,None,None,None,None,None,,None,None,None,None,None,None,None,None,1.130208333333333,1.0826221000170335,722.7903852000018,None,722.7903852000018,None,722.7903852000018,None,722.7903852000018,None,None,None,723.899653600005,None,,,,,,,,0.07291666666666667,-0.29296875,1,0,0,3.6283877000096254,tijiao,,243,f,24,2023_Mar_22_1123,RL,2021.2.3,59.95121169534463,
0,0.3,0.225,0,61,61,61,,,,,,,,,,,,,,,None,None,None,None,None,725.572786499979,None,725.572786499979,None,725.572786499979,None,725.572786499979,None,j,0.32107750000432134,725.572786499979,None,725.572786499979,None,725.9419398999889,None,725.9419398999889,None,725.9419398999889,None,725.9419398999889,None,725.9419398999889,None,725.9419398999889,None,726.2366605999996,None,726.2366605999996,None,727.3520625999663,None,727.3520625999663,None,727.3520625999663,None,727.3520625999663,None,727.3520625999663,None,727.3520625999663,None,727.3520625999663,None,727.3520625999663,None,727.3520625999663,None,50,38,53,52,52,61,None,None,None,None,None,None,None,None,None,None,None,None,,None,None,,None,None,None,None,None,None,None,None,None,None,None,None,None,None,None,None,None,None,0.2,1,729.8948528000037,None,729.8948528000037,None,729.8948528000037,None,729.8948528000037,None,729.8948528000037,None,729.8948528000037,None,56,729.8948528000037,None,729.8948528000037,None,0.0018277299823239446,None,729.8948528000037,None,1.065104166666667,1.1535139000043273,734.9449907999951,None,734.9449907999951,None,734.9449907999951,None,734.9449907999951,None,None,None,736.1269213999622,None,-0.0234375,-0.2747395833333333,1,0,0,5.006153199996334,tijiao_random_2,,,,,,,,,243,f,24,2023_Mar_22_1123,RL,2021.2.3,59.95121169534463,
1,-0.3,-0.225,0,62,62,62,,,,,,,,,,,,,,,None,None,None,None,None,738.0153756999644,None,738.0153756999644,None,738.0153756999644,None,738.0153756999644,None,i,0.3483145000063814,738.0153756999644,None,738.0153756999644,None,738.4181121999864,None,738.4181121999864,None,738.4181121999864,None,738.4181121999864,None,738.4181121999864,None,738.4181121999864,None,738.7121167999576,None,738.7121167999576,None,740.6268250999856,None,740.6268250999856,None,740.6268250999856,None,740.6268250999856,None,740.6268250999856,None,740.6268250999856,None,740.6268250999856,None,740.6268250999856,None,740.6268250999856,None,55,31,48,58,48,60,None,None,None,None,None,None,None,None,None,None,None,None,,None,None,,None,None,None,None,None,None,None,None,None,None,None,None,None,None,None,None,None,None,-0.2,1,743.1716509999824,None,743.1716509999824,None,743.1716509999824,None,743.1716509999824,None,743.1716509999824,None,743.1716509999824,None,28,743.1716509999824,None,743.1716509999824,None,0.001204129948746413,None,743.1716509999824,None,10.895833333333332,1.3410763000138104,746.8167865999858,None,746.8167865999858,None,746.8167865999858,None,746.8167865999858,None,None,None,748.1680506999837,None,-0.07942708333333333,-0.2864583333333333,1,0,0,3.6041082000010647,tijiao_random_2,,,,,,,,,243,f,24,2023_Mar_22_1123,RL,2021.2.3,59.95121169534463,
0,0.3,0.225,0,63,63,63,,,,,,,,,,,,,,,None,None,None,None,None,749.9407117000083,None,749.9407117000083,None,749.9407117000083,None,749.9407117000083,None,f,0.4031010000035167,749.9407117000083,None,749.9407117000083,None,750.3929383999784,None,750.3929383999784,None,750.3929383999784,None,750.3929383999784,None,750.3929383999784,None,750.3929383999784,None,750.6869930999819,None,750.6869930999819,None,752.4996740999632,None,752.4996740999632,None,752.4996740999632,None,752.4996740999632,None,752.4996740999632,None,752.4996740999632,None,752.4996740999632,None,752.4996740999632,None,752.4996740999632,None,53,39,45,52,39,64,None,None,None,None,None,None,None,None,None,None,None,None,30,755.035931499966,None,30,755.035931499966,None,755.035931499966,None,755.035931499966,None,755.035931499966,None,755.035931499966,None,755.035931499966,None,755.035931499966,None,0.013328329951036721,None,755.035931499966,None,-0.2,0,None,None,None,None,None,None,None,None,None,None,None,None,,None,None,None,None,None,None,None,None,10.934895833333332,1.3492111999657936,759.5136500999797,None,759.5136500999797,None,759.5136500999797,None,759.5136500999797,None,None,None,760.8770394999883,None,,,,,,,,0.02734375,-0.2955729166666667,1,0,0,4.434424399980344,tijiao,,243,f,24,2023_Mar_22_1123,RL,2021.2.3,59.95121169534463,
1,-0.3,-0.225,0,64,64,64,,,,,,,,,,,,,,,None,None,None,None,None,762.6997870999621,None,762.6997870999621,None,762.6997870999621,None,762.6997870999621,None,f,0.2941094000125304,762.6997870999621,None,762.6997870999621,None,763.0398328999872,None,763.0398328999872,None,763.0398328999872,None,763.0398328999872,None,763.0398328999872,None,763.0398328999872,None,763.329118900001,764.2963991999859,763.329118900001,764.2963991999859,764.329736899992,None,764.329736899992,None,764.329736899992,None,764.329736899992,None,764.329736899992,None,764.329736899992,None,764.329736899992,None,764.329736899992,None,764.329736899992,None,42,39,54,50,39,33,766.8532090999652,None,6.0,2.7657317999983206,766.8532090999652,None,766.8532090999652,None,766.8532090999652,None,766.8532090999652,None,,None,None,,None,None,None,None,None,None,None,None,None,None,None,None,None,None,None,None,None,None,-0.2,3,None,None,None,None,None,None,None,None,None,None,None,None,,None,None,None,None,None,None,None,None,None,None,None,None,None,None,None,None,None,None,None,None,769.6730760000064,None,,,,,,,,,,,,,,,,243,f,24,2023_Mar_22_1123,RL,2021.2.3,59.95121169534463,
0,0.3,0.225,0,65,65,65,,,,,,,,,,,,,,,None,None,None,None,None,771.2561488999636,None,771.2561488999636,None,771.2561488999636,None,771.2561488999636,None,i,0.36770820000674576,771.2561488999636,None,771.2561488999636,None,771.6764864999568,None,771.6764864999568,None,771.6764864999568,None,771.6764864999568,None,771.6764864999568,None,771.6764864999568,None,771.9687542999745,None,771.9687542999745,None,773.6675783999963,None,773.6675783999963,None,773.6675783999963,None,773.6675783999963,None,773.6675783999963,None,773.6675783999963,None,773.6675783999963,None,773.6675783999963,None,773.6675783999963,None,45,40,63,54,63,54,776.1915400999715,None,7.0,2.0366895999759436,776.1915400999715,None,776.1915400999715,None,776.1915400999715,None,776.1915400999715,None,,None,None,,None,None,None,None,None,None,None,None,None,None,None,None,None,None,None,None,None,None,0.2,2,None,None,None,None,None,None,None,None,None,None,None,None,,None,None,None,None,None,None,None,None,None,None,None,None,None,None,None,None,None,None,None,None,778.2854667999782,None,,,,,,,,,,,,,,,,243,f,24,2023_Mar_22_1123,RL,2021.2.3,59.95121169534463,
1,-0.3,-0.225,0,66,66,66,,,,,,,,,,,,,,,None,None,None,None,None,780.0784316000063,None,780.0784316000063,None,780.0784316000063,None,780.0784316000063,None,i,0.26557150000007823,780.0784316000063,None,780.0784316000063,None,780.3971529999981,None,780.3971529999981,None,780.3971529999981,None,780.3971529999981,None,780.3971529999981,None,780.3971529999981,None,780.691170200007,None,780.691170200007,None,782.2066035000025,None,782.2066035000025,None,782.2066035000025,None,782.2066035000025,None,782.2066035000025,None,782.2066035000025,None,782.2066035000025,None,782.2066035000025,None,782.2066035000025,None,35,41,54,51,54,57,784.7237238999805,None,2.0,1.7071860999567434,784.7237238999805,None,784.7237238999805,None,784.7237238999805,None,784.7237238999805,None,,None,None,,None,None,None,None,None,None,None,None,None,None,None,None,None,None,None,None,None,None,0.6,3,None,None,None,None,None,None,None,None,None,None,None,None,,None,None,None,None,None,None,None,None,None,None,None,None,None,None,None,None,None,None,None,None,786.4869162999676,None,,,,,,,,,,,,,,,,243,f,24,2023_Mar_22_1123,RL,2021.2.3,59.95121169534463,
0,0.3,0.225,0,67,67,67,,,,,,,,,,,,,,,None,None,None,None,None,788.2670900999801,None,788.2670900999801,None,788.2670900999801,None,788.2670900999801,None,i,0.25786289997631684,788.2670900999801,None,788.2670900999801,None,788.5684683999862,None,788.5684683999862,None,788.5684683999862,None,788.5684683999862,None,788.5684683999862,None,788.5684683999862,None,788.8635138999671,None,788.8635138999671,None,789.7130216999794,None,789.7130216999794,None,789.7130216999794,None,789.7130216999794,None,789.7130216999794,None,789.7130216999794,None,789.7130216999794,None,789.7130216999794,None,789.7130216999794,None,32,36,53,51,53,56,None,None,None,None,None,None,None,None,None,None,None,None,,None,None,,None,None,None,None,None,None,None,None,None,None,None,None,None,None,None,None,None,None,0.6,1,792.2524281999795,None,792.2524281999795,None,792.2524281999795,None,792.2524281999795,None,792.2524281999795,None,792.2524281999795,None,47,792.2524281999795,None,792.2524281999795,None,0.004152629990130663,None,792.2524281999795,None,10.921875,0.9307828000164591,796.5910830000066,None,796.5910830000066,None,796.5910830000066,None,796.5910830000066,None,None,None,797.5532162999734,None,0.08072916666666667,-0.2916666666666667,1,0,0,4.30845190002583,tijiao_random_2,,,,,,,,,243,f,24,2023_Mar_22_1123,RL,2021.2.3,59.95121169534463,
1,-0.3,-0.225,0,68,68,68,,,,,,,,,,,,,,,None,None,None,None,None,799.4083240999607,None,799.4083240999607,None,799.4083240999607,None,799.4083240999607,None,j,0.37693500000750646,799.4083240999607,None,799.4083240999607,None,799.8342316999915,None,799.8342316999915,None,799.8342316999915,None,799.8342316999915,None,799.8342316999915,None,799.8342316999915,None,800.1213544000057,801.7560713999555,800.1213544000057,801.7560713999555,801.7922496999963,None,801.7922496999963,None,801.7922496999963,None,801.7922496999963,None,801.7922496999963,None,801.7922496999963,None,801.7922496999963,None,801.7922496999963,None,801.7922496999963,None,36,34,66,43,43,55,804.3041091999621,None,7.0,2.575752899982035,804.3041091999621,None,804.3041091999621,None,804.3041091999621,None,804.3041091999621,None,,None,None,,None,None,None,None,None,None,None,None,None,None,None,None,None,None,None,None,None,None,0.2,2,None,None,None,None,None,None,None,None,None,None,None,None,,None,None,None,None,None,None,None,None,None,None,None,None,None,None,None,None,None,None,None,None,806.9353935999679,None,,,,,,,,,,,,,,,,243,f,24,2023_Mar_22_1123,RL,2021.2.3,59.95121169534463,
0,0.3,0.225,0,69,69,69,,,,,,,,,,,,,,,None,None,None,None,None,808.6147626999882,None,808.6147626999882,None,808.6147626999882,None,808.6147626999882,None,j,0.2705384000437334,808.6147626999882,None,808.6147626999882,None,808.9358985999716,None,808.9358985999716,None,808.9358985999716,None,808.9358985999716,None,808.9358985999716,None,808.9358985999716,None,809.2276349999593,None,809.2276349999593,None,810.5594701999798,None,810.5594701999798,None,810.5594701999798,None,810.5594701999798,None,810.5594701999798,None,810.5594701999798,None,810.5594701999798,None,810.5594701999798,None,810.5594701999798,None,42,38,66,43,43,53,None,None,None,None,None,None,None,None,None,None,None,None,43,813.0882571999682,None,43,813.0882571999682,None,813.0882571999682,None,813.0882571999682,None,813.0882571999682,None,813.0882571999682,None,813.0882571999682,None,813.0882571999682,None,0.0003204199601896107,None,813.0882571999682,None,0.6,0,None,None,None,None,None,None,None,None,None,None,None,None,,None,None,None,None,None,None,None,None,10.947916666666668,1.385392000025604,816.0533240999794,None,816.0533240999794,None,816.0533240999794,None,816.0533240999794,None,None,None,817.4645472999546,None,,,,,,,,0.109375,-0.27734375,1,0,0,2.920329699991271,tijiao,,243,f,24,2023_Mar_22_1123,RL,2021.2.3,59.95121169534463,
1,-0.3,-0.225,0,70,70,70,,,,,,,,,,,,,,,None,None,None,None,None,819.3051837999956,None,819.3051837999956,None,819.3051837999956,None,819.3051837999956,None,j,0.39025200001196936,819.3051837999956,None,819.3051837999956,None,819.7445245999843,None,819.7445245999843,None,819.7445245999843,None,819.7445245999843,None,819.7445245999843,None,819.7445245999843,None,820.0352895999677,None,820.0352895999677,None,821.3814854999655,None,821.3814854999655,None,821.3814854999655,None,821.3814854999655,None,821.3814854999655,None,821.3814854999655,None,821.3814854999655,None,821.3814854999655,None,821.3814854999655,None,40,45,65,60,60,58,823.9067910999875,None,1.0,2.1839416000293568,823.9067910999875,None,823.9067910999875,None,823.9067910999875,None,823.9067910999875,None,,None,None,,None,None,None,None,None,None,None,None,None,None,None,None,None,None,None,None,None,None,0.2,3,None,None,None,None,None,None,None,None,None,None,None,None,,None,None,None,None,None,None,None,None,None,None,None,None,None,None,None,None,None,None,None,None,826.1493635000079,None,,,,,,,,,,,,,,,,243,f,24,2023_Mar_22_1123,RL,2021.2.3,59.95121169534463,
0,0.3,0.225,0,71,71,71,,,,,,,,,,,,,,,None,None,None,None,None,827.6951130999951,None,827.6951130999951,None,827.6951130999951,None,827.6951130999951,None,i,0.5803172999876551,827.6951130999951,None,827.6951130999951,None,828.3136059999815,None,828.3136059999815,None,828.3136059999815,None,828.3136059999815,None,828.3136059999815,None,828.3136059999815,None,828.6092732999823,None,828.6092732999823,None,830.5438896999694,None,830.5438896999694,None,830.5438896999694,None,830.5438896999694,None,830.5438896999694,None,830.5438896999694,None,830.5438896999694,None,830.5438896999694,None,830.5438896999694,None,35,43,60,54,60,46,833.0601245999569,None,7.0,2.188758800039068,833.0601245999569,None,833.0601245999569,None,833.0601245999569,None,833.0601245999569,None,,None,None,,None,None,None,None,None,None,None,None,None,None,None,None,None,None,None,None,None,None,-0.2,3,None,None,None,None,None,None,None,None,None,None,None,None,,None,None,None,None,None,None,None,None,None,None,None,None,None,None,None,None,None,None,None,None,835.3069084999734,None,,,,,,,,,,,,,,,,243,f,24,2023_Mar_22_1123,RL,2021.2.3,59.95121169534463,
1,-0.3,-0.225,0,72,72,72,,,,,,,,,,,,,,,None,None,None,None,None,837.3014372999896,None,837.3014372999896,None,837.3014372999896,None,837.3014372999896,None,i,0.253889599989634,837.3014372999896,None,837.3014372999896,None,837.6023533999687,None,837.6023533999687,None,837.6023533999687,None,837.6023533999687,None,837.6023533999687,None,837.6023533999687,None,837.8975428999984,839.2321817000047,837.8975428999984,839.2321817000047,839.2619181000046,None,839.2619181000046,None,839.2619181000046,None,839.2619181000046,None,839.2619181000046,None,839.2619181000046,None,839.2619181000046,None,839.2619181000046,None,839.2619181000046,None,35,36,72,55,72,55,None,None,None,None,None,None,None,None,None,None,None,None,70,841.7919915999519,None,70,841.7919915999519,None,841.7919915999519,None,841.7919915999519,None,841.7919915999519,None,841.7919915999519,None,841.7919915999519,None,841.7919915999519,None,3.8120022509247065e-05,None,841.7919915999519,None,-0.2,0,None,None,None,None,None,None,None,None,None,None,None,None,,None,None,None,None,None,None,None,None,6.911458333333334,2.0457437000004575,845.678458099952,None,845.678458099952,None,845.678458099952,None,845.678458099952,None,None,None,847.7372269000043,None,,,,,,,,0.11458333333333333,-0.3020833333333333,1,0,0,3.83683490002295,tijiao,,243,f,24,2023_Mar_22_1123,RL,2021.2.3,59.95121169534463,
0,0.3,0.225,0,73,73,73,,,,,,,,,,,,,,,None,None,None,None,None,849.6931637999951,None,849.6931637999951,None,849.6931637999951,None,849.6931637999951,None,i,0.2824084000312723,849.6931637999951,None,849.6931637999951,None,850.0338676999672,None,850.0338676999672,None,850.0338676999672,None,850.0338676999672,None,850.0338676999672,None,850.0338676999672,None,850.3229702999815,None,850.3229702999815,None,851.4544337999541,None,851.4544337999541,None,851.4544337999541,None,851.4544337999541,None,851.4544337999541,None,851.4544337999541,None,851.4544337999541,None,851.4544337999541,None,851.4544337999541,None,37,45,69,49,69,49,None,None,None,None,None,None,None,None,None,None,None,None,,None,None,,None,None,None,None,None,None,None,None,None,None,None,None,None,None,None,None,None,None,0.6,1,853.9973521999782,None,853.9973521999782,None,853.9973521999782,None,853.9973521999782,None,853.9973521999782,None,853.9973521999782,None,47,853.9973521999782,None,853.9973521999782,None,0.0028294299845583737,None,853.9973521999782,None,6.989583333333334,1.8060685000382364,859.7616754999617,None,859.7616754999617,None,859.7616754999617,None,859.7616754999617,None,None,None,861.5802074999665,None,0.0026041666666666665,-0.3020833333333333,1,0,0,5.724268599995412,tijiao_random_2,,,,,,,,,243,f,24,2023_Mar_22_1123,RL,2021.2.3,59.95121169534463,
1,-0.3,-0.225,0,74,74,74,,,,,,,,,,,,,,,None,None,None,None,None,863.1694783999701,None,863.1694783999701,None,863.1694783999701,None,863.1694783999701,None,j,0.266056300024502,863.1694783999701,None,863.1694783999701,None,863.4909911999712,None,863.4909911999712,None,863.4909911999712,None,863.4909911999712,None,863.4909911999712,None,863.4909911999712,None,863.782330499962,None,863.782330499962,None,865.6146339999977,None,865.6146339999977,None,865.6146339999977,None,865.6146339999977,None,865.6146339999977,None,865.6146339999977,None,865.6146339999977,None,865.6146339999977,None,865.6146339999977,None,36,38,71,43,43,53,868.1316380999633,None,4.0,2.57342949998565,868.1316380999633,None,868.1316380999633,None,868.1316380999633,None,868.1316380999633,None,,None,None,,None,None,None,None,None,None,None,None,None,None,None,None,None,None,None,None,None,None,0.2,3,None,None,None,None,None,None,None,None,None,None,None,None,,None,None,None,None,None,None,None,None,None,None,None,None,None,None,None,None,None,None,None,None,870.7746036999743,None,,,,,,,,,,,,,,,,243,f,24,2023_Mar_22_1123,RL,2021.2.3,59.95121169534463,
0,0.3,0.225,0,75,75,75,,,,,,,,,,,,,,,872.4380590000073,None,q,872.4380590000073,None,983.819483099971,None,983.819483099971,None,983.819483099971,None,983.819483099971,None,r,0.62095589999808,983.819483099971,None,983.819483099971,None,984.4939460000023,None,984.4939460000023,None,984.4939460000023,None,984.4939460000023,None,984.4939460000023,None,984.4939460000023,None,984.7828211999731,985.8002709999564,984.7828211999731,985.8002709999564,985.8326448999578,None,985.8326448999578,None,985.8326448999578,None,985.8326448999578,None,985.8326448999578,None,985.8326448999578,None,985.8326448999578,None,985.8326448999578,None,985.8326448999578,None,35,30,65,50,35,55,None,None,None,None,None,None,None,None,None,None,None,None,33,988.360764299985,None,33,988.360764299985,None,988.360764299985,None,988.360764299985,None,988.360764299985,None,988.360764299985,None,988.360764299985,None,988.360764299985,None,0.01578522997442633,None,988.360764299985,None,-0.6,0,None,None,None,None,None,None,None,None,None,None,None,None,,None,None,None,None,None,None,None,None,7.028645833333334,1.081831699993927,991.5606583000044,None,991.5606583000044,None,991.5606583000044,None,991.5606583000044,None,None,None,992.669567600009,None,,,,,,,,0.0026041666666666665,-0.296875,1,0,0,3.15266729996074,tijiao,111.30434669996612,243,f,24,2023_Mar_22_1123,RL,2021.2.3,59.95121169534463,
1,-0.3,-0.225,0,76,76,76,,,,,,,,,,,,,,,None,None,None,None,None,994.4778779000044,None,994.4778779000044,None,994.4778779000044,None,994.4778779000044,None,r,0.3325499999918975,994.4778779000044,None,994.4778779000044,None,994.8612463999889,None,994.8612463999889,None,994.8612463999889,None,994.8612463999889,None,994.8612463999889,None,994.8612463999889,None,995.1567644999595,None,995.1567644999595,None,996.6454362999648,None,996.6454362999648,None,996.6454362999648,None,996.6454362999648,None,996.6454362999648,None,996.6454362999648,None,996.6454362999648,None,996.6454362999648,None,996.6454362999648,None,35,36,51,57,35,55,None,None,None,None,None,None,None,None,None,None,None,None,35,999.1673171999864,None,35,999.1673171999864,None,999.1673171999864,None,999.1673171999864,None,999.1673171999864,None,999.1673171999864,None,999.1673171999864,None,999.1673171999864,None,0.0004211200284771621,None,999.1673171999864,None,0.2,0,None,None,None,None,None,None,None,None,None,None,None,None,,None,None,None,None,None,None,None,None,7.940104166666666,1.2288523000315763,1002.7043331000023,None,1002.7043331000023,None,1002.7043331000023,None,1002.7043331000023,None,None,None,1003.9454685999663,None,,,,,,,,0.07161458333333333,-0.2877604166666667,1,0,0,3.487913099990692,tijiao,,243,f,24,2023_Mar_22_1123,RL,2021.2.3,59.95121169534463,
