bandit0,black_x_pos_random,black_y_pos_random,trials.thisRepN,trials.thisTrialN,trials.thisN,trials.thisIndex,instru_img1.started,instru_resp.started,instru_resp.keys,instru_resp.rt,instru_img2.started,instru_resp2.started,instru_resp2.keys,instru_resp2.rt,fixbefore_2.started,rest_response.keys,red.started,green.started,yellow.started,blue.started,choose_bandit.started,Fixation.started,choose_bandit.keys,choose_bandit.rt,black.started,red_2.started,green_2.started,yellow_2.started,blue_2.started,fixation_2.started,docs.started,wait_playerB.started,docs.stopped,wait_playerB.stopped,black.stopped,red_2.stopped,green_2.stopped,yellow_2.stopped,blue_2.stopped,fixation_2.stopped,black_com.started,reward_sub.started,palyerb.started,reward__sub.started,compare.started,red_compare.started,green_com.started,yellow_com.started,blue_com.started,image_3.started,slider.started,text.started,image_4.started,image_5.started,rewardyellow,rewardred,rewardblue,rewardgreen,subchoose,playerb,slider.response,slider.rt,expectself.text,value_expect_self,tijiao_click.x,tijiao_click.y,tijiao_click.leftButton,tijiao_click.midButton,tijiao_click.rightButton,tijiao_click.time,tijiao_click.clicked_name,random_whicharm,whether_ask,expect_random_3.text,tijiao_random.x,tijiao_random.y,tijiao_random.leftButton,tijiao_random.midButton,tijiao_random.rightButton,tijiao_random.time,tijiao_random.clicked_name,slider_2.response,slider_2.rt,intertrialfix.started,intertrialfix.stopped,expectself.started,expect_self_black.started,expect_self.started,expect_self_red.started,expect_self_green.started,expect_self_yellow.started,expect_self_blue.started,tijiao.started,tijiao_click.started,check.started,slider_2.started,image_7.started,confi.started,notconfi.started,jiantou_random.started,expect_red.started,expect_green.started,expect_yellow.started,expect_blue.started,expect_random_2.started,expect_random_3.started,tijiao_random_2.started,tijiao_random.started,check_2.started,rest_image.started,rest_response.started,rest_response.rt,participant,Gender,Age,date,expName,psychopyVersion,frameRate,
,,,,,,,51.701539399975445,51.701539399975445,space,3.3457148000015877,,,,,,,,,,,,,,,,,,,,,,,,,,,,,,,,,,,,,,,,,,,,,,,,,,,,,,,,,,,,,,,,,,,,,,,,,,,,,,,,,,,,,,,,,,,,,,,,,,,,,,,244,f,22,2023-03-22_11h23.55.784,RL,2022.2.4,60.180601981568316,
,,,,,,,,,,,55.07644409997738,55.07644409997738,s,22.194804200000362,,,,,,,,,,,,,,,,,,,,,,,,,,,,,,,,,,,,,,,,,,,,,,,,,,,,,,,,,,,,,,,,,,,,,,,,,,,,,,,,,,,,,,,,,,,,,,,,,,,244,f,22,2023-03-22_11h23.55.784,RL,2022.2.4,60.180601981568316,
1,-0.3,-0.225,0,0,0,0,,,,,,,,,77.3017268999829,None,78.33407089998946,78.33407089998946,78.33407089998946,78.33407089998946,78.33407089998946,78.33407089998946,r,0.6262896000116598,78.99846209998941,78.99846209998941,78.99846209998941,78.99846209998941,78.99846209998941,78.99846209998941,79.28001489999588,79.28001489999588,80.24369469998055,80.24369469998055,80.26395709998906,80.26395709998906,80.26395709998906,80.26395709998906,80.26395709998906,80.26395709998906,80.26395709998906,80.26395709998906,80.26395709998906,80.26395709998906,80.26395709998906,80.26395709998906,80.26395709998906,80.26395709998906,80.26395709998906,82.77002519997768,82.77002519997768,82.77002519997768,82.77002519997768,82.77002519997768,24,42,59,65,24,53,3.0,3.0739540999929886,,,[],[],[],[],[],[],[],0.2,3,,[],[],[],[],[],[],[],None,None,86.02328850000049,87.87268389997189,,,,,,,,,,,,,,,,,,,,,,,,,,,,244,f,22,2023-03-22_11h23.55.784,RL,2022.2.4,60.180601981568316,
0,0.3,0.225,0,1,1,1,,,,,,,,,,None,87.87268389997189,87.87268389997189,87.87268389997189,87.87268389997189,87.87268389997189,87.87268389997189,i,0.3807578999840189,88.27711830000044,88.27711830000044,88.27711830000044,88.27711830000044,88.27711830000044,88.27711830000044,88.57106159999967,88.57106159999967,89.70103699999163,89.70103699999163,89.70103699999163,89.70103699999163,89.70103699999163,89.70103699999163,89.70103699999163,89.70103699999163,89.70103699999163,89.70103699999163,89.70103699999163,89.70103699999163,89.70103699999163,89.70103699999163,89.70103699999163,89.70103699999163,89.70103699999163,,,,,,31,50,55,72,55,51,None,None,50,50,[0.041666666666666664],[-0.26666666666666666],[1],[0],[0],[6.392107899999246],['tijiao'],-0.2,0,,[],[],[],[],[],[],[],6.9907407407407405,4.240120100002969,102.89716359999147,104.85969859999022,92.23384429997532,92.23384429997532,92.23384429997532,92.23384429997532,92.23384429997532,92.23384429997532,92.23384429997532,92.23384429997532,0.005949300015345216,92.23384429997532,98.64432059999672,98.64432059999672,98.64432059999672,98.64432059999672,,,,,,,,,,,,,,244,f,22,2023-03-22_11h23.55.784,RL,2022.2.4,60.180601981568316,
1,-0.3,-0.225,0,2,2,2,,,,,,,,,,None,104.85969859999022,104.85969859999022,104.85969859999022,104.85969859999022,104.85969859999022,104.85969859999022,j,0.33642919998965226,105.23036659997888,105.23036659997888,105.23036659997888,105.23036659997888,105.23036659997888,105.23036659997888,105.52472069999203,105.52472069999203,106.53828129998874,106.53828129998874,106.55505579998135,106.55505579998135,106.55505579998135,106.55505579998135,106.55505579998135,106.55505579998135,106.55505579998135,106.55505579998135,106.55505579998135,106.55505579998135,106.55505579998135,106.55505579998135,106.55505579998135,106.55505579998135,106.55505579998135,,,,,,34,49,56,68,68,54,None,None,60,60,[0.05648148148148148],[-0.27314814814814814],[1],[0],[0],[5.609313199995086],['tijiao'],0.6,0,,[],[],[],[],[],[],[],7.9259259259259265,3.4246754000196233,118.1389882999938,120.08440179997706,109.06528989999788,109.06528989999788,109.06528989999788,109.06528989999788,109.06528989999788,109.06528989999788,109.06528989999788,109.06528989999788,0.005195100005948916,109.06528989999788,114.69580629997654,114.69580629997654,114.69580629997654,114.69580629997654,,,,,,,,,,,,,,244,f,22,2023-03-22_11h23.55.784,RL,2022.2.4,60.180601981568316,
0,0.3,0.225,0,3,3,3,,,,,,,,,,None,120.08440179997706,120.08440179997706,120.08440179997706,120.08440179997706,120.08440179997706,120.08440179997706,f,0.4599914000136778,120.57198809998226,120.57198809998226,120.57198809998226,120.57198809998226,120.57198809998226,120.57198809998226,120.86623559999862,120.86623559999862,122.1289429999888,122.1289429999888,122.1289429999888,122.1289429999888,122.1289429999888,122.1289429999888,122.1289429999888,122.1289429999888,122.1289429999888,122.1289429999888,122.1289429999888,122.1289429999888,122.1289429999888,122.1289429999888,122.1289429999888,122.1289429999888,122.1289429999888,124.63856849999866,124.63856849999866,124.63856849999866,124.63856849999866,124.63856849999866,33,48,62,72,48,76,3.0,5.051728099992033,,,[],[],[],[],[],[],[],0.2,2,,[],[],[],[],[],[],[],None,None,129.71658759997808,131.58673629999976,,,,,,,,,,,,,,,,,,,,,,,,,,,,244,f,22,2023-03-22_11h23.55.784,RL,2022.2.4,60.180601981568316,
1,-0.3,-0.225,0,4,4,4,,,,,,,,,,None,131.58673629999976,131.58673629999976,131.58673629999976,131.58673629999976,131.58673629999976,131.58673629999976,i,0.2992343000078108,131.9198980999936,131.9198980999936,131.9198980999936,131.9198980999936,131.9198980999936,131.9198980999936,132.21873349999078,132.21873349999078,133.29856519997702,133.29856519997702,133.29856519997702,133.29856519997702,133.29856519997702,133.29856519997702,133.29856519997702,133.29856519997702,133.29856519997702,133.29856519997702,133.29856519997702,133.29856519997702,133.29856519997702,133.29856519997702,133.29856519997702,133.29856519997702,133.29856519997702,,,,,,39,55,52,70,52,50,None,None,,,[],[],[],[],[],[],[],-0.6,1,30,[0.001851851851851852],[-0.2833333333333333],[1],[0],[0],[6.464255300001241],['tijiao_random_2'],6.953703703703703,4.881348199996864,147.1931329999934,149.00566909997724,,,,,,,,,,,142.29354349998175,142.29354349998175,142.29354349998175,142.29354349998175,135.82000159999006,135.82000159999006,135.82000159999006,135.82000159999006,135.82000159999006,135.82000159999006,135.82000159999006,135.82000159999006,0.005657200003042817,135.82000159999006,,,,244,f,22,2023-03-22_11h23.55.784,RL,2022.2.4,60.180601981568316,
0,0.3,0.225,0,5,5,5,,,,,,,,,,None,149.00566909997724,149.00566909997724,149.00566909997724,149.00566909997724,149.00566909997724,149.00566909997724,r,0.2878130000026431,149.32385589997284,149.32385589997284,149.32385589997284,149.32385589997284,149.32385589997284,149.32385589997284,149.621084399987,149.621084399987,150.45217409997713,150.45217409997713,150.45217409997713,150.45217409997713,150.45217409997713,150.45217409997713,150.45217409997713,150.45217409997713,150.45217409997713,150.45217409997713,150.45217409997713,150.45217409997713,150.45217409997713,150.45217409997713,150.45217409997713,150.45217409997713,150.45217409997713,,,,,,38,50,63,63,38,42,None,None,,,[],[],[],[],[],[],[],0.6,1,70,[0.0787037037037037],[-0.27685185185185185],[1],[0],[0],[6.7967172999924514],['tijiao_random_2'],7.972222222222221,2.7182486999954563,162.51800169999478,164.33039229997667,,,,,,,,,,,159.78078509998159,159.78078509998159,159.78078509998159,159.78078509998159,152.97061529997154,152.97061529997154,152.97061529997154,152.97061529997154,152.97061529997154,152.97061529997154,152.97061529997154,152.97061529997154,0.005731199984438717,152.97061529997154,,,,244,f,22,2023-03-22_11h23.55.784,RL,2022.2.4,60.180601981568316,
1,-0.3,-0.225,0,6,6,6,,,,,,,,,,None,164.33039229997667,164.33039229997667,164.33039229997667,164.33039229997667,164.33039229997667,164.33039229997667,j,0.3634031000256073,164.71326929997304,164.71326929997304,164.71326929997304,164.71326929997304,164.71326929997304,164.71326929997304,165.0124089999881,165.0124089999881,166.64123489998747,166.64123489998747,166.64123489998747,166.64123489998747,166.64123489998747,166.64123489998747,166.64123489998747,166.64123489998747,166.64123489998747,166.64123489998747,166.64123489998747,166.64123489998747,166.64123489998747,166.64123489998747,166.64123489998747,166.64123489998747,166.64123489998747,,,,,,46,59,61,68,68,85,None,None,,,[],[],[],[],[],[],[],-0.2,1,40,[0.025925925925925925],[-0.29259259259259257],[1],[0],[0],[8.09462259997963],['tijiao_random_2'],7.944444444444445,2.7675457000150345,180.05353909998666,181.6668002999795,,,,,,,,,,,177.26800279997406,177.26800279997406,177.26800279997406,177.26800279997406,169.15829659998417,169.15829659998417,169.15829659998417,169.15829659998417,169.15829659998417,169.15829659998417,169.15829659998417,169.15829659998417,0.005760700005339459,169.15829659998417,,,,244,f,22,2023-03-22_11h23.55.784,RL,2022.2.4,60.180601981568316,
0,0.3,0.225,0,7,7,7,,,,,,,,,,None,181.6668002999795,181.6668002999795,181.6668002999795,181.6668002999795,181.6668002999795,181.6668002999795,j,0.37724420000449754,182.06876679998823,182.06876679998823,182.06876679998823,182.06876679998823,182.06876679998823,182.06876679998823,182.36506289997487,182.36506289997487,183.92760799999814,183.92760799999814,183.92760799999814,183.92760799999814,183.92760799999814,183.92760799999814,183.92760799999814,183.92760799999814,183.92760799999814,183.92760799999814,183.92760799999814,183.92760799999814,183.92760799999814,183.92760799999814,183.92760799999814,183.92760799999814,183.92760799999814,186.43658079998568,186.43658079998568,186.43658079998568,186.43658079998568,186.43658079998568,49,55,62,73,73,77,4.0,3.755756200000178,,,[],[],[],[],[],[],[],0.2,3,,[],[],[],[],[],[],[],None,None,190.2161924999964,191.78920799997286,,,,,,,,,,,,,,,,,,,,,,,,,,,,244,f,22,2023-03-22_11h23.55.784,RL,2022.2.4,60.180601981568316,
1,-0.3,-0.225,0,8,8,8,,,,,,,,,,None,191.78920799997286,191.78920799997286,191.78920799997286,191.78920799997286,191.78920799997286,191.78920799997286,j,0.317001799994614,192.13887639998575,192.13887639998575,192.13887639998575,192.13887639998575,192.13887639998575,192.13887639998575,192.43777159997262,192.43777159997262,193.4680200999719,193.4680200999719,193.4680200999719,193.4680200999719,193.4680200999719,193.4680200999719,193.4680200999719,193.4680200999719,193.4680200999719,193.4680200999719,193.4680200999719,193.4680200999719,193.4680200999719,193.4680200999719,193.4680200999719,193.4680200999719,193.4680200999719,195.9768646999728,195.9768646999728,195.9768646999728,195.9768646999728,195.9768646999728,50,47,54,69,69,42,5.0,4.071199099998921,,,[],[],[],[],[],[],[],-0.6,2,,[],[],[],[],[],[],[],None,None,200.0763909999805,201.6619527999719,,,,,,,,,,,,,,,,,,,,,,,,,,,,244,f,22,2023-03-22_11h23.55.784,RL,2022.2.4,60.180601981568316,
0,0.3,0.225,0,9,9,9,,,,,,,,,,None,201.6619527999719,201.6619527999719,201.6619527999719,201.6619527999719,201.6619527999719,201.6619527999719,j,0.40196109999669716,202.0946130999946,202.0946130999946,202.0946130999946,202.0946130999946,202.0946130999946,202.0946130999946,202.3937772999925,202.3937772999925,203.5904515000002,203.5904515000002,203.5904515000002,203.5904515000002,203.5904515000002,203.5904515000002,203.5904515000002,203.5904515000002,203.5904515000002,203.5904515000002,203.5904515000002,203.5904515000002,203.5904515000002,203.5904515000002,203.5904515000002,203.5904515000002,203.5904515000002,,,,,,45,43,56,68,68,76,None,None,,,[],[],[],[],[],[],[],0.2,1,50,[0.03148148148148148],[-0.27037037037037037],[1],[0],[0],[4.554374100000132],['tijiao_random_2'],8.981481481481481,4.880526199995074,215.5733154999907,217.23625679998077,,,,,,,,,,,210.6746037999983,210.6746037999983,210.6746037999983,210.6746037999983,206.10833169997204,206.10833169997204,206.10833169997204,206.10833169997204,206.10833169997204,206.10833169997204,206.10833169997204,206.10833169997204,0.006189300009282306,206.10833169997204,,,,244,f,22,2023-03-22_11h23.55.784,RL,2022.2.4,60.180601981568316,
1,-0.3,-0.225,0,10,10,10,,,,,,,,,,None,217.23625679998077,217.23625679998077,217.23625679998077,217.23625679998077,217.23625679998077,217.23625679998077,i,0.3417114999901969,217.60268709997763,217.60268709997763,217.60268709997763,217.60268709997763,217.60268709997763,217.60268709997763,217.9011403999757,217.9011403999757,219.29745319997892,219.29745319997892,219.29745319997892,219.29745319997892,219.29745319997892,219.29745319997892,219.29745319997892,219.29745319997892,219.29745319997892,219.29745319997892,219.29745319997892,219.29745319997892,219.29745319997892,219.29745319997892,219.29745319997892,219.29745319997892,219.29745319997892,,,,,,50,52,51,78,51,77,None,None,,,[],[],[],[],[],[],[],0.2,1,50,[-0.002777777777777778],[-0.28425925925925927],[1],[0],[0],[4.388663599995198],['tijiao_random_2'],8.981481481481481,1.8868794000009075,228.1220406999928,229.70225759997265,,,,,,,,,,,226.21647769998526,226.21647769998526,226.21647769998526,226.21647769998526,221.81438699999126,221.81438699999126,221.81438699999126,221.81438699999126,221.81438699999126,221.81438699999126,221.81438699999126,221.81438699999126,0.0056893999862950295,221.81438699999126,,,,244,f,22,2023-03-22_11h23.55.784,RL,2022.2.4,60.180601981568316,
0,0.3,0.225,0,11,11,11,,,,,,,,,,None,229.70225759997265,229.70225759997265,229.70225759997265,229.70225759997265,229.70225759997265,229.70225759997265,j,0.44677300000330433,230.16813709997223,230.16813709997223,230.16813709997223,230.16813709997223,230.16813709997223,230.16813709997223,230.46704929997213,230.46704929997213,232.11258339998312,232.11258339998312,232.12914639999508,232.12914639999508,232.12914639999508,232.12914639999508,232.12914639999508,232.12914639999508,232.12914639999508,232.12914639999508,232.12914639999508,232.12914639999508,232.12914639999508,232.12914639999508,232.12914639999508,232.12914639999508,232.12914639999508,,,,,,47,52,55,68,68,83,None,None,,,[],[],[],[],[],[],[],-0.6,1,30,[-0.03518518518518519],[-0.2740740740740741],[1],[0],[0],[5.04953689998365],['tijiao_random_2'],8.907407407407408,2.240733699989505,241.96780809998745,243.84707239997806,,,,,,,,,,,239.71024299997953,239.71024299997953,239.71024299997953,239.71024299997953,234.6482514999807,234.6482514999807,234.6482514999807,234.6482514999807,234.6482514999807,234.6482514999807,234.6482514999807,234.6482514999807,0.0054583000019192696,234.6482514999807,,,,244,f,22,2023-03-22_11h23.55.784,RL,2022.2.4,60.180601981568316,
1,-0.3,-0.225,0,12,12,12,,,,,,,,,,None,243.84707239997806,243.84707239997806,243.84707239997806,243.84707239997806,243.84707239997806,243.84707239997806,r,0.2963637000066228,244.16321239998797,244.16321239998797,244.16321239998797,244.16321239998797,244.16321239998797,244.16321239998797,244.46238879999146,244.46238879999146,245.4262137999758,245.4262137999758,245.4262137999758,245.4262137999758,245.4262137999758,245.4262137999758,245.4262137999758,245.4262137999758,245.4262137999758,245.4262137999758,245.4262137999758,245.4262137999758,245.4262137999758,245.4262137999758,245.4262137999758,245.4262137999758,245.4262137999758,247.93506119999802,247.93506119999802,247.93506119999802,247.93506119999802,247.93506119999802,45,47,51,74,45,88,2.0,2.94120619999012,,,[],[],[],[],[],[],[],-0.2,3,,[],[],[],[],[],[],[],None,None,250.9013323999825,252.52301330000046,,,,,,,,,,,,,,,,,,,,,,,,,,,,244,f,22,2023-03-22_11h23.55.784,RL,2022.2.4,60.180601981568316,
0,0.3,0.225,0,13,13,13,,,,,,,,,,None,252.52301330000046,252.52301330000046,252.52301330000046,252.52301330000046,252.52301330000046,252.52301330000046,j,0.28905870000016876,252.8394033999939,252.8394033999939,252.8394033999939,252.8394033999939,252.8394033999939,252.8394033999939,253.13838229997782,253.13838229997782,254.7175859999843,254.7175859999843,254.7175859999843,254.7175859999843,254.7175859999843,254.7175859999843,254.7175859999843,254.7175859999843,254.7175859999843,254.7175859999843,254.7175859999843,254.7175859999843,254.7175859999843,254.7175859999843,254.7175859999843,254.7175859999843,254.7175859999843,,,,,,45,57,53,72,72,33,None,None,,,[],[],[],[],[],[],[],-0.6,1,30,[0.03333333333333333],[-0.2898148148148148],[1],[0],[0],[4.020762100000866],['tijiao_random_2'],9.00925925925926,2.368879699992249,263.658623299998,265.50478219997603,,,,,,,,,,,261.2716954999778,261.2716954999778,261.2716954999778,261.2716954999778,257.2367216999992,257.2367216999992,257.2367216999992,257.2367216999992,257.2367216999992,257.2367216999992,257.2367216999992,257.2367216999992,0.005582900019362569,257.2367216999992,,,,244,f,22,2023-03-22_11h23.55.784,RL,2022.2.4,60.180601981568316,
1,-0.3,-0.225,0,14,14,14,,,,,,,,,,None,265.50478219997603,265.50478219997603,265.50478219997603,265.50478219997603,265.50478219997603,265.50478219997603,j,0.2676013000018429,265.80414969997946,265.80414969997946,265.80414969997946,265.80414969997946,265.80414969997946,265.80414969997946,266.103395299986,266.103395299986,267.54923109998344,267.54923109998344,267.54923109998344,267.54923109998344,267.54923109998344,267.54923109998344,267.54923109998344,267.54923109998344,267.54923109998344,267.54923109998344,267.54923109998344,267.54923109998344,267.54923109998344,267.54923109998344,267.54923109998344,267.54923109998344,267.54923109998344,270.05838199998834,270.05838199998834,270.05838199998834,270.05838199998834,270.05838199998834,44,51,63,71,71,39,6.0,1.9769943999999668,,,[],[],[],[],[],[],[],0.6,2,,[],[],[],[],[],[],[],None,None,272.05914959998336,273.7821886999882,,,,,,,,,,,,,,,,,,,,,,,,,,,,244,f,22,2023-03-22_11h23.55.784,RL,2022.2.4,60.180601981568316,
0,0.3,0.225,0,15,15,15,,,,,,,,,,None,273.7821886999882,273.7821886999882,273.7821886999882,273.7821886999882,273.7821886999882,273.7821886999882,j,0.4946695000107866,274.2976451999857,274.2976451999857,274.2976451999857,274.2976451999857,274.2976451999857,274.2976451999857,274.5967172999808,274.5967172999808,276.2424595999764,276.2424595999764,276.2424595999764,276.2424595999764,276.2424595999764,276.2424595999764,276.2424595999764,276.2424595999764,276.2424595999764,276.2424595999764,276.2424595999764,276.2424595999764,276.2424595999764,276.2424595999764,276.2424595999764,276.2424595999764,276.2424595999764,,,,,,47,55,61,74,74,76,None,None,70,70,[-0.004629629629629629],[-0.28703703703703703],[1],[0],[0],[5.823065500007942],['tijiao'],0.2,0,,[],[],[],[],[],[],[],10.0,2.8418646000209264,287.4604486999742,289.0570918999729,278.75378609998734,278.75378609998734,278.75378609998734,278.75378609998734,278.75378609998734,278.75378609998734,278.75378609998734,278.75378609998734,0.007399399997666478,278.75378609998734,284.5996512999991,284.5996512999991,284.5996512999991,284.5996512999991,,,,,,,,,,,,,,244,f,22,2023-03-22_11h23.55.784,RL,2022.2.4,60.180601981568316,
1,-0.3,-0.225,0,16,16,16,,,,,,,,,,None,289.0570918999729,289.0570918999729,289.0570918999729,289.0570918999729,289.0570918999729,289.0570918999729,j,0.2984808999754023,289.3730125000002,289.3730125000002,289.3730125000002,289.3730125000002,289.3730125000002,289.3730125000002,289.6723238999839,289.6723238999839,290.61972809999133,290.61972809999133,290.61972809999133,290.61972809999133,290.61972809999133,290.61972809999133,290.61972809999133,290.61972809999133,290.61972809999133,290.61972809999133,290.61972809999133,290.61972809999133,290.61972809999133,290.61972809999133,290.61972809999133,290.61972809999133,290.61972809999133,,,,,,54,51,65,78,78,84,None,None,,,[],[],[],[],[],[],[],-0.2,1,50,[0.022222222222222223],[-0.2657407407407407],[1],[0],[0],[7.430603000015253],['tijiao_random_2'],8.953703703703704,2.6862258999899495,303.28440789997694,304.8970434999792,,,,,,,,,,,300.579556599987,300.579556599987,300.579556599987,300.579556599987,293.1358486999816,293.1358486999816,293.1358486999816,293.1358486999816,293.1358486999816,293.1358486999816,293.1358486999816,293.1358486999816,0.005708300013793632,293.1358486999816,,,,244,f,22,2023-03-22_11h23.55.784,RL,2022.2.4,60.180601981568316,
0,0.3,0.225,0,17,17,17,,,,,,,,,,None,304.8970434999792,304.8970434999792,304.8970434999792,304.8970434999792,304.8970434999792,304.8970434999792,i,0.27692979999119416,305.19651669997256,305.19651669997256,305.19651669997256,305.19651669997256,305.19651669997256,305.19651669997256,305.4958121999807,305.4958121999807,306.3434695999895,306.3434695999895,306.3434695999895,306.3434695999895,306.3434695999895,306.3434695999895,306.3434695999895,306.3434695999895,306.3434695999895,306.3434695999895,306.3434695999895,306.3434695999895,306.3434695999895,306.3434695999895,306.3434695999895,306.3434695999895,306.3434695999895,,,,,,41,47,53,70,53,80,None,None,70,70,[0.075],[-0.25833333333333336],[1],[0],[0],[7.519629400019767],['tijiao'],0.6,0,,[],[],[],[],[],[],[],8.962962962962962,2.0116733000031672,318.4258919999993,320.2552215999749,308.85339699999895,308.85339699999895,308.85339699999895,308.85339699999895,308.85339699999895,308.85339699999895,308.85339699999895,308.85339699999895,0.0066334000148344785,308.85339699999895,316.3953888999822,316.3953888999822,316.3953888999822,316.3953888999822,,,,,,,,,,,,,,244,f,22,2023-03-22_11h23.55.784,RL,2022.2.4,60.180601981568316,
1,-0.3,-0.225,0,18,18,18,,,,,,,,,,None,320.2552215999749,320.2552215999749,320.2552215999749,320.2552215999749,320.2552215999749,320.2552215999749,j,0.3479384999955073,320.6209527999745,320.6209527999745,320.6209527999745,320.6209527999745,320.6209527999745,320.6209527999745,320.92042759998003,320.92042759998003,322.465672899998,322.465672899998,322.465672899998,322.465672899998,322.465672899998,322.465672899998,322.465672899998,322.465672899998,322.465672899998,322.465672899998,322.465672899998,322.465672899998,322.465672899998,322.465672899998,322.465672899998,322.465672899998,322.465672899998,324.97523229999933,324.97523229999933,324.97523229999933,324.97523229999933,324.97523229999933,51,54,63,69,69,81,6.0,2.392752699990524,,,[],[],[],[],[],[],[],0.2,2,,[],[],[],[],[],[],[],None,None,327.39311509998515,329.0478798999975,,,,,,,,,,,,,,,,,,,,,,,,,,,,244,f,22,2023-03-22_11h23.55.784,RL,2022.2.4,60.180601981568316,
0,0.3,0.225,0,19,19,19,,,,,,,,,,None,329.0478798999975,329.0478798999975,329.0478798999975,329.0478798999975,329.0478798999975,329.0478798999975,j,0.2679521999962162,329.347317799984,329.347317799984,329.347317799984,329.347317799984,329.347317799984,329.347317799984,329.6465663999843,329.6465663999843,331.0592800999875,331.0592800999875,331.0592800999875,331.0592800999875,331.0592800999875,331.0592800999875,331.0592800999875,331.0592800999875,331.0592800999875,331.0592800999875,331.0592800999875,331.0592800999875,331.0592800999875,331.0592800999875,331.0592800999875,331.0592800999875,331.0592800999875,,,,,,59,59,61,75,75,75,None,None,,,[],[],[],[],[],[],[],-0.2,1,50,[-0.04537037037037037],[-0.287962962962963],[1],[0],[0],[5.152166199986823],['tijiao_random_2'],9.018518518518519,3.731757600005949,342.493484799983,344.4222348999756,,,,,,,,,,,338.74330689999624,338.74330689999624,338.74330689999624,338.74330689999624,333.57692769999267,333.57692769999267,333.57692769999267,333.57692769999267,333.57692769999267,333.57692769999267,333.57692769999267,333.57692769999267,0.005386100005125627,333.57692769999267,,,,244,f,22,2023-03-22_11h23.55.784,RL,2022.2.4,60.180601981568316,
1,-0.3,-0.225,0,20,20,20,,,,,,,,,,None,344.4222348999756,344.4222348999756,344.4222348999756,344.4222348999756,344.4222348999756,344.4222348999756,j,0.2276068000064697,344.67439199998626,344.67439199998626,344.67439199998626,344.67439199998626,344.67439199998626,344.67439199998626,344.97130069998093,344.97130069998093,346.96595949999755,346.96595949999755,346.96595949999755,346.96595949999755,346.96595949999755,346.96595949999755,346.96595949999755,346.96595949999755,346.96595949999755,346.96595949999755,346.96595949999755,346.96595949999755,346.96595949999755,346.96595949999755,346.96595949999755,346.96595949999755,346.96595949999755,349.47513159998925,349.47513159998925,349.47513159998925,349.47513159998925,349.47513159998925,53,56,56,76,76,81,7.0,4.569906599994283,,,[],[],[],[],[],[],[],0.6,3,,[],[],[],[],[],[],[],None,None,354.07175789997564,355.9742305999971,,,,,,,,,,,,,,,,,,,,,,,,,,,,244,f,22,2023-03-22_11h23.55.784,RL,2022.2.4,60.180601981568316,
0,0.3,0.225,0,21,21,21,,,,,,,,,,None,355.9742305999971,355.9742305999971,355.9742305999971,355.9742305999971,355.9742305999971,355.9742305999971,j,0.46163539998815395,356.4565864999895,356.4565864999895,356.4565864999895,356.4565864999895,356.4565864999895,356.4565864999895,356.75557439998374,356.75557439998374,357.6863180999935,357.6863180999935,357.6863180999935,357.6863180999935,357.6863180999935,357.6863180999935,357.6863180999935,357.6863180999935,357.6863180999935,357.6863180999935,357.6863180999935,357.6863180999935,357.6863180999935,357.6863180999935,357.6863180999935,357.6863180999935,357.6863180999935,360.1957259999763,360.1957259999763,360.1957259999763,360.1957259999763,360.1957259999763,62,58,62,65,65,77,6.0,3.2229227000207175,,,[],[],[],[],[],[],[],-0.6,3,,[],[],[],[],[],[],[],None,None,363.44325809998554,365.23234209997463,,,,,,,,,,,,,,,,,,,,,,,,,,,,244,f,22,2023-03-22_11h23.55.784,RL,2022.2.4,60.180601981568316,
1,-0.3,-0.225,0,22,22,22,,,,,,,,,,None,365.23234209997463,365.23234209997463,365.23234209997463,365.23234209997463,365.23234209997463,365.23234209997463,j,0.29173870000522584,365.5486089999904,365.5486089999904,365.5486089999904,365.5486089999904,365.5486089999904,365.5486089999904,365.84745479997946,365.84745479997946,367.2771538999805,367.2771538999805,367.2771538999805,367.2771538999805,367.2771538999805,367.2771538999805,367.2771538999805,367.2771538999805,367.2771538999805,367.2771538999805,367.2771538999805,367.2771538999805,367.2771538999805,367.2771538999805,367.2771538999805,367.2771538999805,367.2771538999805,,,,,,58,49,66,64,64,78,None,None,70,70,[0.010185185185185186],[-0.2824074074074074],[1],[0],[0],[6.074902399996063],['tijiao'],0.2,0,,[],[],[],[],[],[],[],8.99074074074074,3.0101000999857206,378.9111398999812,380.88956309997593,369.78728589997627,369.78728589997627,369.78728589997627,369.78728589997627,369.78728589997627,369.78728589997627,369.78728589997627,369.78728589997627,0.0054518999822903425,369.78728589997627,375.8817601999908,375.8817601999908,375.8817601999908,375.8817601999908,,,,,,,,,,,,,,244,f,22,2023-03-22_11h23.55.784,RL,2022.2.4,60.180601981568316,
0,0.3,0.225,0,23,23,23,,,,,,,,,,None,380.88956309997593,380.88956309997593,380.88956309997593,380.88956309997593,380.88956309997593,380.88956309997593,j,0.24664639998809434,381.1559012999933,381.1559012999933,381.1559012999933,381.1559012999933,381.1559012999933,381.1559012999933,381.4552641999908,381.4552641999908,382.3858876999875,382.3858876999875,382.3858876999875,382.3858876999875,382.3858876999875,382.3858876999875,382.3858876999875,382.3858876999875,382.3858876999875,382.3858876999875,382.3858876999875,382.3858876999875,382.3858876999875,382.3858876999875,382.3858876999875,382.3858876999875,382.3858876999875,,,,,,62,44,60,65,65,31,None,None,,,[],[],[],[],[],[],[],0.2,1,50,[0.09259259259259259],[-0.27037037037037037],[1],[0],[0],[5.600832900003297],['tijiao_random_2'],7.972222222222221,3.1002097000018694,393.63717349999934,395.1508306999749,,,,,,,,,,,390.51957479998237,390.51957479998237,390.51957479998237,390.51957479998237,384.90354979998665,384.90354979998665,384.90354979998665,384.90354979998665,384.90354979998665,384.90354979998665,384.90354979998665,384.90354979998665,0.00578710000263527,384.90354979998665,,,,244,f,22,2023-03-22_11h23.55.784,RL,2022.2.4,60.180601981568316,
1,-0.3,-0.225,0,24,24,24,,,,,,,,,,None,395.1508306999749,395.1508306999749,395.1508306999749,395.1508306999749,395.1508306999749,395.1508306999749,j,0.27024230000097305,395.45068459998583,395.45068459998583,395.45068459998583,395.45068459998583,395.45068459998583,395.45068459998583,395.74953749999986,395.74953749999986,397.6774719999812,397.6774719999812,397.6774719999812,397.6774719999812,397.6774719999812,397.6774719999812,397.6774719999812,397.6774719999812,397.6774719999812,397.6774719999812,397.6774719999812,397.6774719999812,397.6774719999812,397.6774719999812,397.6774719999812,397.6774719999812,397.6774719999812,,,,,,66,47,59,75,75,68,None,None,75,75,[0.0712962962962963],[-0.29444444444444445],[1],[0],[0],[5.59102660001372],['tijiao'],-0.6,0,,[],[],[],[],[],[],[],9.944444444444443,2.2768732999975327,408.0977716999769,409.76071289999527,400.18915389999165,400.18915389999165,400.18915389999165,400.18915389999165,400.18915389999165,400.18915389999165,400.18915389999165,400.18915389999165,0.00703030001022853,400.18915389999165,405.80204709997633,405.80204709997633,405.80204709997633,405.80204709997633,,,,,,,,,,,,,,244,f,22,2023-03-22_11h23.55.784,RL,2022.2.4,60.180601981568316,
0,0.3,0.225,0,25,25,25,,,,,,,,,,None,409.76071289999527,409.76071289999527,409.76071289999527,409.76071289999527,409.76071289999527,409.76071289999527,j,0.25484120001783594,410.0437689999817,410.0437689999817,410.0437689999817,410.0437689999817,410.0437689999817,410.0437689999817,410.3427618999849,410.3427618999849,412.17135769999004,412.17135769999004,412.17135769999004,412.17135769999004,412.17135769999004,412.17135769999004,412.17135769999004,412.17135769999004,412.17135769999004,412.17135769999004,412.17135769999004,412.17135769999004,412.17135769999004,412.17135769999004,412.17135769999004,412.17135769999004,412.17135769999004,,,,,,70,45,65,79,79,74,None,None,,,[],[],[],[],[],[],[],0.6,1,80,[0.07407407407407407],[-0.2759259259259259],[1],[0],[0],[8.526103400014108],['tijiao_random_2'],10.0,2.8523025999893434,426.09875049997936,427.64561099998537,,,,,,,,,,,423.22771449998254,423.22771449998254,423.22771449998254,423.22771449998254,414.68889539997326,414.68889539997326,414.68889539997326,414.68889539997326,414.68889539997326,414.68889539997326,414.68889539997326,414.68889539997326,0.005632599990349263,414.68889539997326,,,,244,f,22,2023-03-22_11h23.55.784,RL,2022.2.4,60.180601981568316,
1,-0.3,-0.225,0,26,26,26,,,,,,,,,,None,427.64561099998537,427.64561099998537,427.64561099998537,427.64561099998537,427.64561099998537,427.64561099998537,r,0.22126799999387003,427.8953663999855,427.8953663999855,427.8953663999855,427.8953663999855,427.8953663999855,427.8953663999855,428.19438609998906,428.19438609998906,429.20796559998416,429.20796559998416,429.20796559998416,429.20796559998416,429.20796559998416,429.20796559998416,429.20796559998416,429.20796559998416,429.20796559998416,429.20796559998416,429.20796559998416,429.20796559998416,429.20796559998416,429.20796559998416,429.20796559998416,429.20796559998416,429.20796559998416,431.7174012999749,431.7174012999749,431.7174012999749,431.7174012999749,431.7174012999749,70,35,69,80,70,67,6.0,2.775083500018809,,,[],[],[],[],[],[],[],0.2,2,,[],[],[],[],[],[],[],None,None,434.5165054999816,436.2220288999961,,,,,,,,,,,,,,,,,,,,,,,,,,,,244,f,22,2023-03-22_11h23.55.784,RL,2022.2.4,60.180601981568316,
0,0.3,0.225,0,27,27,27,,,,,,,,,,None,436.2220288999961,436.2220288999961,436.2220288999961,436.2220288999961,436.2220288999961,436.2220288999961,f,0.25928110000677407,436.5049296999932,436.5049296999932,436.5049296999932,436.5049296999932,436.5049296999932,436.5049296999932,436.804173099983,436.804173099983,437.9007181999914,437.9007181999914,437.9007181999914,437.9007181999914,437.9007181999914,437.9007181999914,437.9007181999914,437.9007181999914,437.9007181999914,437.9007181999914,437.9007181999914,437.9007181999914,437.9007181999914,437.9007181999914,437.9007181999914,437.9007181999914,437.9007181999914,,,,,,72,51,61,79,51,77,None,None,,,[],[],[],[],[],[],[],0.2,1,60,[0.07222222222222222],[-0.2601851851851852],[1],[0],[0],[5.683246500004316],['tijiao_random_2'],9.953703703703704,2.802884400007315,448.9365067999752,450.8984710999939,,,,,,,,,,,446.1156156999932,446.1156156999932,446.1156156999932,446.1156156999932,440.4196219999867,440.4196219999867,440.4196219999867,440.4196219999867,440.4196219999867,440.4196219999867,440.4196219999867,440.4196219999867,0.006231299979845062,440.4196219999867,,,,244,f,22,2023-03-22_11h23.55.784,RL,2022.2.4,60.180601981568316,
1,-0.3,-0.225,0,28,28,28,,,,,,,,,,None,450.8984710999939,450.8984710999939,450.8984710999939,450.8984710999939,450.8984710999939,450.8984710999939,r,0.270550400018692,451.1980608999729,451.1980608999729,451.1980608999729,451.1980608999729,451.1980608999729,451.1980608999729,451.4974416999903,451.4974416999903,453.1760875999753,453.1760875999753,453.1760875999753,453.1760875999753,453.1760875999753,453.1760875999753,453.1760875999753,453.1760875999753,453.1760875999753,453.1760875999753,453.1760875999753,453.1760875999753,453.1760875999753,453.1760875999753,453.1760875999753,453.1760875999753,453.1760875999753,455.6853118999861,455.6853118999861,455.6853118999861,455.6853118999861,455.6853118999861,67,44,69,79,67,73,6.0,2.8415769999846816,,,[],[],[],[],[],[],[],-0.2,2,,[],[],[],[],[],[],[],None,None,458.55342609999934,460.27300479999394,,,,,,,,,,,,,,,,,,,,,,,,,,,,244,f,22,2023-03-22_11h23.55.784,RL,2022.2.4,60.180601981568316,
0,0.3,0.225,0,29,29,29,,,,,,,,,,None,460.27300479999394,460.27300479999394,460.27300479999394,460.27300479999394,460.27300479999394,460.27300479999394,j,0.2636165000149049,460.55717599997297,460.55717599997297,460.55717599997297,460.55717599997297,460.55717599997297,460.55717599997297,460.85509109997656,460.85509109997656,462.8496403999743,462.8496403999743,462.8496403999743,462.8496403999743,462.8496403999743,462.8496403999743,462.8496403999743,462.8496403999743,462.8496403999743,462.8496403999743,462.8496403999743,462.8496403999743,462.8496403999743,462.8496403999743,462.8496403999743,462.8496403999743,462.8496403999743,,,,,,60,38,73,88,88,71,None,None,80,80,[0.05185185185185185],[-0.29907407407407405],[1],[0],[0],[4.844010900007561],['tijiao'],0.2,0,,[],[],[],[],[],[],[],9.972222222222221,1.6642933999828529,471.9066784999741,473.66995250000036,465.3600981999771,465.3600981999771,465.3600981999771,465.3600981999771,465.3600981999771,465.3600981999771,465.3600981999771,465.3600981999771,0.0062704999872948974,465.3600981999771,470.2236473999801,470.2236473999801,470.2236473999801,470.2236473999801,,,,,,,,,,,,,,244,f,22,2023-03-22_11h23.55.784,RL,2022.2.4,60.180601981568316,
1,-0.3,-0.225,0,30,30,30,,,,,,,,,,None,473.66995250000036,473.66995250000036,473.66995250000036,473.66995250000036,473.66995250000036,473.66995250000036,j,0.28188749999389984,473.96938499997486,473.96938499997486,473.96938499997486,473.96938499997486,473.96938499997486,473.96938499997486,474.26858499998343,474.26858499998343,475.4319261999917,475.4319261999917,475.4319261999917,475.4319261999917,475.4319261999917,475.4319261999917,475.4319261999917,475.4319261999917,475.4319261999917,475.4319261999917,475.4319261999917,475.4319261999917,475.4319261999917,475.4319261999917,475.4319261999917,475.4319261999917,475.4319261999917,477.9412240999809,477.9412240999809,477.9412240999809,477.9412240999809,477.9412240999809,54,46,68,83,83,81,7.0,2.924033599992981,,,[],[],[],[],[],[],[],-0.2,2,,[],[],[],[],[],[],[],None,None,480.89095549998456,482.6453969999857,,,,,,,,,,,,,,,,,,,,,,,,,,,,244,f,22,2023-03-22_11h23.55.784,RL,2022.2.4,60.180601981568316,
0,0.3,0.225,0,31,31,31,,,,,,,,,,None,482.6453969999857,482.6453969999857,482.6453969999857,482.6453969999857,482.6453969999857,482.6453969999857,j,0.23950530000729486,482.91174489998957,482.91174489998957,482.91174489998957,482.91174489998957,482.91174489998957,482.91174489998957,483.21081089999643,483.21081089999643,484.47397039999487,484.47397039999487,484.47397039999487,484.47397039999487,484.47397039999487,484.47397039999487,484.47397039999487,484.47397039999487,484.47397039999487,484.47397039999487,484.47397039999487,484.47397039999487,484.47397039999487,484.47397039999487,484.47397039999487,484.47397039999487,484.47397039999487,486.98310559999663,486.98310559999663,486.98310559999663,486.98310559999663,486.98310559999663,47,33,63,88,88,61,7.0,1.977516100014327,,,[],[],[],[],[],[],[],-0.2,3,,[],[],[],[],[],[],[],None,None,488.98479839999345,490.75648249997175,,,,,,,,,,,,,,,,,,,,,,,,,,,,244,f,22,2023-03-22_11h23.55.784,RL,2022.2.4,60.180601981568316,
1,-0.3,-0.225,0,32,32,32,,,,,,,,,,None,490.75648249997175,490.75648249997175,490.75648249997175,490.75648249997175,490.75648249997175,490.75648249997175,i,0.2372464000072796,491.02276859999984,491.02276859999984,491.02276859999984,491.02276859999984,491.02276859999984,491.02276859999984,491.3216994999966,491.3216994999966,492.6187348999956,492.6187348999956,492.6187348999956,492.6187348999956,492.6187348999956,492.6187348999956,492.6187348999956,492.6187348999956,492.6187348999956,492.6187348999956,492.6187348999956,492.6187348999956,492.6187348999956,492.6187348999956,492.6187348999956,492.6187348999956,492.6187348999956,495.1271213,495.1271213,495.1271213,495.1271213,495.1271213,50,51,69,90,69,34,6.0,3.372940200002631,,,[],[],[],[],[],[],[],-0.2,3,,[],[],[],[],[],[],[],None,None,498.52522769998177,500.1306878999749,,,,,,,,,,,,,,,,,,,,,,,,,,,,244,f,22,2023-03-22_11h23.55.784,RL,2022.2.4,60.180601981568316,
0,0.3,0.225,0,33,33,33,,,,,,,,,,None,500.1306878999749,500.1306878999749,500.1306878999749,500.1306878999749,500.1306878999749,500.1306878999749,r,0.22651499998755753,500.3805534999992,500.3805534999992,500.3805534999992,500.3805534999992,500.3805534999992,500.3805534999992,500.67985299997963,500.67985299997963,501.61030779997236,501.61030779997236,501.61030779997236,501.61030779997236,501.61030779997236,501.61030779997236,501.61030779997236,501.61030779997236,501.61030779997236,501.61030779997236,501.61030779997236,501.61030779997236,501.61030779997236,501.61030779997236,501.61030779997236,501.61030779997236,501.61030779997236,504.1196487999987,504.1196487999987,504.1196487999987,504.1196487999987,504.1196487999987,53,53,55,79,53,79,5.0,2.592396699998062,,,[],[],[],[],[],[],[],0.6,2,,[],[],[],[],[],[],[],None,None,506.73877989998437,508.44170259998646,,,,,,,,,,,,,,,,,,,,,,,,,,,,244,f,22,2023-03-22_11h23.55.784,RL,2022.2.4,60.180601981568316,
1,-0.3,-0.225,0,34,34,34,,,,,,,,,,None,508.44170259998646,508.44170259998646,508.44170259998646,508.44170259998646,508.44170259998646,508.44170259998646,f,0.27963490001275204,508.741169099987,508.741169099987,508.741169099987,508.741169099987,508.741169099987,508.741169099987,509.0403190999932,509.0403190999932,510.0872339999769,510.0872339999769,510.0872339999769,510.0872339999769,510.0872339999769,510.0872339999769,510.0872339999769,510.0872339999769,510.0872339999769,510.0872339999769,510.0872339999769,510.0872339999769,510.0872339999769,510.0872339999769,510.0872339999769,510.0872339999769,510.0872339999769,,,,,,56,59,54,87,59,75,None,None,,,[],[],[],[],[],[],[],-0.2,1,60,[0.040740740740740744],[-0.29907407407407405],[1],[0],[0],[3.441645900020376],['tijiao_random_2'],9.935185185185187,3.615563300001668,519.693524399976,521.4395873999747,,,,,,,,,,,516.0595453999995,516.0595453999995,516.0595453999995,516.0595453999995,512.6036909999966,512.6036909999966,512.6036909999966,512.6036909999966,512.6036909999966,512.6036909999966,512.6036909999966,512.6036909999966,0.005696900014299899,512.6036909999966,,,,244,f,22,2023-03-22_11h23.55.784,RL,2022.2.4,60.180601981568316,
0,0.3,0.225,0,35,35,35,,,,,,,,,,None,521.4395873999747,521.4395873999747,521.4395873999747,521.4395873999747,521.4395873999747,521.4395873999747,j,0.257237299985718,521.7225477999891,521.7225477999891,521.7225477999891,521.7225477999891,521.7225477999891,521.7225477999891,522.0215047999809,522.0215047999809,523.3178034999873,523.3178034999873,523.3178034999873,523.3178034999873,523.3178034999873,523.3178034999873,523.3178034999873,523.3178034999873,523.3178034999873,523.3178034999873,523.3178034999873,523.3178034999873,523.3178034999873,523.3178034999873,523.3178034999873,523.3178034999873,523.3178034999873,525.8268300999771,525.8268300999771,525.8268300999771,525.8268300999771,525.8268300999771,50,53,50,80,80,75,7.0,2.29290959998616,,,[],[],[],[],[],[],[],-0.2,2,,[],[],[],[],[],[],[],None,None,528.1449324999994,529.7169544999779,,,,,,,,,,,,,,,,,,,,,,,,,,,,244,f,22,2023-03-22_11h23.55.784,RL,2022.2.4,60.180601981568316,
1,-0.3,-0.225,0,36,36,36,,,,,,,,,,None,529.7169544999779,529.7169544999779,529.7169544999779,529.7169544999779,529.7169544999779,529.7169544999779,j,0.2577328000043053,529.9998004999943,529.9998004999943,529.9998004999943,529.9998004999943,529.9998004999943,529.9998004999943,530.2986611999804,530.2986611999804,532.0607911999978,532.0607911999978,532.0607911999978,532.0607911999978,532.0607911999978,532.0607911999978,532.0607911999978,532.0607911999978,532.0607911999978,532.0607911999978,532.0607911999978,532.0607911999978,532.0607911999978,532.0607911999978,532.0607911999978,532.0607911999978,532.0607911999978,,,,,,55,61,49,90,90,82,None,None,,,[],[],[],[],[],[],[],0.6,1,90,[-0.032407407407407406],[-0.2657407407407407],[1],[0],[0],[3.889814500027569],['tijiao_random_2'],10.916666666666668,3.2831754999933764,541.7829290999798,543.7617124999815,,,,,,,,,,,538.4812309999834,538.4812309999834,538.4812309999834,538.4812309999834,534.5775615999883,534.5775615999883,534.5775615999883,534.5775615999883,534.5775615999883,534.5775615999883,534.5775615999883,534.5775615999883,0.005632000014884397,534.5775615999883,,,,244,f,22,2023-03-22_11h23.55.784,RL,2022.2.4,60.180601981568316,
0,0.3,0.225,0,37,37,37,,,,,,,,,,None,543.7617124999815,543.7617124999815,543.7617124999815,543.7617124999815,543.7617124999815,543.7617124999815,j,0.23772340000141412,544.0281686999951,544.0281686999951,544.0281686999951,544.0281686999951,544.0281686999951,544.0281686999951,544.3271542000002,544.3271542000002,545.1418918999843,545.1418918999843,545.1418918999843,545.1418918999843,545.1418918999843,545.1418918999843,545.1418918999843,545.1418918999843,545.1418918999843,545.1418918999843,545.1418918999843,545.1418918999843,545.1418918999843,545.1418918999843,545.1418918999843,545.1418918999843,545.1418918999843,547.6505196999933,547.6505196999933,547.6505196999933,547.6505196999933,547.6505196999933,58,42,47,79,79,83,6.0,2.7254776999761816,,,[],[],[],[],[],[],[],0.2,3,,[],[],[],[],[],[],[],None,None,550.4017480999755,552.0890836999752,,,,,,,,,,,,,,,,,,,,,,,,,,,,244,f,22,2023-03-22_11h23.55.784,RL,2022.2.4,60.180601981568316,
1,-0.3,-0.225,0,38,38,38,,,,,,,,,,None,552.0890836999752,552.0890836999752,552.0890836999752,552.0890836999752,552.0890836999752,552.0890836999752,j,0.2338152999873273,552.3559217999864,552.3559217999864,552.3559217999864,552.3559217999864,552.3559217999864,552.3559217999864,552.6546030999743,552.6546030999743,554.6492239999934,554.6492239999934,554.6492239999934,554.6492239999934,554.6492239999934,554.6492239999934,554.6492239999934,554.6492239999934,554.6492239999934,554.6492239999934,554.6492239999934,554.6492239999934,554.6492239999934,554.6492239999934,554.6492239999934,554.6492239999934,554.6492239999934,557.1582683999732,557.1582683999732,557.1582683999732,557.1582683999732,557.1582683999732,52,47,55,84,84,74,6.0,1.7779033999831881,,,[],[],[],[],[],[],[],-0.2,2,,[],[],[],[],[],[],[],None,None,558.9595980999875,560.5328553999716,,,,,,,,,,,,,,,,,,,,,,,,,,,,244,f,22,2023-03-22_11h23.55.784,RL,2022.2.4,60.180601981568316,
0,0.3,0.225,0,39,39,39,,,,,,,,,,None,560.5328553999716,560.5328553999716,560.5328553999716,560.5328553999716,560.5328553999716,560.5328553999716,j,0.3789800000085961,560.9337566999893,560.9337566999893,560.9337566999893,560.9337566999893,560.9337566999893,560.9337566999893,561.231264299975,561.231264299975,562.9930287999741,562.9930287999741,562.9930287999741,562.9930287999741,562.9930287999741,562.9930287999741,562.9930287999741,562.9930287999741,562.9930287999741,562.9930287999741,562.9930287999741,562.9930287999741,562.9930287999741,562.9930287999741,562.9930287999741,562.9930287999741,562.9930287999741,565.5020826999971,565.5020826999971,565.5020826999971,565.5020826999971,565.5020826999971,57,50,54,87,87,83,7.0,4.221391499973834,,,[],[],[],[],[],[],[],0.2,3,,[],[],[],[],[],[],[],None,None,569.7495826999948,571.5857914999942,,,,,,,,,,,,,,,,,,,,,,,,,,,,244,f,22,2023-03-22_11h23.55.784,RL,2022.2.4,60.180601981568316,
1,-0.3,-0.225,0,40,40,40,,,,,,,,,,None,571.5857914999942,571.5857914999942,571.5857914999942,571.5857914999942,571.5857914999942,571.5857914999942,r,0.2725649999920279,571.8875575999846,571.8875575999846,571.8875575999846,571.8875575999846,571.8875575999846,571.8875575999846,572.1846728999808,572.1846728999808,574.0295113999746,574.0295113999746,574.0295113999746,574.0295113999746,574.0295113999746,574.0295113999746,574.0295113999746,574.0295113999746,574.0295113999746,574.0295113999746,574.0295113999746,574.0295113999746,574.0295113999746,574.0295113999746,574.0295113999746,574.0295113999746,574.0295113999746,,,,,,69,45,50,69,69,83,None,None,80,80,[0.027777777777777776],[-0.2759259259259259],[1],[0],[0],[4.595357299986063],['tijiao'],-0.2,0,,[],[],[],[],[],[],[],9.99074074074074,2.4618344000191428,583.6354188999976,585.3318555000005,576.5396114999894,576.5396114999894,576.5396114999894,576.5396114999894,576.5396114999894,576.5396114999894,576.5396114999894,576.5396114999894,0.005509800015715882,576.5396114999894,581.1550641999929,581.1550641999929,581.1550641999929,581.1550641999929,,,,,,,,,,,,,,244,f,22,2023-03-22_11h23.55.784,RL,2022.2.4,60.180601981568316,
0,0.3,0.225,0,41,41,41,,,,,,,,,,None,585.3318555000005,585.3318555000005,585.3318555000005,585.3318555000005,585.3318555000005,585.3318555000005,j,0.24170880002202466,585.6011692999746,585.6011692999746,585.6011692999746,585.6011692999746,585.6011692999746,585.6011692999746,585.8973652999848,585.8973652999848,587.14379989999,587.14379989999,587.1600696999812,587.1600696999812,587.1600696999812,587.1600696999812,587.1600696999812,587.1600696999812,587.1600696999812,587.1600696999812,587.1600696999812,587.1600696999812,587.1600696999812,587.1600696999812,587.1600696999812,587.1600696999812,587.1600696999812,589.6696306999947,589.6696306999947,589.6696306999947,589.6696306999947,589.6696306999947,56,48,51,71,71,83,5.0,2.2099995000171475,,,[],[],[],[],[],[],[],0.6,3,,[],[],[],[],[],[],[],None,None,591.9063044999784,593.6258146999753,,,,,,,,,,,,,,,,,,,,,,,,,,,,244,f,22,2023-03-22_11h23.55.784,RL,2022.2.4,60.180601981568316,
1,-0.3,-0.225,0,42,42,42,,,,,,,,,,None,593.6258146999753,593.6258146999753,593.6258146999753,593.6258146999753,593.6258146999753,593.6258146999753,j,0.2810153999889735,593.9253750999924,593.9253750999924,593.9253750999924,593.9253750999924,593.9253750999924,593.9253750999924,594.2243394999823,594.2243394999823,595.9697454999841,595.9697454999841,595.9697454999841,595.9697454999841,595.9697454999841,595.9697454999841,595.9697454999841,595.9697454999841,595.9697454999841,595.9697454999841,595.9697454999841,595.9697454999841,595.9697454999841,595.9697454999841,595.9697454999841,595.9697454999841,595.9697454999841,,,,,,56,52,42,60,60,76,None,None,,,[],[],[],[],[],[],[],-0.2,1,55,[0.11666666666666667],[-0.2740740740740741],[1],[0],[0],[4.88405920000514],['tijiao_random_2'],8.0,2.054728299990529,605.4594666999765,607.3051465999743,,,,,,,,,,,603.3854661999794,603.3854661999794,603.3854661999794,603.3854661999794,598.4889605999924,598.4889605999924,598.4889605999924,598.4889605999924,598.4889605999924,598.4889605999924,598.4889605999924,598.4889605999924,0.0061926000053063035,598.4889605999924,,,,244,f,22,2023-03-22_11h23.55.784,RL,2022.2.4,60.180601981568316,
0,0.3,0.225,0,43,43,43,,,,,,,,,,None,607.3051465999743,607.3051465999743,607.3051465999743,607.3051465999743,607.3051465999743,607.3051465999743,j,0.23135459999321029,607.5554146999784,607.5554146999784,607.5554146999784,607.5554146999784,607.5554146999784,607.5554146999784,607.8537201999861,607.8537201999861,609.5658910999773,609.5658910999773,609.5826774999732,609.5826774999732,609.5826774999732,609.5826774999732,609.5826774999732,609.5826774999732,609.5826774999732,609.5826774999732,609.5826774999732,609.5826774999732,609.5826774999732,609.5826774999732,609.5826774999732,609.5826774999732,609.5826774999732,,,,,,61,43,46,69,69,81,None,None,,,[],[],[],[],[],[],[],-0.2,1,60,[0.09166666666666666],[-0.2972222222222222],[1],[0],[0],[6.333312700007809],['tijiao_random_2'],8.962962962962962,2.519500299997162,620.9838138999767,622.9626078999718,,,,,,,,,,,618.4459293999826,618.4459293999826,618.4459293999826,618.4459293999826,612.0995546999911,612.0995546999911,612.0995546999911,612.0995546999911,612.0995546999911,612.0995546999911,612.0995546999911,612.0995546999911,0.005827100016176701,612.0995546999911,,,,244,f,22,2023-03-22_11h23.55.784,RL,2022.2.4,60.180601981568316,
1,-0.3,-0.225,0,44,44,44,,,,,,,,,,None,622.9626078999718,622.9626078999718,622.9626078999718,622.9626078999718,622.9626078999718,622.9626078999718,f,0.25182540001696907,623.2453224999772,623.2453224999772,623.2453224999772,623.2453224999772,623.2453224999772,623.2453224999772,623.544587899989,623.544587899989,625.389296999987,625.389296999987,625.389296999987,625.389296999987,625.389296999987,625.389296999987,625.389296999987,625.389296999987,625.389296999987,625.389296999987,625.389296999987,625.389296999987,625.389296999987,625.389296999987,625.389296999987,625.389296999987,625.389296999987,,,,,,57,57,48,69,57,74,None,None,,,[],[],[],[],[],[],[],0.6,1,85,[0.1425925925925926],[-0.27870370370370373],[1],[0],[0],[5.150159699987853],['tijiao_random_2'],7.9907407407407405,1.9552961000008509,635.0451273999934,636.5753602999903,,,,,,,,,,,633.0715120999957,633.0715120999957,633.0715120999957,633.0715120999957,627.9090481999738,627.9090481999738,627.9090481999738,627.9090481999738,627.9090481999738,627.9090481999738,627.9090481999738,627.9090481999738,0.005750500014983118,627.9090481999738,,,,244,f,22,2023-03-22_11h23.55.784,RL,2022.2.4,60.180601981568316,
0,0.3,0.225,0,45,45,45,,,,,,,,,,None,636.5753602999903,636.5753602999903,636.5753602999903,636.5753602999903,636.5753602999903,636.5753602999903,j,0.23931639999500476,636.8419239999785,636.8419239999785,636.8419239999785,636.8419239999785,636.8419239999785,636.8419239999785,637.1407589999726,637.1407589999726,638.2206906999927,638.2206906999927,638.2206906999927,638.2206906999927,638.2206906999927,638.2206906999927,638.2206906999927,638.2206906999927,638.2206906999927,638.2206906999927,638.2206906999927,638.2206906999927,638.2206906999927,638.2206906999927,638.2206906999927,638.2206906999927,638.2206906999927,,,,,,59,45,49,56,56,74,None,None,60,60,[0.12962962962962962],[-0.2824074074074074],[1],[0],[0],[4.429783500003396],['tijiao'],-0.6,0,,[],[],[],[],[],[],[],7.9907407407407405,1.9626102999900468,647.1623175999848,648.9582240999734,640.7313838999835,640.7313838999835,640.7313838999835,640.7313838999835,640.7313838999835,640.7313838999835,640.7313838999835,640.7313838999835,0.004812900006072596,640.7313838999835,645.1805196999921,645.1805196999921,645.1805196999921,645.1805196999921,,,,,,,,,,,,,,244,f,22,2023-03-22_11h23.55.784,RL,2022.2.4,60.180601981568316,
1,-0.3,-0.225,0,46,46,46,,,,,,,,,,None,648.9582240999734,648.9582240999734,648.9582240999734,648.9582240999734,648.9582240999734,648.9582240999734,j,0.24731350000365637,649.2246900999744,649.2246900999744,649.2246900999744,649.2246900999744,649.2246900999744,649.2246900999744,649.5236936000001,649.5236936000001,651.0692184999934,651.0692184999934,651.0692184999934,651.0692184999934,651.0692184999934,651.0692184999934,651.0692184999934,651.0692184999934,651.0692184999934,651.0692184999934,651.0692184999934,651.0692184999934,651.0692184999934,651.0692184999934,651.0692184999934,651.0692184999934,651.0692184999934,,,,,,53,46,43,65,65,38,None,None,,,[],[],[],[],[],[],[],0.6,1,85,[0.09351851851851851],[-0.27037037037037037],[1],[0],[0],[5.666608400002588],['tijiao_random_2'],8.953703703703704,2.0709463999955915,661.3567958999774,663.1861037999915,,,,,,,,,,,659.267473999993,659.267473999993,659.267473999993,659.267473999993,653.5873338999809,653.5873338999809,653.5873338999809,653.5873338999809,653.5873338999809,653.5873338999809,653.5873338999809,653.5873338999809,0.005422899994300678,653.5873338999809,,,,244,f,22,2023-03-22_11h23.55.784,RL,2022.2.4,60.180601981568316,
0,0.3,0.225,0,47,47,47,,,,,,,,,,None,663.1861037999915,663.1861037999915,663.1861037999915,663.1861037999915,663.1861037999915,663.1861037999915,j,0.23267240001587197,663.4360831999802,663.4360831999802,663.4360831999802,663.4360831999802,663.4360831999802,663.4360831999802,663.7349309999845,663.7349309999845,664.682226999983,664.682226999983,664.682226999983,664.682226999983,664.682226999983,664.682226999983,664.682226999983,664.682226999983,664.682226999983,664.682226999983,664.682226999983,664.682226999983,664.682226999983,664.682226999983,664.682226999983,664.682226999983,664.682226999983,,,,,,56,57,42,63,63,41,None,None,60,60,[0.11574074074074074],[-0.2851851851851852],[1],[0],[0],[4.842352600011509],['tijiao'],0.2,0,,[],[],[],[],[],[],[],8.935185185185185,2.593081200000597,674.6704069999978,676.3001004999969,667.1944701999892,667.1944701999892,667.1944701999892,667.1944701999892,667.1944701999892,667.1944701999892,667.1944701999892,667.1944701999892,0.007833799987565726,667.1944701999892,672.0586294999812,672.0586294999812,672.0586294999812,672.0586294999812,,,,,,,,,,,,,,244,f,22,2023-03-22_11h23.55.784,RL,2022.2.4,60.180601981568316,
1,-0.3,-0.225,0,48,48,48,,,,,,,,,,None,676.3001004999969,676.3001004999969,676.3001004999969,676.3001004999969,676.3001004999969,676.3001004999969,r,0.309141500008991,676.6333596999757,676.6333596999757,676.6333596999757,676.6333596999757,676.6333596999757,676.6333596999757,676.9318648999906,676.9318648999906,678.0125201999908,678.0125201999908,678.0125201999908,678.0125201999908,678.0125201999908,678.0125201999908,678.0125201999908,678.0125201999908,678.0125201999908,678.0125201999908,678.0125201999908,678.0125201999908,678.0125201999908,678.0125201999908,678.0125201999908,678.0125201999908,678.0125201999908,680.5217091999948,680.5217091999948,680.5217091999948,680.5217091999948,680.5217091999948,57,48,47,63,57,74,5.0,2.907988799997838,,,[],[],[],[],[],[],[],-0.6,3,,[],[],[],[],[],[],[],None,None,683.4546809999738,685.0597923999885,,,,,,,,,,,,,,,,,,,,,,,,,,,,244,f,22,2023-03-22_11h23.55.784,RL,2022.2.4,60.180601981568316,
0,0.3,0.225,0,49,49,49,,,,,,,,,,None,685.0597923999885,685.0597923999885,685.0597923999885,685.0597923999885,685.0597923999885,685.0597923999885,j,0.26356950000626966,685.3445849999844,685.3445849999844,685.3445849999844,685.3445849999844,685.3445849999844,685.3445849999844,685.6418196999875,685.6418196999875,687.1711697999854,687.1711697999854,687.1711697999854,687.1711697999854,687.1711697999854,687.1711697999854,687.1711697999854,687.1711697999854,687.1711697999854,687.1711697999854,687.1711697999854,687.1711697999854,687.1711697999854,687.1711697999854,687.1711697999854,687.1711697999854,687.1711697999854,689.6798368999735,689.6798368999735,689.6798368999735,689.6798368999735,689.6798368999735,54,51,49,62,62,67,5.0,1.8107223999977577,,,[],[],[],[],[],[],[],-0.2,2,,[],[],[],[],[],[],[],None,None,691.5153384000005,693.2707028999866,,,,,,,,,,,,,,,,,,,,,,,,,,,,244,f,22,2023-03-22_11h23.55.784,RL,2022.2.4,60.180601981568316,
1,-0.3,-0.225,0,50,50,50,,,,,,,,,,None,693.2707028999866,693.2707028999866,693.2707028999866,693.2707028999866,693.2707028999866,693.2707028999866,j,0.3494713999971282,693.6533582999837,693.6533582999837,693.6533582999837,693.6533582999837,693.6533582999837,693.6533582999837,693.9522826999892,693.9522826999892,695.9299426999933,695.9299426999933,695.9299426999933,695.9299426999933,695.9299426999933,695.9299426999933,695.9299426999933,695.9299426999933,695.9299426999933,695.9299426999933,695.9299426999933,695.9299426999933,695.9299426999933,695.9299426999933,695.9299426999933,695.9299426999933,695.9299426999933,698.4394061999919,698.4394061999919,698.4394061999919,698.4394061999919,698.4394061999919,51,51,46,66,66,76,5.0,2.9746203999966383,,,[],[],[],[],[],[],[],0.6,3,,[],[],[],[],[],[],[],None,None,701.4399113999971,703.2268922999792,,,,,,,,,,,,,,,,,,,,,,,,,,,,244,f,22,2023-03-22_11h23.55.784,RL,2022.2.4,60.180601981568316,
0,0.3,0.225,0,51,51,51,,,,,,,,,,None,703.2268922999792,703.2268922999792,703.2268922999792,703.2268922999792,703.2268922999792,703.2268922999792,j,0.3406348999997135,703.593184599973,703.593184599973,703.593184599973,703.593184599973,703.593184599973,703.593184599973,703.8917979999969,703.8917979999969,704.9223277999845,704.9223277999845,704.9223277999845,704.9223277999845,704.9223277999845,704.9223277999845,704.9223277999845,704.9223277999845,704.9223277999845,704.9223277999845,704.9223277999845,704.9223277999845,704.9223277999845,704.9223277999845,704.9223277999845,704.9223277999845,704.9223277999845,707.4315970999887,707.4315970999887,707.4315970999887,707.4315970999887,707.4315970999887,48,52,50,61,61,76,4.0,2.0101207999978215,,,[],[],[],[],[],[],[],-0.2,2,,[],[],[],[],[],[],[],None,None,709.4655361999758,711.2880512999836,,,,,,,,,,,,,,,,,,,,,,,,,,,,244,f,22,2023-03-22_11h23.55.784,RL,2022.2.4,60.180601981568316,
1,-0.3,-0.225,0,52,52,52,,,,,,,,,,None,711.2880512999836,711.2880512999836,711.2880512999836,711.2880512999836,711.2880512999836,711.2880512999836,j,0.33799279999220744,711.6541746999719,711.6541746999719,711.6541746999719,711.6541746999719,711.6541746999719,711.6541746999719,711.9532925999956,711.9532925999956,713.1332183999766,713.1332183999766,713.1332183999766,713.1332183999766,713.1332183999766,713.1332183999766,713.1332183999766,713.1332183999766,713.1332183999766,713.1332183999766,713.1332183999766,713.1332183999766,713.1332183999766,713.1332183999766,713.1332183999766,713.1332183999766,713.1332183999766,,,,,,45,50,49,67,67,72,None,None,65,65,[0.046296296296296294],[-0.29907407407407405],[1],[0],[0],[6.4381672000163235],['tijiao'],-0.2,0,,[],[],[],[],[],[],[],7.018518518518519,3.0776536999910604,725.1991215999878,726.7790128999914,715.6444935999752,715.6444935999752,715.6444935999752,715.6444935999752,715.6444935999752,715.6444935999752,715.6444935999752,715.6444935999752,0.007206399983260781,715.6444935999752,722.1029027999903,722.1029027999903,722.1029027999903,722.1029027999903,,,,,,,,,,,,,,244,f,22,2023-03-22_11h23.55.784,RL,2022.2.4,60.180601981568316,
0,0.3,0.225,0,53,53,53,,,,,,,,,,None,726.7790128999914,726.7790128999914,726.7790128999914,726.7790128999914,726.7790128999914,726.7790128999914,j,0.2702898000134155,727.0804561999976,727.0804561999976,727.0804561999976,727.0804561999976,727.0804561999976,727.0804561999976,727.3776127999881,727.3776127999881,728.5080256999936,728.5080256999936,728.5080256999936,728.5080256999936,728.5080256999936,728.5080256999936,728.5080256999936,728.5080256999936,728.5080256999936,728.5080256999936,728.5080256999936,728.5080256999936,728.5080256999936,728.5080256999936,728.5080256999936,728.5080256999936,728.5080256999936,731.0172858999867,731.0172858999867,731.0172858999867,731.0172858999867,731.0172858999867,56,51,50,63,63,73,5.0,2.559009699994931,,,[],[],[],[],[],[],[],-0.2,3,,[],[],[],[],[],[],[],None,None,733.600501399982,735.3393979999819,,,,,,,,,,,,,,,,,,,,,,,,,,,,244,f,22,2023-03-22_11h23.55.784,RL,2022.2.4,60.180601981568316,
1,-0.3,-0.225,0,54,54,54,,,,,,,,,,None,735.3393979999819,735.3393979999819,735.3393979999819,735.3393979999819,735.3393979999819,735.3393979999819,j,0.26337500000954606,735.6223391999956,735.6223391999956,735.6223391999956,735.6223391999956,735.6223391999956,735.6223391999956,735.9212503999879,735.9212503999879,737.4001153999998,737.4001153999998,737.4001153999998,737.4001153999998,737.4001153999998,737.4001153999998,737.4001153999998,737.4001153999998,737.4001153999998,737.4001153999998,737.4001153999998,737.4001153999998,737.4001153999998,737.4001153999998,737.4001153999998,737.4001153999998,737.4001153999998,739.9095558999979,739.9095558999979,739.9095558999979,739.9095558999979,739.9095558999979,53,53,49,65,65,41,5.0,2.5092440999869723,,,[],[],[],[],[],[],[],0.6,3,,[],[],[],[],[],[],[],None,None,742.4440513999725,744.2648381999752,,,,,,,,,,,,,,,,,,,,,,,,,,,,244,f,22,2023-03-22_11h23.55.784,RL,2022.2.4,60.180601981568316,
0,0.3,0.225,0,55,55,55,,,,,,,,,,None,744.2648381999752,744.2648381999752,744.2648381999752,744.2648381999752,744.2648381999752,744.2648381999752,j,0.3117513000033796,744.598024899984,744.598024899984,744.598024899984,744.598024899984,744.598024899984,744.598024899984,744.8968322000001,744.8968322000001,746.2261142999923,746.2261142999923,746.2261142999923,746.2261142999923,746.2261142999923,746.2261142999923,746.2261142999923,746.2261142999923,746.2261142999923,746.2261142999923,746.2261142999923,746.2261142999923,746.2261142999923,746.2261142999923,746.2261142999923,746.2261142999923,746.2261142999923,,,,,,51,55,58,69,69,37,None,None,65,65,[0.05648148148148148],[-0.2814814814814815],[1],[0],[0],[5.409805000002962],['tijiao'],0.6,0,,[],[],[],[],[],[],[],8.962962962962962,2.260362200002419,756.4472561999864,758.3764353999868,748.7365967999795,748.7365967999795,748.7365967999795,748.7365967999795,748.7365967999795,748.7365967999795,748.7365967999795,748.7365967999795,0.0054515000083483756,748.7365967999795,754.1679841999721,754.1679841999721,754.1679841999721,754.1679841999721,,,,,,,,,,,,,,244,f,22,2023-03-22_11h23.55.784,RL,2022.2.4,60.180601981568316,
1,-0.3,-0.225,0,56,56,56,,,,,,,,,,None,758.3764353999868,758.3764353999868,758.3764353999868,758.3764353999868,758.3764353999868,758.3764353999868,j,0.24825580001925118,758.6428438999865,758.6428438999865,758.6428438999865,758.6428438999865,758.6428438999865,758.6428438999865,758.9414218999736,758.9414218999736,760.7697033999721,760.7697033999721,760.7697033999721,760.7697033999721,760.7697033999721,760.7697033999721,760.7697033999721,760.7697033999721,760.7697033999721,760.7697033999721,760.7697033999721,760.7697033999721,760.7697033999721,760.7697033999721,760.7697033999721,760.7697033999721,760.7697033999721,763.2792162999976,763.2792162999976,763.2792162999976,763.2792162999976,763.2792162999976,50,49,56,68,68,68,6.0,2.725171099998988,,,[],[],[],[],[],[],[],0.6,3,,[],[],[],[],[],[],[],None,None,766.0277556999936,767.6345165999955,,,,,,,,,,,,,,,,,,,,,,,,,,,,244,f,22,2023-03-22_11h23.55.784,RL,2022.2.4,60.180601981568316,
0,0.3,0.225,0,57,57,57,,,,,,,,,,None,767.6345165999955,767.6345165999955,767.6345165999955,767.6345165999955,767.6345165999955,767.6345165999955,j,0.38268320000497624,768.0501804999949,768.0501804999949,768.0501804999949,768.0501804999949,768.0501804999949,768.0501804999949,768.3490314999945,768.3490314999945,769.5459704999812,769.5459704999812,769.5459704999812,769.5459704999812,769.5459704999812,769.5459704999812,769.5459704999812,769.5459704999812,769.5459704999812,769.5459704999812,769.5459704999812,769.5459704999812,769.5459704999812,769.5459704999812,769.5459704999812,769.5459704999812,769.5459704999812,,,,,,48,49,48,67,67,68,None,None,66,66,[0.12314814814814815],[-0.28425925925925927],[1],[0],[0],[6.540221099974588],['tijiao'],0.2,0,,[],[],[],[],[],[],[],8.981481481481481,2.9599652999895625,781.5953418999852,783.3083383999765,772.0561456999858,772.0561456999858,772.0561456999858,772.0561456999858,772.0561456999858,772.0561456999858,772.0561456999858,772.0561456999858,0.0051071000052616,772.0561456999858,778.6169185999897,778.6169185999897,778.6169185999897,778.6169185999897,,,,,,,,,,,,,,244,f,22,2023-03-22_11h23.55.784,RL,2022.2.4,60.180601981568316,
1,-0.3,-0.225,0,58,58,58,,,,,,,,,,None,783.3083383999765,783.3083383999765,783.3083383999765,783.3083383999765,783.3083383999765,783.3083383999765,j,0.27196689997799695,783.6101583999989,783.6101583999989,783.6101583999989,783.6101583999989,783.6101583999989,783.6101583999989,783.9070688999782,783.9070688999782,785.6021321999724,785.6021321999724,785.6021321999724,785.6021321999724,785.6021321999724,785.6021321999724,785.6021321999724,785.6021321999724,785.6021321999724,785.6021321999724,785.6021321999724,785.6021321999724,785.6021321999724,785.6021321999724,785.6021321999724,785.6021321999724,785.6021321999724,,,,,,52,52,43,64,64,68,None,None,,,[],[],[],[],[],[],[],-0.2,1,55,[0.05462962962962963],[-0.2962962962962963],[1],[0],[0],[4.271801399998367],['tijiao_random_2'],9.925925925925926,1.9709126999950968,794.3938217999821,796.0399939999916,,,,,,,,,,,792.4039185000001,792.4039185000001,792.4039185000001,792.4039185000001,788.1195656999771,788.1195656999771,788.1195656999771,788.1195656999771,788.1195656999771,788.1195656999771,788.1195656999771,788.1195656999771,0.005395600019255653,788.1195656999771,,,,244,f,22,2023-03-22_11h23.55.784,RL,2022.2.4,60.180601981568316,
0,0.3,0.225,0,59,59,59,,,,,,,,,,None,796.0399939999916,796.0399939999916,796.0399939999916,796.0399939999916,796.0399939999916,796.0399939999916,j,0.3401037000003271,796.4062954999972,796.4062954999972,796.4062954999972,796.4062954999972,796.4062954999972,796.4062954999972,796.7054163999856,796.7054163999856,798.6828420999809,798.6828420999809,798.6828420999809,798.6828420999809,798.6828420999809,798.6828420999809,798.6828420999809,798.6828420999809,798.6828420999809,798.6828420999809,798.6828420999809,798.6828420999809,798.6828420999809,798.6828420999809,798.6828420999809,798.6828420999809,798.6828420999809,,,,,,50,56,56,63,63,43,None,None,,,[],[],[],[],[],[],[],-0.6,1,30,[0.06388888888888888],[-0.2935185185185185],[1],[0],[0],[4.537680499983253],['tijiao_random_2'],10.00925925925926,1.671357099985471,807.4415711999754,809.2208112999797,,,,,,,,,,,805.7516436000005,805.7516436000005,805.7516436000005,805.7516436000005,801.2005013999878,801.2005013999878,801.2005013999878,801.2005013999878,801.2005013999878,801.2005013999878,801.2005013999878,801.2005013999878,0.005476699996506795,801.2005013999878,,,,244,f,22,2023-03-22_11h23.55.784,RL,2022.2.4,60.180601981568316,
1,-0.3,-0.225,0,60,60,60,,,,,,,,,,None,809.2208112999797,809.2208112999797,809.2208112999797,809.2208112999797,809.2208112999797,809.2208112999797,j,0.2496468999888748,809.5038118999801,809.5038118999801,809.5038118999801,809.5038118999801,809.5038118999801,809.5038118999801,809.8030711999745,809.8030711999745,810.8334185999993,810.8334185999993,810.8334185999993,810.8334185999993,810.8334185999993,810.8334185999993,810.8334185999993,810.8334185999993,810.8334185999993,810.8334185999993,810.8334185999993,810.8334185999993,810.8334185999993,810.8334185999993,810.8334185999993,810.8334185999993,810.8334185999993,,,,,,41,58,57,66,66,68,None,None,,,[],[],[],[],[],[],[],0.2,1,40,[0.1287037037037037],[-0.2851851851851852],[1],[0],[0],[6.547886299988022],['tijiao_random_2'],8.00925925925926,1.373329800000647,821.3040047999821,822.9998762999894,,,,,,,,,,,819.91182139999,819.91182139999,819.91182139999,819.91182139999,813.3518243999861,813.3518243999861,813.3518243999861,813.3518243999861,813.3518243999861,813.3518243999861,813.3518243999861,813.3518243999861,0.005568900000071153,813.3518243999861,,,,244,f,22,2023-03-22_11h23.55.784,RL,2022.2.4,60.180601981568316,
0,0.3,0.225,0,61,61,61,,,,,,,,,,None,822.9998762999894,822.9998762999894,822.9998762999894,822.9998762999894,822.9998762999894,822.9998762999894,j,0.33983479999005795,823.3660444999987,823.3660444999987,823.3660444999987,823.3660444999987,823.3660444999987,823.3660444999987,823.6649179999949,823.6649179999949,825.5764719999861,825.5764719999861,825.5764719999861,825.5764719999861,825.5764719999861,825.5764719999861,825.5764719999861,825.5764719999861,825.5764719999861,825.5764719999861,825.5764719999861,825.5764719999861,825.5764719999861,825.5764719999861,825.5764719999861,825.5764719999861,825.5764719999861,,,,,,44,66,48,58,58,31,None,None,,,[],[],[],[],[],[],[],-0.6,1,30,[-0.011111111111111112],[-0.29444444444444445],[1],[0],[0],[4.502268200012622],['tijiao_random_2'],8.018518518518519,1.7372031999984756,834.3678090999892,836.2636567999725,,,,,,,,,,,832.6124397999956,832.6124397999956,832.6124397999956,832.6124397999956,828.0957178999961,828.0957178999961,828.0957178999961,828.0957178999961,828.0957178999961,828.0957178999961,828.0957178999961,828.0957178999961,0.005496099998708814,828.0957178999961,,,,244,f,22,2023-03-22_11h23.55.784,RL,2022.2.4,60.180601981568316,
1,-0.3,-0.225,0,62,62,62,,,,,,,,,,None,836.2636567999725,836.2636567999725,836.2636567999725,836.2636567999725,836.2636567999725,836.2636567999725,j,0.28051979999872856,836.5636631999805,836.5636631999805,836.5636631999805,836.5636631999805,836.5636631999805,836.5636631999805,836.8623137999966,836.8623137999966,838.4747347999946,838.4747347999946,838.4747347999946,838.4747347999946,838.4747347999946,838.4747347999946,838.4747347999946,838.4747347999946,838.4747347999946,838.4747347999946,838.4747347999946,838.4747347999946,838.4747347999946,838.4747347999946,838.4747347999946,838.4747347999946,838.4747347999946,,,,,,48,62,45,63,63,69,None,None,70,70,[0.10648148148148148],[-0.3111111111111111],[1],[0],[0],[5.7917817999841645],['tijiao'],0.2,0,,[],[],[],[],[],[],[],8.99074074074074,1.649812900024699,848.4626891999796,850.4250854999991,840.9847132999857,840.9847132999857,840.9847132999857,840.9847132999857,840.9847132999857,840.9847132999857,840.9847132999857,840.9847132999857,0.00519600001280196,840.9847132999857,846.7942941999936,846.7942941999936,846.7942941999936,846.7942941999936,,,,,,,,,,,,,,244,f,22,2023-03-22_11h23.55.784,RL,2022.2.4,60.180601981568316,
0,0.3,0.225,0,63,63,63,,,,,,,,,,None,850.4250854999991,850.4250854999991,850.4250854999991,850.4250854999991,850.4250854999991,850.4250854999991,j,0.26798890001373366,850.7247309999948,850.7247309999948,850.7247309999948,850.7247309999948,850.7247309999948,850.7247309999948,851.0234733999823,851.0234733999823,852.0539508999791,852.0539508999791,852.0539508999791,852.0539508999791,852.0539508999791,852.0539508999791,852.0539508999791,852.0539508999791,852.0539508999791,852.0539508999791,852.0539508999791,852.0539508999791,852.0539508999791,852.0539508999791,852.0539508999791,852.0539508999791,852.0539508999791,,,,,,42,62,43,55,55,71,None,None,70,70,[0.12314814814814815],[-0.29814814814814816],[1],[0],[0],[3.6316950999898836],['tijiao'],0.6,0,,[],[],[],[],[],[],[],6.916666666666667,1.1995072000136133,859.4330410999828,861.4284082999802,854.5645886999846,854.5645886999846,854.5645886999846,854.5645886999846,854.5645886999846,854.5645886999846,854.5645886999846,854.5645886999846,0.005115300009492785,854.5645886999846,858.2145533999719,858.2145533999719,858.2145533999719,858.2145533999719,,,,,,,,,,,,,,244,f,22,2023-03-22_11h23.55.784,RL,2022.2.4,60.180601981568316,
1,-0.3,-0.225,0,64,64,64,,,,,,,,,,None,861.4284082999802,861.4284082999802,861.4284082999802,861.4284082999802,861.4284082999802,861.4284082999802,j,0.2469977000146173,861.6950669999933,861.6950669999933,861.6950669999933,861.6950669999933,861.6950669999933,861.6950669999933,861.9936887999938,861.9936887999938,863.5396304999886,863.5396304999886,863.5396304999886,863.5396304999886,863.5396304999886,863.5396304999886,863.5396304999886,863.5396304999886,863.5396304999886,863.5396304999886,863.5396304999886,863.5396304999886,863.5396304999886,863.5396304999886,863.5396304999886,863.5396304999886,863.5396304999886,866.048792799993,866.048792799993,866.048792799993,866.048792799993,866.048792799993,52,64,47,68,68,49,6.0,2.2428494000050705,,,[],[],[],[],[],[],[],-0.2,2,,[],[],[],[],[],[],[],None,None,868.3174119999749,870.1713191999879,,,,,,,,,,,,,,,,,,,,,,,,,,,,244,f,22,2023-03-22_11h23.55.784,RL,2022.2.4,60.180601981568316,
0,0.3,0.225,0,65,65,65,,,,,,,,,,None,870.1713191999879,870.1713191999879,870.1713191999879,870.1713191999879,870.1713191999879,870.1713191999879,j,0.3316621000121813,870.5210138999973,870.5210138999973,870.5210138999973,870.5210138999973,870.5210138999973,870.5210138999973,870.8193600999948,870.8193600999948,871.949891599972,871.949891599972,871.949891599972,871.949891599972,871.949891599972,871.949891599972,871.949891599972,871.949891599972,871.949891599972,871.949891599972,871.949891599972,871.949891599972,871.949891599972,871.949891599972,871.949891599972,871.949891599972,871.949891599972,874.4590652999759,874.4590652999759,874.4590652999759,874.4590652999759,874.4590652999759,42,52,49,60,60,49,6.0,1.9434829000092577,,,[],[],[],[],[],[],[],0.2,2,,[],[],[],[],[],[],[],None,None,876.429765399982,878.2490747999982,,,,,,,,,,,,,,,,,,,,,,,,,,,,244,f,22,2023-03-22_11h23.55.784,RL,2022.2.4,60.180601981568316,
1,-0.3,-0.225,0,66,66,66,,,,,,,,,,None,878.2490747999982,878.2490747999982,878.2490747999982,878.2490747999982,878.2490747999982,878.2490747999982,j,0.2680141000018921,878.5489233999979,878.5489233999979,878.5489233999979,878.5489233999979,878.5489233999979,878.5489233999979,878.8477197999891,878.8477197999891,880.2603852999746,880.2603852999746,880.2603852999746,880.2603852999746,880.2603852999746,880.2603852999746,880.2603852999746,880.2603852999746,880.2603852999746,880.2603852999746,880.2603852999746,880.2603852999746,880.2603852999746,880.2603852999746,880.2603852999746,880.2603852999746,880.2603852999746,882.7694140999811,882.7694140999811,882.7694140999811,882.7694140999811,882.7694140999811,41,56,59,49,49,60,5.0,2.508954899996752,,,[],[],[],[],[],[],[],0.6,3,,[],[],[],[],[],[],[],None,None,885.3044007999997,887.1084197999735,,,,,,,,,,,,,,,,,,,,,,,,,,,,244,f,22,2023-03-22_11h23.55.784,RL,2022.2.4,60.180601981568316,
0,0.3,0.225,0,67,67,67,,,,,,,,,,None,887.1084197999735,887.1084197999735,887.1084197999735,887.1084197999735,887.1084197999735,887.1084197999735,j,0.3770673999970313,887.5077559999772,887.5077559999772,887.5077559999772,887.5077559999772,887.5077559999772,887.5077559999772,887.8067430999945,887.8067430999945,889.0198309999832,889.0198309999832,889.0198309999832,889.0198309999832,889.0198309999832,889.0198309999832,889.0198309999832,889.0198309999832,889.0198309999832,889.0198309999832,889.0198309999832,889.0198309999832,889.0198309999832,889.0198309999832,889.0198309999832,889.0198309999832,889.0198309999832,891.5290236999863,891.5290236999863,891.5290236999863,891.5290236999863,891.5290236999863,51,57,56,50,50,62,5.0,2.3762061999877915,,,[],[],[],[],[],[],[],-0.6,3,,[],[],[],[],[],[],[],None,None,893.9288049999741,895.4688960999774,,,,,,,,,,,,,,,,,,,,,,,,,,,,244,f,22,2023-03-22_11h23.55.784,RL,2022.2.4,60.180601981568316,
1,-0.3,-0.225,0,68,68,68,,,,,,,,,,None,895.4688960999774,895.4688960999774,895.4688960999774,895.4688960999774,895.4688960999774,895.4688960999774,i,0.3091297999781091,895.8020808000001,895.8020808000001,895.8020808000001,895.8020808000001,895.8020808000001,895.8020808000001,896.1008001999871,896.1008001999871,897.1811808999919,897.1811808999919,897.1811808999919,897.1811808999919,897.1811808999919,897.1811808999919,897.1811808999919,897.1811808999919,897.1811808999919,897.1811808999919,897.1811808999919,897.1811808999919,897.1811808999919,897.1811808999919,897.1811808999919,897.1811808999919,897.1811808999919,899.6900470999826,899.6900470999826,899.6900470999826,899.6900470999826,899.6900470999826,47,51,52,42,52,62,5.0,1.7605580000090413,,,[],[],[],[],[],[],[],-0.6,3,,[],[],[],[],[],[],[],None,None,901.4757501999848,903.2474280999741,,,,,,,,,,,,,,,,,,,,,,,,,,,,244,f,22,2023-03-22_11h23.55.784,RL,2022.2.4,60.180601981568316,
0,0.3,0.225,0,69,69,69,,,,,,,,,,None,903.2474280999741,903.2474280999741,903.2474280999741,903.2474280999741,903.2474280999741,903.2474280999741,r,0.37538929999573156,903.6473311999871,903.6473311999871,903.6473311999871,903.6473311999871,903.6473311999871,903.6473311999871,903.9459862999793,903.9459862999793,905.4086227999942,905.4086227999942,905.4086227999942,905.4086227999942,905.4086227999942,905.4086227999942,905.4086227999942,905.4086227999942,905.4086227999942,905.4086227999942,905.4086227999942,905.4086227999942,905.4086227999942,905.4086227999942,905.4086227999942,905.4086227999942,905.4086227999942,907.9177809999965,907.9177809999965,907.9177809999965,907.9177809999965,907.9177809999965,45,48,53,40,45,59,5.0,1.4619684000208508,,,[],[],[],[],[],[],[],0.6,2,,[],[],[],[],[],[],[],None,None,909.4046777999902,911.1427506999753,,,,,,,,,,,,,,,,,,,,,,,,,,,,244,f,22,2023-03-22_11h23.55.784,RL,2022.2.4,60.180601981568316,
1,-0.3,-0.225,0,70,70,70,,,,,,,,,,None,911.1427506999753,911.1427506999753,911.1427506999753,911.1427506999753,911.1427506999753,911.1427506999753,f,0.3145352000137791,911.4758617999905,911.4758617999905,911.4758617999905,911.4758617999905,911.4758617999905,911.4758617999905,911.7747615999833,911.7747615999833,912.8383435999858,912.8383435999858,912.8383435999858,912.8383435999858,912.8383435999858,912.8383435999858,912.8383435999858,912.8383435999858,912.8383435999858,912.8383435999858,912.8383435999858,912.8383435999858,912.8383435999858,912.8383435999858,912.8383435999858,912.8383435999858,912.8383435999858,,,,,,52,46,52,38,46,38,None,None,,,[],[],[],[],[],[],[],0.2,1,50,[0.08148148148148149],[-0.2740740740740741],[1],[0],[0],[6.749266400001943],['tijiao_random_2'],7.972222222222221,1.688205200014636,923.823916399997,925.536752999993,,,,,,,,,,,922.117477199994,922.117477199994,922.117477199994,922.117477199994,915.3550333999738,915.3550333999738,915.3550333999738,915.3550333999738,915.3550333999738,915.3550333999738,915.3550333999738,915.3550333999738,0.005402400012826547,915.3550333999738,,,,244,f,22,2023-03-22_11h23.55.784,RL,2022.2.4,60.180601981568316,
0,0.3,0.225,0,71,71,71,,,,,,,,,,None,925.536752999993,925.536752999993,925.536752999993,925.536752999993,925.536752999993,925.536752999993,f,0.27368650000425987,925.8364964999782,925.8364964999782,925.8364964999782,925.8364964999782,925.8364964999782,925.8364964999782,926.1355621999828,926.1355621999828,927.1825136999832,927.1825136999832,927.1825136999832,927.1825136999832,927.1825136999832,927.1825136999832,927.1825136999832,927.1825136999832,927.1825136999832,927.1825136999832,927.1825136999832,927.1825136999832,927.1825136999832,927.1825136999832,927.1825136999832,927.1825136999832,927.1825136999832,929.6916504999972,929.6916504999972,929.6916504999972,929.6916504999972,929.6916504999972,45,45,53,40,45,59,4.0,2.3756783999851905,,,[],[],[],[],[],[],[],0.2,2,,[],[],[],[],[],[],[],None,None,932.0908872999717,934.046835599991,,,,,,,,,,,,,,,,,,,,,,,,,,,,244,f,22,2023-03-22_11h23.55.784,RL,2022.2.4,60.180601981568316,
1,-0.3,-0.225,0,72,72,72,,,,,,,,,,None,934.046835599991,934.046835599991,934.046835599991,934.046835599991,934.046835599991,934.046835599991,j,0.3114642000000458,934.3799613999727,934.3799613999727,934.3799613999727,934.3799613999727,934.3799613999727,934.3799613999727,934.6788704999781,934.6788704999781,936.6231031999923,936.6231031999923,936.6231031999923,936.6231031999923,936.6231031999923,936.6231031999923,936.6231031999923,936.6231031999923,936.6231031999923,936.6231031999923,936.6231031999923,936.6231031999923,936.6231031999923,936.6231031999923,936.6231031999923,936.6231031999923,936.6231031999923,939.1326744999969,939.1326744999969,939.1326744999969,939.1326744999969,939.1326744999969,46,54,41,44,44,50,3.0,2.725083799974527,,,[],[],[],[],[],[],[],-0.6,3,,[],[],[],[],[],[],[],None,None,941.881648599985,943.5874916999892,,,,,,,,,,,,,,,,,,,,,,,,,,,,244,f,22,2023-03-22_11h23.55.784,RL,2022.2.4,60.180601981568316,
0,0.3,0.225,0,73,73,73,,,,,,,,,,None,943.5874916999892,943.5874916999892,943.5874916999892,943.5874916999892,943.5874916999892,943.5874916999892,j,0.2972258999943733,943.9039547999855,943.9039547999855,943.9039547999855,943.9039547999855,943.9039547999855,943.9039547999855,944.2024428999866,944.2024428999866,945.017262999987,945.017262999987,945.017262999987,945.017262999987,945.017262999987,945.017262999987,945.017262999987,945.017262999987,945.017262999987,945.017262999987,945.017262999987,945.017262999987,945.017262999987,945.017262999987,945.017262999987,945.017262999987,945.017262999987,,,,,,47,48,48,41,41,62,None,None,40,40,[0.05462962962962963],[-0.2796296296296296],[1],[0],[0],[4.161714900023071],['tijiao'],0.2,0,,[],[],[],[],[],[],[],8.972222222222223,3.894102699996438,955.6202670999919,957.3334319999849,947.5273624999973,947.5273624999973,947.5273624999973,947.5273624999973,947.5273624999973,947.5273624999973,947.5273624999973,947.5273624999973,0.006222900003194809,947.5273624999973,951.7100101999822,951.7100101999822,951.7100101999822,951.7100101999822,,,,,,,,,,,,,,244,f,22,2023-03-22_11h23.55.784,RL,2022.2.4,60.180601981568316,
1,-0.3,-0.225,0,74,74,74,,,,,,,,,,None,957.3334319999849,957.3334319999849,957.3334319999849,957.3334319999849,957.3334319999849,957.3334319999849,j,0.24013049999484792,957.599650899996,957.599650899996,957.599650899996,957.599650899996,957.599650899996,957.599650899996,957.89873049999,957.89873049999,959.0621522000001,959.0621522000001,959.0621522000001,959.0621522000001,959.0621522000001,959.0621522000001,959.0621522000001,959.0621522000001,959.0621522000001,959.0621522000001,959.0621522000001,959.0621522000001,959.0621522000001,959.0621522000001,959.0621522000001,959.0621522000001,959.0621522000001,961.5712964999839,961.5712964999839,961.5712964999839,961.5712964999839,961.5712964999839,37,46,41,42,42,47,3.0,2.408842100005131,,,[],[],[],[],[],[],[],0.2,2,,[],[],[],[],[],[],[],None,None,964.0073735999758,965.5605197999976,,,,,,,,,,,,,,,,,,,,,,,,,,,,244,f,22,2023-03-22_11h23.55.784,RL,2022.2.4,60.180601981568316,
0,0.3,0.225,0,75,75,75,,,,,,,,,,q,1005.3204984999902,1005.3204984999902,1005.3204984999902,1005.3204984999902,1005.3204984999902,1005.3204984999902,j,0.8345463000005111,1006.1854175999761,1006.1854175999761,1006.1854175999761,1006.1854175999761,1006.1854175999761,1006.1854175999761,1006.4830609999772,1006.4830609999772,1007.7623953999719,1007.7623953999719,1007.7623953999719,1007.7623953999719,1007.7623953999719,1007.7623953999719,1007.7623953999719,1007.7623953999719,1007.7623953999719,1007.7623953999719,1007.7623953999719,1007.7623953999719,1007.7623953999719,1007.7623953999719,1007.7623953999719,1007.7623953999719,1007.7623953999719,1010.2714297999919,1010.2714297999919,1010.2714297999919,1010.2714297999919,1010.2714297999919,45,51,42,46,46,48,2.0,2.923778799973661,,,[],[],[],[],[],[],[],0.6,2,,[],[],[],[],[],[],[],None,None,1013.2195048999856,1015.1922014999727,,,,,,,,,,,,,,,,,,,,,,,,,965.5605197999976,965.5605197999976,39.73067370001809,244,f,22,2023-03-22_11h23.55.784,RL,2022.2.4,60.180601981568316,
1,-0.3,-0.225,0,76,76,76,,,,,,,,,,None,1015.1922014999727,1015.1922014999727,1015.1922014999727,1015.1922014999727,1015.1922014999727,1015.1922014999727,j,0.3001456999918446,1015.5251460999716,1015.5251460999716,1015.5251460999716,1015.5251460999716,1015.5251460999716,1015.5251460999716,1015.8236906999955,1015.8236906999955,1017.0202619999764,1017.0202619999764,1017.0202619999764,1017.0202619999764,1017.0202619999764,1017.0202619999764,1017.0202619999764,1017.0202619999764,1017.0202619999764,1017.0202619999764,1017.0202619999764,1017.0202619999764,1017.0202619999764,1017.0202619999764,1017.0202619999764,1017.0202619999764,1017.0202619999764,1019.529436199984,1019.529436199984,1019.529436199984,1019.529436199984,1019.529436199984,46,52,42,42,42,39,3.0,2.1600465000083204,,,[],[],[],[],[],[],[],0.6,3,,[],[],[],[],[],[],[],None,None,1021.7170530000003,1023.4695936999924,,,,,,,,,,,,,,,,,,,,,,,,,,,,244,f,22,2023-03-22_11h23.55.784,RL,2022.2.4,60.180601981568316,
0,0.3,0.225,0,77,77,77,,,,,,,,,,None,1023.4695936999924,1023.4695936999924,1023.4695936999924,1023.4695936999924,1023.4695936999924,1023.4695936999924,r,0.27161970001179725,1023.7717354999913,1023.7717354999913,1023.7717354999913,1023.7717354999913,1023.7717354999913,1023.7717354999913,1024.0683537999867,1024.0683537999867,1025.4473230000003,1025.4473230000003,1025.4473230000003,1025.4473230000003,1025.4473230000003,1025.4473230000003,1025.4473230000003,1025.4473230000003,1025.4473230000003,1025.4473230000003,1025.4473230000003,1025.4473230000003,1025.4473230000003,1025.4473230000003,1025.4473230000003,1025.4473230000003,1025.4473230000003,1027.9567849999876,1027.9567849999876,1027.9567849999876,1027.9567849999876,1027.9567849999876,50,49,44,42,50,56,3.0,1.5779189000022598,,,[],[],[],[],[],[],[],-0.6,3,,[],[],[],[],[],[],[],None,None,1029.5606175999856,1031.1814410999941,,,,,,,,,,,,,,,,,,,,,,,,,,,,244,f,22,2023-03-22_11h23.55.784,RL,2022.2.4,60.180601981568316,
1,-0.3,-0.225,0,78,78,78,,,,,,,,,,None,1031.1814410999941,1031.1814410999941,1031.1814410999941,1031.1814410999941,1031.1814410999941,1031.1814410999941,f,0.2642269999778364,1031.4660746999725,1031.4660746999725,1031.4660746999725,1031.4660746999725,1031.4660746999725,1031.4660746999725,1031.763825699978,1031.763825699978,1032.694725599984,1032.694725599984,1032.694725599984,1032.694725599984,1032.694725599984,1032.694725599984,1032.694725599984,1032.694725599984,1032.694725599984,1032.694725599984,1032.694725599984,1032.694725599984,1032.694725599984,1032.694725599984,1032.694725599984,1032.694725599984,1032.694725599984,,,,,,45,38,46,43,38,43,None,None,,,[],[],[],[],[],[],[],0.6,1,50,[0.01574074074074074],[-0.29907407407407405],[1],[0],[0],[6.680479399976321],['tijiao_random_2'],5.953703703703703,2.3024464000191074,1044.2285277999763,1045.8916111999715,,,,,,,,,,,1041.907826199982,1041.907826199982,1041.907826199982,1041.907826199982,1035.2133402999898,1035.2133402999898,1035.2133402999898,1035.2133402999898,1035.2133402999898,1035.2133402999898,1035.2133402999898,1035.2133402999898,0.005266499996650964,1035.2133402999898,,,,244,f,22,2023-03-22_11h23.55.784,RL,2022.2.4,60.180601981568316,
0,0.3,0.225,0,79,79,79,,,,,,,,,,None,1045.8916111999715,1045.8916111999715,1045.8916111999715,1045.8916111999715,1045.8916111999715,1045.8916111999715,f,0.26705179997952655,1046.191261,1046.191261,1046.191261,1046.191261,1046.191261,1046.191261,1046.4902745999862,1046.4902745999862,1048.435082699987,1048.435082699987,1048.435082699987,1048.435082699987,1048.435082699987,1048.435082699987,1048.435082699987,1048.435082699987,1048.435082699987,1048.435082699987,1048.435082699987,1048.435082699987,1048.435082699987,1048.435082699987,1048.435082699987,1048.435082699987,1048.435082699987,,,,,,51,40,48,36,40,58,None,None,55,55,[0.058333333333333334],[-0.3055555555555556],[1],[0],[0],[5.874089599994477],['tijiao'],0.2,0,,[],[],[],[],[],[],[],6.981481481481481,1.8973841999832075,1058.7555830999918,1060.418751099991,1050.9456283999898,1050.9456283999898,1050.9456283999898,1050.9456283999898,1050.9456283999898,1050.9456283999898,1050.9456283999898,1050.9456283999898,0.007064200006425381,1050.9456283999898,1056.8395091999846,1056.8395091999846,1056.8395091999846,1056.8395091999846,,,,,,,,,,,,,,244,f,22,2023-03-22_11h23.55.784,RL,2022.2.4,60.180601981568316,
1,-0.3,-0.225,0,80,80,80,,,,,,,,,,None,1060.418751099991,1060.418751099991,1060.418751099991,1060.418751099991,1060.418751099991,1060.418751099991,i,0.2833859999955166,1060.7350558999751,1060.7350558999751,1060.7350558999751,1060.7350558999751,1060.7350558999751,1060.7350558999751,1061.0339845999843,1061.0339845999843,1062.0145681999857,1062.0145681999857,1062.0145681999857,1062.0145681999857,1062.0145681999857,1062.0145681999857,1062.0145681999857,1062.0145681999857,1062.0145681999857,1062.0145681999857,1062.0145681999857,1062.0145681999857,1062.0145681999857,1062.0145681999857,1062.0145681999857,1062.0145681999857,1062.0145681999857,,,,,,47,52,50,55,50,66,None,None,70,70,[0.08425925925925926],[-0.2851851851851852],[1],[0],[0],[7.220212600019295],['tijiao'],-0.2,0,,[],[],[],[],[],[],[],5.944444444444445,2.1280506000039168,1073.914457899984,1075.7267239999783,1064.52578299999,1064.52578299999,1064.52578299999,1064.52578299999,1064.52578299999,1064.52578299999,1064.52578299999,1064.52578299999,0.007216300000436604,1064.52578299999,1071.7673762999766,1071.7673762999766,1071.7673762999766,1071.7673762999766,,,,,,,,,,,,,,244,f,22,2023-03-22_11h23.55.784,RL,2022.2.4,60.180601981568316,
0,0.3,0.225,0,81,81,81,,,,,,,,,,None,1075.7267239999783,1075.7267239999783,1075.7267239999783,1075.7267239999783,1075.7267239999783,1075.7267239999783,j,0.288910900009796,1076.0431727999821,1076.0431727999821,1076.0431727999821,1076.0431727999821,1076.0431727999821,1076.0431727999821,1076.342160399974,1076.342160399974,1077.6718521000003,1077.6718521000003,1077.6718521000003,1077.6718521000003,1077.6718521000003,1077.6718521000003,1077.6718521000003,1077.6718521000003,1077.6718521000003,1077.6718521000003,1077.6718521000003,1077.6718521000003,1077.6718521000003,1077.6718521000003,1077.6718521000003,1077.6718521000003,1077.6718521000003,1080.18111949999,1080.18111949999,1080.18111949999,1080.18111949999,1080.18111949999,44,46,45,54,54,60,3.0,2.6250225999974646,,,[],[],[],[],[],[],[],0.6,2,,[],[],[],[],[],[],[],None,None,1082.8313311999955,1084.7353843999736,,,,,,,,,,,,,,,,,,,,,,,,,,,,244,f,22,2023-03-22_11h23.55.784,RL,2022.2.4,60.180601981568316,
1,-0.3,-0.225,0,82,82,82,,,,,,,,,,None,1084.7353843999736,1084.7353843999736,1084.7353843999736,1084.7353843999736,1084.7353843999736,1084.7353843999736,j,0.2633436000032816,1085.0189003999985,1085.0189003999985,1085.0189003999985,1085.0189003999985,1085.0189003999985,1085.0189003999985,1085.317407399998,1085.317407399998,1086.3809214999783,1086.3809214999783,1086.3976931999787,1086.3976931999787,1086.3976931999787,1086.3976931999787,1086.3976931999787,1086.3976931999787,1086.3976931999787,1086.3976931999787,1086.3976931999787,1086.3976931999787,1086.3976931999787,1086.3976931999787,1086.3976931999787,1086.3976931999787,1086.3976931999787,1088.907029599999,1088.907029599999,1088.907029599999,1088.907029599999,1088.907029599999,56,56,42,50,50,57,4.0,3.472982800012687,,,[],[],[],[],[],[],[],-0.6,2,,[],[],[],[],[],[],[],None,None,1092.4070451999723,1093.9273579999863,,,,,,,,,,,,,,,,,,,,,,,,,,,,244,f,22,2023-03-22_11h23.55.784,RL,2022.2.4,60.180601981568316,
0,0.3,0.225,0,83,83,83,,,,,,,,,,None,1093.9273579999863,1093.9273579999863,1093.9273579999863,1093.9273579999863,1093.9273579999863,1093.9273579999863,j,0.2832071000011638,1094.2436137999757,1094.2436137999757,1094.2436137999757,1094.2436137999757,1094.2436137999757,1094.2436137999757,1094.5426430999942,1094.5426430999942,1095.8555956999771,1095.8555956999771,1095.8555956999771,1095.8555956999771,1095.8555956999771,1095.8555956999771,1095.8555956999771,1095.8555956999771,1095.8555956999771,1095.8555956999771,1095.8555956999771,1095.8555956999771,1095.8555956999771,1095.8555956999771,1095.8555956999771,1095.8555956999771,1095.8555956999771,1098.3649017999996,1098.3649017999996,1098.3649017999996,1098.3649017999996,1098.3649017999996,46,51,51,51,51,53,4.0,1.5608438999915961,,,[],[],[],[],[],[],[],-0.2,3,,[],[],[],[],[],[],[],None,None,1099.9516306999722,1101.5066848999995,,,,,,,,,,,,,,,,,,,,,,,,,,,,244,f,22,2023-03-22_11h23.55.784,RL,2022.2.4,60.180601981568316,
1,-0.3,-0.225,0,84,84,84,,,,,,,,,,None,1101.5066848999995,1101.5066848999995,1101.5066848999995,1101.5066848999995,1101.5066848999995,1101.5066848999995,i,0.21702559999539517,1101.757631799992,1101.757631799992,1101.757631799992,1101.757631799992,1101.757631799992,1101.757631799992,1102.0554099999717,1102.0554099999717,1103.8834447999834,1103.8834447999834,1103.8834447999834,1103.8834447999834,1103.8834447999834,1103.8834447999834,1103.8834447999834,1103.8834447999834,1103.8834447999834,1103.8834447999834,1103.8834447999834,1103.8834447999834,1103.8834447999834,1103.8834447999834,1103.8834447999834,1103.8834447999834,1103.8834447999834,1106.3928704999853,1106.3928704999853,1106.3928704999853,1106.3928704999853,1106.3928704999853,55,49,51,46,51,61,4.0,3.057797200017376,,,[],[],[],[],[],[],[],-0.2,3,,[],[],[],[],[],[],[],None,None,1109.475784499984,1111.4793507999857,,,,,,,,,,,,,,,,,,,,,,,,,,,,244,f,22,2023-03-22_11h23.55.784,RL,2022.2.4,60.180601981568316,
0,0.3,0.225,0,85,85,85,,,,,,,,,,None,1111.4793507999857,1111.4793507999857,1111.4793507999857,1111.4793507999857,1111.4793507999857,1111.4793507999857,j,0.23141259999829344,1111.7307069999806,1111.7307069999806,1111.7307069999806,1111.7307069999806,1111.7307069999806,1111.7307069999806,1112.0280934999755,1112.0280934999755,1113.5573626999976,1113.5573626999976,1113.5573626999976,1113.5573626999976,1113.5573626999976,1113.5573626999976,1113.5573626999976,1113.5573626999976,1113.5573626999976,1113.5573626999976,1113.5573626999976,1113.5573626999976,1113.5573626999976,1113.5573626999976,1113.5573626999976,1113.5573626999976,1113.5573626999976,,,,,,48,48,43,55,55,54,None,None,,,[],[],[],[],[],[],[],-0.2,1,40,[-0.05462962962962963],[-0.26296296296296295],[1],[0],[0],[4.0897579999873415],['tijiao_random_2'],6.972222222222222,1.6901709999947343,1121.8833269999886,1123.8623680999735,,,,,,,,,,,1120.1753697999811,1120.1753697999811,1120.1753697999811,1120.1753697999811,1116.0740043999976,1116.0740043999976,1116.0740043999976,1116.0740043999976,1116.0740043999976,1116.0740043999976,1116.0740043999976,1116.0740043999976,0.005402199982199818,1116.0740043999976,,,,244,f,22,2023-03-22_11h23.55.784,RL,2022.2.4,60.180601981568316,
1,-0.3,-0.225,0,86,86,86,,,,,,,,,,None,1123.8623680999735,1123.8623680999735,1123.8623680999735,1123.8623680999735,1123.8623680999735,1123.8623680999735,j,0.26385729998582974,1124.145429999975,1124.145429999975,1124.145429999975,1124.145429999975,1124.145429999975,1124.145429999975,1124.4443295999954,1124.4443295999954,1126.2724309999903,1126.2724309999903,1126.2724309999903,1126.2724309999903,1126.2724309999903,1126.2724309999903,1126.2724309999903,1126.2724309999903,1126.2724309999903,1126.2724309999903,1126.2724309999903,1126.2724309999903,1126.2724309999903,1126.2724309999903,1126.2724309999903,1126.2724309999903,1126.2724309999903,,,,,,49,46,46,55,55,46,None,None,55,55,[0.07037037037037037],[-0.2916666666666667],[1],[0],[0],[4.760455899988301],['tijiao'],0.6,0,,[],[],[],[],[],[],[],6.9907407407407405,1.8335668000217993,1135.4131188999745,1137.126056899986,1128.7831484999915,1128.7831484999915,1128.7831484999915,1128.7831484999915,1128.7831484999915,1128.7831484999915,1128.7831484999915,1128.7831484999915,0.0054997000261209905,1128.7831484999915,1133.5616384999885,1133.5616384999885,1133.5616384999885,1133.5616384999885,,,,,,,,,,,,,,244,f,22,2023-03-22_11h23.55.784,RL,2022.2.4,60.180601981568316,
0,0.3,0.225,0,87,87,87,,,,,,,,,,None,1137.126056899986,1137.126056899986,1137.126056899986,1137.126056899986,1137.126056899986,1137.126056899986,j,0.28054140001768246,1137.427182799991,1137.427182799991,1137.427182799991,1137.427182799991,1137.427182799991,1137.427182799991,1137.724355399987,1137.724355399987,1139.6029966999777,1139.6029966999777,1139.6029966999777,1139.6029966999777,1139.6029966999777,1139.6029966999777,1139.6029966999777,1139.6029966999777,1139.6029966999777,1139.6029966999777,1139.6029966999777,1139.6029966999777,1139.6029966999777,1139.6029966999777,1139.6029966999777,1139.6029966999777,1139.6029966999777,1142.112000299996,1142.112000299996,1142.112000299996,1142.112000299996,1142.112000299996,54,49,38,54,54,67,5.0,2.791793600015808,,,[],[],[],[],[],[],[],0.6,3,,[],[],[],[],[],[],[],None,None,1144.92762089998,1146.7831997999747,,,,,,,,,,,,,,,,,,,,,,,,,,,,244,f,22,2023-03-22_11h23.55.784,RL,2022.2.4,60.180601981568316,
1,-0.3,-0.225,0,88,88,88,,,,,,,,,,None,1146.7831997999747,1146.7831997999747,1146.7831997999747,1146.7831997999747,1146.7831997999747,1146.7831997999747,i,0.27512099998421036,1147.0826404999825,1147.0826404999825,1147.0826404999825,1147.0826404999825,1147.0826404999825,1147.0826404999825,1147.3816326999804,1147.3816326999804,1148.428502099996,1148.428502099996,1148.428502099996,1148.428502099996,1148.428502099996,1148.428502099996,1148.428502099996,1148.428502099996,1148.428502099996,1148.428502099996,1148.428502099996,1148.428502099996,1148.428502099996,1148.428502099996,1148.428502099996,1148.428502099996,1148.428502099996,,,,,,55,47,41,58,41,57,None,None,,,[],[],[],[],[],[],[],0.6,1,55,[0.0824074074074074],[-0.2759259259259259],[1],[0],[0],[6.099314199993387],['tijiao_random_2'],8.0,2.5529116000107024,1159.6304299999902,1161.5760874999978,,,,,,,,,,,1157.0588969999808,1157.0588969999808,1157.0588969999808,1157.0588969999808,1150.9466642999905,1150.9466642999905,1150.9466642999905,1150.9466642999905,1150.9466642999905,1150.9466642999905,1150.9466642999905,1150.9466642999905,0.005362199997762218,1150.9466642999905,,,,244,f,22,2023-03-22_11h23.55.784,RL,2022.2.4,60.180601981568316,
0,0.3,0.225,0,89,89,89,,,,,,,,,,None,1161.5760874999978,1161.5760874999978,1161.5760874999978,1161.5760874999978,1161.5760874999978,1161.5760874999978,f,0.31641229998786,1161.925555599999,1161.925555599999,1161.925555599999,1161.925555599999,1161.925555599999,1161.925555599999,1162.2247377999884,1162.2247377999884,1163.5704321999801,1163.5704321999801,1163.5704321999801,1163.5704321999801,1163.5704321999801,1163.5704321999801,1163.5704321999801,1163.5704321999801,1163.5704321999801,1163.5704321999801,1163.5704321999801,1163.5704321999801,1163.5704321999801,1163.5704321999801,1163.5704321999801,1163.5704321999801,1163.5704321999801,1166.080055599974,1166.080055599974,1166.080055599974,1166.080055599974,1166.080055599974,63,46,35,54,46,66,3.0,2.6754786999954376,,,[],[],[],[],[],[],[],-0.6,3,,[],[],[],[],[],[],[],None,None,1168.7806194000004,1170.5351292999985,,,,,,,,,,,,,,,,,,,,,,,,,,,,244,f,22,2023-03-22_11h23.55.784,RL,2022.2.4,60.180601981568316,
1,-0.3,-0.225,0,90,90,90,,,,,,,,,,None,1170.5351292999985,1170.5351292999985,1170.5351292999985,1170.5351292999985,1170.5351292999985,1170.5351292999985,j,0.419907500006957,1170.9840183999913,1170.9840183999913,1170.9840183999913,1170.9840183999913,1170.9840183999913,1170.9840183999913,1171.2832790999964,1171.2832790999964,1172.1309031999845,1172.1309031999845,1172.1309031999845,1172.1309031999845,1172.1309031999845,1172.1309031999845,1172.1309031999845,1172.1309031999845,1172.1309031999845,1172.1309031999845,1172.1309031999845,1172.1309031999845,1172.1309031999845,1172.1309031999845,1172.1309031999845,1172.1309031999845,1172.1309031999845,1174.6398626999871,1174.6398626999871,1174.6398626999871,1174.6398626999871,1174.6398626999871,66,46,30,56,56,53,4.0,2.309881099994527,,,[],[],[],[],[],[],[],0.2,3,,[],[],[],[],[],[],[],None,None,1176.9743426999776,1178.8622160999803,,,,,,,,,,,,,,,,,,,,,,,,,,,,244,f,22,2023-03-22_11h23.55.784,RL,2022.2.4,60.180601981568316,
