bandit0,black_x_pos_random,black_y_pos_random,trials.thisRepN,trials.thisTrialN,trials.thisN,trials.thisIndex,instru_img1.started,instru_img1.stopped,instru_resp.keys,instru_resp.rt,instru_resp.started,instru_resp.stopped,instru_img2.started,instru_img2.stopped,instru_resp2.keys,instru_resp2.rt,instru_resp2.started,instru_resp2.stopped,fixbefore_2.started,fixbefore_2.stopped,rest_image.started,rest_image.stopped,rest_response.keys,rest_response.started,rest_response.stopped,red.started,red.stopped,green.started,green.stopped,yellow.started,yellow.stopped,blue.started,blue.stopped,choose_bandit.keys,choose_bandit.rt,choose_bandit.started,choose_bandit.stopped,Fixation.started,Fixation.stopped,black.started,black.stopped,red_2.started,red_2.stopped,green_2.started,green_2.stopped,yellow_2.started,yellow_2.stopped,blue_2.started,blue_2.stopped,fixation_2.started,fixation_2.stopped,docs.started,docs.stopped,wait_playerB.started,wait_playerB.stopped,black_com.started,black_com.stopped,reward_sub.started,reward_sub.stopped,palyerb.started,palyerb.stopped,reward__sub.started,reward__sub.stopped,compare.started,compare.stopped,red_compare.started,red_compare.stopped,green_com.started,green_com.stopped,yellow_com.started,yellow_com.stopped,blue_com.started,blue_com.stopped,rewardyellow,rewardred,rewardblue,rewardgreen,subchoose,playerb,image_3.started,image_3.stopped,slider.response,slider.rt,slider.started,slider.stopped,text.started,text.stopped,image_4.started,image_4.stopped,image_5.started,image_5.stopped,expectself.text,expectself.started,expectself.stopped,value_expect_self,expect_self_black.started,expect_self_black.stopped,expect_self.started,expect_self.stopped,expect_self_red.started,expect_self_red.stopped,expect_self_green.started,expect_self_green.stopped,expect_self_yellow.started,expect_self_yellow.stopped,expect_self_blue.started,expect_self_blue.stopped,tijiao.started,tijiao.stopped,tijiao_click.started,tijiao_click.stopped,check.started,check.stopped,random_whicharm,whether_ask,jiantou_random.started,jiantou_random.stopped,expect_red.started,expect_red.stopped,expect_green.started,expect_green.stopped,expect_yellow.started,expect_yellow.stopped,expect_blue.started,expect_blue.stopped,expect_random_2.started,expect_random_2.stopped,expect_random_3.text,expect_random_3.started,expect_random_3.stopped,tijiao_random_2.started,tijiao_random_2.stopped,tijiao_random.x,tijiao_random.y,tijiao_random.leftButton,tijiao_random.midButton,tijiao_random.rightButton,tijiao_random.time,tijiao_random.clicked_name,tijiao_random.started,tijiao_random.stopped,check_2.started,check_2.stopped,slider_2.response,slider_2.rt,slider_2.started,slider_2.stopped,image_7.started,image_7.stopped,confi.started,confi.stopped,notconfi.started,notconfi.stopped,bigx.started,bigx.stopped,intertrialfix.started,intertrialfix.stopped,tijiao_click.x,tijiao_click.y,tijiao_click.leftButton,tijiao_click.midButton,tijiao_click.rightButton,tijiao_click.time,tijiao_click.clicked_name,rest_response.rt,participant,Gender,Age,date,expName,psychopyVersion,frameRate,
,,,,,,,17.536009600036778,None,space,4.570673300069757,17.536009600036778,None,,,,,,,,,,,,,,,,,,,,,,,,,,,,,,,,,,,,,,,,,,,,,,,,,,,,,,,,,,,,,,,,,,,,,,,,,,,,,,,,,,,,,,,,,,,,,,,,,,,,,,,,,,,,,,,,,,,,,,,,,,,,,,,,,,,,,,,,,,,,,,,,,,,,,,,,,,245,f,25,2023_Mar_22_1338,RL,2021.2.3,59.834020403426756,
,,,,,,,,,,,,,22.156152000068687,None,s,17.640382300014608,22.156152000068687,None,,,,,,,,,,,,,,,,,,,,,,,,,,,,,,,,,,,,,,,,,,,,,,,,,,,,,,,,,,,,,,,,,,,,,,,,,,,,,,,,,,,,,,,,,,,,,,,,,,,,,,,,,,,,,,,,,,,,,,,,,,,,,,,,,,,,,,,,,,,,,,,,,,,,245,f,25,2023_Mar_22_1338,RL,2021.2.3,59.834020403426756,
1,-0.3,-0.225,0,0,0,0,,,,,,,,,,,,,39.8320323000662,None,None,None,None,None,None,40.957488400046714,None,40.957488400046714,None,40.957488400046714,None,40.957488400046714,None,j,0.8489849000470713,40.957488400046714,None,40.957488400046714,None,41.92030009999871,None,41.92030009999871,None,41.92030009999871,None,41.92030009999871,None,41.92030009999871,None,41.92030009999871,None,42.2158771000104,44.05050889996346,42.2158771000104,44.05050889996346,44.143182200030424,None,44.143182200030424,None,44.143182200030424,None,44.143182200030424,None,44.143182200030424,None,44.143182200030424,None,44.143182200030424,None,44.143182200030424,None,44.143182200030424,None,57,55,31,38,38,41,None,None,None,None,None,None,None,None,None,None,None,None,,None,None,,None,None,None,None,None,None,None,None,None,None,None,None,None,None,None,None,None,None,-0.6,1,47.112429499975406,None,47.112429499975406,None,47.112429499975406,None,47.112429499975406,None,47.112429499975406,None,47.112429499975406,None,10,47.112429499975406,None,47.112429499975406,None,0.009114583333333334,-0.3046875,1,0,0,7.858649399946444,tijiao_random_2,0.015332210110500455,None,47.112429499975406,None,1,4.257322800112888,55.15964430000167,None,55.15964430000167,None,55.15964430000167,None,55.15964430000167,None,None,None,59.53163049998693,None,,,,,,,,,245,f,25,2023_Mar_22_1338,RL,2021.2.3,59.834020403426756,
0,0.3,0.225,0,1,1,1,,,,,,,,,,,,,,,None,None,None,None,None,61.36693270003889,None,61.36693270003889,None,61.36693270003889,None,61.36693270003889,None,r,0.8801313999574631,61.36693270003889,None,61.36693270003889,None,62.28840419999324,None,62.28840419999324,None,62.28840419999324,None,62.28840419999324,None,62.28840419999324,None,62.28840419999324,None,62.58004859997891,64.44821319996845,62.58004859997891,64.44821319996845,64.48428059997968,None,64.48428059997968,None,64.48428059997968,None,64.48428059997968,None,64.48428059997968,None,64.48428059997968,None,64.48428059997968,None,64.48428059997968,None,64.48428059997968,None,60,61,37,48,60,41,None,None,None,None,None,None,None,None,None,None,None,None,50,67.0252829999663,None,50,67.0252829999663,None,67.0252829999663,None,67.0252829999663,None,67.0252829999663,None,67.0252829999663,None,67.0252829999663,None,67.0252829999663,None,0.0013044701190665364,None,67.0252829999663,None,0.6,0,None,None,None,None,None,None,None,None,None,None,None,None,,None,None,None,None,,,,,,,,None,None,None,None,1.0,2.1841546000214294,75.33859679999296,None,75.33859679999296,None,75.33859679999296,None,75.33859679999296,None,None,None,77.5548843999859,None,-0.036458333333333336,-0.27734375,1,0,0,8.15786829998251,tijiao,,245,f,25,2023_Mar_22_1338,RL,2021.2.3,59.834020403426756,
1,-0.3,-0.225,0,2,2,2,,,,,,,,,,,,,,,None,None,None,None,None,79.39571319997776,None,79.39571319997776,None,79.39571319997776,None,79.39571319997776,None,i,0.36147759994491935,79.39571319997776,None,79.39571319997776,None,79.80156449996866,None,79.80156449996866,None,79.80156449996866,None,79.80156449996866,None,79.80156449996866,None,79.80156449996866,None,80.07553260005079,82.06019440002274,80.07553260005079,82.06019440002274,82.11263099999633,None,82.11263099999633,None,82.11263099999633,None,82.11263099999633,None,82.11263099999633,None,82.11263099999633,None,82.11263099999633,None,82.11263099999633,None,82.11263099999633,None,63,53,35,44,35,70,None,None,None,None,None,None,None,None,None,None,None,None,,None,None,,None,None,None,None,None,None,None,None,None,None,None,None,None,None,None,None,None,None,0.2,1,84.65705579996575,None,84.65705579996575,None,84.65705579996575,None,84.65705579996575,None,84.65705579996575,None,84.65705579996575,None,40,84.65705579996575,None,84.65705579996575,None,-0.0390625,-0.31640625,1,0,0,10.870415500015952,tijiao_random_2,0.012561060022562742,None,84.65705579996575,None,1,2.929791699978523,95.56265089998487,None,95.56265089998487,None,95.56265089998487,None,95.56265089998487,None,None,None,98.50573540001642,None,,,,,,,,,245,f,25,2023_Mar_22_1338,RL,2021.2.3,59.834020403426756,
0,0.3,0.225,0,3,3,3,,,,,,,,,,,,,,,None,None,None,None,None,100.4773969000671,None,100.4773969000671,None,100.4773969000671,None,100.4773969000671,None,j,0.6406083001056686,100.4773969000671,None,100.4773969000671,None,101.16279440000653,None,101.16279440000653,None,101.16279440000653,None,101.16279440000653,None,101.16279440000653,None,101.16279440000653,None,101.45702590001747,102.82476840005256,101.45702590001747,102.82476840005256,102.8591123999795,None,102.8591123999795,None,102.8591123999795,None,102.8591123999795,None,102.8591123999795,None,102.8591123999795,None,102.8591123999795,None,102.8591123999795,None,102.8591123999795,None,68,67,31,38,38,76,None,None,None,None,None,None,None,None,None,None,None,None,,None,None,,None,None,None,None,None,None,None,None,None,None,None,None,None,None,None,None,None,None,0.2,1,105.40696709998883,None,105.40696709998883,None,105.40696709998883,None,105.40696709998883,None,105.40696709998883,None,105.40696709998883,None,30,105.40696709998883,None,105.40696709998883,None,-0.0234375,-0.2708333333333333,1,0,0,9.43493029999081,tijiao_random_2,0.010304459952749312,None,105.40696709998883,None,1.0,2.984989400021732,114.8737100000726,None,114.8737100000726,None,114.8737100000726,None,114.8737100000726,None,None,None,117.8829124000622,None,,,,,,,,,245,f,25,2023_Mar_22_1338,RL,2021.2.3,59.834020403426756,
1,-0.3,-0.225,0,4,4,4,,,,,,,,,,,,,,,None,None,None,None,None,119.57395430002362,None,119.57395430002362,None,119.57395430002362,None,119.57395430002362,None,f,0.5741444999584928,119.57395430002362,None,119.57395430002362,None,120.19500509998761,None,120.19500509998761,None,120.19500509998761,None,120.19500509998761,None,120.19500509998761,None,120.19500509998761,None,120.48680690000765,None,120.48680690000765,None,122.46273170004133,None,122.46273170004133,None,122.46273170004133,None,122.46273170004133,None,122.46273170004133,None,122.46273170004133,None,122.46273170004133,None,122.46273170004133,None,122.46273170004133,None,62,62,21,44,62,43,124.99856300000101,None,3.0,4.03473010007292,124.99856300000101,None,124.99856300000101,None,124.99856300000101,None,124.99856300000101,None,,None,None,,None,None,None,None,None,None,None,None,None,None,None,None,None,None,None,None,None,None,0.6,2,None,None,None,None,None,None,None,None,None,None,None,None,,None,None,None,None,,,,,,,,None,None,None,None,None,None,None,None,None,None,None,None,None,None,None,None,129.12446089996956,None,,,,,,,,,245,f,25,2023_Mar_22_1338,RL,2021.2.3,59.834020403426756,
0,0.3,0.225,0,5,5,5,,,,,,,,,,,,,,,None,None,None,None,None,130.81505370000377,None,130.81505370000377,None,130.81505370000377,None,130.81505370000377,None,r,0.4531215999741107,130.81505370000377,None,130.81505370000377,None,131.3177594000008,None,131.3177594000008,None,131.3177594000008,None,131.3177594000008,None,131.3177594000008,None,131.3177594000008,None,131.594757999992,133.41268010006752,131.594757999992,133.41268010006752,133.44584100006614,None,133.44584100006614,None,133.44584100006614,None,133.44584100006614,None,133.44584100006614,None,133.44584100006614,None,133.44584100006614,None,133.44584100006614,None,133.44584100006614,None,64,64,29,44,64,74,None,None,None,None,None,None,None,None,None,None,None,None,,None,None,,None,None,None,None,None,None,None,None,None,None,None,None,None,None,None,None,None,None,-0.6,1,135.99764890002552,None,135.99764890002552,None,135.99764890002552,None,135.99764890002552,None,135.99764890002552,None,135.99764890002552,None,60,135.99764890002552,None,135.99764890002552,None,-0.0078125,-0.28125,1,0,0,5.862447099993005,tijiao_random_2,0.007590160006657243,None,135.99764890002552,None,1.989583333333333,2.736149200005457,141.91787210002076,None,141.91787210002076,None,141.91787210002076,None,141.91787210002076,None,None,None,144.66833110002335,None,,,,,,,,,245,f,25,2023_Mar_22_1338,RL,2021.2.3,59.834020403426756,
1,-0.3,-0.225,0,6,6,6,,,,,,,,,,,,,,,None,None,None,None,None,146.6586593000684,None,146.6586593000684,None,146.6586593000684,None,146.6586593000684,None,f,0.8195585000794381,146.6586593000684,None,146.6586593000684,None,147.52817389997654,None,147.52817389997654,None,147.52817389997654,None,147.52817389997654,None,147.52817389997654,None,147.52817389997654,None,147.8224845000077,None,147.8224845000077,None,149.07069770002272,None,149.07069770002272,None,149.07069770002272,None,149.07069770002272,None,149.07069770002272,None,149.07069770002272,None,149.07069770002272,None,149.07069770002272,None,149.07069770002272,None,61,61,28,36,61,42,151.5912181000458,None,3.0,2.7385246999328956,151.5912181000458,None,151.5912181000458,None,151.5912181000458,None,151.5912181000458,None,,None,None,,None,None,None,None,None,None,None,None,None,None,None,None,None,None,None,None,None,None,0.2,2,None,None,None,None,None,None,None,None,None,None,None,None,,None,None,None,None,,,,,,,,None,None,None,None,None,None,None,None,None,None,None,None,None,None,None,None,154.38360230007675,None,,,,,,,,,245,f,25,2023_Mar_22_1338,RL,2021.2.3,59.834020403426756,
0,0.3,0.225,0,7,7,7,,,,,,,,,,,,,,,None,None,None,None,None,156.2993496999843,None,156.2993496999843,None,156.2993496999843,None,156.2993496999843,None,r,0.7590828000102192,156.2993496999843,None,156.2993496999843,None,157.1055562000256,None,157.1055562000256,None,157.1055562000256,None,157.1055562000256,None,157.1055562000256,None,157.1055562000256,None,157.39591019996442,159.14742270007264,157.39591019996442,159.14742270007264,159.1819026999874,None,159.1819026999874,None,159.1819026999874,None,159.1819026999874,None,159.1819026999874,None,159.1819026999874,None,159.1819026999874,None,159.1819026999874,None,159.1819026999874,None,53,61,35,36,53,75,None,None,None,None,None,None,None,None,None,None,None,None,50,161.71503399999347,None,50,161.71503399999347,None,161.71503399999347,None,161.71503399999347,None,161.71503399999347,None,161.71503399999347,None,161.71503399999347,None,161.71503399999347,None,0.009096769848838449,None,161.71503399999347,None,0.2,0,None,None,None,None,None,None,None,None,None,None,None,None,,None,None,None,None,,,,,,,,None,None,None,None,3.005208333333333,2.633207599981688,168.8755481999833,None,168.8755481999833,None,168.8755481999833,None,168.8755481999833,None,None,None,171.53691220004112,None,-0.029947916666666668,-0.2994791666666667,1,0,0,7.115437799948268,tijiao,,245,f,25,2023_Mar_22_1338,RL,2021.2.3,59.834020403426756,
1,-0.3,-0.225,0,8,8,8,,,,,,,,,,,,,,,None,None,None,None,None,173.3950063000666,None,173.3950063000666,None,173.3950063000666,None,173.3950063000666,None,r,0.9433518999721855,173.3950063000666,None,173.3950063000666,None,174.3848271999741,None,174.3848271999741,None,174.3848271999741,None,174.3848271999741,None,174.3848271999741,None,174.3848271999741,None,174.6746028000489,176.04213249997701,174.6746028000489,176.04213249997701,176.07550300005823,None,176.07550300005823,None,176.07550300005823,None,176.07550300005823,None,176.07550300005823,None,176.07550300005823,None,176.07550300005823,None,176.07550300005823,None,176.07550300005823,None,51,60,46,37,51,67,None,None,None,None,None,None,None,None,None,None,None,None,,None,None,,None,None,None,None,None,None,None,None,None,None,None,None,None,None,None,None,None,None,-0.2,1,178.61732890002895,None,178.61732890002895,None,178.61732890002895,None,178.61732890002895,None,178.61732890002895,None,178.61732890002895,None,50,178.61732890002895,None,178.61732890002895,None,-0.02734375,-0.3098958333333333,1,0,0,8.491337299929,tijiao_random_2,0.001339770038612187,None,178.61732890002895,None,4.020833333333334,2.3790320999687538,187.14073850004934,None,187.14073850004934,None,187.14073850004934,None,187.14073850004934,None,None,None,189.53416220005602,None,,,,,,,,,245,f,25,2023_Mar_22_1338,RL,2021.2.3,59.834020403426756,
0,0.3,0.225,0,9,9,9,,,,,,,,,,,,,,,None,None,None,None,None,191.3904007000383,None,191.3904007000383,None,191.3904007000383,None,191.3904007000383,None,r,1.1083754999563098,191.3904007000383,None,191.3904007000383,None,192.5425782999955,None,192.5425782999955,None,192.5425782999955,None,192.5425782999955,None,192.5425782999955,None,192.5425782999955,None,192.83713520003948,None,192.83713520003948,None,194.7658876000205,None,194.7658876000205,None,194.7658876000205,None,194.7658876000205,None,194.7658876000205,None,194.7658876000205,None,194.7658876000205,None,194.7658876000205,None,194.7658876000205,None,55,71,37,31,55,72,197.2876473000506,None,3.0,3.9750264999456704,197.2876473000506,None,197.2876473000506,None,197.2876473000506,None,197.2876473000506,None,,None,None,,None,None,None,None,None,None,None,None,None,None,None,None,None,None,None,None,None,None,-0.6,2,None,None,None,None,None,None,None,None,None,None,None,None,,None,None,None,None,,,,,,,,None,None,None,None,None,None,None,None,None,None,None,None,None,None,None,None,201.31474359997083,None,,,,,,,,,245,f,25,2023_Mar_22_1338,RL,2021.2.3,59.834020403426756,
1,-0.3,-0.225,0,10,10,10,,,,,,,,,,,,,,,None,None,None,None,None,203.13123020005878,None,203.13123020005878,None,203.13123020005878,None,203.13123020005878,None,i,0.5875268999952823,203.13123020005878,None,203.13123020005878,None,203.76628860004712,None,203.76628860004712,None,203.76628860004712,None,203.76628860004712,None,203.76628860004712,None,203.76628860004712,None,204.06148340005893,None,204.06148340005893,None,204.89466960006393,None,204.89466960006393,None,204.89466960006393,None,204.89466960006393,None,204.89466960006393,None,204.89466960006393,None,204.89466960006393,None,204.89466960006393,None,204.89466960006393,None,51,70,39,33,39,28,207.41030079999473,None,4.0,6.710762800066732,207.41030079999473,None,207.41030079999473,None,207.41030079999473,None,207.41030079999473,None,,None,None,,None,None,None,None,None,None,None,None,None,None,None,None,None,None,None,None,None,None,-0.6,3,None,None,None,None,None,None,None,None,None,None,None,None,,None,None,None,None,,,,,,,,None,None,None,None,None,None,None,None,None,None,None,None,None,None,None,None,214.17384709999897,None,,,,,,,,,245,f,25,2023_Mar_22_1338,RL,2021.2.3,59.834020403426756,
0,0.3,0.225,0,11,11,11,,,,,,,,,,,,,,,None,None,None,None,None,215.92432400002144,None,215.92432400002144,None,215.92432400002144,None,215.92432400002144,None,i,0.6343861999921501,215.92432400002144,None,215.92432400002144,None,216.60833540000021,None,216.60833540000021,None,216.60833540000021,None,216.60833540000021,None,216.60833540000021,None,216.60833540000021,None,216.90385720005725,None,216.90385720005725,None,218.46783380000852,None,218.46783380000852,None,218.46783380000852,None,218.46783380000852,None,218.46783380000852,None,218.46783380000852,None,218.46783380000852,None,218.46783380000852,None,218.46783380000852,None,51,75,30,30,30,73,None,None,None,None,None,None,None,None,None,None,None,None,,None,None,,None,None,None,None,None,None,None,None,None,None,None,None,None,None,None,None,None,None,-0.2,1,221.01960530003998,None,221.01960530003998,None,221.01960530003998,None,221.01960530003998,None,221.01960530003998,None,221.01960530003998,None,50,221.01960530003998,None,221.01960530003998,None,-0.013020833333333334,-0.2721354166666667,1,0,0,4.382077699992806,tijiao_random_2,0.011155460146255791,None,221.01960530003998,None,4.059895833333334,4.174066200037487,225.4478311999701,None,225.4478311999701,None,225.4478311999701,None,225.4478311999701,None,None,None,229.64378849999048,None,,,,,,,,,245,f,25,2023_Mar_22_1338,RL,2021.2.3,59.834020403426756,
1,-0.3,-0.225,0,12,12,12,,,,,,,,,,,,,,,None,None,None,None,None,231.4512111999793,None,231.4512111999793,None,231.4512111999793,None,231.4512111999793,None,j,0.4375268000876531,231.4512111999793,None,231.4512111999793,None,231.93725399998948,None,231.93725399998948,None,231.93725399998948,None,231.93725399998948,None,231.93725399998948,None,231.93725399998948,None,232.23102700000163,233.8155913000228,232.23102700000163,233.8155913000228,233.84965009998996,None,233.84965009998996,None,233.84965009998996,None,233.84965009998996,None,233.84965009998996,None,233.84965009998996,None,233.84965009998996,None,233.84965009998996,None,233.84965009998996,None,56,70,23,28,28,72,None,None,None,None,None,None,None,None,None,None,None,None,25,236.37685370002873,None,25,236.37685370002873,None,236.37685370002873,None,236.37685370002873,None,236.37685370002873,None,236.37685370002873,None,236.37685370002873,None,236.37685370002873,None,0.016236069961450994,None,236.37685370002873,None,0.6,0,None,None,None,None,None,None,None,None,None,None,None,None,,None,None,None,None,,,,,,,,None,None,None,None,4.880208333333333,3.7788486999925226,241.15906720003113,None,241.15906720003113,None,241.15906720003113,None,241.15906720003113,None,None,None,244.95476470002905,None,-0.0234375,-0.3072916666666667,1,0,0,4.736860700068064,tijiao,,245,f,25,2023_Mar_22_1338,RL,2021.2.3,59.834020403426756,
0,0.3,0.225,0,13,13,13,,,,,,,,,,,,,,,None,None,None,None,None,246.84600110002793,None,246.84600110002793,None,246.84600110002793,None,246.84600110002793,None,f,0.3828734999988228,246.84600110002793,None,246.84600110002793,None,247.28094560001045,None,247.28094560001045,None,247.28094560001045,None,247.28094560001045,None,247.28094560001045,None,247.28094560001045,None,247.57506130007096,None,247.57506130007096,None,248.5237719999859,None,248.5237719999859,None,248.5237719999859,None,248.5237719999859,None,248.5237719999859,None,248.5237719999859,None,248.5237719999859,None,248.5237719999859,None,248.5237719999859,None,53,71,43,32,71,73,251.03922210005112,None,5.0,3.2590953999897465,251.03922210005112,None,251.03922210005112,None,251.03922210005112,None,251.03922210005112,None,,None,None,,None,None,None,None,None,None,None,None,None,None,None,None,None,None,None,None,None,None,0.2,3,None,None,None,None,None,None,None,None,None,None,None,None,,None,None,None,None,,,,,,,,None,None,None,None,None,None,None,None,None,None,None,None,None,None,None,None,254.36393720004708,None,,,,,,,,,245,f,25,2023_Mar_22_1338,RL,2021.2.3,59.834020403426756,
1,-0.3,-0.225,0,14,14,14,,,,,,,,,,,,,,,None,None,None,None,None,256.1350197000429,None,256.1350197000429,None,256.1350197000429,None,256.1350197000429,None,r,1.0252359999576584,256.1350197000429,None,256.1350197000429,None,257.2051619000267,None,257.2051619000267,None,257.2051619000267,None,257.2051619000267,None,257.2051619000267,None,257.2051619000267,None,257.49879109999165,259.4333783000475,257.49879109999165,259.4333783000475,259.46661770006176,None,259.46661770006176,None,259.46661770006176,None,259.46661770006176,None,259.46661770006176,None,259.46661770006176,None,259.46661770006176,None,259.46661770006176,None,259.46661770006176,None,58,74,34,34,58,44,None,None,None,None,None,None,None,None,None,None,None,None,55,262.0016600000672,None,55,262.0016600000672,None,262.0016600000672,None,262.0016600000672,None,262.0016600000672,None,262.0016600000672,None,262.0016600000672,None,262.0016600000672,None,0.009277470060624182,None,262.0016600000672,None,0.6,0,None,None,None,None,None,None,None,None,None,None,None,None,,None,None,None,None,,,,,,,,None,None,None,None,6.0,6.066861900035292,265.9954791000346,None,265.9954791000346,None,265.9954791000346,None,265.9954791000346,None,None,None,272.0902389000403,None,0.018229166666666668,-0.2916666666666667,1,0,0,3.9469772999873385,tijiao,,245,f,25,2023_Mar_22_1338,RL,2021.2.3,59.834020403426756,
0,0.3,0.225,0,15,15,15,,,,,,,,,,,,,,,None,None,None,None,None,273.8810943000717,None,273.8810943000717,None,273.8810943000717,None,273.8810943000717,None,f,0.37912579998373985,273.8810943000717,None,273.8810943000717,None,274.2985375999706,None,274.2985375999706,None,274.2985375999706,None,274.2985375999706,None,274.2985375999706,None,274.2985375999706,None,274.59382100007497,None,274.59382100007497,None,275.6587080999743,None,275.6587080999743,None,275.6587080999743,None,275.6587080999743,None,275.6587080999743,None,275.6587080999743,None,275.6587080999743,None,275.6587080999743,None,275.6587080999743,None,52,81,41,30,81,37,None,None,None,None,None,None,None,None,None,None,None,None,,None,None,,None,None,None,None,None,None,None,None,None,None,None,None,None,None,None,None,None,None,0.6,1,278.20557530003134,None,278.20557530003134,None,278.20557530003134,None,278.20557530003134,None,278.20557530003134,None,278.20557530003134,None,25,278.20557530003134,None,278.20557530003134,None,0.02734375,-0.3111979166666667,1,0,0,4.5712389999534935,tijiao_random_2,0.00037297012750059366,None,278.20557530003134,None,6.859375,3.4382547999266535,282.81826590001583,None,282.81826590001583,None,282.81826590001583,None,282.81826590001583,None,None,None,286.2680398999946,None,,,,,,,,,245,f,25,2023_Mar_22_1338,RL,2021.2.3,59.834020403426756,
1,-0.3,-0.225,0,16,16,16,,,,,,,,,,,,,,,None,None,None,None,None,288.14106010005344,None,288.14106010005344,None,288.14106010005344,None,288.14106010005344,None,f,0.3993601999245584,288.14106010005344,None,288.14106010005344,None,288.59846810007,None,288.59846810007,None,288.59846810007,None,288.59846810007,None,288.59846810007,None,288.59846810007,None,288.8872078000568,None,288.8872078000568,None,289.71561950002797,None,289.71561950002797,None,289.71561950002797,None,289.71561950002797,None,289.71561950002797,None,289.71561950002797,None,289.71561950002797,None,289.71561950002797,None,289.71561950002797,None,62,75,32,33,75,66,None,None,None,None,None,None,None,None,None,None,None,None,70,292.2563741999911,None,70,292.2563741999911,None,292.2563741999911,None,292.2563741999911,None,292.2563741999911,None,292.2563741999911,None,292.2563741999911,None,292.2563741999911,None,0.00857966998592019,None,292.2563741999911,None,-0.2,0,None,None,None,None,None,None,None,None,None,None,None,None,,None,None,None,None,,,,,,,,None,None,None,None,7.1328125,2.3145796000026166,299.06815930001903,None,299.06815930001903,None,299.06815930001903,None,299.06815930001903,None,None,None,301.414189800038,None,-0.016927083333333332,-0.28515625,1,0,0,6.764690000098199,tijiao,,245,f,25,2023_Mar_22_1338,RL,2021.2.3,59.834020403426756,
0,0.3,0.225,0,17,17,17,,,,,,,,,,,,,,,None,None,None,None,None,303.2347968000686,None,303.2347968000686,None,303.2347968000686,None,303.2347968000686,None,r,0.3657780000939965,303.2347968000686,None,303.2347968000686,None,303.65041640005074,None,303.65041640005074,None,303.65041640005074,None,303.65041640005074,None,303.65041640005074,None,303.65041640005074,None,303.94767270004377,None,303.94767270004377,None,305.75011500006076,None,305.75011500006076,None,305.75011500006076,None,305.75011500006076,None,305.75011500006076,None,305.75011500006076,None,305.75011500006076,None,305.75011500006076,None,305.75011500006076,None,63,72,34,33,63,64,308.2723102000309,None,4.0,2.0340566999511793,308.2723102000309,None,308.2723102000309,None,308.2723102000309,None,308.2723102000309,None,,None,None,,None,None,None,None,None,None,None,None,None,None,None,None,None,None,None,None,None,None,0.2,2,None,None,None,None,None,None,None,None,None,None,None,None,,None,None,None,None,,,,,,,,None,None,None,None,None,None,None,None,None,None,None,None,None,None,None,None,310.3688726000255,None,,,,,,,,,245,f,25,2023_Mar_22_1338,RL,2021.2.3,59.834020403426756,
1,-0.3,-0.225,0,18,18,18,,,,,,,,,,,,,,,None,None,None,None,None,312.0407003000146,None,312.0407003000146,None,312.0407003000146,None,312.0407003000146,None,f,0.9597168000182137,312.0407003000146,None,312.0407003000146,None,313.0425277000759,None,313.0425277000759,None,313.0425277000759,None,313.0425277000759,None,313.0425277000759,None,313.0425277000759,None,313.33740119996946,314.30486849998124,313.33740119996946,314.30486849998124,314.3384363000514,None,314.3384363000514,None,314.3384363000514,None,314.3384363000514,None,314.3384363000514,None,314.3384363000514,None,314.3384363000514,None,314.3384363000514,None,314.3384363000514,None,67,65,36,27,65,73,316.8544996000128,None,3.0,2.1209876000648364,316.8544996000128,None,316.8544996000128,None,316.8544996000128,None,316.8544996000128,None,,None,None,,None,None,None,None,None,None,None,None,None,None,None,None,None,None,None,None,None,None,0.2,2,None,None,None,None,None,None,None,None,None,None,None,None,,None,None,None,None,,,,,,,,None,None,None,None,None,None,None,None,None,None,None,None,None,None,None,None,319.05116789997555,None,,,,,,,,,245,f,25,2023_Mar_22_1338,RL,2021.2.3,59.834020403426756,
0,0.3,0.225,0,19,19,19,,,,,,,,,,,,,,,None,None,None,None,None,320.6970092999982,None,320.6970092999982,None,320.6970092999982,None,320.6970092999982,None,r,0.8933849000604823,320.6970092999982,None,320.6970092999982,None,321.63275660004,None,321.63275660004,None,321.63275660004,None,321.63275660004,None,321.63275660004,None,321.63275660004,None,321.926744800061,322.79396729997825,321.926744800061,322.79396729997825,322.8272935000714,None,322.8272935000714,None,322.8272935000714,None,322.8272935000714,None,322.8272935000714,None,322.8272935000714,None,322.8272935000714,None,322.8272935000714,None,322.8272935000714,None,59,73,32,36,59,74,None,None,None,None,None,None,None,None,None,None,None,None,,None,None,,None,None,None,None,None,None,None,None,None,None,None,None,None,None,None,None,None,None,0.6,1,325.3722831000341,None,325.3722831000341,None,325.3722831000341,None,325.3722831000341,None,325.3722831000341,None,325.3722831000341,None,20,325.3722831000341,None,325.3722831000341,None,-0.03125,-0.2786458333333333,1,0,0,4.201966999913566,tijiao_random_2,0.015305160079151392,None,325.3722831000341,None,3.96875,5.1497467999579385,329.6047526000766,None,329.6047526000766,None,329.6047526000766,None,329.6047526000766,None,None,None,334.76860930002294,None,,,,,,,,,245,f,25,2023_Mar_22_1338,RL,2021.2.3,59.834020403426756,
1,-0.3,-0.225,0,20,20,20,,,,,,,,,,,,,,,None,None,None,None,None,336.4244081999641,None,336.4244081999641,None,336.4244081999641,None,336.4244081999641,None,r,0.6661014000419527,336.4244081999641,None,336.4244081999641,None,337.1473905000603,None,337.1473905000603,None,337.1473905000603,None,337.1473905000603,None,337.1473905000603,None,337.1473905000603,None,337.43748690001667,None,337.43748690001667,None,338.43584200006444,None,338.43584200006444,None,338.43584200006444,None,338.43584200006444,None,338.43584200006444,None,338.43584200006444,None,338.43584200006444,None,338.43584200006444,None,338.43584200006444,None,63,65,32,27,63,50,None,None,None,None,None,None,None,None,None,None,None,None,60,340.96347079996485,None,60,340.96347079996485,None,340.96347079996485,None,340.96347079996485,None,340.96347079996485,None,340.96347079996485,None,340.96347079996485,None,340.96347079996485,None,0.001972279860638082,None,340.96347079996485,None,0.6,0,None,None,None,None,None,None,None,None,None,None,None,None,,None,None,None,None,,,,,,,,None,None,None,None,5.752604166666667,2.784010299947113,345.5144659000216,None,345.5144659000216,None,345.5144659000216,None,345.5144659000216,None,None,None,348.32638730003964,None,0.059895833333333336,-0.2994791666666667,1,0,0,4.505917500006035,tijiao,,245,f,25,2023_Mar_22_1338,RL,2021.2.3,59.834020403426756,
0,0.3,0.225,0,21,21,21,,,,,,,,,,,,,,,None,None,None,None,None,349.934163399972,None,349.934163399972,None,349.934163399972,None,349.934163399972,None,r,0.6364565000403672,349.934163399972,None,349.934163399972,None,350.6232366000768,None,350.6232366000768,None,350.6232366000768,None,350.6232366000768,None,350.6232366000768,None,350.6232366000768,None,350.9137563999975,352.1977115999907,350.9137563999975,352.1977115999907,352.2298935999861,None,352.2298935999861,None,352.2298935999861,None,352.2298935999861,None,352.2298935999861,None,352.2298935999861,None,352.2298935999861,None,352.2298935999861,None,352.2298935999861,None,57,60,27,28,57,35,354.7484274000162,None,5.0,2.1885816000867635,354.7484274000162,None,354.7484274000162,None,354.7484274000162,None,354.7484274000162,None,,None,None,,None,None,None,None,None,None,None,None,None,None,None,None,None,None,None,None,None,None,0.6,2,None,None,None,None,None,None,None,None,None,None,None,None,,None,None,None,None,,,,,,,,None,None,None,None,None,None,None,None,None,None,None,None,None,None,None,None,356.98863410006743,None,,,,,,,,,245,f,25,2023_Mar_22_1338,RL,2021.2.3,59.834020403426756,
1,-0.3,-0.225,0,22,22,22,,,,,,,,,,,,,,,None,None,None,None,None,358.8071408000542,None,358.8071408000542,None,358.8071408000542,None,358.8071408000542,None,r,0.6235677999211475,358.8071408000542,None,358.8071408000542,None,359.4829461000627,None,359.4829461000627,None,359.4829461000627,None,359.4829461000627,None,359.4829461000627,None,359.4829461000627,None,359.76971759996377,None,359.76971759996377,None,361.3031308000209,None,361.3031308000209,None,361.3031308000209,None,361.3031308000209,None,361.3031308000209,None,361.3031308000209,None,361.3031308000209,None,361.3031308000209,None,361.3031308000209,None,63,60,25,26,63,61,363.8235843000002,None,5.0,1.4189768999349326,363.8235843000002,None,363.8235843000002,None,363.8235843000002,None,363.8235843000002,None,,None,None,,None,None,None,None,None,None,None,None,None,None,None,None,None,None,None,None,None,None,-0.2,3,None,None,None,None,None,None,None,None,None,None,None,None,,None,None,None,None,,,,,,,,None,None,None,None,None,None,None,None,None,None,None,None,None,None,None,None,365.3003313000081,None,,,,,,,,,245,f,25,2023_Mar_22_1338,RL,2021.2.3,59.834020403426756,
0,0.3,0.225,0,23,23,23,,,,,,,,,,,,,,,None,None,None,None,None,366.9123036999954,None,366.9123036999954,None,366.9123036999954,None,366.9123036999954,None,f,0.7586556000169367,366.9123036999954,None,366.9123036999954,None,367.7160223000683,None,367.7160223000683,None,367.7160223000683,None,367.7160223000683,None,367.7160223000683,None,367.7160223000683,None,367.99240310001187,369.92681860004086,367.99240310001187,369.92681860004086,369.9636687000748,None,369.9636687000748,None,369.9636687000748,None,369.9636687000748,None,369.9636687000748,None,369.9636687000748,None,369.9636687000748,None,369.9636687000748,None,369.9636687000748,None,60,68,28,24,68,55,None,None,None,None,None,None,None,None,None,None,None,None,65,372.49626260006335,None,65,372.49626260006335,None,372.49626260006335,None,372.49626260006335,None,372.49626260006335,None,372.49626260006335,None,372.49626260006335,None,372.49626260006335,None,0.007604570011608303,None,372.49626260006335,None,-0.2,0,None,None,None,None,None,None,None,None,None,None,None,None,,None,None,None,None,,,,,,,,None,None,None,None,5.921875,3.0325295999646187,377.53667249996215,None,377.53667249996215,None,377.53667249996215,None,377.53667249996215,None,None,None,380.5835691000102,None,0.0078125,-0.2981770833333333,1,0,0,4.995056699961424,tijiao,,245,f,25,2023_Mar_22_1338,RL,2021.2.3,59.834020403426756,
1,-0.3,-0.225,0,24,24,24,,,,,,,,,,,,,,,None,None,None,None,None,382.45668619999196,None,382.45668619999196,None,382.45668619999196,None,382.45668619999196,None,r,0.6741606999421492,382.45668619999196,None,382.45668619999196,None,383.1833123000106,None,383.1833123000106,None,383.1833123000106,None,383.1833123000106,None,383.1833123000106,None,383.1833123000106,None,383.46977520000655,None,383.46977520000655,None,385.3179380999645,None,385.3179380999645,None,385.3179380999645,None,385.3179380999645,None,385.3179380999645,None,385.3179380999645,None,385.3179380999645,None,385.3179380999645,None,385.3179380999645,None,61,65,38,19,61,66,None,None,None,None,None,None,None,None,None,None,None,None,60,387.8514993999852,None,60,387.8514993999852,None,387.8514993999852,None,387.8514993999852,None,387.8514993999852,None,387.8514993999852,None,387.8514993999852,None,387.8514993999852,None,0.013543970067985356,None,387.8514993999852,None,0.2,0,None,None,None,None,None,None,None,None,None,None,None,None,,None,None,None,None,,,,,,,,None,None,None,None,4.736979166666666,2.659350599977188,392.2199529999634,None,392.2199529999634,None,392.2199529999634,None,392.2199529999634,None,None,None,394.9110658999998,None,0.01171875,-0.27734375,1,0,0,4.317114500096068,tijiao,,245,f,25,2023_Mar_22_1338,RL,2021.2.3,59.834020403426756,
0,0.3,0.225,0,25,25,25,,,,,,,,,,,,,,,None,None,None,None,None,396.7489601999987,None,396.7489601999987,None,396.7489601999987,None,396.7489601999987,None,f,0.5520059000700712,396.7489601999987,None,396.7489601999987,None,397.35096630000044,None,397.35096630000044,None,397.35096630000044,None,397.35096630000044,None,397.35096630000044,None,397.35096630000044,None,397.6459353000391,None,397.6459353000391,None,398.90077680000104,None,398.90077680000104,None,398.90077680000104,None,398.90077680000104,None,398.90077680000104,None,398.90077680000104,None,398.90077680000104,None,398.90077680000104,None,398.90077680000104,None,56,76,33,28,76,62,401.41985529998783,None,4.0,2.0491428000386804,401.41985529998783,None,401.41985529998783,None,401.41985529998783,None,401.41985529998783,None,,None,None,,None,None,None,None,None,None,None,None,None,None,None,None,None,None,None,None,None,None,0.6,2,None,None,None,None,None,None,None,None,None,None,None,None,,None,None,None,None,,,,,,,,None,None,None,None,None,None,None,None,None,None,None,None,None,None,None,None,403.53647900000215,None,,,,,,,,,245,f,25,2023_Mar_22_1338,RL,2021.2.3,59.834020403426756,
1,-0.3,-0.225,0,26,26,26,,,,,,,,,,,,,,,None,None,None,None,None,405.44003619998693,None,405.44003619998693,None,405.44003619998693,None,405.44003619998693,None,f,0.7009577000280842,405.44003619998693,None,405.44003619998693,None,406.1893640999915,None,406.1893640999915,None,406.1893640999915,None,406.1893640999915,None,406.1893640999915,None,406.1893640999915,None,406.485620600055,None,406.485620600055,None,407.8004470000742,None,407.8004470000742,None,407.8004470000742,None,407.8004470000742,None,407.8004470000742,None,407.8004470000742,None,407.8004470000742,None,407.8004470000742,None,407.8004470000742,None,58,66,39,30,66,28,410.3258686000481,None,5.0,1.7661183000309393,410.3258686000481,None,410.3258686000481,None,410.3258686000481,None,410.3258686000481,None,,None,None,,None,None,None,None,None,None,None,None,None,None,None,None,None,None,None,None,None,None,-0.6,3,None,None,None,None,None,None,None,None,None,None,None,None,,None,None,None,None,,,,,,,,None,None,None,None,None,None,None,None,None,None,None,None,None,None,None,None,412.16411440004595,None,,,,,,,,,245,f,25,2023_Mar_22_1338,RL,2021.2.3,59.834020403426756,
0,0.3,0.225,0,27,27,27,,,,,,,,,,,,,,,None,None,None,None,None,414.04450209997594,None,414.04450209997594,None,414.04450209997594,None,414.04450209997594,None,r,0.5875272999983281,414.04450209997594,None,414.04450209997594,None,414.6781847999664,None,414.6781847999664,None,414.6781847999664,None,414.6781847999664,None,414.6781847999664,None,414.6781847999664,None,414.9749121000059,416.54258550005034,414.9749121000059,416.54258550005034,416.5761080000084,None,416.5761080000084,None,416.5761080000084,None,416.5761080000084,None,416.5761080000084,None,416.5761080000084,None,416.5761080000084,None,416.5761080000084,None,416.5761080000084,None,55,69,30,39,55,74,419.09154659998603,None,3.0,2.1229615000775084,419.09154659998603,None,419.09154659998603,None,419.09154659998603,None,419.09154659998603,None,,None,None,,None,None,None,None,None,None,None,None,None,None,None,None,None,None,None,None,None,None,-0.2,3,None,None,None,None,None,None,None,None,None,None,None,None,,None,None,None,None,,,,,,,,None,None,None,None,None,None,None,None,None,None,None,None,None,None,None,None,421.2733826000476,None,,,,,,,,,245,f,25,2023_Mar_22_1338,RL,2021.2.3,59.834020403426756,
1,-0.3,-0.225,0,28,28,28,,,,,,,,,,,,,,,None,None,None,None,None,422.9509643999627,None,422.9509643999627,None,422.9509643999627,None,422.9509643999627,None,f,0.5716443000128493,422.9509643999627,None,422.9509643999627,None,423.5699256999651,None,423.5699256999651,None,423.5699256999651,None,423.5699256999651,None,423.5699256999651,None,423.5699256999651,None,423.86423449998256,425.1317481000442,423.86423449998256,425.1317481000442,425.1637995999772,None,425.1637995999772,None,425.1637995999772,None,425.1637995999772,None,425.1637995999772,None,425.1637995999772,None,425.1637995999772,None,425.1637995999772,None,425.1637995999772,None,56,68,45,39,68,76,None,None,None,None,None,None,None,None,None,None,None,None,65,427.69901320000645,None,65,427.69901320000645,None,427.69901320000645,None,427.69901320000645,None,427.69901320000645,None,427.69901320000645,None,427.69901320000645,None,427.69901320000645,None,0.010105070075951517,None,427.69901320000645,None,-0.6,0,None,None,None,None,None,None,None,None,None,None,None,None,,None,None,None,None,,,,,,,,None,None,None,None,5.986979166666667,3.754099700017832,432.13906730001327,None,432.13906730001327,None,432.13906730001327,None,432.13906730001327,None,None,None,435.9227424999699,None,0.037760416666666664,-0.30859375,1,0,0,4.397327699931338,tijiao,,245,f,25,2023_Mar_22_1338,RL,2021.2.3,59.834020403426756,
0,0.3,0.225,0,29,29,29,,,,,,,,,,,,,,,None,None,None,None,None,437.42739059997257,None,437.42739059997257,None,437.42739059997257,None,437.42739059997257,None,f,0.8347834000596777,437.42739059997257,None,437.42739059997257,None,438.31861229997594,None,438.31861229997594,None,438.31861229997594,None,438.31861229997594,None,438.31861229997594,None,438.31861229997594,None,438.6078379000537,439.7753084000433,438.6078379000537,439.7753084000433,439.80752380006015,None,439.80752380006015,None,439.80752380006015,None,439.80752380006015,None,439.80752380006015,None,439.80752380006015,None,439.80752380006015,None,439.80752380006015,None,439.80752380006015,None,63,64,44,44,64,18,442.32416890002787,None,4.0,3.6591633999487385,442.32416890002787,None,442.32416890002787,None,442.32416890002787,None,442.32416890002787,None,,None,None,,None,None,None,None,None,None,None,None,None,None,None,None,None,None,None,None,None,None,-0.6,2,None,None,None,None,None,None,None,None,None,None,None,None,,None,None,None,None,,,,,,,,None,None,None,None,None,None,None,None,None,None,None,None,None,None,None,None,446.04509899998084,None,,,,,,,,,245,f,25,2023_Mar_22_1338,RL,2021.2.3,59.834020403426756,
1,-0.3,-0.225,0,30,30,30,,,,,,,,,,,,,,,None,None,None,None,None,447.8849058999913,None,447.8849058999913,None,447.8849058999913,None,447.8849058999913,None,f,0.4373520000372082,447.8849058999913,None,447.8849058999913,None,448.375816600048,None,448.375816600048,None,448.375816600048,None,448.375816600048,None,448.375816600048,None,448.375816600048,None,448.664802000043,450.4993785000406,448.664802000043,450.4993785000406,450.53035810007714,None,450.53035810007714,None,450.53035810007714,None,450.53035810007714,None,450.53035810007714,None,450.53035810007714,None,450.53035810007714,None,450.53035810007714,None,450.53035810007714,None,60,71,39,45,71,64,453.0560991000384,None,5.0,1.3493830999359488,453.0560991000384,None,453.0560991000384,None,453.0560991000384,None,453.0560991000384,None,,None,None,,None,None,None,None,None,None,None,None,None,None,None,None,None,None,None,None,None,None,0.6,3,None,None,None,None,None,None,None,None,None,None,None,None,,None,None,None,None,,,,,,,,None,None,None,None,None,None,None,None,None,None,None,None,None,None,None,None,454.4799920000369,None,,,,,,,,,245,f,25,2023_Mar_22_1338,RL,2021.2.3,59.834020403426756,
0,0.3,0.225,0,31,31,31,,,,,,,,,,,,,,,None,None,None,None,None,456.1569890000392,None,456.1569890000392,None,456.1569890000392,None,456.1569890000392,None,f,0.7954879000317305,456.1569890000392,None,456.1569890000392,None,456.99282539996784,None,456.99282539996784,None,456.99282539996784,None,456.99282539996784,None,456.99282539996784,None,456.99282539996784,None,457.2873112000525,None,457.2873112000525,None,458.38840369996615,None,458.38840369996615,None,458.38840369996615,None,458.38840369996615,None,458.38840369996615,None,458.38840369996615,None,458.38840369996615,None,458.38840369996615,None,458.38840369996615,None,68,71,47,44,71,65,460.9085979000665,None,6.0,4.2177258000010625,460.9085979000665,None,460.9085979000665,None,460.9085979000665,None,460.9085979000665,None,,None,None,,None,None,None,None,None,None,None,None,None,None,None,None,None,None,None,None,None,None,-0.6,3,None,None,None,None,None,None,None,None,None,None,None,None,,None,None,None,None,,,,,,,,None,None,None,None,None,None,None,None,None,None,None,None,None,None,None,None,465.17993830004707,None,,,,,,,,,245,f,25,2023_Mar_22_1338,RL,2021.2.3,59.834020403426756,
1,-0.3,-0.225,0,32,32,32,,,,,,,,,,,,,,,None,None,None,None,None,466.798195600044,None,466.798195600044,None,466.798195600044,None,466.798195600044,None,f,0.6142497999826446,466.798195600044,None,466.798195600044,None,467.4564555999823,None,467.4564555999823,None,467.4564555999823,None,467.4564555999823,None,467.4564555999823,None,467.4564555999823,None,467.7446603999706,468.8624536000425,467.7446603999706,468.8624536000425,468.89542040007655,None,468.89542040007655,None,468.89542040007655,None,468.89542040007655,None,468.89542040007655,None,468.89542040007655,None,468.89542040007655,None,468.89542040007655,None,468.89542040007655,None,66,65,48,46,65,64,None,None,None,None,None,None,None,None,None,None,None,None,,None,None,,None,None,None,None,None,None,None,None,None,None,None,None,None,None,None,None,None,None,-0.2,1,471.4391256000381,None,471.4391256000381,None,471.4391256000381,None,471.4391256000381,None,471.4391256000381,None,471.4391256000381,None,66,471.4391256000381,None,471.4391256000381,None,0.026041666666666668,-0.3046875,1,0,0,5.421753600006923,tijiao_random_2,0.00036207004450261593,None,471.4391256000381,None,6.9375,2.8051771000027657,476.9177387000527,None,476.9177387000527,None,476.9177387000527,None,476.9177387000527,None,None,None,479.7358938000398,None,,,,,,,,,245,f,25,2023_Mar_22_1338,RL,2021.2.3,59.834020403426756,
0,0.3,0.225,0,33,33,33,,,,,,,,,,,,,,,None,None,None,None,None,481.30852249998134,None,481.30852249998134,None,481.30852249998134,None,481.30852249998134,None,f,0.6340269000502303,481.30852249998134,None,481.30852249998134,None,481.99592979997396,None,481.99592979997396,None,481.99592979997396,None,481.99592979997396,None,481.99592979997396,None,481.99592979997396,None,482.2881665000459,None,482.2881665000459,None,484.30352950003,None,484.30352950003,None,484.30352950003,None,484.30352950003,None,484.30352950003,None,484.30352950003,None,484.30352950003,None,484.30352950003,None,484.30352950003,None,75,65,54,45,65,50,None,None,None,None,None,None,None,None,None,None,None,None,,None,None,,None,None,None,None,None,None,None,None,None,None,None,None,None,None,None,None,None,None,-0.6,1,486.84912100003567,None,486.84912100003567,None,486.84912100003567,None,486.84912100003567,None,486.84912100003567,None,486.84912100003567,None,45,486.84912100003567,None,486.84912100003567,None,0.005208333333333333,-0.3098958333333333,1,0,0,6.021232099970803,tijiao_random_2,0.016483060084283352,None,486.84912100003567,None,6.065104166666666,2.3123422000790015,492.90352519997396,None,492.90352519997396,None,492.90352519997396,None,492.90352519997396,None,None,None,495.2496181000024,None,,,,,,,,,245,f,25,2023_Mar_22_1338,RL,2021.2.3,59.834020403426756,
1,-0.3,-0.225,0,34,34,34,,,,,,,,,,,,,,,None,None,None,None,None,497.1849541000556,None,497.1849541000556,None,497.1849541000556,None,497.1849541000556,None,f,0.3276488999836147,497.1849541000556,None,497.1849541000556,None,497.5589863000205,None,497.5589863000205,None,497.5589863000205,None,497.5589863000205,None,497.5589863000205,None,497.5589863000205,None,497.8490332000656,499.04984200000763,497.8490332000656,499.04984200000763,499.0842783000553,None,499.0842783000553,None,499.0842783000553,None,499.0842783000553,None,499.0842783000553,None,499.0842783000553,None,499.0842783000553,None,499.0842783000553,None,499.0842783000553,None,72,67,51,40,67,72,None,None,None,None,None,None,None,None,None,None,None,None,,None,None,,None,None,None,None,None,None,None,None,None,None,None,None,None,None,None,None,None,None,0.6,1,501.6313854000764,None,501.6313854000764,None,501.6313854000764,None,501.6313854000764,None,501.6313854000764,None,501.6313854000764,None,30,501.6313854000764,None,501.6313854000764,None,0.009114583333333334,-0.26953125,1,0,0,7.584785000071861,tijiao_random_2,0.011406359961256385,None,501.6313854000764,None,3.083333333333333,3.0957575000356883,509.2480779000325,None,509.2480779000325,None,509.2480779000325,None,509.2480779000325,None,None,None,512.3583437000634,None,,,,,,,,,245,f,25,2023_Mar_22_1338,RL,2021.2.3,59.834020403426756,
0,0.3,0.225,0,35,35,35,,,,,,,,,,,,,,,None,None,None,None,None,514.1980240000412,None,514.1980240000412,None,514.1980240000412,None,514.1980240000412,None,r,0.6649123999522999,514.1980240000412,None,514.1980240000412,None,514.9195307000773,None,514.9195307000773,None,514.9195307000773,None,514.9195307000773,None,514.9195307000773,None,514.9195307000773,None,515.211000100011,516.0615977999987,515.211000100011,516.0615977999987,516.0958412999753,None,516.0958412999753,None,516.0958412999753,None,516.0958412999753,None,516.0958412999753,None,516.0958412999753,None,516.0958412999753,None,516.0958412999753,None,516.0958412999753,None,59,72,54,43,59,17,518.6146594000747,None,3.0,3.453788600047119,518.6146594000747,None,518.6146594000747,None,518.6146594000747,None,518.6146594000747,None,,None,None,,None,None,None,None,None,None,None,None,None,None,None,None,None,None,None,None,None,None,0.2,3,None,None,None,None,None,None,None,None,None,None,None,None,,None,None,None,None,,,,,,,,None,None,None,None,None,None,None,None,None,None,None,None,None,None,None,None,522.136347200023,None,,,,,,,,,245,f,25,2023_Mar_22_1338,RL,2021.2.3,59.834020403426756,
1,-0.3,-0.225,0,36,36,36,,,,,,,,,,,,,,,None,None,None,None,None,523.9712096999865,None,523.9712096999865,None,523.9712096999865,None,523.9712096999865,None,f,0.7218651999719441,523.9712096999865,None,523.9712096999865,None,524.7404531000648,None,524.7404531000648,None,524.7404531000648,None,524.7404531000648,None,524.7404531000648,None,524.7404531000648,None,525.0344327000203,525.9351573999738,525.0344327000203,525.9351573999738,525.9668171000667,None,525.9668171000667,None,525.9668171000667,None,525.9668171000667,None,525.9668171000667,None,525.9668171000667,None,525.9668171000667,None,525.9668171000667,None,525.9668171000667,None,68,84,42,43,84,80,None,None,None,None,None,None,None,None,None,None,None,None,82,528.4958876000019,None,82,528.4958876000019,None,528.4958876000019,None,528.4958876000019,None,528.4958876000019,None,528.4958876000019,None,528.4958876000019,None,528.4958876000019,None,0.0006829799385741353,None,528.4958876000019,None,-0.6,0,None,None,None,None,None,None,None,None,None,None,None,None,,None,None,None,None,,,,,,,,None,None,None,None,7.953125,2.6832840000279248,535.5326675999677,None,535.5326675999677,None,535.5326675999677,None,535.5326675999677,None,None,None,538.2414619000629,None,0.032552083333333336,-0.2721354166666667,1,0,0,6.990103899966925,tijiao,,245,f,25,2023_Mar_22_1338,RL,2021.2.3,59.834020403426756,
0,0.3,0.225,0,37,37,37,,,,,,,,,,,,,,,None,None,None,None,None,539.8652415999677,None,539.8652415999677,None,539.8652415999677,None,539.8652415999677,None,f,0.5782286000903696,539.8652415999677,None,539.8652415999677,None,540.4838633000618,None,540.4838633000618,None,540.4838633000618,None,540.4838633000618,None,540.4838633000618,None,540.4838633000618,None,540.7788747000741,541.8295737999724,540.7788747000741,541.8295737999724,541.8648493000073,None,541.8648493000073,None,541.8648493000073,None,541.8648493000073,None,541.8648493000073,None,541.8648493000073,None,541.8648493000073,None,541.8648493000073,None,541.8648493000073,None,66,77,44,39,77,42,544.3770176999969,None,6.0,2.024252000031993,544.3770176999969,None,544.3770176999969,None,544.3770176999969,None,544.3770176999969,None,,None,None,,None,None,None,None,None,None,None,None,None,None,None,None,None,None,None,None,None,None,0.6,3,None,None,None,None,None,None,None,None,None,None,None,None,,None,None,None,None,,,,,,,,None,None,None,None,None,None,None,None,None,None,None,None,None,None,None,None,546.467773100012,None,,,,,,,,,245,f,25,2023_Mar_22_1338,RL,2021.2.3,59.834020403426756,
1,-0.3,-0.225,0,38,38,38,,,,,,,,,,,,,,,None,None,None,None,None,548.3051620000042,None,548.3051620000042,None,548.3051620000042,None,548.3051620000042,None,f,0.5080332999350503,548.3051620000042,None,548.3051620000042,None,548.8633639999898,None,548.8633639999898,None,548.8633639999898,None,548.8633639999898,None,548.8633639999898,None,548.8633639999898,None,549.151132500032,550.0184208999854,549.151132500032,550.0184208999854,550.051954900031,None,550.051954900031,None,550.051954900031,None,550.051954900031,None,550.051954900031,None,550.051954900031,None,550.051954900031,None,550.051954900031,None,550.051954900031,None,66,78,41,34,78,56,552.5708123999648,None,6.0,1.319997400045395,552.5708123999648,None,552.5708123999648,None,552.5708123999648,None,552.5708123999648,None,,None,None,,None,None,None,None,None,None,None,None,None,None,None,None,None,None,None,None,None,None,-0.2,2,None,None,None,None,None,None,None,None,None,None,None,None,,None,None,None,None,,,,,,,,None,None,None,None,None,None,None,None,None,None,None,None,None,None,None,None,553.9458674000343,None,,,,,,,,,245,f,25,2023_Mar_22_1338,RL,2021.2.3,59.834020403426756,
0,0.3,0.225,0,39,39,39,,,,,,,,,,,,,,,None,None,None,None,None,555.7769627000671,None,555.7769627000671,None,555.7769627000671,None,555.7769627000671,None,f,0.536103899939917,555.7769627000671,None,555.7769627000671,None,556.3613240000559,None,556.3613240000559,None,556.3613240000559,None,556.3613240000559,None,556.3613240000559,None,556.3613240000559,None,556.6564098000526,None,556.6564098000526,None,558.5867059000302,None,558.5867059000302,None,558.5867059000302,None,558.5867059000302,None,558.5867059000302,None,558.5867059000302,None,558.5867059000302,None,558.5867059000302,None,558.5867059000302,None,66,71,39,34,71,74,None,None,None,None,None,None,None,None,None,None,None,None,75,561.1165250000777,None,75,561.1165250000777,None,561.1165250000777,None,561.1165250000777,None,561.1165250000777,None,561.1165250000777,None,561.1165250000777,None,561.1165250000777,None,0.0013799801236018538,None,561.1165250000777,None,0.2,0,None,None,None,None,None,None,None,None,None,None,None,None,,None,None,None,None,,,,,,,,None,None,None,None,8.018229166666666,4.836811800021678,564.4330723000458,None,564.4330723000458,None,564.4330723000458,None,564.4330723000458,None,None,None,569.2812769999728,None,0.03515625,-0.26953125,1,0,0,3.2713206000626087,tijiao,,245,f,25,2023_Mar_22_1338,RL,2021.2.3,59.834020403426756,
1,-0.3,-0.225,0,40,40,40,,,,,,,,,,,,,,,None,None,None,None,None,570.8872255000751,None,570.8872255000751,None,570.8872255000751,None,570.8872255000751,None,f,0.7071640000212938,570.8872255000751,None,570.8872255000751,None,571.6412530000089,None,571.6412530000089,None,571.6412530000089,None,571.6412530000089,None,571.6412530000089,None,571.6412530000089,None,571.9336527000414,None,571.9336527000414,None,573.4218281999929,None,573.4218281999929,None,573.4218281999929,None,573.4218281999929,None,573.4218281999929,None,573.4218281999929,None,573.4218281999929,None,573.4218281999929,None,573.4218281999929,None,68,71,45,40,71,84,575.9390014000237,None,5.0,2.0347384000197053,575.9390014000237,None,575.9390014000237,None,575.9390014000237,None,575.9390014000237,None,,None,None,,None,None,None,None,None,None,None,None,None,None,None,None,None,None,None,None,None,None,-0.6,3,None,None,None,None,None,None,None,None,None,None,None,None,,None,None,None,None,,,,,,,,None,None,None,None,None,None,None,None,None,None,None,None,None,None,None,None,578.0316907999804,None,,,,,,,,,245,f,25,2023_Mar_22_1338,RL,2021.2.3,59.834020403426756,
0,0.3,0.225,0,41,41,41,,,,,,,,,,,,,,,None,None,None,None,None,579.7593995999778,None,579.7593995999778,None,579.7593995999778,None,579.7593995999778,None,f,0.9952879000920802,579.7593995999778,None,579.7593995999778,None,580.7949388000416,None,580.7949388000416,None,580.7949388000416,None,580.7949388000416,None,580.7949388000416,None,580.7949388000416,None,581.0899883999955,None,581.0899883999955,None,582.2383190999972,None,582.2383190999972,None,582.2383190999972,None,582.2383190999972,None,582.2383190999972,None,582.2383190999972,None,582.2383190999972,None,582.2383190999972,None,582.2383190999972,None,70,68,44,41,68,84,None,None,None,None,None,None,None,None,None,None,None,None,60,584.7755653000204,None,60,584.7755653000204,None,584.7755653000204,None,584.7755653000204,None,584.7755653000204,None,584.7755653000204,None,584.7755653000204,None,584.7755653000204,None,0.009023469989188015,None,584.7755653000204,None,0.6,0,None,None,None,None,None,None,None,None,None,None,None,None,,None,None,None,None,,,,,,,,None,None,None,None,3.96875,2.216960999998264,589.5876994000282,None,589.5876994000282,None,589.5876994000282,None,589.5876994000282,None,None,None,591.8290762000252,None,0.057291666666666664,-0.2890625,1,0,0,4.764316700049676,tijiao,,245,f,25,2023_Mar_22_1338,RL,2021.2.3,59.834020403426756,
1,-0.3,-0.225,0,42,42,42,,,,,,,,,,,,,,,None,None,None,None,None,593.3531122000422,None,593.3531122000422,None,593.3531122000422,None,593.3531122000422,None,r,0.7012659999309108,593.3531122000422,None,593.3531122000422,None,594.1044771000743,None,594.1044771000743,None,594.1044771000743,None,594.1044771000743,None,594.1044771000743,None,594.1044771000743,None,594.3993140000384,595.8669953000499,594.3993140000384,595.8669953000499,595.8978096999926,None,595.8978096999926,None,595.8978096999926,None,595.8978096999926,None,595.8978096999926,None,595.8978096999926,None,595.8978096999926,None,595.8978096999926,None,595.8978096999926,None,73,73,47,30,73,88,598.4187022000551,None,3.0,2.0030239999759942,598.4187022000551,None,598.4187022000551,None,598.4187022000551,None,598.4187022000551,None,,None,None,,None,None,None,None,None,None,None,None,None,None,None,None,None,None,None,None,None,None,-0.2,2,None,None,None,None,None,None,None,None,None,None,None,None,,None,None,None,None,,,,,,,,None,None,None,None,None,None,None,None,None,None,None,None,None,None,None,None,600.4763585000765,None,,,,,,,,,245,f,25,2023_Mar_22_1338,RL,2021.2.3,59.834020403426756,
0,0.3,0.225,0,43,43,43,,,,,,,,,,,,,,,None,None,None,None,None,602.1753584999824,None,602.1753584999824,None,602.1753584999824,None,602.1753584999824,None,f,1.0689651999855414,602.1753584999824,None,602.1753584999824,None,603.2960694000358,None,603.2960694000358,None,603.2960694000358,None,603.2960694000358,None,603.2960694000358,None,603.2960694000358,None,603.5890133000212,None,603.5890133000212,None,605.3708486000542,None,605.3708486000542,None,605.3708486000542,None,605.3708486000542,None,605.3708486000542,None,605.3708486000542,None,605.3708486000542,None,605.3708486000542,None,605.3708486000542,None,76,75,44,31,75,88,None,None,None,None,None,None,None,None,None,None,None,None,75,607.9004779000534,None,75,607.9004779000534,None,607.9004779000534,None,607.9004779000534,None,607.9004779000534,None,607.9004779000534,None,607.9004779000534,None,607.9004779000534,None,0.016598770045675337,None,607.9004779000534,None,0.2,0,None,None,None,None,None,None,None,None,None,None,None,None,,None,None,None,None,,,,,,,,None,None,None,None,5.986979166666667,1.8951256999280304,611.2529882000526,None,611.2529882000526,None,611.2529882000526,None,611.2529882000526,None,None,None,613.161735599977,None,0.040364583333333336,-0.3359375,1,0,0,3.3035016999347135,tijiao,,245,f,25,2023_Mar_22_1338,RL,2021.2.3,59.834020403426756,
1,-0.3,-0.225,0,44,44,44,,,,,,,,,,,,,,,None,None,None,None,None,614.6843358000042,None,614.6843358000042,None,614.6843358000042,None,614.6843358000042,None,r,1.0001842000056058,614.6843358000042,None,614.6843358000042,None,615.741292300052,None,615.741292300052,None,615.741292300052,None,615.741292300052,None,615.741292300052,None,615.741292300052,None,616.0310454000719,616.8816298000747,616.0310454000719,616.8816298000747,616.913412700058,None,616.913412700058,None,616.913412700058,None,616.913412700058,None,616.913412700058,None,616.913412700058,None,616.913412700058,None,616.913412700058,None,616.913412700058,None,74,75,43,34,74,84,619.4357238999801,None,2.0,2.4516281000105664,619.4357238999801,None,619.4357238999801,None,619.4357238999801,None,619.4357238999801,None,,None,None,,None,None,None,None,None,None,None,None,None,None,None,None,None,None,None,None,None,None,-0.2,3,None,None,None,None,None,None,None,None,None,None,None,None,,None,None,None,None,,,,,,,,None,None,None,None,None,None,None,None,None,None,None,None,None,None,None,None,621.9548792999703,None,,,,,,,,,245,f,25,2023_Mar_22_1338,RL,2021.2.3,59.834020403426756,
0,0.3,0.225,0,45,45,45,,,,,,,,,,,,,,,None,None,None,None,None,623.6574012000347,None,623.6574012000347,None,623.6574012000347,None,623.6574012000347,None,f,0.4173106999369338,623.6574012000347,None,623.6574012000347,None,624.1282777000451,None,624.1282777000451,None,624.1282777000451,None,624.1282777000451,None,624.1282777000451,None,624.1282777000451,None,624.4201455999864,None,624.4201455999864,None,625.3848075000569,None,625.3848075000569,None,625.3848075000569,None,625.3848075000569,None,625.3848075000569,None,625.3848075000569,None,625.3848075000569,None,625.3848075000569,None,625.3848075000569,None,82,72,51,39,72,90,None,None,None,None,None,None,None,None,None,None,None,None,,None,None,,None,None,None,None,None,None,None,None,None,None,None,None,None,None,None,None,None,None,-0.2,1,627.9275168000022,None,627.9275168000022,None,627.9275168000022,None,627.9275168000022,None,627.9275168000022,None,627.9275168000022,None,75,627.9275168000022,None,627.9275168000022,None,-0.018229166666666668,-0.2825520833333333,1,0,0,3.3894085999345407,tijiao_random_2,0.0026890700682997704,None,627.9275168000022,None,4.984375,2.9959587999619544,631.3492206999799,None,631.3492206999799,None,631.3492206999799,None,631.3492206999799,None,None,None,634.374341399991,None,,,,,,,,,245,f,25,2023_Mar_22_1338,RL,2021.2.3,59.834020403426756,
1,-0.3,-0.225,0,46,46,46,,,,,,,,,,,,,,,None,None,None,None,None,636.3493084000656,None,636.3493084000656,None,636.3493084000656,None,636.3493084000656,None,f,0.5752351001137868,636.3493084000656,None,636.3493084000656,None,636.9696982000023,None,636.9696982000023,None,636.9696982000023,None,636.9696982000023,None,636.9696982000023,None,636.9696982000023,None,637.2626800000435,639.1468295999803,637.2626800000435,639.1468295999803,639.1783519000746,None,639.1783519000746,None,639.1783519000746,None,639.1783519000746,None,639.1783519000746,None,639.1783519000746,None,639.1783519000746,None,639.1783519000746,None,639.1783519000746,None,77,80,49,31,80,78,641.7016844999744,None,4.0,1.732117399922572,641.7016844999744,None,641.7016844999744,None,641.7016844999744,None,641.7016844999744,None,,None,None,,None,None,None,None,None,None,None,None,None,None,None,None,None,None,None,None,None,None,-0.2,3,None,None,None,None,None,None,None,None,None,None,None,None,,None,None,None,None,,,,,,,,None,None,None,None,None,None,None,None,None,None,None,None,None,None,None,None,643.4883792999899,None,,,,,,,,,245,f,25,2023_Mar_22_1338,RL,2021.2.3,59.834020403426756,
0,0.3,0.225,0,47,47,47,,,,,,,,,,,,,,,None,None,None,None,None,645.4059095999692,None,645.4059095999692,None,645.4059095999692,None,645.4059095999692,None,f,0.8588771000504494,645.4059095999692,None,645.4059095999692,None,646.3072426000144,None,646.3072426000144,None,646.3072426000144,None,646.3072426000144,None,646.3072426000144,None,646.3072426000144,None,646.6022874000482,None,646.6022874000482,None,648.4165292000398,None,648.4165292000398,None,648.4165292000398,None,648.4165292000398,None,648.4165292000398,None,648.4165292000398,None,648.4165292000398,None,648.4165292000398,None,648.4165292000398,None,88,84,46,39,84,84,None,None,None,None,None,None,None,None,None,None,None,None,,None,None,,None,None,None,None,None,None,None,None,None,None,None,None,None,None,None,None,None,None,-0.2,1,650.9767172000138,None,650.9767172000138,None,650.9767172000138,None,650.9767172000138,None,650.9767172000138,None,650.9767172000138,None,85,650.9767172000138,None,650.9767172000138,None,-0.02734375,-0.29296875,1,0,0,4.123752600047737,tijiao_random_2,0.0027115599950775504,None,650.9767172000138,None,6.0390625,2.4647237999597564,655.1318060000194,None,655.1318060000194,None,655.1318060000194,None,655.1318060000194,None,None,None,657.6254049000563,None,,,,,,,,,245,f,25,2023_Mar_22_1338,RL,2021.2.3,59.834020403426756,
1,-0.3,-0.225,0,48,48,48,,,,,,,,,,,,,,,None,None,None,None,None,659.2320018999744,None,659.2320018999744,None,659.2320018999744,None,659.2320018999744,None,None,,659.2320018999744,None,659.2320018999744,None,None,None,None,None,None,None,None,None,None,None,None,None,None,None,None,None,None,None,None,None,None,None,None,None,None,None,None,None,None,None,None,None,None,None,78,84,41,47,0,**,None,None,None,None,None,None,None,None,None,None,None,None,,None,None,,None,None,None,None,None,None,None,None,None,None,None,None,None,None,None,None,None,None,0.6,0,None,None,None,None,None,None,None,None,None,None,None,None,,None,None,None,None,,,,,,,,None,None,None,None,None,None,None,None,None,None,None,None,None,None,660.9812990999781,None,666.9830266999779,None,,,,,,,,,245,f,25,2023_Mar_22_1338,RL,2021.2.3,59.834020403426756,
0,0.3,0.225,0,49,49,49,,,,,,,,,,,,,,,None,None,None,None,None,668.6554532999871,None,668.6554532999871,None,668.6554532999871,None,668.6554532999871,None,f,0.3693562000989914,668.6554532999871,None,668.6554532999871,None,669.072345499997,None,669.072345499997,None,669.072345499997,None,669.072345499997,None,669.072345499997,None,669.072345499997,None,669.3680611000163,670.6354737000074,669.3680611000163,670.6354737000074,670.6674474000465,None,670.6674474000465,None,670.6674474000465,None,670.6674474000465,None,670.6674474000465,None,670.6674474000465,None,670.6674474000465,None,670.6674474000465,None,670.6674474000465,None,68,72,44,44,72,77,673.1916456000181,None,4.0,2.534277500002645,673.1916456000181,None,673.1916456000181,None,673.1916456000181,None,673.1916456000181,None,,None,None,,None,None,None,None,None,None,None,None,None,None,None,None,None,None,None,None,None,None,-0.2,2,None,None,None,None,None,None,None,None,None,None,None,None,,None,None,None,None,,,,,,,,None,None,None,None,None,None,None,None,None,None,None,None,None,None,None,None,675.7853341000155,None,,,,,,,,,245,f,25,2023_Mar_22_1338,RL,2021.2.3,59.834020403426756,
1,-0.3,-0.225,0,50,50,50,,,,,,,,,,,,,,,None,None,None,None,None,677.4279788000276,None,677.4279788000276,None,677.4279788000276,None,677.4279788000276,None,i,0.4669032000238076,677.4279788000276,None,677.4279788000276,None,677.9571959000314,None,677.9571959000314,None,677.9571959000314,None,677.9571959000314,None,677.9571959000314,None,677.9571959000314,None,678.2577529000118,None,678.2577529000118,None,680.0224792000372,None,680.0224792000372,None,680.0224792000372,None,680.0224792000372,None,680.0224792000372,None,680.0224792000372,None,680.0224792000372,None,680.0224792000372,None,680.0224792000372,None,74,80,43,44,43,69,682.5400211999658,None,2.0,2.189638600102626,682.5400211999658,None,682.5400211999658,None,682.5400211999658,None,682.5400211999658,None,,None,None,,None,None,None,None,None,None,None,None,None,None,None,None,None,None,None,None,None,None,0.6,3,None,None,None,None,None,None,None,None,None,None,None,None,,None,None,None,None,,,,,,,,None,None,None,None,None,None,None,None,None,None,None,None,None,None,None,None,684.7851480999961,None,,,,,,,,,245,f,25,2023_Mar_22_1338,RL,2021.2.3,59.834020403426756,
0,0.3,0.225,0,51,51,51,,,,,,,,,,,,,,,None,None,None,None,None,686.3839000000153,None,686.3839000000153,None,686.3839000000153,None,686.3839000000153,None,f,0.5109992000507191,686.3839000000153,None,686.3839000000153,None,686.9366275999928,None,686.9366275999928,None,686.9366275999928,None,686.9366275999928,None,686.9366275999928,None,686.9366275999928,None,687.2303863000125,None,687.2303863000125,None,688.6275059999898,None,688.6275059999898,None,688.6275059999898,None,688.6275059999898,None,688.6275059999898,None,688.6275059999898,None,688.6275059999898,None,688.6275059999898,None,688.6275059999898,None,75,79,44,52,79,30,691.1458104000194,None,2.0,4.358559599961154,691.1458104000194,None,691.1458104000194,None,691.1458104000194,None,691.1458104000194,None,,None,None,,None,None,None,None,None,None,None,None,None,None,None,None,None,None,None,None,None,None,-0.6,3,None,None,None,None,None,None,None,None,None,None,None,None,,None,None,None,None,,,,,,,,None,None,None,None,None,None,None,None,None,None,None,None,None,None,None,None,695.5696463000495,None,,,,,,,,,245,f,25,2023_Mar_22_1338,RL,2021.2.3,59.834020403426756,
1,-0.3,-0.225,0,52,52,52,,,,,,,,,,,,,,,None,None,None,None,None,697.1418653000146,None,697.1418653000146,None,697.1418653000146,None,697.1418653000146,None,r,1.4429200000595301,697.1418653000146,None,697.1418653000146,None,698.6194860000396,None,698.6194860000396,None,698.6194860000396,None,698.6194860000396,None,698.6194860000396,None,698.6194860000396,None,698.9053457999835,None,698.9053457999835,None,700.6023560999893,None,700.6023560999893,None,700.6023560999893,None,700.6023560999893,None,700.6023560999893,None,700.6023560999893,None,700.6023560999893,None,700.6023560999893,None,700.6023560999893,None,81,77,41,37,81,71,703.120886699995,None,4.0,2.0065907000098377,703.120886699995,None,703.120886699995,None,703.120886699995,None,703.120886699995,None,,None,None,,None,None,None,None,None,None,None,None,None,None,None,None,None,None,None,None,None,None,-0.6,2,None,None,None,None,None,None,None,None,None,None,None,None,,None,None,None,None,,,,,,,,None,None,None,None,None,None,None,None,None,None,None,None,None,None,None,None,705.197776200017,None,,,,,,,,,245,f,25,2023_Mar_22_1338,RL,2021.2.3,59.834020403426756,
0,0.3,0.225,0,53,53,53,,,,,,,,,,,,,,,None,None,None,None,None,706.8483848000178,None,706.8483848000178,None,706.8483848000178,None,706.8483848000178,None,r,0.4866712000221014,706.8483848000178,None,706.8483848000178,None,707.3818976000184,None,707.3818976000184,None,707.3818976000184,None,707.3818976000184,None,707.3818976000184,None,707.3818976000184,None,707.6779572999803,None,707.6779572999803,None,709.1768103999784,None,709.1768103999784,None,709.1768103999784,None,709.1768103999784,None,709.1768103999784,None,709.1768103999784,None,709.1768103999784,None,709.1768103999784,None,709.1768103999784,None,75,78,44,41,75,80,711.6946708000032,None,5.0,1.8386571999872103,711.6946708000032,None,711.6946708000032,None,711.6946708000032,None,711.6946708000032,None,,None,None,,None,None,None,None,None,None,None,None,None,None,None,None,None,None,None,None,None,None,-0.2,2,None,None,None,None,None,None,None,None,None,None,None,None,,None,None,None,None,,,,,,,,None,None,None,None,None,None,None,None,None,None,None,None,None,None,None,None,713.5863356000045,None,,,,,,,,,245,f,25,2023_Mar_22_1338,RL,2021.2.3,59.834020403426756,
1,-0.3,-0.225,0,54,54,54,,,,,,,,,,,,,,,None,None,None,None,None,715.4211618000409,None,715.4211618000409,None,715.4211618000409,None,715.4211618000409,None,r,0.5140384999103844,715.4211618000409,None,715.4211618000409,None,715.9725909000263,None,715.9725909000263,None,715.9725909000263,None,715.9725909000263,None,715.9725909000263,None,715.9725909000263,None,716.267353400006,None,716.267353400006,None,717.4140623999992,None,717.4140623999992,None,717.4140623999992,None,717.4140623999992,None,717.4140623999992,None,717.4140623999992,None,717.4140623999992,None,717.4140623999992,None,717.4140623999992,None,68,77,41,36,68,75,None,None,None,None,None,None,None,None,None,None,None,None,70,719.9522822999861,None,70,719.9522822999861,None,719.9522822999861,None,719.9522822999861,None,719.9522822999861,None,719.9522822999861,None,719.9522822999861,None,719.9522822999861,None,0.009380170027725399,None,719.9522822999861,None,-0.2,0,None,None,None,None,None,None,None,None,None,None,None,None,,None,None,None,None,,,,,,,,None,None,None,None,5.049479166666667,3.3417412999551743,723.9005773999961,None,723.9005773999961,None,723.9005773999961,None,723.9005773999961,None,None,None,727.2578830000712,None,-0.020833333333333332,-0.3072916666666667,1,0,0,3.8971785000758246,tijiao,,245,f,25,2023_Mar_22_1338,RL,2021.2.3,59.834020403426756,
0,0.3,0.225,0,55,55,55,,,,,,,,,,,,,,,None,None,None,None,None,728.9256691000191,None,728.9256691000191,None,728.9256691000191,None,728.9256691000191,None,r,0.29051640001125634,728.9256691000191,None,728.9256691000191,None,729.2721283000428,None,729.2721283000428,None,729.2721283000428,None,729.2721283000428,None,729.2721283000428,None,729.2721283000428,None,729.5598291000351,731.4780449999962,729.5598291000351,731.4780449999962,731.5105985000264,None,731.5105985000264,None,731.5105985000264,None,731.5105985000264,None,731.5105985000264,None,731.5105985000264,None,731.5105985000264,None,731.5105985000264,None,731.5105985000264,None,74,75,43,42,74,0,734.0280431000283,None,2.0,1.8554079999448732,734.0280431000283,None,734.0280431000283,None,734.0280431000283,None,734.0280431000283,None,,None,None,,None,None,None,None,None,None,None,None,None,None,None,None,None,None,None,None,None,None,0.2,3,None,None,None,None,None,None,None,None,None,None,None,None,,None,None,None,None,,,,,,,,None,None,None,None,None,None,None,None,None,None,None,None,None,None,None,None,735.9387768000597,None,,,,,,,,,245,f,25,2023_Mar_22_1338,RL,2021.2.3,59.834020403426756,
1,-0.3,-0.225,0,56,56,56,,,,,,,,,,,,,,,None,None,None,None,None,737.7691841999767,None,737.7691841999767,None,737.7691841999767,None,737.7691841999767,None,f,0.417082600062713,737.7691841999767,None,737.7691841999767,None,738.237258200068,None,738.237258200068,None,738.237258200068,None,738.237258200068,None,738.237258200068,None,738.237258200068,None,738.5327368000289,739.3666532000061,738.5327368000289,739.3666532000061,739.3975315999705,None,739.3975315999705,None,739.3975315999705,None,739.3975315999705,None,739.3975315999705,None,739.3975315999705,None,739.3975315999705,None,739.3975315999705,None,739.3975315999705,None,66,68,47,37,68,70,None,None,None,None,None,None,None,None,None,None,None,None,70,741.9261414000066,None,70,741.9261414000066,None,741.9261414000066,None,741.9261414000066,None,741.9261414000066,None,741.9261414000066,None,741.9261414000066,None,741.9261414000066,None,0.0010955800535157323,None,741.9261414000066,None,-0.6,0,None,None,None,None,None,None,None,None,None,None,None,None,,None,None,None,None,,,,,,,,None,None,None,None,5.036458333333333,2.230253800051287,745.0437638000585,None,745.0437638000585,None,745.0437638000585,None,745.0437638000585,None,None,None,747.2882764000678,None,0.015625,-0.2890625,1,0,0,3.0713982000015676,tijiao,,245,f,25,2023_Mar_22_1338,RL,2021.2.3,59.834020403426756,
0,0.3,0.225,0,57,57,57,,,,,,,,,,,,,,,None,None,None,None,None,748.8610296000261,None,748.8610296000261,None,748.8610296000261,None,748.8610296000261,None,r,0.40531539998482913,748.8610296000261,None,748.8610296000261,None,749.3196732000215,None,749.3196732000215,None,749.3196732000215,None,749.3196732000215,None,749.3196732000215,None,749.3196732000215,None,749.6072021999862,750.5076488000341,749.6072021999862,750.5076488000341,750.5396822000621,None,750.5396822000621,None,750.5396822000621,None,750.5396822000621,None,750.5396822000621,None,750.5396822000621,None,750.5396822000621,None,750.5396822000621,None,750.5396822000621,None,72,66,34,42,72,83,753.0642318000318,None,5.0,2.531913499929942,753.0642318000318,None,753.0642318000318,None,753.0642318000318,None,753.0642318000318,None,,None,None,,None,None,None,None,None,None,None,None,None,None,None,None,None,None,None,None,None,None,0.6,3,None,None,None,None,None,None,None,None,None,None,None,None,,None,None,None,None,,,,,,,,None,None,None,None,None,None,None,None,None,None,None,None,None,None,None,None,755.650928099989,None,,,,,,,,,245,f,25,2023_Mar_22_1338,RL,2021.2.3,59.834020403426756,
1,-0.3,-0.225,0,58,58,58,,,,,,,,,,,,,,,None,None,None,None,None,757.51696430007,None,757.51696430007,None,757.51696430007,None,757.51696430007,None,r,0.37980899994727224,757.51696430007,None,757.51696430007,None,757.934592799982,None,757.934592799982,None,757.934592799982,None,757.934592799982,None,757.934592799982,None,757.934592799982,None,758.2295206000563,None,758.2295206000563,None,759.7100575000513,None,759.7100575000513,None,759.7100575000513,None,759.7100575000513,None,759.7100575000513,None,759.7100575000513,None,759.7100575000513,None,759.7100575000513,None,759.7100575000513,None,74,70,39,50,74,78,762.2348411000567,None,6.0,2.600340300006792,762.2348411000567,None,762.2348411000567,None,762.2348411000567,None,762.2348411000567,None,,None,None,,None,None,None,None,None,None,None,None,None,None,None,None,None,None,None,None,None,None,0.6,2,None,None,None,None,None,None,None,None,None,None,None,None,,None,None,None,None,,,,,,,,None,None,None,None,None,None,None,None,None,None,None,None,None,None,None,None,764.8849428000394,None,,,,,,,,,245,f,25,2023_Mar_22_1338,RL,2021.2.3,59.834020403426756,
0,0.3,0.225,0,59,59,59,,,,,,,,,,,,,,,None,None,None,None,None,766.806307699997,None,766.806307699997,None,766.806307699997,None,766.806307699997,None,f,0.44051509990822524,766.806307699997,None,766.806307699997,None,767.2987790000625,None,767.2987790000625,None,767.2987790000625,None,767.2987790000625,None,767.2987790000625,None,767.2987790000625,None,767.5860979000572,None,767.5860979000572,None,769.183569899993,None,769.183569899993,None,769.183569899993,None,769.183569899993,None,769.183569899993,None,769.183569899993,None,769.183569899993,None,769.183569899993,None,769.183569899993,None,79,69,36,47,69,77,771.709733900032,None,5.0,2.5528212999925017,771.709733900032,None,771.709733900032,None,771.709733900032,None,771.709733900032,None,,None,None,,None,None,None,None,None,None,None,None,None,None,None,None,None,None,None,None,None,None,0.2,3,None,None,None,None,None,None,None,None,None,None,None,None,,None,None,None,None,,,,,,,,None,None,None,None,None,None,None,None,None,None,None,None,None,None,None,None,774.3149140999885,None,,,,,,,,,245,f,25,2023_Mar_22_1338,RL,2021.2.3,59.834020403426756,
1,-0.3,-0.225,0,60,60,60,,,,,,,,,,,,,,,None,None,None,None,None,775.9299037000164,None,775.9299037000164,None,775.9299037000164,None,775.9299037000164,None,r,0.5166585000697523,775.9299037000164,None,775.9299037000164,None,776.5013537000632,None,776.5013537000632,None,776.5013537000632,None,776.5013537000632,None,776.5013537000632,None,776.5013537000632,None,776.7925594999688,778.7939589000307,776.7925594999688,778.7939589000307,778.8256585000781,None,778.8256585000781,None,778.8256585000781,None,778.8256585000781,None,778.8256585000781,None,778.8256585000781,None,778.8256585000781,None,778.8256585000781,None,778.8256585000781,None,82,68,38,36,82,5,781.3473003000254,None,2.0,1.4501980999484658,781.3473003000254,None,781.3473003000254,None,781.3473003000254,None,781.3473003000254,None,,None,None,,None,None,None,None,None,None,None,None,None,None,None,None,None,None,None,None,None,None,0.6,2,None,None,None,None,None,None,None,None,None,None,None,None,,None,None,None,None,,,,,,,,None,None,None,None,None,None,None,None,None,None,None,None,None,None,None,None,782.8504719000775,None,,,,,,,,,245,f,25,2023_Mar_22_1338,RL,2021.2.3,59.834020403426756,
0,0.3,0.225,0,61,61,61,,,,,,,,,,,,,,,None,None,None,None,None,784.3685975000262,None,784.3685975000262,None,784.3685975000262,None,784.3685975000262,None,f,0.47819040005560964,784.3685975000262,None,784.3685975000262,None,784.8881974000251,None,784.8881974000251,None,784.8881974000251,None,784.8881974000251,None,784.8881974000251,None,784.8881974000251,None,785.1817274000496,786.33267969999,785.1817274000496,786.33267969999,786.3637741999701,None,786.3637741999701,None,786.3637741999701,None,786.3637741999701,None,786.3637741999701,None,786.3637741999701,None,786.3637741999701,None,786.3637741999701,None,786.3637741999701,None,81,72,42,25,72,71,788.8813179000281,None,4.0,2.039471400086768,788.8813179000281,None,788.8813179000281,None,788.8813179000281,None,788.8813179000281,None,,None,None,,None,None,None,None,None,None,None,None,None,None,None,None,None,None,None,None,None,None,0.6,2,None,None,None,None,None,None,None,None,None,None,None,None,,None,None,None,None,,,,,,,,None,None,None,None,None,None,None,None,None,None,None,None,None,None,None,None,790.9713539000368,None,,,,,,,,,245,f,25,2023_Mar_22_1338,RL,2021.2.3,59.834020403426756,
1,-0.3,-0.225,0,62,62,62,,,,,,,,,,,,,,,None,None,None,None,None,792.5242134999717,None,792.5242134999717,None,792.5242134999717,None,792.5242134999717,None,f,0.5226988999638706,792.5242134999717,None,792.5242134999717,None,793.0936909000156,None,793.0936909000156,None,793.0936909000156,None,793.0936909000156,None,793.0936909000156,None,793.0936909000156,None,793.3875901000574,794.7886177999899,793.3875901000574,794.7886177999899,794.8210376000497,None,794.8210376000497,None,794.8210376000497,None,794.8210376000497,None,794.8210376000497,None,794.8210376000497,None,794.8210376000497,None,794.8210376000497,None,794.8210376000497,None,72,61,45,35,61,87,None,None,None,None,None,None,None,None,None,None,None,None,,None,None,,None,None,None,None,None,None,None,None,None,None,None,None,None,None,None,None,None,None,0.6,1,797.3697792000603,None,797.3697792000603,None,797.3697792000603,None,797.3697792000603,None,797.3697792000603,None,797.3697792000603,None,25,797.3697792000603,None,797.3697792000603,None,-0.040364583333333336,-0.3098958333333333,1,0,0,5.767617699922994,tijiao_random_2,0.012830260093323886,None,797.3697792000603,None,6.052083333333334,2.4787673000246286,803.1676736000227,None,803.1676736000227,None,803.1676736000227,None,803.1676736000227,None,None,None,805.6622158000246,None,,,,,,,,,245,f,25,2023_Mar_22_1338,RL,2021.2.3,59.834020403426756,
0,0.3,0.225,0,63,63,63,,,,,,,,,,,,,,,None,None,None,None,None,807.6685538999736,None,807.6685538999736,None,807.6685538999736,None,807.6685538999736,None,f,0.32825889997184277,807.6685538999736,None,807.6685538999736,None,808.0436847000383,None,808.0436847000383,None,808.0436847000383,None,808.0436847000383,None,808.0436847000383,None,808.0436847000383,None,808.3313939999789,809.9490361000644,808.3313939999789,809.9490361000644,809.9862681999803,None,809.9862681999803,None,809.9862681999803,None,809.9862681999803,None,809.9862681999803,None,809.9862681999803,None,809.9862681999803,None,809.9862681999803,None,809.9862681999803,None,75,64,49,30,64,87,812.5053864000365,None,5.0,2.184282400063239,812.5053864000365,None,812.5053864000365,None,812.5053864000365,None,812.5053864000365,None,,None,None,,None,None,None,None,None,None,None,None,None,None,None,None,None,None,None,None,None,None,-0.2,3,None,None,None,None,None,None,None,None,None,None,None,None,,None,None,None,None,,,,,,,,None,None,None,None,None,None,None,None,None,None,None,None,None,None,None,None,814.7515458000125,None,,,,,,,,,245,f,25,2023_Mar_22_1338,RL,2021.2.3,59.834020403426756,
1,-0.3,-0.225,0,64,64,64,,,,,,,,,,,,,,,None,None,None,None,None,816.440989100025,None,816.440989100025,None,816.440989100025,None,816.440989100025,None,f,0.35589440003968775,816.440989100025,None,816.440989100025,None,816.843619100051,None,816.843619100051,None,816.843619100051,None,816.843619100051,None,816.843619100051,None,816.843619100051,None,817.1372886999743,None,817.1372886999743,None,818.7343718999764,None,818.7343718999764,None,818.7343718999764,None,818.7343718999764,None,818.7343718999764,None,818.7343718999764,None,818.7343718999764,None,818.7343718999764,None,818.7343718999764,None,65,64,49,29,64,78,None,None,None,None,None,None,None,None,None,None,None,None,,None,None,,None,None,None,None,None,None,None,None,None,None,None,None,None,None,None,None,None,None,-0.6,1,821.277430600021,None,821.277430600021,None,821.277430600021,None,821.277430600021,None,821.277430600021,None,821.277430600021,None,50,821.277430600021,None,821.277430600021,None,-0.0026041666666666665,-0.2721354166666667,1,0,0,9.562452599988319,tijiao_random_2,0.004840770037844777,None,821.277430600021,None,2.953125,2.0108569000149146,830.8723510999698,None,830.8723510999698,None,830.8723510999698,None,830.8723510999698,None,None,None,832.8974986000685,None,,,,,,,,,245,f,25,2023_Mar_22_1338,RL,2021.2.3,59.834020403426756,
0,0.3,0.225,0,65,65,65,,,,,,,,,,,,,,,None,None,None,None,None,834.8205439000158,None,834.8205439000158,None,834.8205439000158,None,834.8205439000158,None,f,0.6764562999596819,834.8205439000158,None,834.8205439000158,None,835.5396028000396,None,835.5396028000396,None,835.5396028000396,None,835.5396028000396,None,835.5396028000396,None,835.5396028000396,None,835.8335063999984,None,835.8335063999984,None,837.4199807000114,None,837.4199807000114,None,837.4199807000114,None,837.4199807000114,None,837.4199807000114,None,837.4199807000114,None,837.4199807000114,None,837.4199807000114,None,837.4199807000114,None,66,65,45,26,65,81,None,None,None,None,None,None,None,None,None,None,None,None,,None,None,,None,None,None,None,None,None,None,None,None,None,None,None,None,None,None,None,None,None,-0.6,1,839.9679652999621,None,839.9679652999621,None,839.9679652999621,None,839.9679652999621,None,839.9679652999621,None,839.9679652999621,None,30,839.9679652999621,None,839.9679652999621,None,0.018229166666666668,-0.265625,1,0,0,4.0139944000402465,tijiao_random_2,0.009775960119441152,None,839.9679652999621,None,2.080729166666667,2.2656730000162497,844.0167283000192,None,844.0167283000192,None,844.0167283000192,None,844.0167283000192,None,None,None,846.3079176000319,None,,,,,,,,,245,f,25,2023_Mar_22_1338,RL,2021.2.3,59.834020403426756,
1,-0.3,-0.225,0,66,66,66,,,,,,,,,,,,,,,None,None,None,None,None,848.2298679000232,None,848.2298679000232,None,848.2298679000232,None,848.2298679000232,None,r,0.3871703000040725,848.2298679000232,None,848.2298679000232,None,848.6661578000057,None,848.6661578000057,None,848.6661578000057,None,848.6661578000057,None,848.6661578000057,None,848.6661578000057,None,848.9589461999713,850.3937146000098,848.9589461999713,850.3937146000098,850.4255905000027,None,850.4255905000027,None,850.4255905000027,None,850.4255905000027,None,850.4255905000027,None,850.4255905000027,None,850.4255905000027,None,850.4255905000027,None,850.4255905000027,None,65,65,56,15,65,93,None,None,None,None,None,None,None,None,None,None,None,None,,None,None,,None,None,None,None,None,None,None,None,None,None,None,None,None,None,None,None,None,None,-0.2,1,852.9691237000516,None,852.9691237000516,None,852.9691237000516,None,852.9691237000516,None,852.9691237000516,None,852.9691237000516,None,70,852.9691237000516,None,852.9691237000516,None,-0.026041666666666668,-0.2643229166666667,1,0,0,5.572703000041656,tijiao_random_2,0.0011112700449302793,None,852.9691237000516,None,3.96875,2.6777257999638095,858.5733929000562,None,858.5733929000562,None,858.5733929000562,None,858.5733929000562,None,None,None,861.2755851000547,None,,,,,,,,,245,f,25,2023_Mar_22_1338,RL,2021.2.3,59.834020403426756,
0,0.3,0.225,0,67,67,67,,,,,,,,,,,,,,,None,None,None,None,None,863.1729738999857,None,863.1729738999857,None,863.1729738999857,None,863.1729738999857,None,f,0.32408270006999373,863.1729738999857,None,863.1729738999857,None,863.5441775000654,None,863.5441775000654,None,863.5441775000654,None,863.5441775000654,None,863.5441775000654,None,863.5441775000654,None,863.8363004999701,None,863.8363004999701,None,864.8160984000424,None,864.8160984000424,None,864.8160984000424,None,864.8160984000424,None,864.8160984000424,None,864.8160984000424,None,864.8160984000424,None,864.8160984000424,None,864.8160984000424,None,69,69,53,22,69,86,None,None,None,None,None,None,None,None,None,None,None,None,70,867.3466810999671,None,70,867.3466810999671,None,867.3466810999671,None,867.3466810999671,None,867.3466810999671,None,867.3466810999671,None,867.3466810999671,None,867.3466810999671,None,0.000868980074301362,None,867.3466810999671,None,-0.6,0,None,None,None,None,None,None,None,None,None,None,None,None,,None,None,None,None,,,,,,,,None,None,None,None,6.15625,1.9289596000453457,871.9996086000465,None,871.9996086000465,None,871.9996086000465,None,871.9996086000465,None,None,None,873.9622236000141,None,-0.032552083333333336,-0.3515625,1,0,0,3.070242900052108,tijiao,,245,f,25,2023_Mar_22_1338,RL,2021.2.3,59.834020403426756,
1,-0.3,-0.225,0,68,68,68,,,,,,,,,,,,,,,None,None,None,None,None,875.6157275000587,None,875.6157275000587,None,875.6157275000587,None,875.6157275000587,None,f,0.41273989994078875,875.6157275000587,None,875.6157275000587,None,876.0679284000071,None,876.0679284000071,None,876.0679284000071,None,876.0679284000071,None,876.0679284000071,None,876.0679284000071,None,876.3618815999944,None,876.3618815999944,None,878.3758195000701,None,878.3758195000701,None,878.3758195000701,None,878.3758195000701,None,878.3758195000701,None,878.3758195000701,None,878.3758195000701,None,878.3758195000701,None,878.3758195000701,None,71,72,62,16,72,81,None,None,None,None,None,None,None,None,None,None,None,None,,None,None,,None,None,None,None,None,None,None,None,None,None,None,None,None,None,None,None,None,None,0.6,1,880.9264299999923,None,880.9264299999923,None,880.9264299999923,None,880.9264299999923,None,880.9264299999923,None,880.9264299999923,None,30,880.9264299999923,None,880.9264299999923,None,0.022135416666666668,-0.2643229166666667,1,0,0,5.583970900042914,tijiao_random_2,0.012509360094554722,None,880.9264299999923,None,6.989583333333334,2.0789646999910474,886.5444916000124,None,886.5444916000124,None,886.5444916000124,None,886.5444916000124,None,None,None,888.6536655999953,None,,,,,,,,,245,f,25,2023_Mar_22_1338,RL,2021.2.3,59.834020403426756,
0,0.3,0.225,0,69,69,69,,,,,,,,,,,,,,,None,None,None,None,None,890.4095738000469,None,890.4095738000469,None,890.4095738000469,None,890.4095738000469,None,i,0.5088666999945417,890.4095738000469,None,890.4095738000469,None,890.9634059000527,None,890.9634059000527,None,890.9634059000527,None,890.9634059000527,None,890.9634059000527,None,890.9634059000527,None,891.2554871999891,893.0066582000582,891.2554871999891,893.0066582000582,893.0373759999638,None,893.0373759999638,None,893.0373759999638,None,893.0373759999638,None,893.0373759999638,None,893.0373759999638,None,893.0373759999638,None,893.0373759999638,None,893.0373759999638,None,68,66,56,24,56,82,895.5605009000283,None,5.0,2.751546800020151,895.5605009000283,None,895.5605009000283,None,895.5605009000283,None,895.5605009000283,None,,None,None,,None,None,None,None,None,None,None,None,None,None,None,None,None,None,None,None,None,None,0.2,3,None,None,None,None,None,None,None,None,None,None,None,None,,None,None,None,None,,,,,,,,None,None,None,None,None,None,None,None,None,None,None,None,None,None,None,None,898.3683345000027,None,,,,,,,,,245,f,25,2023_Mar_22_1338,RL,2021.2.3,59.834020403426756,
1,-0.3,-0.225,0,70,70,70,,,,,,,,,,,,,,,None,None,None,None,None,899.9320350000635,None,899.9320350000635,None,899.9320350000635,None,899.9320350000635,None,j,0.5064688998972997,899.9320350000635,None,899.9320350000635,None,900.4954181000357,None,900.4954181000357,None,900.4954181000357,None,900.4954181000357,None,900.4954181000357,None,900.4954181000357,None,900.7953194000293,None,900.7953194000293,None,901.910338900052,None,901.910338900052,None,901.910338900052,None,901.910338900052,None,901.910338900052,None,901.910338900052,None,901.910338900052,None,901.910338900052,None,901.910338900052,None,59,73,56,16,16,19,904.4358443999663,None,1.0,2.25080809998326,904.4358443999663,None,904.4358443999663,None,904.4358443999663,None,904.4358443999663,None,,None,None,,None,None,None,None,None,None,None,None,None,None,None,None,None,None,None,None,None,None,-0.2,3,None,None,None,None,None,None,None,None,None,None,None,None,,None,None,None,None,,,,,,,,None,None,None,None,None,None,None,None,None,None,None,None,None,None,None,None,906.7372624999844,None,,,,,,,,,245,f,25,2023_Mar_22_1338,RL,2021.2.3,59.834020403426756,
0,0.3,0.225,0,71,71,71,,,,,,,,,,,,,,,None,None,None,None,None,908.4890300000552,None,908.4890300000552,None,908.4890300000552,None,908.4890300000552,None,f,1.0595214000204578,908.4890300000552,None,908.4890300000552,None,909.5909301000647,None,909.5909301000647,None,909.5909301000647,None,909.5909301000647,None,909.5909301000647,None,909.5909301000647,None,909.8850568999769,None,909.8850568999769,None,910.931862300029,None,910.931862300029,None,910.931862300029,None,910.931862300029,None,910.931862300029,None,910.931862300029,None,910.931862300029,None,910.931862300029,None,910.931862300029,None,57,85,56,8,85,90,None,None,None,None,None,None,None,None,None,None,None,None,,None,None,,None,None,None,None,None,None,None,None,None,None,None,None,None,None,None,None,None,None,0.6,1,913.4769596999977,None,913.4769596999977,None,913.4769596999977,None,913.4769596999977,None,913.4769596999977,None,913.4769596999977,None,15,913.4769596999977,None,913.4769596999977,None,0.01171875,-0.2708333333333333,1,0,0,6.474312199978158,tijiao_random_2,0.0019060700433328748,None,913.4769596999977,None,7.901041666666666,1.977352699963376,919.9857216000091,None,919.9857216000091,None,919.9857216000091,None,919.9857216000091,None,None,None,921.9860297000268,None,,,,,,,,,245,f,25,2023_Mar_22_1338,RL,2021.2.3,59.834020403426756,
1,-0.3,-0.225,0,72,72,72,,,,,,,,,,,,,,,None,None,None,None,None,923.4988330999622,None,923.4988330999622,None,923.4988330999622,None,923.4988330999622,None,r,0.4197869000490755,923.4988330999622,None,923.4988330999622,None,923.968131700065,None,923.968131700065,None,923.968131700065,None,923.968131700065,None,923.968131700065,None,923.968131700065,None,924.261583799962,None,924.261583799962,None,925.8263997000176,None,925.8263997000176,None,925.8263997000176,None,925.8263997000176,None,925.8263997000176,None,925.8263997000176,None,925.8263997000176,None,925.8263997000176,None,925.8263997000176,None,45,79,58,10,45,95,None,None,None,None,None,None,None,None,None,None,None,None,40,928.3571612000233,None,40,928.3571612000233,None,928.3571612000233,None,928.3571612000233,None,928.3571612000233,None,928.3571612000233,None,928.3571612000233,None,928.3571612000233,None,0.016444670036435127,None,928.3571612000233,None,0.2,0,None,None,None,None,None,None,None,None,None,None,None,None,,None,None,None,None,,,,,,,,None,None,None,None,7.0546875,2.151000600075349,932.7044002000475,None,932.7044002000475,None,932.7044002000475,None,932.7044002000475,None,None,None,934.8684695999837,None,-0.0026041666666666665,-0.2864583333333333,1,0,0,4.303013000055216,tijiao,,245,f,25,2023_Mar_22_1338,RL,2021.2.3,59.834020403426756,
0,0.3,0.225,0,73,73,73,,,,,,,,,,,,,,,None,None,None,None,None,936.557151200017,None,936.557151200017,None,936.557151200017,None,936.557151200017,None,r,0.3614636999554932,936.557151200017,None,936.557151200017,None,936.961098400061,None,936.961098400061,None,936.961098400061,None,936.961098400061,None,936.961098400061,None,936.961098400061,None,937.2375667999731,938.2880766000599,937.2375667999731,938.2880766000599,938.3195909999777,None,938.3195909999777,None,938.3195909999777,None,938.3195909999777,None,938.3195909999777,None,938.3195909999777,None,938.3195909999777,None,938.3195909999777,None,938.3195909999777,None,52,82,57,7,52,91,None,None,None,None,None,None,None,None,None,None,None,None,50,940.8566081000026,None,50,940.8566081000026,None,940.8566081000026,None,940.8566081000026,None,940.8566081000026,None,940.8566081000026,None,940.8566081000026,None,940.8566081000026,None,0.00894147006329149,None,940.8566081000026,None,0.2,0,None,None,None,None,None,None,None,None,None,None,None,None,,None,None,None,None,,,,,,,,None,None,None,None,7.1328125,2.405003200052306,945.1812330000103,None,945.1812330000103,None,945.1812330000103,None,945.1812330000103,None,None,None,947.6104115999769,None,0.014322916666666666,-0.30078125,1,0,0,4.279656299971975,tijiao,,245,f,25,2023_Mar_22_1338,RL,2021.2.3,59.834020403426756,
1,-0.3,-0.225,0,74,74,74,,,,,,,,,,,,,,,None,None,None,None,None,949.2662203999935,None,949.2662203999935,None,949.2662203999935,None,949.2662203999935,None,f,0.4226106000132859,949.2662203999935,None,949.2662203999935,None,949.7436979999766,None,949.7436979999766,None,949.7436979999766,None,949.7436979999766,None,949.7436979999766,None,949.7436979999766,None,950.0295751000522,951.9142827000469,950.0295751000522,951.9142827000469,951.9477608000161,None,951.9477608000161,None,951.9477608000161,None,951.9477608000161,None,951.9477608000161,None,951.9477608000161,None,951.9477608000161,None,951.9477608000161,None,951.9477608000161,None,54,79,58,17,79,92,954.4709234000184,None,6.0,1.9832965999376029,954.4709234000184,None,954.4709234000184,None,954.4709234000184,None,954.4709234000184,None,,None,None,,None,None,None,None,None,None,None,None,None,None,None,None,None,None,None,None,None,None,-0.2,2,None,None,None,None,None,None,None,None,None,None,None,None,,None,None,None,None,,,,,,,,None,None,None,None,None,None,None,None,None,None,None,None,None,None,None,None,956.5056089999853,None,,,,,,,,,245,f,25,2023_Mar_22_1338,RL,2021.2.3,59.834020403426756,
0,0.3,0.225,0,75,75,75,,,,,,,,,,,,,,,958.0517720000353,None,q,958.0517720000353,None,991.3392487000674,None,991.3392487000674,None,991.3392487000674,None,991.3392487000674,None,f,1.1278104999801144,991.3392487000674,None,991.3392487000674,None,992.5190752000781,None,992.5190752000781,None,992.5190752000781,None,992.5190752000781,None,992.5190752000781,None,992.5190752000781,None,992.8092805000488,993.7098742000526,992.8092805000488,993.7098742000526,993.7430942000356,None,993.7430942000356,None,993.7430942000356,None,993.7430942000356,None,993.7430942000356,None,993.7430942000356,None,993.7430942000356,None,993.7430942000356,None,993.7430942000356,None,65,94,51,5,94,88,996.2593767000362,None,5.0,3.2567518000723794,996.2593767000362,None,996.2593767000362,None,996.2593767000362,None,996.2593767000362,None,,None,None,,None,None,None,None,None,None,None,None,None,None,None,None,None,None,None,None,None,None,-0.2,3,None,None,None,None,None,None,None,None,None,None,None,None,,None,None,None,None,,,,,,,,None,None,None,None,None,None,None,None,None,None,None,None,None,None,None,None,999.5796192999696,None,,,,,,,,33.20827539998572,245,f,25,2023_Mar_22_1338,RL,2021.2.3,59.834020403426756,
1,-0.3,-0.225,0,76,76,76,,,,,,,,,,,,,,,None,None,None,None,None,1001.4031331000151,None,1001.4031331000151,None,1001.4031331000151,None,1001.4031331000151,None,f,0.3442576000234112,1001.4031331000151,None,1001.4031331000151,None,1001.7891576000256,None,1001.7891576000256,None,1001.7891576000256,None,1001.7891576000256,None,1001.7891576000256,None,1001.7891576000256,None,1002.0824858000269,None,1002.0824858000269,None,1003.9641474999953,None,1003.9641474999953,None,1003.9641474999953,None,1003.9641474999953,None,1003.9641474999953,None,1003.9641474999953,None,1003.9641474999953,None,1003.9641474999953,None,1003.9641474999953,None,54,92,50,8,92,93,1006.490638300078,None,6.0,2.818364900071174,1006.490638300078,None,1006.490638300078,None,1006.490638300078,None,1006.490638300078,None,,None,None,,None,None,None,None,None,None,None,None,None,None,None,None,None,None,None,None,None,None,0.2,2,None,None,None,None,None,None,None,None,None,None,None,None,,None,None,None,None,,,,,,,,None,None,None,None,None,None,None,None,None,None,None,None,None,None,None,None,1009.3704579999903,None,,,,,,,,,245,f,25,2023_Mar_22_1338,RL,2021.2.3,59.834020403426756,
