bandit0,black_x_pos_random,black_y_pos_random,trials.thisRepN,trials.thisTrialN,trials.thisN,trials.thisIndex,instru_img1.started,instru_resp.started,instru_resp.keys,instru_resp.rt,instru_img2.started,instru_resp2.started,instru_resp2.keys,instru_resp2.rt,fixbefore_2.started,rest_response.keys,red.started,green.started,yellow.started,blue.started,choose_bandit.started,Fixation.started,choose_bandit.keys,choose_bandit.rt,black.started,red_2.started,green_2.started,yellow_2.started,blue_2.started,fixation_2.started,docs.started,wait_playerB.started,docs.stopped,wait_playerB.stopped,black.stopped,red_2.stopped,green_2.stopped,yellow_2.stopped,blue_2.stopped,fixation_2.stopped,black_com.started,reward_sub.started,palyerb.started,reward__sub.started,compare.started,red_compare.started,green_com.started,yellow_com.started,blue_com.started,image_3.started,slider.started,text.started,image_4.started,image_5.started,rewardyellow,rewardred,rewardblue,rewardgreen,subchoose,playerb,slider.response,slider.rt,expectself.text,value_expect_self,tijiao_click.x,tijiao_click.y,tijiao_click.leftButton,tijiao_click.midButton,tijiao_click.rightButton,tijiao_click.time,tijiao_click.clicked_name,random_whicharm,whether_ask,expect_random_3.text,tijiao_random.x,tijiao_random.y,tijiao_random.leftButton,tijiao_random.midButton,tijiao_random.rightButton,tijiao_random.time,tijiao_random.clicked_name,slider_2.response,slider_2.rt,intertrialfix.started,intertrialfix.stopped,expectself.started,expect_self_black.started,expect_self.started,expect_self_red.started,expect_self_green.started,expect_self_yellow.started,expect_self_blue.started,tijiao.started,tijiao_click.started,check.started,slider_2.started,image_7.started,confi.started,notconfi.started,jiantou_random.started,expect_red.started,expect_green.started,expect_yellow.started,expect_blue.started,expect_random_2.started,expect_random_3.started,tijiao_random_2.started,tijiao_random.started,check_2.started,bigx.started,bigx.stopped,rest_image.started,rest_response.started,rest_response.rt,participant,Gender,Age,date,expName,psychopyVersion,frameRate,
,,,,,,,72.27310120000038,72.27310120000038,space,9.889819000003627,,,,,,,,,,,,,,,,,,,,,,,,,,,,,,,,,,,,,,,,,,,,,,,,,,,,,,,,,,,,,,,,,,,,,,,,,,,,,,,,,,,,,,,,,,,,,,,,,,,,,,,,,246,f,24,2023-03-22_13h38.30.019,RL,2022.2.4,60.25254251124861,
,,,,,,,,,,,82.19757580000442,82.19757580000442,s,17.50862710000365,,,,,,,,,,,,,,,,,,,,,,,,,,,,,,,,,,,,,,,,,,,,,,,,,,,,,,,,,,,,,,,,,,,,,,,,,,,,,,,,,,,,,,,,,,,,,,,,,,,,,246,f,24,2023-03-22_13h38.30.019,RL,2022.2.4,60.25254251124861,
1,-0.3,-0.225,0,0,0,0,,,,,,,,,99.72571070000413,None,100.75872809998691,100.75872809998691,100.75872809998691,100.75872809998691,100.75872809998691,100.75872809998691,j,0.4955861000053119,101.30427789999521,101.30427789999521,101.30427789999521,101.30427789999521,101.30427789999521,101.30427789999521,101.58697470001061,101.58697470001061,103.13198720000219,103.13198720000219,103.14964960000361,103.14964960000361,103.14964960000361,103.14964960000361,103.14964960000361,103.14964960000361,103.14964960000361,103.14964960000361,103.14964960000361,103.14964960000361,103.14964960000361,103.14964960000361,103.14964960000361,103.14964960000361,103.14964960000361,105.65845429999172,105.65845429999172,105.65845429999172,105.65845429999172,105.65845429999172,56,60,35,40,40,49,2.0,2.376250200002687,,,[],[],[],[],[],[],[],0.6,3,,[],[],[],[],[],[],[],None,None,108.21714419999626,109.84726249999949,,,,,,,,,,,,,,,,,,,,,,,,,,,,,,246,f,24,2023-03-22_13h38.30.019,RL,2022.2.4,60.25254251124861,
0,0.3,0.225,0,1,1,1,,,,,,,,,,None,109.84726249999949,109.84726249999949,109.84726249999949,109.84726249999949,109.84726249999949,109.84726249999949,r,1.0405108999984805,110.91630089998944,110.91630089998944,110.91630089998944,110.91630089998944,110.91630089998944,110.91630089998944,111.21060719998786,111.21060719998786,112.4567745999957,112.4567745999957,112.4567745999957,112.4567745999957,112.4567745999957,112.4567745999957,112.4567745999957,112.4567745999957,112.4567745999957,112.4567745999957,112.4567745999957,112.4567745999957,112.4567745999957,112.4567745999957,112.4567745999957,112.4567745999957,112.4567745999957,,,,,,55,53,37,59,55,50,None,None,55,55,[-0.011111111111111112],[-0.2601851851851852],[1],[0],[0],[4.579349500010721],['tijiao'],-0.2,0,,[],[],[],[],[],[],[],4.018518518518518,2.4119085999845993,122.01301659998717,124.00851049998892,114.98788609998883,114.98788609998883,114.98788609998883,114.98788609998883,114.98788609998883,114.98788609998883,114.98788609998883,114.98788609998883,0.007962699979543686,114.98788609998883,119.58947989999433,119.58947989999433,119.58947989999433,119.58947989999433,,,,,,,,,,,,,,,,246,f,24,2023-03-22_13h38.30.019,RL,2022.2.4,60.25254251124861,
1,-0.3,-0.225,0,2,2,2,,,,,,,,,,None,124.00851049998892,124.00851049998892,124.00851049998892,124.00851049998892,124.00851049998892,124.00851049998892,j,0.6540156999835745,124.69037749999552,124.69037749999552,124.69037749999552,124.69037749999552,124.69037749999552,124.69037749999552,124.98966789999395,124.98966789999395,126.35226809998858,126.35226809998858,126.35226809998858,126.35226809998858,126.35226809998858,126.35226809998858,126.35226809998858,126.35226809998858,126.35226809998858,126.35226809998858,126.35226809998858,126.35226809998858,126.35226809998858,126.35226809998858,126.35226809998858,126.35226809998858,126.35226809998858,,,,,,51,49,17,46,46,53,None,None,50,50,[0.003703703703703704],[-0.2861111111111111],[1],[0],[0],[4.228027700009989],['tijiao'],0.2,0,,[],[],[],[],[],[],[],3.0,2.5265357000171207,135.6590445000038,137.47199849999743,128.86421770000015,128.86421770000015,128.86421770000015,128.86421770000015,128.86421770000015,128.86421770000015,128.86421770000015,128.86421770000015,0.00785679998807609,128.86421770000015,133.11377960001118,133.11377960001118,133.11377960001118,133.11377960001118,,,,,,,,,,,,,,,,246,f,24,2023-03-22_13h38.30.019,RL,2022.2.4,60.25254251124861,
0,0.3,0.225,0,3,3,3,,,,,,,,,,None,137.47199849999743,137.47199849999743,137.47199849999743,137.47199849999743,137.47199849999743,137.47199849999743,i,0.5000806000025477,138.00410349998856,138.00410349998856,138.00410349998856,138.00410349998856,138.00410349998856,138.00410349998856,138.30310119999922,138.30310119999922,140.31406129998504,140.31406129998504,140.31406129998504,140.31406129998504,140.31406129998504,140.31406129998504,140.31406129998504,140.31406129998504,140.31406129998504,140.31406129998504,140.31406129998504,140.31406129998504,140.31406129998504,140.31406129998504,140.31406129998504,140.31406129998504,140.31406129998504,142.82349410001189,142.82349410001189,142.82349410001189,142.82349410001189,142.82349410001189,52,54,25,57,25,57,1.0,2.1918528999958653,,,[],[],[],[],[],[],[],0.6,2,,[],[],[],[],[],[],[],None,None,145.0413108000066,146.71343169998727,,,,,,,,,,,,,,,,,,,,,,,,,,,,,,246,f,24,2023-03-22_13h38.30.019,RL,2022.2.4,60.25254251124861,
1,-0.3,-0.225,0,4,4,4,,,,,,,,,,None,146.71343169998727,146.71343169998727,146.71343169998727,146.71343169998727,146.71343169998727,146.71343169998727,r,0.5731263000052422,147.31194539999706,147.31194539999706,147.31194539999706,147.31194539999706,147.31194539999706,147.31194539999706,147.6109773000062,147.6109773000062,148.8241532999964,148.8241532999964,148.8412098000117,148.8412098000117,148.8412098000117,148.8412098000117,148.8412098000117,148.8412098000117,148.8412098000117,148.8412098000117,148.8412098000117,148.8412098000117,148.8412098000117,148.8412098000117,148.8412098000117,148.8412098000117,148.8412098000117,151.34993669998948,151.34993669998948,151.34993669998948,151.34993669998948,151.34993669998948,52,42,33,47,52,50,3.0,1.5619514000136405,,,[],[],[],[],[],[],[],-0.2,3,,[],[],[],[],[],[],[],None,None,152.9391864000063,154.6085444999917,,,,,,,,,,,,,,,,,,,,,,,,,,,,,,246,f,24,2023-03-22_13h38.30.019,RL,2022.2.4,60.25254251124861,
0,0.3,0.225,0,5,5,5,,,,,,,,,,None,154.6085444999917,154.6085444999917,154.6085444999917,154.6085444999917,154.6085444999917,154.6085444999917,f,0.7457692000025418,155.37335720000556,155.37335720000556,155.37335720000556,155.37335720000556,155.37335720000556,155.37335720000556,155.67246030000388,155.67246030000388,156.56972989998758,156.56972989998758,156.56972989998758,156.56972989998758,156.56972989998758,156.56972989998758,156.56972989998758,156.56972989998758,156.56972989998758,156.56972989998758,156.56972989998758,156.56972989998758,156.56972989998758,156.56972989998758,156.56972989998758,156.56972989998758,156.56972989998758,,,,,,62,58,28,68,58,53,None,None,,,[],[],[],[],[],[],[],0.6,1,46,[-0.028703703703703703],[-0.2833333333333333],[1],[0],[0],[4.802033100015251],['tijiao_random_2'],5.092592592592593,2.352661100012483,166.27581019999343,168.12135629999102,,,,,,,,,,,163.9047763000126,163.9047763000126,163.9047763000126,163.9047763000126,159.09162289998494,159.09162289998494,159.09162289998494,159.09162289998494,159.09162289998494,159.09162289998494,159.09162289998494,159.09162289998494,0.006023399997502565,159.09162289998494,,,,,,246,f,24,2023-03-22_13h38.30.019,RL,2022.2.4,60.25254251124861,
1,-0.3,-0.225,0,6,6,6,,,,,,,,,,None,168.12135629999102,168.12135629999102,168.12135629999102,168.12135629999102,168.12135629999102,168.12135629999102,f,0.8785810999979731,169.01938700000755,169.01938700000755,169.01938700000755,169.01938700000755,169.01938700000755,169.01938700000755,169.3182005000126,169.3182005000126,170.53164440000546,170.53164440000546,170.53164440000546,170.53164440000546,170.53164440000546,170.53164440000546,170.53164440000546,170.53164440000546,170.53164440000546,170.53164440000546,170.53164440000546,170.53164440000546,170.53164440000546,170.53164440000546,170.53164440000546,170.53164440000546,170.53164440000546,173.04111019999254,173.04111019999254,173.04111019999254,173.04111019999254,173.04111019999254,62,56,21,59,56,31,4.0,1.9612323000037577,,,[],[],[],[],[],[],[],0.6,3,,[],[],[],[],[],[],[],None,None,175.02576439999393,176.64829680000548,,,,,,,,,,,,,,,,,,,,,,,,,,,,,,246,f,24,2023-03-22_13h38.30.019,RL,2022.2.4,60.25254251124861,
0,0.3,0.225,0,7,7,7,,,,,,,,,,None,176.64829680000548,176.64829680000548,176.64829680000548,176.64829680000548,176.64829680000548,176.64829680000548,i,0.6304489999893121,177.29718500000308,177.29718500000308,177.29718500000308,177.29718500000308,177.29718500000308,177.29718500000308,177.596100499999,177.596100499999,178.42693950000103,178.42693950000103,178.42693950000103,178.42693950000103,178.42693950000103,178.42693950000103,178.42693950000103,178.42693950000103,178.42693950000103,178.42693950000103,178.42693950000103,178.42693950000103,178.42693950000103,178.42693950000103,178.42693950000103,178.42693950000103,178.42693950000103,,,,,,65,53,26,65,26,51,None,None,30,30,[0.12129629629629629],[-0.2759259259259259],[1],[0],[0],[6.255669600010151],['tijiao'],-0.2,0,,[],[],[],[],[],[],[],4.851851851851852,2.645010399981402,189.87777210000786,191.85678269999335,180.9381449999928,180.9381449999928,180.9381449999928,180.9381449999928,180.9381449999928,180.9381449999928,180.9381449999928,180.9381449999928,0.0068555000179912895,180.9381449999928,187.2139746999892,187.2139746999892,187.2139746999892,187.2139746999892,,,,,,,,,,,,,,,,246,f,24,2023-03-22_13h38.30.019,RL,2022.2.4,60.25254251124861,
1,-0.3,-0.225,0,8,8,8,,,,,,,,,,None,191.85678269999335,191.85678269999335,191.85678269999335,191.85678269999335,191.85678269999335,191.85678269999335,r,0.4697662000253331,192.35587120000855,192.35587120000855,192.35587120000855,192.35587120000855,192.35587120000855,192.35587120000855,192.65486859998782,192.65486859998782,193.83486100001028,193.83486100001028,193.83486100001028,193.83486100001028,193.83486100001028,193.83486100001028,193.83486100001028,193.83486100001028,193.83486100001028,193.83486100001028,193.83486100001028,193.83486100001028,193.83486100001028,193.83486100001028,193.83486100001028,193.83486100001028,193.83486100001028,196.34409009999945,196.34409009999945,196.34409009999945,196.34409009999945,196.34409009999945,53,59,31,56,53,33,5.0,1.5448653000057675,,,[],[],[],[],[],[],[],0.2,2,,[],[],[],[],[],[],[],None,None,197.91595269998652,199.66882220000844,,,,,,,,,,,,,,,,,,,,,,,,,,,,,,246,f,24,2023-03-22_13h38.30.019,RL,2022.2.4,60.25254251124861,
0,0.3,0.225,0,9,9,9,,,,,,,,,,None,199.66882220000844,199.66882220000844,199.66882220000844,199.66882220000844,199.66882220000844,199.66882220000844,r,0.8225081999844406,200.5167373000004,200.5167373000004,200.5167373000004,200.5167373000004,200.5167373000004,200.5167373000004,200.81608170000254,200.81608170000254,202.4278026999964,202.4278026999964,202.44455849999213,202.44455849999213,202.44455849999213,202.44455849999213,202.44455849999213,202.44455849999213,202.44455849999213,202.44455849999213,202.44455849999213,202.44455849999213,202.44455849999213,202.44455849999213,202.44455849999213,202.44455849999213,202.44455849999213,204.9538959999918,204.9538959999918,204.9538959999918,204.9538959999918,204.9538959999918,55,55,27,60,55,54,5.0,1.3458653999841772,,,[],[],[],[],[],[],[],0.2,2,,[],[],[],[],[],[],[],None,None,206.324234300002,207.84651490001124,,,,,,,,,,,,,,,,,,,,,,,,,,,,,,246,f,24,2023-03-22_13h38.30.019,RL,2022.2.4,60.25254251124861,
1,-0.3,-0.225,0,10,10,10,,,,,,,,,,None,207.84651490001124,207.84651490001124,207.84651490001124,207.84651490001124,207.84651490001124,207.84651490001124,r,1.4095881000102963,209.27693230001023,209.27693230001023,209.27693230001023,209.27693230001023,209.27693230001023,209.27693230001023,209.5753713999875,209.5753713999875,211.53682340000523,211.53682340000523,211.53682340000523,211.53682340000523,211.53682340000523,211.53682340000523,211.53682340000523,211.53682340000523,211.53682340000523,211.53682340000523,211.53682340000523,211.53682340000523,211.53682340000523,211.53682340000523,211.53682340000523,211.53682340000523,211.53682340000523,214.0458629000059,214.0458629000059,214.0458629000059,214.0458629000059,214.0458629000059,55,57,23,63,55,50,7.0,2.359660799993435,,,[],[],[],[],[],[],[],-0.6,3,,[],[],[],[],[],[],[],None,None,216.43098649999592,218.30133159999968,,,,,,,,,,,,,,,,,,,,,,,,,,,,,,246,f,24,2023-03-22_13h38.30.019,RL,2022.2.4,60.25254251124861,
0,0.3,0.225,0,11,11,11,,,,,,,,,,None,218.30133159999968,218.30133159999968,218.30133159999968,218.30133159999968,218.30133159999968,218.30133159999968,j,0.7412679999833927,219.06620000000112,219.06620000000112,219.06620000000112,219.06620000000112,219.06620000000112,219.06620000000112,219.36522639999748,219.36522639999748,221.04404830001295,221.04404830001295,221.04404830001295,221.04404830001295,221.04404830001295,221.04404830001295,221.04404830001295,221.04404830001295,221.04404830001295,221.04404830001295,221.04404830001295,221.04404830001295,221.04404830001295,221.04404830001295,221.04404830001295,221.04404830001295,221.04404830001295,,,,,,50,55,22,65,65,53,None,None,,,[],[],[],[],[],[],[],0.2,1,50,[0.13055555555555556],[-0.29814814814814816],[1],[0],[0],[5.052699500025483],['tijiao_random_2'],3.8888888888888884,3.3671308999764733,232.01300470001297,233.6096191999968,,,,,,,,,,,228.62809300000663,228.62809300000663,228.62809300000663,228.62809300000663,223.56105540000135,223.56105540000135,223.56105540000135,223.56105540000135,223.56105540000135,223.56105540000135,223.56105540000135,223.56105540000135,0.005459999985760078,223.56105540000135,,,,,,246,f,24,2023-03-22_13h38.30.019,RL,2022.2.4,60.25254251124861,
1,-0.3,-0.225,0,12,12,12,,,,,,,,,,None,233.6096191999968,233.6096191999968,233.6096191999968,233.6096191999968,233.6096191999968,233.6096191999968,i,0.6727471000049263,234.30959200000507,234.30959200000507,234.30959200000507,234.30959200000507,234.30959200000507,234.30959200000507,234.60709889998543,234.60709889998543,235.45477209999808,235.45477209999808,235.45477209999808,235.45477209999808,235.45477209999808,235.45477209999808,235.45477209999808,235.45477209999808,235.45477209999808,235.45477209999808,235.45477209999808,235.45477209999808,235.45477209999808,235.45477209999808,235.45477209999808,235.45477209999808,235.45477209999808,237.96346790000098,237.96346790000098,237.96346790000098,237.96346790000098,237.96346790000098,52,55,24,65,24,63,1.0,2.061154800001532,,,[],[],[],[],[],[],[],-0.2,3,,[],[],[],[],[],[],[],None,None,240.04871159998584,241.9201885999937,,,,,,,,,,,,,,,,,,,,,,,,,,,,,,246,f,24,2023-03-22_13h38.30.019,RL,2022.2.4,60.25254251124861,
0,0.3,0.225,0,13,13,13,,,,,,,,,,None,241.9201885999937,241.9201885999937,241.9201885999937,241.9201885999937,241.9201885999937,241.9201885999937,r,0.6557096999895293,242.60194319998845,242.60194319998845,242.60194319998845,242.60194319998845,242.60194319998845,242.60194319998845,242.90082690000418,242.90082690000418,244.21415250000427,244.21415250000427,244.21415250000427,244.21415250000427,244.21415250000427,244.21415250000427,244.21415250000427,244.21415250000427,244.21415250000427,244.21415250000427,244.21415250000427,244.21415250000427,244.21415250000427,244.21415250000427,244.21415250000427,244.21415250000427,244.21415250000427,,,,,,54,52,16,57,54,59,None,None,54,54,"[0.05462962962962963, 0.05277777777777778]","[-0.23148148148148148, -0.2722222222222222]","[1, 1]","[0, 0]","[0, 0]","[4.462376400013454, 4.794923100009328]",['tijiao'],-0.6,0,,[],[],[],[],[],[],[],5.916666666666666,2.5938665000139736,254.15266009999323,255.79901970000356,246.72450340000796,246.72450340000796,246.72450340000796,246.72450340000796,246.72450340000796,246.72450340000796,246.72450340000796,246.72450340000796,0.005126499978359789,246.72450340000796,251.53969969999162,251.53969969999162,251.53969969999162,251.53969969999162,,,,,,,,,,,,,,,,246,f,24,2023-03-22_13h38.30.019,RL,2022.2.4,60.25254251124861,
1,-0.3,-0.225,0,14,14,14,,,,,,,,,,None,255.79901970000356,255.79901970000356,255.79901970000356,255.79901970000356,255.79901970000356,255.79901970000356,f,0.7415207000158262,256.5638210999896,256.5638210999896,256.5638210999896,256.5638210999896,256.5638210999896,256.5638210999896,256.86302449999494,256.86302449999494,258.49171959998785,258.49171959998785,258.49171959998785,258.49171959998785,258.49171959998785,258.49171959998785,258.49171959998785,258.49171959998785,258.49171959998785,258.49171959998785,258.49171959998785,258.49171959998785,258.49171959998785,258.49171959998785,258.49171959998785,258.49171959998785,258.49171959998785,,,,,,49,46,22,62,46,56,None,None,,,[],[],[],[],[],[],[],0.2,1,50,[0.08611111111111111],[-0.3148148148148148],[1],[0],[0],[6.41644100000849],['tijiao_random_2'],3.981481481481482,2.037722599983681,269.4938592000108,271.20678840001347,,,,,,,,,,,267.43762350000907,267.43762350000907,267.43762350000907,267.43762350000907,261.0087188000034,261.0087188000034,261.0087188000034,261.0087188000034,261.0087188000034,261.0087188000034,261.0087188000034,261.0087188000034,0.005605899990769103,261.0087188000034,,,,,,246,f,24,2023-03-22_13h38.30.019,RL,2022.2.4,60.25254251124861,
0,0.3,0.225,0,15,15,15,,,,,,,,,,None,271.20678840001347,271.20678840001347,271.20678840001347,271.20678840001347,271.20678840001347,271.20678840001347,i,1.2223102000134531,272.4539795999881,272.4539795999881,272.4539795999881,272.4539795999881,272.4539795999881,272.4539795999881,272.75264230000903,272.75264230000903,274.41492879998987,274.41492879998987,274.41492879998987,274.41492879998987,274.41492879998987,274.41492879998987,274.41492879998987,274.41492879998987,274.41492879998987,274.41492879998987,274.41492879998987,274.41492879998987,274.41492879998987,274.41492879998987,274.41492879998987,274.41492879998987,274.41492879998987,276.92378740001004,276.92378740001004,276.92378740001004,276.92378740001004,276.92378740001004,51,49,21,62,21,51,1.0,2.1434461000026204,,,[],[],[],[],[],[],[],0.6,2,,[],[],[],[],[],[],[],None,None,279.0917122999963,280.647476299986,,,,,,,,,,,,,,,,,,,,,,,,,,,,,,246,f,24,2023-03-22_13h38.30.019,RL,2022.2.4,60.25254251124861,
1,-0.3,-0.225,0,16,16,16,,,,,,,,,,None,280.647476299986,280.647476299986,280.647476299986,280.647476299986,280.647476299986,280.647476299986,r,0.7202311999863014,281.39611319999676,281.39611319999676,281.39611319999676,281.39611319999676,281.39611319999676,281.39611319999676,281.69513149998966,281.69513149998966,282.9745840000105,282.9745840000105,282.9745840000105,282.9745840000105,282.9745840000105,282.9745840000105,282.9745840000105,282.9745840000105,282.9745840000105,282.9745840000105,282.9745840000105,282.9745840000105,282.9745840000105,282.9745840000105,282.9745840000105,282.9745840000105,282.9745840000105,,,,,,49,49,18,69,49,45,None,None,,,[],[],[],[],[],[],[],0.6,1,40,[0.062037037037037036],[-0.2953703703703704],[1],[0],[0],[5.003349000005983],['tijiao_random_2'],4.768518518518519,3.567570200015325,294.09336800000165,295.92267170001287,,,,,,,,,,,290.50731610000366,290.50731610000366,290.50731610000366,290.50731610000366,285.4914976999862,285.4914976999862,285.4914976999862,285.4914976999862,285.4914976999862,285.4914976999862,285.4914976999862,285.4914976999862,0.005634200002532452,285.4914976999862,,,,,,246,f,24,2023-03-22_13h38.30.019,RL,2022.2.4,60.25254251124861,
0,0.3,0.225,0,17,17,17,,,,,,,,,,None,295.92267170001287,295.92267170001287,295.92267170001287,295.92267170001287,295.92267170001287,295.92267170001287,r,0.6795754999911878,296.6212377999909,296.6212377999909,296.6212377999909,296.6212377999909,296.6212377999909,296.6212377999909,296.9200615999871,296.9200615999871,298.5489823000098,298.5489823000098,298.5489823000098,298.5489823000098,298.5489823000098,298.5489823000098,298.5489823000098,298.5489823000098,298.5489823000098,298.5489823000098,298.5489823000098,298.5489823000098,298.5489823000098,298.5489823000098,298.5489823000098,298.5489823000098,298.5489823000098,301.0583087000123,301.0583087000123,301.0583087000123,301.0583087000123,301.0583087000123,47,56,22,66,47,72,1.0,2.209809199994197,,,[],[],[],[],[],[],[],0.6,3,,[],[],[],[],[],[],[],None,None,303.29268350001075,305.0313969000126,,,,,,,,,,,,,,,,,,,,,,,,,,,,,,246,f,24,2023-03-22_13h38.30.019,RL,2022.2.4,60.25254251124861,
1,-0.3,-0.225,0,18,18,18,,,,,,,,,,None,305.0313969000126,305.0313969000126,305.0313969000126,305.0313969000126,305.0313969000126,305.0313969000126,j,1.3046661999833304,306.3612008999917,306.3612008999917,306.3612008999917,306.3612008999917,306.3612008999917,306.3612008999917,306.66043869999703,306.66043869999703,308.0066477000073,308.0066477000073,308.0066477000073,308.0066477000073,308.0066477000073,308.0066477000073,308.0066477000073,308.0066477000073,308.0066477000073,308.0066477000073,308.0066477000073,308.0066477000073,308.0066477000073,308.0066477000073,308.0066477000073,308.0066477000073,308.0066477000073,310.51584249999723,310.51584249999723,310.51584249999723,310.51584249999723,310.51584249999723,43,49,17,76,76,62,3.0,2.127352499985136,,,[],[],[],[],[],[],[],-0.2,2,,[],[],[],[],[],[],[],None,None,312.6689148999867,314.30612429999746,,,,,,,,,,,,,,,,,,,,,,,,,,,,,,246,f,24,2023-03-22_13h38.30.019,RL,2022.2.4,60.25254251124861,
0,0.3,0.225,0,19,19,19,,,,,,,,,,None,314.30612429999746,314.30612429999746,314.30612429999746,314.30612429999746,314.30612429999746,314.30612429999746,i,0.9100032999995165,315.2381371000083,315.2381371000083,315.2381371000083,315.2381371000083,315.2381371000083,315.2381371000083,315.5363548999885,315.5363548999885,316.50018249999266,316.50018249999266,316.50018249999266,316.50018249999266,316.50018249999266,316.50018249999266,316.50018249999266,316.50018249999266,316.50018249999266,316.50018249999266,316.50018249999266,316.50018249999266,316.50018249999266,316.50018249999266,316.50018249999266,316.50018249999266,316.50018249999266,,,,,,52,55,21,58,21,53,None,None,,,[],[],[],[],[],[],[],-0.6,1,54,[-0.018518518518518517],[-0.2675925925925926],[1],[0],[0],[4.220948200003477],['tijiao_random_2'],6.083333333333333,3.0668393000087235,326.33868089999305,327.9351347000047,,,,,,,,,,,323.2538091999886,323.2538091999886,323.2538091999886,323.2538091999886,319.0179628999904,319.0179628999904,319.0179628999904,319.0179628999904,319.0179628999904,319.0179628999904,319.0179628999904,319.0179628999904,0.005780999985290691,319.0179628999904,,,,,,246,f,24,2023-03-22_13h38.30.019,RL,2022.2.4,60.25254251124861,
1,-0.3,-0.225,0,20,20,20,,,,,,,,,,None,327.9351347000047,327.9351347000047,327.9351347000047,327.9351347000047,327.9351347000047,327.9351347000047,f,0.5656879000016488,328.53435850000824,328.53435850000824,328.53435850000824,328.53435850000824,328.53435850000824,328.53435850000824,328.8332863000105,328.8332863000105,330.5450468999916,330.5450468999916,330.5450468999916,330.5450468999916,330.5450468999916,330.5450468999916,330.5450468999916,330.5450468999916,330.5450468999916,330.5450468999916,330.5450468999916,330.5450468999916,330.5450468999916,330.5450468999916,330.5450468999916,330.5450468999916,330.5450468999916,,,,,,39,52,20,66,52,58,None,None,52,52,[0.07777777777777778],[-0.2796296296296296],[1],[0],[0],[6.5572930999915116],['tijiao'],-0.2,0,,[],[],[],[],[],[],[],5.203703703703704,2.0290132999944035,341.6801179999893,343.6426219000132,333.05545909999637,333.05545909999637,333.05545909999637,333.05545909999637,333.05545909999637,333.05545909999637,333.05545909999637,333.05545909999637,0.005061500007286668,333.05545909999637,339.6323165000067,339.6323165000067,339.6323165000067,339.6323165000067,,,,,,,,,,,,,,,,246,f,24,2023-03-22_13h38.30.019,RL,2022.2.4,60.25254251124861,
0,0.3,0.225,0,21,21,21,,,,,,,,,,None,343.6426219000132,343.6426219000132,343.6426219000132,343.6426219000132,343.6426219000132,343.6426219000132,r,0.6774633000022732,344.3409706999955,344.3409706999955,344.3409706999955,344.3409706999955,344.3409706999955,344.3409706999955,344.6401450000121,344.6401450000121,345.96998349999194,345.96998349999194,345.96998349999194,345.96998349999194,345.96998349999194,345.96998349999194,345.96998349999194,345.96998349999194,345.96998349999194,345.96998349999194,345.96998349999194,345.96998349999194,345.96998349999194,345.96998349999194,345.96998349999194,345.96998349999194,345.96998349999194,,,,,,49,66,15,68,49,53,None,None,,,[],[],[],[],[],[],[],0.2,1,36,[-0.08703703703703704],[-0.3148148148148148],[1],[0],[0],[4.1394590999989305],['tijiao_random_2'],5.9907407407407405,1.9874666999967303,354.6448312999855,356.55728599999566,,,,,,,,,,,352.6397503000044,352.6397503000044,352.6397503000044,352.6397503000044,348.4865745000134,348.4865745000134,348.4865745000134,348.4865745000134,348.4865745000134,348.4865745000134,348.4865745000134,348.4865745000134,0.005618099996354431,348.4865745000134,,,,,,246,f,24,2023-03-22_13h38.30.019,RL,2022.2.4,60.25254251124861,
1,-0.3,-0.225,0,22,22,22,,,,,,,,,,None,356.55728599999566,356.55728599999566,356.55728599999566,356.55728599999566,356.55728599999566,356.55728599999566,r,0.6531667000090238,357.23957840001094,357.23957840001094,357.23957840001094,357.23957840001094,357.23957840001094,357.23957840001094,357.53826629999094,357.53826629999094,358.7683412999904,358.7683412999904,358.7683412999904,358.7683412999904,358.7683412999904,358.7683412999904,358.7683412999904,358.7683412999904,358.7683412999904,358.7683412999904,358.7683412999904,358.7683412999904,358.7683412999904,358.7683412999904,358.7683412999904,358.7683412999904,358.7683412999904,,,,,,58,56,17,72,58,50,None,None,,,[],[],[],[],[],[],[],-0.6,1,58,[0.025],[-0.28055555555555556],[1],[0],[0],[3.8042963999905623],['tijiao_random_2'],7.064814814814815,2.2877576999890152,367.41031470001326,369.3058846000058,,,,,,,,,,,365.10407820000546,365.10407820000546,365.10407820000546,365.10407820000546,361.2865238999948,361.2865238999948,361.2865238999948,361.2865238999948,361.2865238999948,361.2865238999948,361.2865238999948,361.2865238999948,0.005877599993254989,361.2865238999948,,,,,,246,f,24,2023-03-22_13h38.30.019,RL,2022.2.4,60.25254251124861,
0,0.3,0.225,0,23,23,23,,,,,,,,,,None,369.3058846000058,369.3058846000058,369.3058846000058,369.3058846000058,369.3058846000058,369.3058846000058,None,,,,,,,,,,,,,,,,,,,,,,,,,,,,,,,,55,48,23,69,0,**,None,None,,,[],[],[],[],[],[],[],0.2,2,,[],[],[],[],[],[],[],None,None,376.85141770000337,378.8133022999973,,,,,,,,,,,,,,,,,,,,,,,,,370.8380453999853,376.85141770000337,,,,246,f,24,2023-03-22_13h38.30.019,RL,2022.2.4,60.25254251124861,
1,-0.3,-0.225,0,24,24,24,,,,,,,,,,None,378.8133022999973,378.8133022999973,378.8133022999973,378.8133022999973,378.8133022999973,378.8133022999973,r,0.5227698000089731,379.36200530000497,379.36200530000497,379.36200530000497,379.36200530000497,379.36200530000497,379.36200530000497,379.6612082000065,379.6612082000065,381.2231785999902,381.2231785999902,381.2231785999902,381.2231785999902,381.2231785999902,381.2231785999902,381.2231785999902,381.2231785999902,381.2231785999902,381.2231785999902,381.2231785999902,381.2231785999902,381.2231785999902,381.2231785999902,381.2231785999902,381.2231785999902,381.2231785999902,383.7327144999872,383.7327144999872,383.7327144999872,383.7327144999872,383.7327144999872,51,54,15,64,51,54,1.0,2.4424803000001702,,,[],[],[],[],[],[],[],0.6,3,,[],[],[],[],[],[],[],None,None,386.20006699999794,387.9551061000093,,,,,,,,,,,,,,,,,,,,,,,,,,,,,,246,f,24,2023-03-22_13h38.30.019,RL,2022.2.4,60.25254251124861,
0,0.3,0.225,0,25,25,25,,,,,,,,,,None,387.9551061000093,387.9551061000093,387.9551061000093,387.9551061000093,387.9551061000093,387.9551061000093,r,0.5190174000163097,388.5037621000083,388.5037621000083,388.5037621000083,388.5037621000083,388.5037621000083,388.5037621000083,388.80295979999937,388.80295979999937,390.3655005999899,390.3655005999899,390.3655005999899,390.3655005999899,390.3655005999899,390.3655005999899,390.3655005999899,390.3655005999899,390.3655005999899,390.3655005999899,390.3655005999899,390.3655005999899,390.3655005999899,390.3655005999899,390.3655005999899,390.3655005999899,390.3655005999899,392.87422339999466,392.87422339999466,392.87422339999466,392.87422339999466,392.87422339999466,51,55,26,65,51,48,2.0,1.4956869000161532,,,[],[],[],[],[],[],[],0.6,3,,[],[],[],[],[],[],[],None,None,394.3942417000071,396.09925319999456,,,,,,,,,,,,,,,,,,,,,,,,,,,,,,246,f,24,2023-03-22_13h38.30.019,RL,2022.2.4,60.25254251124861,
1,-0.3,-0.225,0,26,26,26,,,,,,,,,,None,396.09925319999456,396.09925319999456,396.09925319999456,396.09925319999456,396.09925319999456,396.09925319999456,j,0.9446682000125293,397.0639041000104,397.0639041000104,397.0639041000104,397.0639041000104,397.0639041000104,397.0639041000104,397.36274529999355,397.36274529999355,398.65926640000544,398.65926640000544,398.65926640000544,398.65926640000544,398.65926640000544,398.65926640000544,398.65926640000544,398.65926640000544,398.65926640000544,398.65926640000544,398.65926640000544,398.65926640000544,398.65926640000544,398.65926640000544,398.65926640000544,398.65926640000544,398.65926640000544,,,,,,53,54,22,66,66,38,None,None,60,60,[-0.037037037037037035],[-0.27037037037037037],[1],[0],[0],[5.723151799989864],['tijiao'],-0.2,0,,[],[],[],[],[],[],[],4.231481481481482,3.5730257999966852,410.50899780000327,412.3718227999925,401.1714146999875,401.1714146999875,401.1714146999875,401.1714146999875,401.1714146999875,401.1714146999875,401.1714146999875,401.1714146999875,0.00792220002040267,401.1714146999875,406.91722070000833,406.91722070000833,406.91722070000833,406.91722070000833,,,,,,,,,,,,,,,,246,f,24,2023-03-22_13h38.30.019,RL,2022.2.4,60.25254251124861,
0,0.3,0.225,0,27,27,27,,,,,,,,,,None,412.3718227999925,412.3718227999925,412.3718227999925,412.3718227999925,412.3718227999925,412.3718227999925,r,0.5701419999822974,412.9702881000121,412.9702881000121,412.9702881000121,412.9702881000121,412.9702881000121,412.9702881000121,413.2695643999905,413.2695643999905,414.49917840000126,414.49917840000126,414.49917840000126,414.49917840000126,414.49917840000126,414.49917840000126,414.49917840000126,414.49917840000126,414.49917840000126,414.49917840000126,414.49917840000126,414.49917840000126,414.49917840000126,414.49917840000126,414.49917840000126,414.49917840000126,414.49917840000126,,,,,,56,44,28,69,56,51,None,None,56,56,[-0.05185185185185185],[-0.28888888888888886],[1],[0],[0],[4.546213299996452],['tijiao'],0.6,0,,[],[],[],[],[],[],[],6.7407407407407405,1.4630611999891698,423.05824280000525,425.0538375999895,417.00993910001125,417.00993910001125,417.00993910001125,417.00993910001125,417.00993910001125,417.00993910001125,417.00993910001125,417.00993910001125,0.004925300017930567,417.00993910001125,421.5762207999942,421.5762207999942,421.5762207999942,421.5762207999942,,,,,,,,,,,,,,,,246,f,24,2023-03-22_13h38.30.019,RL,2022.2.4,60.25254251124861,
1,-0.3,-0.225,0,28,28,28,,,,,,,,,,None,425.0538375999895,425.0538375999895,425.0538375999895,425.0538375999895,425.0538375999895,425.0538375999895,r,0.5995533999812324,425.6856439000112,425.6856439000112,425.6856439000112,425.6856439000112,425.6856439000112,425.6856439000112,425.98490889999084,425.98490889999084,427.2148004999908,427.2148004999908,427.2148004999908,427.2148004999908,427.2148004999908,427.2148004999908,427.2148004999908,427.2148004999908,427.2148004999908,427.2148004999908,427.2148004999908,427.2148004999908,427.2148004999908,427.2148004999908,427.2148004999908,427.2148004999908,427.2148004999908,,,,,,44,62,29,62,44,39,None,None,45,45,[0.09907407407407408],[-0.31203703703703706],[1],[0],[0],[4.628498899983242],['tijiao'],0.2,0,,[],[],[],[],[],[],[],4.953703703703704,2.4263689999934286,436.82052820001263,438.43365210000775,429.72512079999433,429.72512079999433,429.72512079999433,429.72512079999433,429.72512079999433,429.72512079999433,429.72512079999433,429.72512079999433,0.005180699983611703,429.72512079999433,434.3750824999879,434.3750824999879,434.3750824999879,434.3750824999879,,,,,,,,,,,,,,,,246,f,24,2023-03-22_13h38.30.019,RL,2022.2.4,60.25254251124861,
0,0.3,0.225,0,29,29,29,,,,,,,,,,None,438.43365210000775,438.43365210000775,438.43365210000775,438.43365210000775,438.43365210000775,438.43365210000775,i,0.5560031000059098,439.01594569999725,439.01594569999725,439.01594569999725,439.01594569999725,439.01594569999725,439.01594569999725,439.3151392999862,439.3151392999862,440.5616318999964,440.5616318999964,440.5616318999964,440.5616318999964,440.5616318999964,440.5616318999964,440.5616318999964,440.5616318999964,440.5616318999964,440.5616318999964,440.5616318999964,440.5616318999964,440.5616318999964,440.5616318999964,440.5616318999964,440.5616318999964,440.5616318999964,,,,,,52,60,15,62,15,39,None,None,20,20,[0.028703703703703703],[-0.32037037037037036],[1],[0],[0],[4.1302815999952145],['tijiao'],0.2,0,,[],[],[],[],[],[],[],3.7222222222222223,1.8468483999895398,449.08715599999414,450.83305700001074,443.0719431999896,443.0719431999896,443.0719431999896,443.0719431999896,443.0719431999896,443.0719431999896,443.0719431999896,443.0719431999896,0.005039999989094213,443.0719431999896,447.2214689000102,447.2214689000102,447.2214689000102,447.2214689000102,,,,,,,,,,,,,,,,246,f,24,2023-03-22_13h38.30.019,RL,2022.2.4,60.25254251124861,
1,-0.3,-0.225,0,30,30,30,,,,,,,,,,None,450.83305700001074,450.83305700001074,450.83305700001074,450.83305700001074,450.83305700001074,450.83305700001074,i,0.46786299999803305,451.33228289999533,451.33228289999533,451.33228289999533,451.33228289999533,451.33228289999533,451.33228289999533,451.6317735000048,451.6317735000048,452.9279353999882,452.9279353999882,452.9279353999882,452.9279353999882,452.9279353999882,452.9279353999882,452.9279353999882,452.9279353999882,452.9279353999882,452.9279353999882,452.9279353999882,452.9279353999882,452.9279353999882,452.9279353999882,452.9279353999882,452.9279353999882,452.9279353999882,455.4366658999934,455.4366658999934,455.4366658999934,455.4366658999934,455.4366658999934,51,52,13,55,13,39,1.0,2.0440013999759685,,,[],[],[],[],[],[],[],0.6,3,,[],[],[],[],[],[],[],None,None,457.50672080001095,459.1771434000111,,,,,,,,,,,,,,,,,,,,,,,,,,,,,,246,f,24,2023-03-22_13h38.30.019,RL,2022.2.4,60.25254251124861,
0,0.3,0.225,0,31,31,31,,,,,,,,,,None,459.1771434000111,459.1771434000111,459.1771434000111,459.1771434000111,459.1771434000111,459.1771434000111,j,1.1183693000057247,460.32453010001336,460.32453010001336,460.32453010001336,460.32453010001336,460.32453010001336,460.32453010001336,460.62370470000315,460.62370470000315,462.1859861999983,462.1859861999983,462.1859861999983,462.1859861999983,462.1859861999983,462.1859861999983,462.1859861999983,462.1859861999983,462.1859861999983,462.1859861999983,462.1859861999983,462.1859861999983,462.1859861999983,462.1859861999983,462.1859861999983,462.1859861999983,462.1859861999983,,,,,,48,55,14,51,51,44,None,None,,,[],[],[],[],[],[],[],-0.2,1,30,[-0.040740740740740744],[-0.3074074074074074],[1],[0],[0],[4.669853100000182],['tijiao_random_2'],4.222222222222221,3.067162699997425,472.4732187000045,474.21953639999265,,,,,,,,,,,469.38837860000785,469.38837860000785,469.38837860000785,469.38837860000785,464.70316830000957,464.70316830000957,464.70316830000957,464.70316830000957,464.70316830000957,464.70316830000957,464.70316830000957,464.70316830000957,0.005740499997045845,464.70316830000957,,,,,,246,f,24,2023-03-22_13h38.30.019,RL,2022.2.4,60.25254251124861,
1,-0.3,-0.225,0,32,32,32,,,,,,,,,,None,474.21953639999265,474.21953639999265,474.21953639999265,474.21953639999265,474.21953639999265,474.21953639999265,f,0.8825511000177357,475.13456649999716,475.13456649999716,475.13456649999716,475.13456649999716,475.13456649999716,475.13456649999716,475.43300399999134,475.43300399999134,477.32787159999134,477.32787159999134,477.32787159999134,477.32787159999134,477.32787159999134,477.32787159999134,477.32787159999134,477.32787159999134,477.32787159999134,477.32787159999134,477.32787159999134,477.32787159999134,477.32787159999134,477.32787159999134,477.32787159999134,477.32787159999134,477.32787159999134,479.8372299000039,479.8372299000039,479.8372299000039,479.8372299000039,479.8372299000039,47,66,13,57,66,41,4.0,2.8752527999749873,,,[],[],[],[],[],[],[],0.2,2,,[],[],[],[],[],[],[],None,None,482.7388879999926,484.5913322000124,,,,,,,,,,,,,,,,,,,,,,,,,,,,,,246,f,24,2023-03-22_13h38.30.019,RL,2022.2.4,60.25254251124861,
0,0.3,0.225,0,33,33,33,,,,,,,,,,None,484.5913322000124,484.5913322000124,484.5913322000124,484.5913322000124,484.5913322000124,484.5913322000124,f,0.7438457999960519,485.35611699998844,485.35611699998844,485.35611699998844,485.35611699998844,485.35611699998844,485.35611699998844,485.6550164000073,485.6550164000073,487.25053670001216,487.25053670001216,487.25053670001216,487.25053670001216,487.25053670001216,487.25053670001216,487.25053670001216,487.25053670001216,487.25053670001216,487.25053670001216,487.25053670001216,487.25053670001216,487.25053670001216,487.25053670001216,487.25053670001216,487.25053670001216,487.25053670001216,489.75985219998984,489.75985219998984,489.75985219998984,489.75985219998984,489.75985219998984,45,51,5,52,51,43,4.0,1.561687699984759,,,[],[],[],[],[],[],[],0.2,3,,[],[],[],[],[],[],[],None,None,491.346787699993,493.03479800000787,,,,,,,,,,,,,,,,,,,,,,,,,,,,,,246,f,24,2023-03-22_13h38.30.019,RL,2022.2.4,60.25254251124861,
1,-0.3,-0.225,0,34,34,34,,,,,,,,,,None,493.03479800000787,493.03479800000787,493.03479800000787,493.03479800000787,493.03479800000787,493.03479800000787,i,0.6808081999770366,493.7332438000012,493.7332438000012,493.7332438000012,493.7332438000012,493.7332438000012,493.7332438000012,494.032513299986,494.032513299986,496.04350749999867,496.04350749999867,496.04350749999867,496.04350749999867,496.04350749999867,496.04350749999867,496.04350749999867,496.04350749999867,496.04350749999867,496.04350749999867,496.04350749999867,496.04350749999867,496.04350749999867,496.04350749999867,496.04350749999867,496.04350749999867,496.04350749999867,,,,,,54,51,21,63,21,37,None,None,,,[],[],[],[],[],[],[],0.2,1,30,[0.10185185185185185],[-0.2972222222222222],[1],[0],[0],[4.402706499997294],['tijiao_random_2'],3.833333333333333,2.0719106000033207,505.06767620000755,506.8800624999858,,,,,,,,,,,502.97779500001343,502.97779500001343,502.97779500001343,502.97779500001343,498.5626431000128,498.5626431000128,498.5626431000128,498.5626431000128,498.5626431000128,498.5626431000128,498.5626431000128,498.5626431000128,0.00584789999993518,498.5626431000128,,,,,,246,f,24,2023-03-22_13h38.30.019,RL,2022.2.4,60.25254251124861,
0,0.3,0.225,0,35,35,35,,,,,,,,,,None,506.8800624999858,506.8800624999858,506.8800624999858,506.8800624999858,506.8800624999858,506.8800624999858,i,0.6959944000118412,507.59542570001213,507.59542570001213,507.59542570001213,507.59542570001213,507.59542570001213,507.59542570001213,507.8945880999963,507.8945880999963,509.19108119999873,509.19108119999873,509.19108119999873,509.19108119999873,509.19108119999873,509.19108119999873,509.19108119999873,509.19108119999873,509.19108119999873,509.19108119999873,509.19108119999873,509.19108119999873,509.19108119999873,509.19108119999873,509.19108119999873,509.19108119999873,509.19108119999873,511.69985609999276,511.69985609999276,511.69985609999276,511.69985609999276,511.69985609999276,56,59,10,57,10,41,1.0,2.4585529000032693,,,[],[],[],[],[],[],[],-0.2,3,,[],[],[],[],[],[],[],None,None,514.1821058999922,515.9723141999857,,,,,,,,,,,,,,,,,,,,,,,,,,,,,,246,f,24,2023-03-22_13h38.30.019,RL,2022.2.4,60.25254251124861,
1,-0.3,-0.225,0,36,36,36,,,,,,,,,,None,515.9723141999857,515.9723141999857,515.9723141999857,515.9723141999857,515.9723141999857,515.9723141999857,j,0.6775656999961939,516.6706913000089,516.6706913000089,516.6706913000089,516.6706913000089,516.6706913000089,516.6706913000089,516.969878200005,516.969878200005,518.7644555000006,518.7644555000006,518.7812735000043,518.7812735000043,518.7812735000043,518.7812735000043,518.7812735000043,518.7812735000043,518.7812735000043,518.7812735000043,518.7812735000043,518.7812735000043,518.7812735000043,518.7812735000043,518.7812735000043,518.7812735000043,518.7812735000043,521.2902782000019,521.2902782000019,521.2902782000019,521.2902782000019,521.2902782000019,44,49,4,74,74,43,3.0,1.9771430999971926,,,[],[],[],[],[],[],[],-0.2,2,,[],[],[],[],[],[],[],None,None,523.291262099985,524.898125000007,,,,,,,,,,,,,,,,,,,,,,,,,,,,,,246,f,24,2023-03-22_13h38.30.019,RL,2022.2.4,60.25254251124861,
0,0.3,0.225,0,37,37,37,,,,,,,,,,None,524.898125000007,524.898125000007,524.898125000007,524.898125000007,524.898125000007,524.898125000007,r,0.7003169000090566,525.6294664999878,525.6294664999878,525.6294664999878,525.6294664999878,525.6294664999878,525.6294664999878,525.9283479999867,525.9283479999867,527.8067240999953,527.8067240999953,527.8067240999953,527.8067240999953,527.8067240999953,527.8067240999953,527.8067240999953,527.8067240999953,527.8067240999953,527.8067240999953,527.8067240999953,527.8067240999953,527.8067240999953,527.8067240999953,527.8067240999953,527.8067240999953,527.8067240999953,530.316129999992,530.316129999992,530.316129999992,530.316129999992,530.316129999992,45,55,22,58,45,63,2.0,1.961073500016937,,,[],[],[],[],[],[],[],0.6,2,,[],[],[],[],[],[],[],None,None,532.3011076000112,534.2891633000108,,,,,,,,,,,,,,,,,,,,,,,,,,,,,,246,f,24,2023-03-22_13h38.30.019,RL,2022.2.4,60.25254251124861,
1,-0.3,-0.225,0,38,38,38,,,,,,,,,,None,534.2891633000108,534.2891633000108,534.2891633000108,534.2891633000108,534.2891633000108,534.2891633000108,r,0.6041090000071563,534.9208654999966,534.9208654999966,534.9208654999966,534.9208654999966,534.9208654999966,534.9208654999966,535.2197448000079,535.2197448000079,536.3835083000013,536.3835083000013,536.4000821000081,536.4000821000081,536.4000821000081,536.4000821000081,536.4000821000081,536.4000821000081,536.4000821000081,536.4000821000081,536.4000821000081,536.4000821000081,536.4000821000081,536.4000821000081,536.4000821000081,536.4000821000081,536.4000821000081,538.909393000009,538.909393000009,538.909393000009,538.909393000009,538.909393000009,62,48,21,67,62,61,7.0,2.126826899999287,,,[],[],[],[],[],[],[],0.6,2,,[],[],[],[],[],[],[],None,None,541.0605498999939,542.7492575999931,,,,,,,,,,,,,,,,,,,,,,,,,,,,,,246,f,24,2023-03-22_13h38.30.019,RL,2022.2.4,60.25254251124861,
0,0.3,0.225,0,39,39,39,,,,,,,,,,None,542.7492575999931,542.7492575999931,542.7492575999931,542.7492575999931,542.7492575999931,542.7492575999931,f,0.7126708000141662,543.4808183000132,543.4808183000132,543.4808183000132,543.4808183000132,543.4808183000132,543.4808183000132,543.7801052999857,543.7801052999857,545.0765412999899,545.0765412999899,545.0765412999899,545.0765412999899,545.0765412999899,545.0765412999899,545.0765412999899,545.0765412999899,545.0765412999899,545.0765412999899,545.0765412999899,545.0765412999899,545.0765412999899,545.0765412999899,545.0765412999899,545.0765412999899,545.0765412999899,,,,,,54,60,10,67,60,52,None,None,60,60,[0.06574074074074074],[-0.2657407407407407],[1],[0],[0],[6.337717099988367],['tijiao'],-0.6,0,,[],[],[],[],[],[],[],4.916666666666666,2.228503999998793,556.1950292999973,558.1738884999941,547.5892646999855,547.5892646999855,547.5892646999855,547.5892646999855,547.5892646999855,547.5892646999855,547.5892646999855,547.5892646999855,0.00833710000733845,547.5892646999855,553.9473553999851,553.9473553999851,553.9473553999851,553.9473553999851,,,,,,,,,,,,,,,,246,f,24,2023-03-22_13h38.30.019,RL,2022.2.4,60.25254251124861,
1,-0.3,-0.225,0,40,40,40,,,,,,,,,,None,558.1738884999941,558.1738884999941,558.1738884999941,558.1738884999941,558.1738884999941,558.1738884999941,f,1.113041600008728,559.3067894999986,559.3067894999986,559.3067894999986,559.3067894999986,559.3067894999986,559.3067894999986,559.603611700004,559.603611700004,561.348516500002,561.348516500002,561.348516500002,561.348516500002,561.348516500002,561.348516500002,561.348516500002,561.348516500002,561.348516500002,561.348516500002,561.348516500002,561.348516500002,561.348516500002,561.348516500002,561.348516500002,561.348516500002,561.348516500002,,,,,,54,53,24,60,53,49,None,None,,,[],[],[],[],[],[],[],0.6,1,45,[-0.049074074074074076],[-0.31296296296296294],[1],[0],[0],[5.03621310001472],['tijiao_random_2'],7.064814814814815,2.3356404999794904,571.2703021999914,573.2494073999987,,,,,,,,,,,568.916900399985,568.916900399985,568.916900399985,568.916900399985,563.8655833000084,563.8655833000084,563.8655833000084,563.8655833000084,563.8655833000084,563.8655833000084,563.8655833000084,563.8655833000084,0.005634800007101148,563.8655833000084,,,,,,246,f,24,2023-03-22_13h38.30.019,RL,2022.2.4,60.25254251124861,
0,0.3,0.225,0,41,41,41,,,,,,,,,,None,573.2494073999987,573.2494073999987,573.2494073999987,573.2494073999987,573.2494073999987,573.2494073999987,i,0.8329585999890696,574.1158525999926,574.1158525999926,574.1158525999926,574.1158525999926,574.1158525999926,574.1158525999926,574.4128055000037,574.4128055000037,576.4077539000136,576.4077539000136,576.4077539000136,576.4077539000136,576.4077539000136,576.4077539000136,576.4077539000136,576.4077539000136,576.4077539000136,576.4077539000136,576.4077539000136,576.4077539000136,576.4077539000136,576.4077539000136,576.4077539000136,576.4077539000136,576.4077539000136,,,,,,56,47,21,62,21,60,None,None,20,20,[0.07037037037037037],[-0.3148148148148148],[1],[0],[0],[5.742923499987228],['tijiao'],-0.2,0,,[],[],[],[],[],[],[],8.88888888888889,2.728526699997019,587.4264201000042,589.305610499985,578.9176754000073,578.9176754000073,578.9176754000073,578.9176754000073,578.9176754000073,578.9176754000073,578.9176754000073,578.9176754000073,0.005031300010159612,578.9176754000073,584.6794376999896,584.6794376999896,584.6794376999896,584.6794376999896,,,,,,,,,,,,,,,,246,f,24,2023-03-22_13h38.30.019,RL,2022.2.4,60.25254251124861,
1,-0.3,-0.225,0,42,42,42,,,,,,,,,,None,589.305610499985,589.305610499985,589.305610499985,589.305610499985,589.305610499985,589.305610499985,j,0.8922659000090789,590.219849199988,590.219849199988,590.219849199988,590.219849199988,590.219849199988,590.219849199988,590.5193056999997,590.5193056999997,592.131373399985,592.131373399985,592.131373399985,592.131373399985,592.131373399985,592.131373399985,592.131373399985,592.131373399985,592.131373399985,592.131373399985,592.131373399985,592.131373399985,592.131373399985,592.131373399985,592.131373399985,592.131373399985,592.131373399985,,,,,,53,50,6,64,64,64,None,None,60,60,[0.08333333333333333],[-0.287962962962963],[1],[0],[0],[4.8947501000075135],['tijiao'],0.6,0,,[],[],[],[],[],[],[],6.046296296296297,2.279154899995774,601.8535927000048,603.7161609999894,594.6419072000135,594.6419072000135,594.6419072000135,594.6419072000135,594.6419072000135,594.6419072000135,594.6419072000135,594.6419072000135,0.005350199993699789,594.6419072000135,599.5553072000039,599.5553072000039,599.5553072000039,599.5553072000039,,,,,,,,,,,,,,,,246,f,24,2023-03-22_13h38.30.019,RL,2022.2.4,60.25254251124861,
0,0.3,0.225,0,43,43,43,,,,,,,,,,None,603.7161609999894,603.7161609999894,603.7161609999894,603.7161609999894,603.7161609999894,603.7161609999894,j,0.8158741999941412,604.5645212999952,604.5645212999952,604.5645212999952,604.5645212999952,604.5645212999952,604.5645212999952,604.8634982999938,604.8634982999938,606.6084953999962,606.6084953999962,606.6084953999962,606.6084953999962,606.6084953999962,606.6084953999962,606.6084953999962,606.6084953999962,606.6084953999962,606.6084953999962,606.6084953999962,606.6084953999962,606.6084953999962,606.6084953999962,606.6084953999962,606.6084953999962,606.6084953999962,,,,,,56,62,17,64,64,66,None,None,,,[],[],[],[],[],[],[],0.2,1,20,"[0.032407407407407406, 0.04722222222222222]","[-0.13796296296296295, -0.29907407407407405]","[1, 1]","[0, 0]","[0, 0]","[3.457722699997248, 3.9727838000108022]",['tijiao_random_2'],8.953703703703704,2.3199084000079893,615.4499139999971,617.3124630000093,,,,,,,,,,,613.1113170000026,613.1113170000026,613.1113170000026,613.1113170000026,609.1256050000084,609.1256050000084,609.1256050000084,609.1256050000084,609.1256050000084,609.1256050000084,609.1256050000084,609.1256050000084,0.006018799991579726,609.1256050000084,,,,,,246,f,24,2023-03-22_13h38.30.019,RL,2022.2.4,60.25254251124861,
1,-0.3,-0.225,0,44,44,44,,,,,,,,,,None,617.3124630000093,617.3124630000093,617.3124630000093,617.3124630000093,617.3124630000093,617.3124630000093,j,0.8954462999827228,618.2278446000128,618.2278446000128,618.2278446000128,618.2278446000128,618.2278446000128,618.2278446000128,618.5261545999965,618.5261545999965,619.3405065000115,619.3405065000115,619.3405065000115,619.3405065000115,619.3405065000115,619.3405065000115,619.3405065000115,619.3405065000115,619.3405065000115,619.3405065000115,619.3405065000115,619.3405065000115,619.3405065000115,619.3405065000115,619.3405065000115,619.3405065000115,619.3405065000115,621.8495686000097,621.8495686000097,621.8495686000097,621.8495686000097,621.8495686000097,61,60,6,59,59,55,4.0,1.6779813999892212,,,[],[],[],[],[],[],[],0.2,3,,[],[],[],[],[],[],[],None,None,623.5539585000079,625.2408137999882,,,,,,,,,,,,,,,,,,,,,,,,,,,,,,246,f,24,2023-03-22_13h38.30.019,RL,2022.2.4,60.25254251124861,
0,0.3,0.225,0,45,45,45,,,,,,,,,,None,625.2408137999882,625.2408137999882,625.2408137999882,625.2408137999882,625.2408137999882,625.2408137999882,f,0.8320570999931078,626.1060693000036,626.1060693000036,626.1060693000036,626.1060693000036,626.1060693000036,626.1060693000036,626.4041989000107,626.4041989000107,627.9170941000048,627.9170941000048,627.9170941000048,627.9170941000048,627.9170941000048,627.9170941000048,627.9170941000048,627.9170941000048,627.9170941000048,627.9170941000048,627.9170941000048,627.9170941000048,627.9170941000048,627.9170941000048,627.9170941000048,627.9170941000048,627.9170941000048,,,,,,67,60,12,63,60,59,None,None,60,60,[-0.011111111111111112],[-0.2574074074074074],[1],[0],[0],[3.8308041999989655],['tijiao'],-0.6,0,,[],[],[],[],[],[],[],5.138888888888888,2.524574200011557,636.8248315000092,638.4713442999928,630.427310900006,630.427310900006,630.427310900006,630.427310900006,630.427310900006,630.427310900006,630.427310900006,630.427310900006,0.005451800010632724,630.427310900006,634.2818584000051,634.2818584000051,634.2818584000051,634.2818584000051,,,,,,,,,,,,,,,,246,f,24,2023-03-22_13h38.30.019,RL,2022.2.4,60.25254251124861,
1,-0.3,-0.225,0,46,46,46,,,,,,,,,,None,638.4713442999928,638.4713442999928,638.4713442999928,638.4713442999928,638.4713442999928,638.4713442999928,f,0.8682221999915782,639.3696699999855,639.3696699999855,639.3696699999855,639.3696699999855,639.3696699999855,639.3696699999855,639.6683633000066,639.6683633000066,641.397143899987,641.397143899987,641.397143899987,641.397143899987,641.397143899987,641.397143899987,641.397143899987,641.397143899987,641.397143899987,641.397143899987,641.397143899987,641.397143899987,641.397143899987,641.397143899987,641.397143899987,641.397143899987,641.397143899987,,,,,,58,65,8,62,65,64,None,None,65,65,[-0.06574074074074074],[-0.27314814814814814],[1],[0],[0],[4.210818100022152],['tijiao'],-0.6,0,,[],[],[],[],[],[],[],7.018518518518519,2.295062399993185,650.45428060001,652.0012429000053,643.90855990001,643.90855990001,643.90855990001,643.90855990001,643.90855990001,643.90855990001,643.90855990001,643.90855990001,0.0072988000174518675,643.90855990001,648.1404152000032,648.1404152000032,648.1404152000032,648.1404152000032,,,,,,,,,,,,,,,,246,f,24,2023-03-22_13h38.30.019,RL,2022.2.4,60.25254251124861,
0,0.3,0.225,0,47,47,47,,,,,,,,,,None,652.0012429000053,652.0012429000053,652.0012429000053,652.0012429000053,652.0012429000053,652.0012429000053,r,1.0746453999890946,653.0983619999897,653.0983619999897,653.0983619999897,653.0983619999897,653.0983619999897,653.0983619999897,653.3976219999895,653.3976219999895,654.7274011000118,654.7274011000118,654.7274011000118,654.7274011000118,654.7274011000118,654.7274011000118,654.7274011000118,654.7274011000118,654.7274011000118,654.7274011000118,654.7274011000118,654.7274011000118,654.7274011000118,654.7274011000118,654.7274011000118,654.7274011000118,654.7274011000118,657.2358307999966,657.2358307999966,657.2358307999966,657.2358307999966,657.2358307999966,54,64,17,61,54,51,5.0,2.226967800001148,,,[],[],[],[],[],[],[],-0.2,2,,[],[],[],[],[],[],[],None,None,659.486761600012,661.2422867999994,,,,,,,,,,,,,,,,,,,,,,,,,,,,,,246,f,24,2023-03-22_13h38.30.019,RL,2022.2.4,60.25254251124861,
1,-0.3,-0.225,0,48,48,48,,,,,,,,,,None,661.2422867999994,661.2422867999994,661.2422867999994,661.2422867999994,661.2422867999994,661.2422867999994,j,0.7776589999848511,662.0424928999855,662.0424928999855,662.0424928999855,662.0424928999855,662.0424928999855,662.0424928999855,662.3395741999848,662.3395741999848,663.7358800999937,663.7358800999937,663.7358800999937,663.7358800999937,663.7358800999937,663.7358800999937,663.7358800999937,663.7358800999937,663.7358800999937,663.7358800999937,663.7358800999937,663.7358800999937,663.7358800999937,663.7358800999937,663.7358800999937,663.7358800999937,663.7358800999937,,,,,,67,59,15,58,58,60,None,None,,,[],[],[],[],[],[],[],-0.6,1,50,[-0.016666666666666666],[-0.31296296296296294],[1],[0],[0],[5.185637899994617],['tijiao_random_2'],6.166666666666667,3.71657430002233,675.1867596000084,676.7665015000093,,,,,,,,,,,671.451696300006,671.451696300006,671.451696300006,671.451696300006,666.253314600006,666.253314600006,666.253314600006,666.253314600006,666.253314600006,666.253314600006,666.253314600006,666.253314600006,0.005706500000087544,666.253314600006,,,,,,246,f,24,2023-03-22_13h38.30.019,RL,2022.2.4,60.25254251124861,
0,0.3,0.225,0,49,49,49,,,,,,,,,,None,676.7665015000093,676.7665015000093,676.7665015000093,676.7665015000093,676.7665015000093,676.7665015000093,j,0.6232750999915879,677.416471900011,677.416471900011,677.416471900011,677.416471900011,677.416471900011,677.416471900011,677.7145289999899,677.7145289999899,679.0607079000038,679.0607079000038,679.0607079000038,679.0607079000038,679.0607079000038,679.0607079000038,679.0607079000038,679.0607079000038,679.0607079000038,679.0607079000038,679.0607079000038,679.0607079000038,679.0607079000038,679.0607079000038,679.0607079000038,679.0607079000038,679.0607079000038,681.5697028999857,681.5697028999857,681.5697028999857,681.5697028999857,681.5697028999857,63,59,10,59,59,62,1.0,1.9934738000156358,,,[],[],[],[],[],[],[],0.2,2,,[],[],[],[],[],[],[],None,None,683.5884810000134,685.3766942000075,,,,,,,,,,,,,,,,,,,,,,,,,,,,,,246,f,24,2023-03-22_13h38.30.019,RL,2022.2.4,60.25254251124861,
1,-0.3,-0.225,0,50,50,50,,,,,,,,,,None,685.3766942000075,685.3766942000075,685.3766942000075,685.3766942000075,685.3766942000075,685.3766942000075,None,,,,,,,,,,,,,,,,,,,,,,,,,,,,,,,,51,69,11,62,0,**,None,None,,,[],[],[],[],[],[],[],0.6,1,,[],[],[],[],[],[],[],None,None,692.9053128999949,694.7511752999853,,,,,,,,,,,,,,,,,,,,,,,,,686.9061145999876,692.9053128999949,,,,246,f,24,2023-03-22_13h38.30.019,RL,2022.2.4,60.25254251124861,
0,0.3,0.225,0,51,51,51,,,,,,,,,,None,694.7511752999853,694.7511752999853,694.7511752999853,694.7511752999853,694.7511752999853,694.7511752999853,f,0.3510655999998562,695.1337617000099,695.1337617000099,695.1337617000099,695.1337617000099,695.1337617000099,695.1337617000099,695.4328291999991,695.4328291999991,696.7459091999917,696.7459091999917,696.7459091999917,696.7459091999917,696.7459091999917,696.7459091999917,696.7459091999917,696.7459091999917,696.7459091999917,696.7459091999917,696.7459091999917,696.7459091999917,696.7459091999917,696.7459091999917,696.7459091999917,696.7459091999917,696.7459091999917,,,,,,59,66,3,67,66,61,None,None,,,[],[],[],[],[],[],[],-0.2,1,65,[-0.06666666666666667],[-0.28425925925925927],[1],[0],[0],[3.968677900003968],['tijiao_random_2'],6.138888888888888,2.2529717000143137,705.520772399992,707.5328949000104,,,,,,,,,,,703.2500756999943,703.2500756999943,703.2500756999943,703.2500756999943,699.2669909000106,699.2669909000106,699.2669909000106,699.2669909000106,699.2669909000106,699.2669909000106,699.2669909000106,699.2669909000106,0.0065707000030670315,699.2669909000106,,,,,,246,f,24,2023-03-22_13h38.30.019,RL,2022.2.4,60.25254251124861,
1,-0.3,-0.225,0,52,52,52,,,,,,,,,,None,707.5328949000104,707.5328949000104,707.5328949000104,707.5328949000104,707.5328949000104,707.5328949000104,r,0.46639079999295063,708.0319004000048,708.0319004000048,708.0319004000048,708.0319004000048,708.0319004000048,708.0319004000048,708.3310657000111,708.3310657000111,710.325528699992,710.325528699992,710.325528699992,710.325528699992,710.325528699992,710.325528699992,710.325528699992,710.325528699992,710.325528699992,710.325528699992,710.325528699992,710.325528699992,710.325528699992,710.325528699992,710.325528699992,710.325528699992,710.325528699992,712.8341807000106,712.8341807000106,712.8341807000106,712.8341807000106,712.8341807000106,56,69,14,59,56,61,1.0,2.109875699999975,,,[],[],[],[],[],[],[],0.6,2,,[],[],[],[],[],[],[],None,None,714.969104799995,716.5077774999954,,,,,,,,,,,,,,,,,,,,,,,,,,,,,,246,f,24,2023-03-22_13h38.30.019,RL,2022.2.4,60.25254251124861,
0,0.3,0.225,0,53,53,53,,,,,,,,,,None,716.5077774999954,716.5077774999954,716.5077774999954,716.5077774999954,716.5077774999954,716.5077774999954,f,0.5210259000014048,717.0575049000036,717.0575049000036,717.0575049000036,717.0575049000036,717.0575049000036,717.0575049000036,717.356389499997,717.356389499997,719.168087099999,719.168087099999,719.168087099999,719.168087099999,719.168087099999,719.168087099999,719.168087099999,719.168087099999,719.168087099999,719.168087099999,719.168087099999,719.168087099999,719.168087099999,719.168087099999,719.168087099999,719.168087099999,719.168087099999,,,,,,65,70,17,64,70,53,None,None,68,68,[0.05555555555555555],[-0.32037037037037036],[1],[0],[0],[5.2764248000166845],['tijiao'],0.2,0,,[],[],[],[],[],[],[],6.962962962962964,1.6454252999974415,728.6408474000054,730.3374017000024,721.6784505000105,721.6784505000105,721.6784505000105,721.6784505000105,721.6784505000105,721.6784505000105,721.6784505000105,721.6784505000105,0.005639599985443056,721.6784505000105,726.9768252999929,726.9768252999929,726.9768252999929,726.9768252999929,,,,,,,,,,,,,,,,246,f,24,2023-03-22_13h38.30.019,RL,2022.2.4,60.25254251124861,
1,-0.3,-0.225,0,54,54,54,,,,,,,,,,None,730.3374017000024,730.3374017000024,730.3374017000024,730.3374017000024,730.3374017000024,730.3374017000024,f,0.8971794000244699,731.2532268000068,731.2532268000068,731.2532268000068,731.2532268000068,731.2532268000068,731.2532268000068,731.5506502999924,731.5506502999924,732.6644043000124,732.6644043000124,732.6811861000024,732.6811861000024,732.6811861000024,732.6811861000024,732.6811861000024,732.6811861000024,732.6811861000024,732.6811861000024,732.6811861000024,732.6811861000024,732.6811861000024,732.6811861000024,732.6811861000024,732.6811861000024,732.6811861000024,,,,,,58,80,29,79,80,64,None,None,,,[],[],[],[],[],[],[],0.6,1,54,[0.010185185185185186],[-0.27870370370370373],[1],[0],[0],[4.920451100013452],['tijiao_random_2'],7.111111111111112,2.1703612999990582,742.3203020000074,743.8837057999917,,,,,,,,,,,740.1313550999912,740.1313550999912,740.1313550999912,740.1313550999912,735.197967199987,735.197967199987,735.197967199987,735.197967199987,735.197967199987,735.197967199987,735.197967199987,735.197967199987,0.0059065999812446535,735.197967199987,,,,,,246,f,24,2023-03-22_13h38.30.019,RL,2022.2.4,60.25254251124861,
0,0.3,0.225,0,55,55,55,,,,,,,,,,None,743.8837057999917,743.8837057999917,743.8837057999917,743.8837057999917,743.8837057999917,743.8837057999917,f,0.8325583999976516,744.748728400009,744.748728400009,744.748728400009,744.748728400009,744.748728400009,744.748728400009,745.0475657999923,745.0475657999923,746.7761586999986,746.7761586999986,746.7761586999986,746.7761586999986,746.7761586999986,746.7761586999986,746.7761586999986,746.7761586999986,746.7761586999986,746.7761586999986,746.7761586999986,746.7761586999986,746.7761586999986,746.7761586999986,746.7761586999986,746.7761586999986,746.7761586999986,,,,,,61,80,20,77,80,54,None,None,,,[],[],[],[],[],[],[],-0.2,1,85,[0.12777777777777777],[-0.3037037037037037],[1],[0],[0],[3.9721693999890704],['tijiao_random_2'],6.814814814814815,3.3024459999869578,756.598089200008,758.2109315000125,,,,,,,,,,,753.2770554999879,753.2770554999879,753.2770554999879,753.2770554999879,749.2929377999972,749.2929377999972,749.2929377999972,749.2929377999972,749.2929377999972,749.2929377999972,749.2929377999972,749.2929377999972,0.005540100013604388,749.2929377999972,,,,,,246,f,24,2023-03-22_13h38.30.019,RL,2022.2.4,60.25254251124861,
1,-0.3,-0.225,0,56,56,56,,,,,,,,,,None,758.2109315000125,758.2109315000125,758.2109315000125,758.2109315000125,758.2109315000125,758.2109315000125,f,0.6329148999939207,758.8779278000002,758.8779278000002,758.8779278000002,758.8779278000002,758.8779278000002,758.8779278000002,759.175721800013,759.175721800013,760.9703453000111,760.9703453000111,760.9703453000111,760.9703453000111,760.9703453000111,760.9703453000111,760.9703453000111,760.9703453000111,760.9703453000111,760.9703453000111,760.9703453000111,760.9703453000111,760.9703453000111,760.9703453000111,760.9703453000111,760.9703453000111,760.9703453000111,763.4796558000089,763.4796558000089,763.4796558000089,763.4796558000089,763.4796558000089,57,69,27,67,69,57,2.0,2.326708599983249,,,[],[],[],[],[],[],[],-0.6,3,,[],[],[],[],[],[],[],None,None,765.8298684000038,767.5525142000115,,,,,,,,,,,,,,,,,,,,,,,,,,,,,,246,f,24,2023-03-22_13h38.30.019,RL,2022.2.4,60.25254251124861,
0,0.3,0.225,0,57,57,57,,,,,,,,,,None,767.5525142000115,767.5525142000115,767.5525142000115,767.5525142000115,767.5525142000115,767.5525142000115,f,0.7291832000191789,768.3008336999919,768.3008336999919,768.3008336999919,768.3008336999919,768.3008336999919,768.3008336999919,768.6000114000053,768.6000114000053,769.8132463000074,769.8132463000074,769.8132463000074,769.8132463000074,769.8132463000074,769.8132463000074,769.8132463000074,769.8132463000074,769.8132463000074,769.8132463000074,769.8132463000074,769.8132463000074,769.8132463000074,769.8132463000074,769.8132463000074,769.8132463000074,769.8132463000074,772.3222959999985,772.3222959999985,772.3222959999985,772.3222959999985,772.3222959999985,56,73,18,70,73,48,7.0,2.243143300001975,,,[],[],[],[],[],[],[],0.2,3,,[],[],[],[],[],[],[],None,None,774.5901924000063,776.3782645000028,,,,,,,,,,,,,,,,,,,,,,,,,,,,,,246,f,24,2023-03-22_13h38.30.019,RL,2022.2.4,60.25254251124861,
1,-0.3,-0.225,0,58,58,58,,,,,,,,,,None,776.3782645000028,776.3782645000028,776.3782645000028,776.3782645000028,776.3782645000028,776.3782645000028,f,0.7082559000118636,777.1099684000073,777.1099684000073,777.1099684000073,777.1099684000073,777.1099684000073,777.1099684000073,777.4092773000011,777.4092773000011,778.6060803,778.6060803,778.6060803,778.6060803,778.6060803,778.6060803,778.6060803,778.6060803,778.6060803,778.6060803,778.6060803,778.6060803,778.6060803,778.6060803,778.6060803,778.6060803,778.6060803,781.1147361999901,781.1147361999901,781.1147361999901,781.1147361999901,781.1147361999901,54,81,17,74,81,49,7.0,1.5285917000146583,,,[],[],[],[],[],[],[],0.2,2,,[],[],[],[],[],[],[],None,None,782.6709393000056,784.3896103999869,,,,,,,,,,,,,,,,,,,,,,,,,,,,,,246,f,24,2023-03-22_13h38.30.019,RL,2022.2.4,60.25254251124861,
0,0.3,0.225,0,59,59,59,,,,,,,,,,None,784.3896103999869,784.3896103999869,784.3896103999869,784.3896103999869,784.3896103999869,784.3896103999869,f,0.6670271999901161,785.08857729999,785.08857729999,785.08857729999,785.08857729999,785.08857729999,785.08857729999,785.3874763000058,785.3874763000058,787.2987514999986,787.2987514999986,787.2987514999986,787.2987514999986,787.2987514999986,787.2987514999986,787.2987514999986,787.2987514999986,787.2987514999986,787.2987514999986,787.2987514999986,787.2987514999986,787.2987514999986,787.2987514999986,787.2987514999986,787.2987514999986,787.2987514999986,789.8075463999994,789.8075463999994,789.8075463999994,789.8075463999994,789.8075463999994,59,67,15,76,67,50,7.0,1.312563700019382,,,[],[],[],[],[],[],[],-0.2,2,,[],[],[],[],[],[],[],None,None,791.144147199986,792.8001110999903,,,,,,,,,,,,,,,,,,,,,,,,,,,,,,246,f,24,2023-03-22_13h38.30.019,RL,2022.2.4,60.25254251124861,
1,-0.3,-0.225,0,60,60,60,,,,,,,,,,None,792.8001110999903,792.8001110999903,792.8001110999903,792.8001110999903,792.8001110999903,792.8001110999903,f,0.44192939999629743,793.2659542000038,793.2659542000038,793.2659542000038,793.2659542000038,793.2659542000038,793.2659542000038,793.5648752000125,793.5648752000125,794.6954270999995,794.6954270999995,794.6954270999995,794.6954270999995,794.6954270999995,794.6954270999995,794.6954270999995,794.6954270999995,794.6954270999995,794.6954270999995,794.6954270999995,794.6954270999995,794.6954270999995,794.6954270999995,794.6954270999995,794.6954270999995,794.6954270999995,,,,,,53,64,22,64,64,62,None,None,65,65,[0.019444444444444445],[-0.30925925925925923],[1],[0],[0],[4.9280523999768775],['tijiao'],-0.6,0,,[],[],[],[],[],[],[],5.648148148148148,2.1966726999962702,804.3677268000029,806.1970447000058,797.2055509999918,797.2055509999918,797.2055509999918,797.2055509999918,797.2055509999918,797.2055509999918,797.2055509999918,797.2055509999918,0.005039199983002618,797.2055509999918,802.1524651999935,802.1524651999935,802.1524651999935,802.1524651999935,,,,,,,,,,,,,,,,246,f,24,2023-03-22_13h38.30.019,RL,2022.2.4,60.25254251124861,
0,0.3,0.225,0,61,61,61,,,,,,,,,,None,806.1970447000058,806.1970447000058,806.1970447000058,806.1970447000058,806.1970447000058,806.1970447000058,f,0.46534320001956075,806.679421000008,806.679421000008,806.679421000008,806.679421000008,806.679421000008,806.679421000008,806.97816530001,806.97816530001,808.6238926000078,808.6238926000078,808.6238926000078,808.6238926000078,808.6238926000078,808.6238926000078,808.6238926000078,808.6238926000078,808.6238926000078,808.6238926000078,808.6238926000078,808.6238926000078,808.6238926000078,808.6238926000078,808.6238926000078,808.6238926000078,808.6238926000078,,,,,,58,66,22,65,66,44,None,None,,,[],[],[],[],[],[],[],-0.6,1,50,[-0.01574074074074074],[-0.27314814814814814],[1],[0],[0],[3.822052600007737],['tijiao_random_2'],6.953703703703703,2.002813500002958,816.9997778999968,818.6960518000124,,,,,,,,,,,814.9786738000112,814.9786738000112,814.9786738000112,814.9786738000112,811.1422006000066,811.1422006000066,811.1422006000066,811.1422006000066,811.1422006000066,811.1422006000066,811.1422006000066,811.1422006000066,0.00545379999675788,811.1422006000066,,,,,,246,f,24,2023-03-22_13h38.30.019,RL,2022.2.4,60.25254251124861,
1,-0.3,-0.225,0,62,62,62,,,,,,,,,,None,818.6960518000124,818.6960518000124,818.6960518000124,818.6960518000124,818.6960518000124,818.6960518000124,f,1.168260200007353,819.8932338999875,819.8932338999875,819.8932338999875,819.8932338999875,819.8932338999875,819.8932338999875,820.19246749999,820.19246749999,821.7048413000011,821.7048413000011,821.7048413000011,821.7048413000011,821.7048413000011,821.7048413000011,821.7048413000011,821.7048413000011,821.7048413000011,821.7048413000011,821.7048413000011,821.7048413000011,821.7048413000011,821.7048413000011,821.7048413000011,821.7048413000011,821.7048413000011,824.2140821999928,824.2140821999928,824.2140821999928,824.2140821999928,824.2140821999928,61,74,29,71,74,53,7.0,2.0433536999917123,,,[],[],[],[],[],[],[],0.2,3,,[],[],[],[],[],[],[],None,None,826.2844412999984,828.1204537999874,,,,,,,,,,,,,,,,,,,,,,,,,,,,,,246,f,24,2023-03-22_13h38.30.019,RL,2022.2.4,60.25254251124861,
0,0.3,0.225,0,63,63,63,,,,,,,,,,None,828.1204537999874,828.1204537999874,828.1204537999874,828.1204537999874,828.1204537999874,828.1204537999874,f,1.0323602999851573,829.1842865000071,829.1842865000071,829.1842865000071,829.1842865000071,829.1842865000071,829.1842865000071,829.483739599993,829.483739599993,830.9464046999929,830.9464046999929,830.9464046999929,830.9464046999929,830.9464046999929,830.9464046999929,830.9464046999929,830.9464046999929,830.9464046999929,830.9464046999929,830.9464046999929,830.9464046999929,830.9464046999929,830.9464046999929,830.9464046999929,830.9464046999929,830.9464046999929,833.455306399992,833.455306399992,833.455306399992,833.455306399992,833.455306399992,60,83,24,62,83,43,7.0,1.4123368999862578,,,[],[],[],[],[],[],[],0.6,2,,[],[],[],[],[],[],[],None,None,834.8935476999904,836.8294225999853,,,,,,,,,,,,,,,,,,,,,,,,,,,,,,246,f,24,2023-03-22_13h38.30.019,RL,2022.2.4,60.25254251124861,
1,-0.3,-0.225,0,64,64,64,,,,,,,,,,None,836.8294225999853,836.8294225999853,836.8294225999853,836.8294225999853,836.8294225999853,836.8294225999853,f,0.5378742000029888,837.3970375999925,837.3970375999925,837.3970375999925,837.3970375999925,837.3970375999925,837.3970375999925,837.6944010999869,837.6944010999869,839.2571530999849,839.2571530999849,839.2571530999849,839.2571530999849,839.2571530999849,839.2571530999849,839.2571530999849,839.2571530999849,839.2571530999849,839.2571530999849,839.2571530999849,839.2571530999849,839.2571530999849,839.2571530999849,839.2571530999849,839.2571530999849,839.2571530999849,841.766153900011,841.766153900011,841.766153900011,841.766153900011,841.766153900011,64,72,19,65,72,41,7.0,2.1269471000123303,,,[],[],[],[],[],[],[],-0.2,3,,[],[],[],[],[],[],[],None,None,843.9162005000107,845.8887050999911,,,,,,,,,,,,,,,,,,,,,,,,,,,,,,246,f,24,2023-03-22_13h38.30.019,RL,2022.2.4,60.25254251124861,
0,0.3,0.225,0,65,65,65,,,,,,,,,,None,845.8887050999911,845.8887050999911,845.8887050999911,845.8887050999911,845.8887050999911,845.8887050999911,r,0.8085115000139922,846.7200043000048,846.7200043000048,846.7200043000048,846.7200043000048,846.7200043000048,846.7200043000048,847.0190442999883,847.0190442999883,848.1160280999902,848.1160280999902,848.1160280999902,848.1160280999902,848.1160280999902,848.1160280999902,848.1160280999902,848.1160280999902,848.1160280999902,848.1160280999902,848.1160280999902,848.1160280999902,848.1160280999902,848.1160280999902,848.1160280999902,848.1160280999902,848.1160280999902,850.6253829000052,850.6253829000052,850.6253829000052,850.6253829000052,850.6253829000052,63,74,25,64,63,62,5.0,1.5781613999861293,,,[],[],[],[],[],[],[],-0.6,3,,[],[],[],[],[],[],[],None,None,852.2278351999994,854.04992640001,,,,,,,,,,,,,,,,,,,,,,,,,,,,,,246,f,24,2023-03-22_13h38.30.019,RL,2022.2.4,60.25254251124861,
1,-0.3,-0.225,0,66,66,66,,,,,,,,,,None,854.04992640001,854.04992640001,854.04992640001,854.04992640001,854.04992640001,854.04992640001,f,0.39653980001457967,854.4655985000136,854.4655985000136,854.4655985000136,854.4655985000136,854.4655985000136,854.4655985000136,854.7647891000088,854.7647891000088,856.7094601999852,856.7094601999852,856.7094601999852,856.7094601999852,856.7094601999852,856.7094601999852,856.7094601999852,856.7094601999852,856.7094601999852,856.7094601999852,856.7094601999852,856.7094601999852,856.7094601999852,856.7094601999852,856.7094601999852,856.7094601999852,856.7094601999852,,,,,,67,74,16,71,74,48,None,None,80,80,[0.075],[-0.3138888888888889],[1],[0],[0],[5.426525400020182],['tijiao'],-0.2,0,,[],[],[],[],[],[],[],7.972222222222221,2.0131005000148434,866.6975157000124,868.210768799996,859.2198116999934,859.2198116999934,859.2198116999934,859.2198116999934,859.2198116999934,859.2198116999934,859.2198116999934,859.2198116999934,0.005506099987542257,859.2198116999934,864.6660227999964,864.6660227999964,864.6660227999964,864.6660227999964,,,,,,,,,,,,,,,,246,f,24,2023-03-22_13h38.30.019,RL,2022.2.4,60.25254251124861,
0,0.3,0.225,0,67,67,67,,,,,,,,,,None,868.210768799996,868.210768799996,868.210768799996,868.210768799996,868.210768799996,868.210768799996,f,0.4716288000054192,868.710499799985,868.710499799985,868.710499799985,868.710499799985,868.710499799985,868.710499799985,869.0091551000078,869.0091551000078,870.6878740999964,870.6878740999964,870.6878740999964,870.6878740999964,870.6878740999964,870.6878740999964,870.6878740999964,870.6878740999964,870.6878740999964,870.6878740999964,870.6878740999964,870.6878740999964,870.6878740999964,870.6878740999964,870.6878740999964,870.6878740999964,870.6878740999964,,,,,,59,75,9,71,75,50,None,None,,,[],[],[],[],[],[],[],0.6,1,50,[-0.005555555555555556],[-0.26666666666666666],[1],[0],[0],[3.8536624000116717],['tijiao_random_2'],7.981481481481482,1.9708267000096384,879.0641655999934,880.5774567000044,,,,,,,,,,,877.0747905999888,877.0747905999888,877.0747905999888,877.0747905999888,873.2069819000026,873.2069819000026,873.2069819000026,873.2069819000026,873.2069819000026,873.2069819000026,873.2069819000026,873.2069819000026,0.005654799984768033,873.2069819000026,,,,,,246,f,24,2023-03-22_13h38.30.019,RL,2022.2.4,60.25254251124861,
1,-0.3,-0.225,0,68,68,68,,,,,,,,,,None,880.5774567000044,880.5774567000044,880.5774567000044,880.5774567000044,880.5774567000044,880.5774567000044,f,0.6874606000201311,881.2926189999853,881.2926189999853,881.2926189999853,881.2926189999853,881.2926189999853,881.2926189999853,881.5915622999892,881.5915622999892,883.5029600000125,883.5029600000125,883.5029600000125,883.5029600000125,883.5029600000125,883.5029600000125,883.5029600000125,883.5029600000125,883.5029600000125,883.5029600000125,883.5029600000125,883.5029600000125,883.5029600000125,883.5029600000125,883.5029600000125,883.5029600000125,883.5029600000125,,,,,,61,67,14,78,67,57,None,None,70,70,[0.12129629629629629],[-0.3037037037037037],[1],[0],[0],[3.863497999991523],['tijiao'],0.6,0,,[],[],[],[],[],[],[],6.064814814814815,2.858602600026643,892.7763321000093,894.5393282999867,886.0131047999894,886.0131047999894,886.0131047999894,886.0131047999894,886.0131047999894,886.0131047999894,886.0131047999894,886.0131047999894,0.005743099987739697,886.0131047999894,889.8985072000069,889.8985072000069,889.8985072000069,889.8985072000069,,,,,,,,,,,,,,,,246,f,24,2023-03-22_13h38.30.019,RL,2022.2.4,60.25254251124861,
0,0.3,0.225,0,69,69,69,,,,,,,,,,None,894.5393282999867,894.5393282999867,894.5393282999867,894.5393282999867,894.5393282999867,894.5393282999867,f,0.6307864999980666,895.1878483000037,895.1878483000037,895.1878483000037,895.1878483000037,895.1878483000037,895.1878483000037,895.4870532999921,895.4870532999921,897.1989253000065,897.1989253000065,897.1989253000065,897.1989253000065,897.1989253000065,897.1989253000065,897.1989253000065,897.1989253000065,897.1989253000065,897.1989253000065,897.1989253000065,897.1989253000065,897.1989253000065,897.1989253000065,897.1989253000065,897.1989253000065,897.1989253000065,899.7076608999923,899.7076608999923,899.7076608999923,899.7076608999923,899.7076608999923,50,78,23,70,78,44,7.0,2.0597275999898557,,,[],[],[],[],[],[],[],-0.6,2,,[],[],[],[],[],[],[],None,None,901.7934001999965,903.3484433999984,,,,,,,,,,,,,,,,,,,,,,,,,,,,,,246,f,24,2023-03-22_13h38.30.019,RL,2022.2.4,60.25254251124861,
1,-0.3,-0.225,0,70,70,70,,,,,,,,,,None,903.3484433999984,903.3484433999984,903.3484433999984,903.3484433999984,903.3484433999984,903.3484433999984,j,0.8208561000064947,904.1965144000133,904.1965144000133,904.1965144000133,904.1965144000133,904.1965144000133,904.1965144000133,904.4957551000116,904.4957551000116,905.7088217000128,905.7088217000128,905.7088217000128,905.7088217000128,905.7088217000128,905.7088217000128,905.7088217000128,905.7088217000128,905.7088217000128,905.7088217000128,905.7088217000128,905.7088217000128,905.7088217000128,905.7088217000128,905.7088217000128,905.7088217000128,905.7088217000128,,,,,,54,78,11,76,76,50,None,None,,,[],[],[],[],[],[],[],-0.6,1,50,[0.1111111111111111],[-0.2759259259259259],[1],[0],[0],[3.342328099999577],['tijiao_random_2'],8.148148148148149,2.2369491000135895,913.835794499988,915.5483136000112,,,,,,,,,,,911.5809243000112,911.5809243000112,911.5809243000112,911.5809243000112,908.2249087000091,908.2249087000091,908.2249087000091,908.2249087000091,908.2249087000091,908.2249087000091,908.2249087000091,908.2249087000091,0.005384999996749684,908.2249087000091,,,,,,246,f,24,2023-03-22_13h38.30.019,RL,2022.2.4,60.25254251124861,
0,0.3,0.225,0,71,71,71,,,,,,,,,,None,915.5483136000112,915.5483136000112,915.5483136000112,915.5483136000112,915.5483136000112,915.5483136000112,i,0.8952454999962356,916.463176499994,916.463176499994,916.463176499994,916.463176499994,916.463176499994,916.463176499994,916.7621483000112,916.7621483000112,918.0919278000074,918.0919278000074,918.0919278000074,918.0919278000074,918.0919278000074,918.0919278000074,918.0919278000074,918.0919278000074,918.0919278000074,918.0919278000074,918.0919278000074,918.0919278000074,918.0919278000074,918.0919278000074,918.0919278000074,918.0919278000074,918.0919278000074,,,,,,44,81,28,67,28,49,None,None,,,[],[],[],[],[],[],[],0.6,1,70,[0.15648148148148147],[-0.3],[1],[0],[0],[4.502547999989474],['tijiao_random_2'],8.24074074074074,1.472174399998039,926.6172648000065,928.2140733000124,,,,,,,,,,,925.1263564999972,925.1263564999972,925.1263564999972,925.1263564999972,920.6108018000086,920.6108018000086,920.6108018000086,920.6108018000086,920.6108018000086,920.6108018000086,920.6108018000086,920.6108018000086,0.006377600017003715,920.6108018000086,,,,,,246,f,24,2023-03-22_13h38.30.019,RL,2022.2.4,60.25254251124861,
1,-0.3,-0.225,0,72,72,72,,,,,,,,,,None,928.2140733000124,928.2140733000124,928.2140733000124,928.2140733000124,928.2140733000124,928.2140733000124,j,0.38008599999011494,928.613200199994,928.613200199994,928.613200199994,928.613200199994,928.613200199994,928.613200199994,928.9122682999878,928.9122682999878,930.4908888000064,930.4908888000064,930.5078130000038,930.5078130000038,930.5078130000038,930.5078130000038,930.5078130000038,930.5078130000038,930.5078130000038,930.5078130000038,930.5078130000038,930.5078130000038,930.5078130000038,930.5078130000038,930.5078130000038,930.5078130000038,930.5078130000038,933.0172605999978,933.0172605999978,933.0172605999978,933.0172605999978,933.0172605999978,53,74,27,79,79,45,7.0,1.7608768000209238,,,[],[],[],[],[],[],[],0.6,2,,[],[],[],[],[],[],[],None,None,934.8027663000103,936.7572647999914,,,,,,,,,,,,,,,,,,,,,,,,,,,,,,246,f,24,2023-03-22_13h38.30.019,RL,2022.2.4,60.25254251124861,
0,0.3,0.225,0,73,73,73,,,,,,,,,,None,936.7572647999914,936.7572647999914,936.7572647999914,936.7572647999914,936.7572647999914,936.7572647999914,f,0.7008075000194367,937.489208199986,937.489208199986,937.489208199986,937.489208199986,937.489208199986,937.489208199986,937.7879310999997,937.7879310999997,938.9347038000124,938.9347038000124,938.9516559999902,938.9516559999902,938.9516559999902,938.9516559999902,938.9516559999902,938.9516559999902,938.9516559999902,938.9516559999902,938.9516559999902,938.9516559999902,938.9516559999902,938.9516559999902,938.9516559999902,938.9516559999902,938.9516559999902,941.460677199997,941.460677199997,941.460677199997,941.460677199997,941.460677199997,57,79,28,91,79,65,7.0,1.2960305000015069,,,[],[],[],[],[],[],[],-0.2,2,,[],[],[],[],[],[],[],None,None,942.7805211000086,944.3199274000071,,,,,,,,,,,,,,,,,,,,,,,,,,,,,,246,f,24,2023-03-22_13h38.30.019,RL,2022.2.4,60.25254251124861,
1,-0.3,-0.225,0,74,74,74,,,,,,,,,,None,944.3199274000071,944.3199274000071,944.3199274000071,944.3199274000071,944.3199274000071,944.3199274000071,f,0.733695600007195,945.0853674999962,945.0853674999962,945.0853674999962,945.0853674999962,945.0853674999962,945.0853674999962,945.3840115999919,945.3840115999919,947.2785712000041,947.2785712000041,947.2785712000041,947.2785712000041,947.2785712000041,947.2785712000041,947.2785712000041,947.2785712000041,947.2785712000041,947.2785712000041,947.2785712000041,947.2785712000041,947.2785712000041,947.2785712000041,947.2785712000041,947.2785712000041,947.2785712000041,,,,,,57,72,28,75,72,54,None,None,75,75,[0.11388888888888889],[-0.29814814814814816],[1],[0],[0],[3.776213100005407],['tijiao'],-0.2,0,,[],[],[],[],[],[],[],7.981481481481482,1.8472710000060033,955.4552483999869,957.2844514999888,949.7925709999981,949.7925709999981,949.7925709999981,949.7925709999981,949.7925709999981,949.7925709999981,949.7925709999981,949.7925709999981,0.010223399993265048,949.7925709999981,953.5890136999951,953.5890136999951,953.5890136999951,953.5890136999951,,,,,,,,,,,,,,,,246,f,24,2023-03-22_13h38.30.019,RL,2022.2.4,60.25254251124861,
0,0.3,0.225,0,75,75,75,,,,,,,,,,q,1051.3459333000064,1051.3459333000064,1051.3459333000064,1051.3459333000064,1051.3459333000064,1051.3459333000064,r,1.08403170001111,1052.4585549999902,1052.4585549999902,1052.4585549999902,1052.4585549999902,1052.4585549999902,1052.4585549999902,1052.7577142000082,1052.7577142000082,1054.1705663999892,1054.1705663999892,1054.1705663999892,1054.1705663999892,1054.1705663999892,1054.1705663999892,1054.1705663999892,1054.1705663999892,1054.1705663999892,1054.1705663999892,1054.1705663999892,1054.1705663999892,1054.1705663999892,1054.1705663999892,1054.1705663999892,1054.1705663999892,1054.1705663999892,1056.6796463000064,1056.6796463000064,1056.6796463000064,1056.6796463000064,1056.6796463000064,59,75,29,73,59,61,2.0,2.2100156000233255,,,[],[],[],[],[],[],[],0.6,2,,[],[],[],[],[],[],[],None,None,1058.916169700009,1060.6359028999868,,,,,,,,,,,,,,,,,,,,,,,,,,,957.2844514999888,957.2844514999888,94.0313284000149,246,f,24,2023-03-22_13h38.30.019,RL,2022.2.4,60.25254251124861,
1,-0.3,-0.225,0,76,76,76,,,,,,,,,,None,1060.6359028999868,1060.6359028999868,1060.6359028999868,1060.6359028999868,1060.6359028999868,1060.6359028999868,f,0.4588821000070311,1061.1186945000081,1061.1186945000081,1061.1186945000081,1061.1186945000081,1061.1186945000081,1061.1186945000081,1061.417572700011,1061.417572700011,1063.1627119999903,1063.1627119999903,1063.1627119999903,1063.1627119999903,1063.1627119999903,1063.1627119999903,1063.1627119999903,1063.1627119999903,1063.1627119999903,1063.1627119999903,1063.1627119999903,1063.1627119999903,1063.1627119999903,1063.1627119999903,1063.1627119999903,1063.1627119999903,1063.1627119999903,1065.6716857999854,1065.6716857999854,1065.6716857999854,1065.6716857999854,1065.6716857999854,58,77,32,80,77,64,5.0,2.0607814000104554,,,[],[],[],[],[],[],[],-0.2,3,,[],[],[],[],[],[],[],None,None,1067.7590415999875,1069.5283938999928,,,,,,,,,,,,,,,,,,,,,,,,,,,,,,246,f,24,2023-03-22_13h38.30.019,RL,2022.2.4,60.25254251124861,
0,0.3,0.225,0,77,77,77,,,,,,,,,,None,1069.5283938999928,1069.5283938999928,1069.5283938999928,1069.5283938999928,1069.5283938999928,1069.5283938999928,j,0.7451180000207387,1070.2934183999896,1070.2934183999896,1070.2934183999896,1070.2934183999896,1070.2934183999896,1070.2934183999896,1070.5920620000106,1070.5920620000106,1071.8721848000132,1071.8721848000132,1071.8721848000132,1071.8721848000132,1071.8721848000132,1071.8721848000132,1071.8721848000132,1071.8721848000132,1071.8721848000132,1071.8721848000132,1071.8721848000132,1071.8721848000132,1071.8721848000132,1071.8721848000132,1071.8721848000132,1071.8721848000132,1071.8721848000132,1074.3813410000002,1074.3813410000002,1074.3813410000002,1074.3813410000002,1074.3813410000002,57,70,27,76,76,60,5.0,1.7111434999969788,,,[],[],[],[],[],[],[],-0.6,2,,[],[],[],[],[],[],[],None,None,1076.1180894999998,1077.8555947999994,,,,,,,,,,,,,,,,,,,,,,,,,,,,,,246,f,24,2023-03-22_13h38.30.019,RL,2022.2.4,60.25254251124861,
1,-0.3,-0.225,0,78,78,78,,,,,,,,,,None,1077.8555947999994,1077.8555947999994,1077.8555947999994,1077.8555947999994,1077.8555947999994,1077.8555947999994,i,0.7228141000086907,1078.6058063000091,1078.6058063000091,1078.6058063000091,1078.6058063000091,1078.6058063000091,1078.6058063000091,1078.90304189999,1078.90304189999,1079.717608100007,1079.717608100007,1079.717608100007,1079.717608100007,1079.717608100007,1079.717608100007,1079.717608100007,1079.717608100007,1079.717608100007,1079.717608100007,1079.717608100007,1079.717608100007,1079.717608100007,1079.717608100007,1079.717608100007,1079.717608100007,1079.717608100007,1082.226225499995,1082.226225499995,1082.226225499995,1082.226225499995,1082.226225499995,51,68,25,73,25,65,2.0,2.143972100020619,,,[],[],[],[],[],[],[],0.6,3,,[],[],[],[],[],[],[],None,None,1084.3954770000128,1086.0997781000042,,,,,,,,,,,,,,,,,,,,,,,,,,,,,,246,f,24,2023-03-22_13h38.30.019,RL,2022.2.4,60.25254251124861,
0,0.3,0.225,0,79,79,79,,,,,,,,,,None,1086.0997781000042,1086.0997781000042,1086.0997781000042,1086.0997781000042,1086.0997781000042,1086.0997781000042,j,0.4478845999983605,1086.5658473999938,1086.5658473999938,1086.5658473999938,1086.5658473999938,1086.5658473999938,1086.5658473999938,1086.8644865000097,1086.8644865000097,1088.543493300007,1088.543493300007,1088.543493300007,1088.543493300007,1088.543493300007,1088.543493300007,1088.543493300007,1088.543493300007,1088.543493300007,1088.543493300007,1088.543493300007,1088.543493300007,1088.543493300007,1088.543493300007,1088.543493300007,1088.543493300007,1088.543493300007,,,,,,49,79,21,71,71,62,None,None,75,75,[0.011111111111111112],[-0.30185185185185187],[1],[0],[0],[4.030111100000795],['tijiao'],0.2,0,,[],[],[],[],[],[],[],8.185185185185185,2.2613323999976274,1097.3846286000044,1099.3802566000086,1091.0538078999962,1091.0538078999962,1091.0538078999962,1091.0538078999962,1091.0538078999962,1091.0538078999962,1091.0538078999962,1091.0538078999962,0.005564799997955561,1091.0538078999962,1095.1043347000086,1095.1043347000086,1095.1043347000086,1095.1043347000086,,,,,,,,,,,,,,,,246,f,24,2023-03-22_13h38.30.019,RL,2022.2.4,60.25254251124861,
1,-0.3,-0.225,0,80,80,80,,,,,,,,,,None,1099.3802566000086,1099.3802566000086,1099.3802566000086,1099.3802566000086,1099.3802566000086,1099.3802566000086,j,0.6293598999909591,1100.0289986999996,1100.0289986999996,1100.0289986999996,1100.0289986999996,1100.0289986999996,1100.0289986999996,1100.3280098999967,1100.3280098999967,1101.374940699985,1101.374940699985,1101.3913533999876,1101.3913533999876,1101.3913533999876,1101.3913533999876,1101.3913533999876,1101.3913533999876,1101.3913533999876,1101.3913533999876,1101.3913533999876,1101.3913533999876,1101.3913533999876,1101.3913533999876,1101.3913533999876,1101.3913533999876,1101.3913533999876,,,,,,51,73,29,64,64,71,None,None,70,70,[0.06296296296296296],[-0.3037037037037037],[1],[0],[0],[4.111347099998966],['tijiao'],-0.2,0,,[],[],[],[],[],[],[],5.0092592592592595,1.930409900000086,1109.983534900006,1111.7461342999886,1103.9024767999945,1103.9024767999945,1103.9024767999945,1103.9024767999945,1103.9024767999945,1103.9024767999945,1103.9024767999945,1103.9024767999945,0.006892600009450689,1103.9024767999945,1108.0350488999975,1108.0350488999975,1108.0350488999975,1108.0350488999975,,,,,,,,,,,,,,,,246,f,24,2023-03-22_13h38.30.019,RL,2022.2.4,60.25254251124861,
0,0.3,0.225,0,81,81,81,,,,,,,,,,None,1111.7461342999886,1111.7461342999886,1111.7461342999886,1111.7461342999886,1111.7461342999886,1111.7461342999886,j,0.4251874999899883,1112.1972124000022,1112.1972124000022,1112.1972124000022,1112.1972124000022,1112.1972124000022,1112.1972124000022,1112.4945806000032,1112.4945806000032,1114.3064282000123,1114.3064282000123,1114.3064282000123,1114.3064282000123,1114.3064282000123,1114.3064282000123,1114.3064282000123,1114.3064282000123,1114.3064282000123,1114.3064282000123,1114.3064282000123,1114.3064282000123,1114.3064282000123,1114.3064282000123,1114.3064282000123,1114.3064282000123,1114.3064282000123,,,,,,51,70,19,56,56,67,None,None,50,50,[-0.05740740740740741],[-0.31296296296296294],[1],[0],[0],[5.9574330000032205],['tijiao'],0.2,0,,[],[],[],[],[],[],[],6.981481481481481,2.033415400015656,1124.8431844000006,1126.7718461999903,1116.816634799994,1116.816634799994,1116.816634799994,1116.816634799994,1116.816634799994,1116.816634799994,1116.816634799994,1116.816634799994,0.005112399987410754,1116.816634799994,1122.7951232999912,1122.7951232999912,1122.7951232999912,1122.7951232999912,,,,,,,,,,,,,,,,246,f,24,2023-03-22_13h38.30.019,RL,2022.2.4,60.25254251124861,
1,-0.3,-0.225,0,82,82,82,,,,,,,,,,None,1126.7718461999903,1126.7718461999903,1126.7718461999903,1126.7718461999903,1126.7718461999903,1126.7718461999903,f,0.6254462999932002,1127.4208008999994,1127.4208008999994,1127.4208008999994,1127.4208008999994,1127.4208008999994,1127.4208008999994,1127.7198510000017,1127.7198510000017,1129.5148396999866,1129.5148396999866,1129.5148396999866,1129.5148396999866,1129.5148396999866,1129.5148396999866,1129.5148396999866,1129.5148396999866,1129.5148396999866,1129.5148396999866,1129.5148396999866,1129.5148396999866,1129.5148396999866,1129.5148396999866,1129.5148396999866,1129.5148396999866,1129.5148396999866,1132.023795599991,1132.023795599991,1132.023795599991,1132.023795599991,1132.023795599991,46,71,21,67,71,60,7.0,1.8112057999824174,,,[],[],[],[],[],[],[],0.2,2,,[],[],[],[],[],[],[],None,None,1133.860288900003,1135.7308600000106,,,,,,,,,,,,,,,,,,,,,,,,,,,,,,246,f,24,2023-03-22_13h38.30.019,RL,2022.2.4,60.25254251124861,
0,0.3,0.225,0,83,83,83,,,,,,,,,,None,1135.7308600000106,1135.7308600000106,1135.7308600000106,1135.7308600000106,1135.7308600000106,1135.7308600000106,f,0.43603140002232976,1136.199094999989,1136.199094999989,1136.199094999989,1136.199094999989,1136.199094999989,1136.199094999989,1136.4956760999921,1136.4956760999921,1138.1912836999982,1138.1912836999982,1138.1912836999982,1138.1912836999982,1138.1912836999982,1138.1912836999982,1138.1912836999982,1138.1912836999982,1138.1912836999982,1138.1912836999982,1138.1912836999982,1138.1912836999982,1138.1912836999982,1138.1912836999982,1138.1912836999982,1138.1912836999982,1138.1912836999982,,,,,,42,72,33,62,72,34,None,None,,,[],[],[],[],[],[],[],-0.6,1,64,[0.062037037037037036],[-0.2796296296296296],[1],[0],[0],[5.019332099996973],['tijiao_random_2'],5.953703703703703,1.7381842999893706,1147.4979837999854,1149.127803100011,,,,,,,,,,,1145.7417841000133,1145.7417841000133,1145.7417841000133,1145.7417841000133,1140.7081775999977,1140.7081775999977,1140.7081775999977,1140.7081775999977,1140.7081775999977,1140.7081775999977,1140.7081775999977,1140.7081775999977,0.005583599995588884,1140.7081775999977,,,,,,246,f,24,2023-03-22_13h38.30.019,RL,2022.2.4,60.25254251124861,
1,-0.3,-0.225,0,84,84,84,,,,,,,,,,None,1149.127803100011,1149.127803100011,1149.127803100011,1149.127803100011,1149.127803100011,1149.127803100011,r,1.0213457000209019,1150.1759917000018,1150.1759917000018,1150.1759917000018,1150.1759917000018,1150.1759917000018,1150.1759917000018,1150.47456100001,1150.47456100001,1151.986978800007,1151.986978800007,1151.986978800007,1151.986978800007,1151.986978800007,1151.986978800007,1151.986978800007,1151.986978800007,1151.986978800007,1151.986978800007,1151.986978800007,1151.986978800007,1151.986978800007,1151.986978800007,1151.986978800007,1151.986978800007,1151.986978800007,1154.4959142000007,1154.4959142000007,1154.4959142000007,1154.4959142000007,1154.4959142000007,45,74,31,56,45,77,3.0,2.193023500003619,,,[],[],[],[],[],[],[],0.2,3,,[],[],[],[],[],[],[],None,None,1156.716290100012,1158.551834599988,,,,,,,,,,,,,,,,,,,,,,,,,,,,,,246,f,24,2023-03-22_13h38.30.019,RL,2022.2.4,60.25254251124861,
0,0.3,0.225,0,85,85,85,,,,,,,,,,None,1158.551834599988,1158.551834599988,1158.551834599988,1158.551834599988,1158.551834599988,1158.551834599988,f,0.5509267000015825,1159.1344960000133,1159.1344960000133,1159.1344960000133,1159.1344960000133,1159.1344960000133,1159.1344960000133,1159.433386699995,1159.433386699995,1161.3946371999918,1161.3946371999918,1161.3946371999918,1161.3946371999918,1161.3946371999918,1161.3946371999918,1161.3946371999918,1161.3946371999918,1161.3946371999918,1161.3946371999918,1161.3946371999918,1161.3946371999918,1161.3946371999918,1161.3946371999918,1161.3946371999918,1161.3946371999918,1161.3946371999918,,,,,,43,68,29,67,68,78,None,None,68,68,[-0.09814814814814815],[-0.26296296296296295],[1],[0],[0],[4.262559199996758],['tijiao'],-0.2,0,,[],[],[],[],[],[],[],4.87037037037037,1.8643305999867152,1170.069669599994,1171.9320437000133,1163.9049568999908,1163.9049568999908,1163.9049568999908,1163.9049568999908,1163.9049568999908,1163.9049568999908,1163.9049568999908,1163.9049568999908,0.005840800004079938,1163.9049568999908,1168.1870053999883,1168.1870053999883,1168.1870053999883,1168.1870053999883,,,,,,,,,,,,,,,,246,f,24,2023-03-22_13h38.30.019,RL,2022.2.4,60.25254251124861,
1,-0.3,-0.225,0,86,86,86,,,,,,,,,,None,1171.9320437000133,1171.9320437000133,1171.9320437000133,1171.9320437000133,1171.9320437000133,1171.9320437000133,f,0.5734247000073083,1172.5313119000057,1172.5313119000057,1172.5313119000057,1172.5313119000057,1172.5313119000057,1172.5313119000057,1172.8298568000027,1172.8298568000027,1173.7272961999988,1173.7272961999988,1173.7272961999988,1173.7272961999988,1173.7272961999988,1173.7272961999988,1173.7272961999988,1173.7272961999988,1173.7272961999988,1173.7272961999988,1173.7272961999988,1173.7272961999988,1173.7272961999988,1173.7272961999988,1173.7272961999988,1173.7272961999988,1173.7272961999988,,,,,,41,77,34,62,77,73,None,None,78,78,[-0.008333333333333333],[-0.29907407407407405],[1],[0],[0],[4.643199999991339],['tijiao'],-0.6,0,,[],[],[],[],[],[],[],6.222222222222222,2.129966600012267,1183.0510676999984,1184.8967179000028,1176.238963300013,1176.238963300013,1176.238963300013,1176.238963300013,1176.238963300013,1176.238963300013,1176.238963300013,1176.238963300013,0.007418199995299801,1176.238963300013,1180.9022045999882,1180.9022045999882,1180.9022045999882,1180.9022045999882,,,,,,,,,,,,,,,,246,f,24,2023-03-22_13h38.30.019,RL,2022.2.4,60.25254251124861,
0,0.3,0.225,0,87,87,87,,,,,,,,,,None,1184.8967179000028,1184.8967179000028,1184.8967179000028,1184.8967179000028,1184.8967179000028,1184.8967179000028,j,0.5159370000183117,1185.4462627999892,1185.4462627999892,1185.4462627999892,1185.4462627999892,1185.4462627999892,1185.4462627999892,1185.744761799986,1185.744761799986,1187.6393347000121,1187.6393347000121,1187.6393347000121,1187.6393347000121,1187.6393347000121,1187.6393347000121,1187.6393347000121,1187.6393347000121,1187.6393347000121,1187.6393347000121,1187.6393347000121,1187.6393347000121,1187.6393347000121,1187.6393347000121,1187.6393347000121,1187.6393347000121,1187.6393347000121,1190.1488534999953,1190.1488534999953,1190.1488534999953,1190.1488534999953,1190.1488534999953,42,77,22,53,53,78,5.0,2.3761170000070706,,,[],[],[],[],[],[],[],0.2,3,,[],[],[],[],[],[],[],None,None,1192.5508388000017,1194.537293100002,,,,,,,,,,,,,,,,,,,,,,,,,,,,,,246,f,24,2023-03-22_13h38.30.019,RL,2022.2.4,60.25254251124861,
1,-0.3,-0.225,0,88,88,88,,,,,,,,,,None,1194.537293100002,1194.537293100002,1194.537293100002,1194.537293100002,1194.537293100002,1194.537293100002,f,0.7950847999891266,1195.3523945999914,1195.3523945999914,1195.3523945999914,1195.3523945999914,1195.3523945999914,1195.3523945999914,1195.6511424999917,1195.6511424999917,1196.7481171000109,1196.7481171000109,1196.7481171000109,1196.7481171000109,1196.7481171000109,1196.7481171000109,1196.7481171000109,1196.7481171000109,1196.7481171000109,1196.7481171000109,1196.7481171000109,1196.7481171000109,1196.7481171000109,1196.7481171000109,1196.7481171000109,1196.7481171000109,1196.7481171000109,1199.257291899994,1199.257291899994,1199.257291899994,1199.257291899994,1199.257291899994,41,83,20,68,83,63,7.0,1.7442212000023574,,,[],[],[],[],[],[],[],-0.6,2,,[],[],[],[],[],[],[],None,None,1201.0280848999973,1202.5987360999861,,,,,,,,,,,,,,,,,,,,,,,,,,,,,,246,f,24,2023-03-22_13h38.30.019,RL,2022.2.4,60.25254251124861,
0,0.3,0.225,0,89,89,89,,,,,,,,,,None,1202.5987360999861,1202.5987360999861,1202.5987360999861,1202.5987360999861,1202.5987360999861,1202.5987360999861,r,0.758537299989257,1203.3814828000031,1203.3814828000031,1203.3814828000031,1203.3814828000031,1203.3814828000031,1203.3814828000031,1203.679132099991,1203.679132099991,1204.5101189000125,1204.5101189000125,1204.5101189000125,1204.5101189000125,1204.5101189000125,1204.5101189000125,1204.5101189000125,1204.5101189000125,1204.5101189000125,1204.5101189000125,1204.5101189000125,1204.5101189000125,1204.5101189000125,1204.5101189000125,1204.5101189000125,1204.5101189000125,1204.5101189000125,,,,,,47,80,21,59,47,37,None,None,,,[],[],[],[],[],[],[],0.2,1,20,[-0.001851851851851852],[-0.28425925925925927],[1],[0],[0],[5.501828000007663],['tijiao_random_2'],8.231481481481481,2.0043206000118516,1214.564821500011,1216.1614876000094,,,,,,,,,,,1212.5417284999858,1212.5417284999858,1212.5417284999858,1212.5417284999858,1207.027025999996,1207.027025999996,1207.027025999996,1207.027025999996,1207.027025999996,1207.027025999996,1207.027025999996,1207.027025999996,0.005531000002520159,1207.027025999996,,,,,,246,f,24,2023-03-22_13h38.30.019,RL,2022.2.4,60.25254251124861,
1,-0.3,-0.225,0,90,90,90,,,,,,,,,,None,1216.1614876000094,1216.1614876000094,1216.1614876000094,1216.1614876000094,1216.1614876000094,1216.1614876000094,f,0.49761009999201633,1216.677376000007,1216.677376000007,1216.677376000007,1216.677376000007,1216.677376000007,1216.677376000007,1216.976347399992,1216.976347399992,1218.9372116999875,1218.9372116999875,1218.9372116999875,1218.9372116999875,1218.9372116999875,1218.9372116999875,1218.9372116999875,1218.9372116999875,1218.9372116999875,1218.9372116999875,1218.9372116999875,1218.9372116999875,1218.9372116999875,1218.9372116999875,1218.9372116999875,1218.9372116999875,1218.9372116999875,1221.4467082000047,1221.4467082000047,1221.4467082000047,1221.4467082000047,1221.4467082000047,45,74,24,54,74,69,7.0,2.342800799990073,,,[],[],[],[],[],[],[],-0.6,2,,[],[],[],[],[],[],[],None,None,1223.8141162999964,1225.6356503000134,,,,,,,,,,,,,,,,,,,,,,,,,,,,,,246,f,24,2023-03-22_13h38.30.019,RL,2022.2.4,60.25254251124861,
