bandit0,black_x_pos_random,black_y_pos_random,trials.thisRepN,trials.thisTrialN,trials.thisN,trials.thisIndex,instru_img1.started,instru_img1.stopped,instru_resp.keys,instru_resp.rt,instru_resp.started,instru_resp.stopped,instru_img2.started,instru_img2.stopped,instru_resp2.keys,instru_resp2.rt,instru_resp2.started,instru_resp2.stopped,fixbefore_2.started,fixbefore_2.stopped,rest_image.started,rest_image.stopped,rest_response.keys,rest_response.started,rest_response.stopped,red.started,red.stopped,green.started,green.stopped,yellow.started,yellow.stopped,blue.started,blue.stopped,choose_bandit.keys,choose_bandit.rt,choose_bandit.started,choose_bandit.stopped,Fixation.started,Fixation.stopped,black.started,black.stopped,red_2.started,red_2.stopped,green_2.started,green_2.stopped,yellow_2.started,yellow_2.stopped,blue_2.started,blue_2.stopped,fixation_2.started,fixation_2.stopped,docs.started,docs.stopped,wait_playerB.started,wait_playerB.stopped,black_com.started,black_com.stopped,reward_sub.started,reward_sub.stopped,palyerb.started,palyerb.stopped,reward__sub.started,reward__sub.stopped,compare.started,compare.stopped,red_compare.started,red_compare.stopped,green_com.started,green_com.stopped,yellow_com.started,yellow_com.stopped,blue_com.started,blue_com.stopped,rewardyellow,rewardred,rewardblue,rewardgreen,subchoose,playerb,image_3.started,image_3.stopped,slider.response,slider.rt,slider.started,slider.stopped,text.started,text.stopped,image_4.started,image_4.stopped,image_5.started,image_5.stopped,expectself.text,expectself.started,expectself.stopped,value_expect_self,expect_self_black.started,expect_self_black.stopped,expect_self.started,expect_self.stopped,expect_self_red.started,expect_self_red.stopped,expect_self_green.started,expect_self_green.stopped,expect_self_yellow.started,expect_self_yellow.stopped,expect_self_blue.started,expect_self_blue.stopped,tijiao.started,tijiao.stopped,tijiao_click.started,tijiao_click.stopped,check.started,check.stopped,random_whicharm,whether_ask,jiantou_random.started,jiantou_random.stopped,expect_red.started,expect_red.stopped,expect_green.started,expect_green.stopped,expect_yellow.started,expect_yellow.stopped,expect_blue.started,expect_blue.stopped,expect_random_2.started,expect_random_2.stopped,expect_random_3.text,expect_random_3.started,expect_random_3.stopped,tijiao_random_2.started,tijiao_random_2.stopped,tijiao_random.x,tijiao_random.y,tijiao_random.leftButton,tijiao_random.midButton,tijiao_random.rightButton,tijiao_random.time,tijiao_random.clicked_name,tijiao_random.started,tijiao_random.stopped,check_2.started,check_2.stopped,slider_2.response,slider_2.rt,slider_2.started,slider_2.stopped,image_7.started,image_7.stopped,confi.started,confi.stopped,notconfi.started,notconfi.stopped,bigx.started,bigx.stopped,intertrialfix.started,intertrialfix.stopped,tijiao_click.x,tijiao_click.y,tijiao_click.leftButton,tijiao_click.midButton,tijiao_click.rightButton,tijiao_click.time,tijiao_click.clicked_name,rest_response.rt,participant,Gender,Age,date,expName,psychopyVersion,frameRate,
,,,,,,,23.631420999998227,None,space,7.835305999964476,23.631420999998227,None,,,,,,,,,,,,,,,,,,,,,,,,,,,,,,,,,,,,,,,,,,,,,,,,,,,,,,,,,,,,,,,,,,,,,,,,,,,,,,,,,,,,,,,,,,,,,,,,,,,,,,,,,,,,,,,,,,,,,,,,,,,,,,,,,,,,,,,,,,,,,,,,,,,,,,,,,,247,m,22,2023_Mar_22_1452,RL,2021.2.3,59.95969510713798,
,,,,,,,,,,,,,31.50052370002959,None,s,14.706132300081663,31.50052370002959,None,,,,,,,,,,,,,,,,,,,,,,,,,,,,,,,,,,,,,,,,,,,,,,,,,,,,,,,,,,,,,,,,,,,,,,,,,,,,,,,,,,,,,,,,,,,,,,,,,,,,,,,,,,,,,,,,,,,,,,,,,,,,,,,,,,,,,,,,,,,,,,,,,,,,247,m,22,2023_Mar_22_1452,RL,2021.2.3,59.95969510713798,
1,-0.3,-0.225,0,0,0,0,,,,,,,,,,,,,46.24451079999562,None,None,None,None,None,None,47.32916359999217,None,47.32916359999217,None,47.32916359999217,None,47.32916359999217,None,f,0.5277253000531346,47.32916359999217,None,47.32916359999217,None,47.97438070003409,None,47.97438070003409,None,47.97438070003409,None,47.97438070003409,None,47.97438070003409,None,47.97438070003409,None,48.26181000005454,None,48.26181000005454,None,49.78948929999024,None,49.78948929999024,None,49.78948929999024,None,49.78948929999024,None,49.78948929999024,None,49.78948929999024,None,49.78948929999024,None,49.78948929999024,None,49.78948929999024,None,68,23,50,50,23,54,None,None,None,None,None,None,None,None,None,None,None,None,,None,None,,None,None,None,None,None,None,None,None,None,None,None,None,None,None,None,None,None,None,-0.6,1,52.74131529999431,None,52.74131529999431,None,52.74131529999431,None,52.74131529999431,None,52.74131529999431,None,52.74131529999431,None,50,52.74131529999431,None,52.74131529999431,None,-0.026041666666666668,-0.2916666666666667,1,0,0,6.472546700038947,tijiao_random_2,0.016420899890363216,None,52.74131529999431,None,1.078125,1.6879361999453977,59.39469810004812,None,59.39469810004812,None,59.39469810004812,None,59.39469810004812,None,None,None,61.18379070004448,None,,,,,,,,,247,m,22,2023_Mar_22_1452,RL,2021.2.3,59.95969510713798,
0,0.3,0.225,0,1,1,1,,,,,,,,,,,,,,,None,None,None,None,None,62.77454979997128,None,62.77454979997128,None,62.77454979997128,None,62.77454979997128,None,f,0.7923167999833822,62.77454979997128,None,62.77454979997128,None,63.61168229999021,None,63.61168229999021,None,63.61168229999021,None,63.61168229999021,None,63.61168229999021,None,63.61168229999021,None,63.90607919998001,None,63.90607919998001,None,65.09056779998355,None,65.09056779998355,None,65.09056779998355,None,65.09056779998355,None,65.09056779998355,None,65.09056779998355,None,65.09056779998355,None,65.09056779998355,None,65.09056779998355,None,74,21,51,50,21,65,67.61452439997811,None,1.0,1.7184838999528438,67.61452439997811,None,67.61452439997811,None,67.61452439997811,None,67.61452439997811,None,,None,None,,None,None,None,None,None,None,None,None,None,None,None,None,None,None,None,None,None,None,0.2,3,None,None,None,None,None,None,None,None,None,None,None,None,,None,None,None,None,,,,,,,,None,None,None,None,None,None,None,None,None,None,None,None,None,None,None,None,69.51166630000807,None,,,,,,,,,247,m,22,2023_Mar_22_1452,RL,2021.2.3,59.95969510713798,
1,-0.3,-0.225,0,2,2,2,,,,,,,,,,,,,,,None,None,None,None,None,71.04874550004024,None,71.04874550004024,None,71.04874550004024,None,71.04874550004024,None,None,,71.04874550004024,None,71.04874550004024,None,None,None,None,None,None,None,None,None,None,None,None,None,None,None,None,None,None,None,None,None,None,None,None,None,None,None,None,None,None,None,None,None,None,None,67,30,59,53,0,**,None,None,None,None,None,None,None,None,None,None,None,None,,None,None,,None,None,None,None,None,None,None,None,None,None,None,None,None,None,None,None,None,None,-0.2,0,None,None,None,None,None,None,None,None,None,None,None,None,,None,None,None,None,,,,,,,,None,None,None,None,None,None,None,None,None,None,None,None,None,None,72.78726120002102,None,78.79958029999398,None,,,,,,,,,247,m,22,2023_Mar_22_1452,RL,2021.2.3,59.95969510713798,
0,0.3,0.225,0,3,3,3,,,,,,,,,,,,,,,None,None,None,None,None,80.68898610002361,None,80.68898610002361,None,80.68898610002361,None,80.68898610002361,None,r,0.39815649995580316,80.68898610002361,None,80.68898610002361,None,81.12943910004105,None,81.12943910004105,None,81.12943910004105,None,81.12943910004105,None,81.12943910004105,None,81.12943910004105,None,81.41815500007942,83.08592350000981,81.41815500007942,83.08592350000981,83.11986139998771,None,83.11986139998771,None,83.11986139998771,None,83.11986139998771,None,83.11986139998771,None,83.11986139998771,None,83.11986139998771,None,83.11986139998771,None,83.11986139998771,None,64,32,58,64,64,39,None,None,None,None,None,None,None,None,None,None,None,None,80,85.66210529999807,None,80,85.66210529999807,None,85.66210529999807,None,85.66210529999807,None,85.66210529999807,None,85.66210529999807,None,85.66210529999807,None,85.66210529999807,None,0.002142000012099743,None,85.66210529999807,None,0.2,0,None,None,None,None,None,None,None,None,None,None,None,None,,None,None,None,None,,,,,,,,None,None,None,None,1.091145833333333,1.6702159000560641,90.35852130001877,None,90.35852130001877,None,90.35852130001877,None,90.35852130001877,None,None,None,92.04549170006067,None,-0.06510416666666667,-0.27734375,1,0,0,4.623354500043206,tijiao,,247,m,22,2023_Mar_22_1452,RL,2021.2.3,59.95969510713798,
1,-0.3,-0.225,0,4,4,4,,,,,,,,,,,,,,,None,None,None,None,None,93.98080750007648,None,93.98080750007648,None,93.98080750007648,None,93.98080750007648,None,r,0.35620099992956966,93.98080750007648,None,93.98080750007648,None,94.38553460000549,None,94.38553460000549,None,94.38553460000549,None,94.38553460000549,None,94.38553460000549,None,94.38553460000549,None,94.6772441000212,95.61126540007535,94.6772441000212,95.61126540007535,95.64319850003812,None,95.64319850003812,None,95.64319850003812,None,95.64319850003812,None,95.64319850003812,None,95.64319850003812,None,95.64319850003812,None,95.64319850003812,None,95.64319850003812,None,69,36,57,58,69,62,98.15919729997404,None,7.0,1.9224786000559106,98.15919729997404,None,98.15919729997404,None,98.15919729997404,None,98.15919729997404,None,,None,None,,None,None,None,None,None,None,None,None,None,None,None,None,None,None,None,None,None,None,0.6,2,None,None,None,None,None,None,None,None,None,None,None,None,,None,None,None,None,,,,,,,,None,None,None,None,None,None,None,None,None,None,None,None,None,None,None,None,100.13923710002564,None,,,,,,,,,247,m,22,2023_Mar_22_1452,RL,2021.2.3,59.95969510713798,
0,0.3,0.225,0,5,5,5,,,,,,,,,,,,,,,None,None,None,None,None,101.97003239998594,None,101.97003239998594,None,101.97003239998594,None,101.97003239998594,None,j,0.787301600095816,101.97003239998594,None,101.97003239998594,None,102.79508429998532,None,102.79508429998532,None,102.79508429998532,None,102.79508429998532,None,102.79508429998532,None,102.79508429998532,None,103.08321519999299,105.01792440004647,103.08321519999299,105.01792440004647,105.05084370006807,None,105.05084370006807,None,105.05084370006807,None,105.05084370006807,None,105.05084370006807,None,105.05084370006807,None,105.05084370006807,None,105.05084370006807,None,105.05084370006807,None,69,31,57,46,46,65,107.5734448999865,None,4.0,1.8652412000810727,107.5734448999865,None,107.5734448999865,None,107.5734448999865,None,107.5734448999865,None,,None,None,,None,None,None,None,None,None,None,None,None,None,None,None,None,None,None,None,None,None,-0.6,3,None,None,None,None,None,None,None,None,None,None,None,None,,None,None,None,None,,,,,,,,None,None,None,None,None,None,None,None,None,None,None,None,None,None,None,None,109.4960477000568,None,,,,,,,,,247,m,22,2023_Mar_22_1452,RL,2021.2.3,59.95969510713798,
1,-0.3,-0.225,0,6,6,6,,,,,,,,,,,,,,,None,None,None,None,None,111.32639980001841,None,111.32639980001841,None,111.32639980001841,None,111.32639980001841,None,j,0.501693099969998,111.32639980001841,None,111.32639980001841,None,111.87996759999078,None,111.87996759999078,None,111.87996759999078,None,111.87996759999078,None,111.87996759999078,None,111.87996759999078,None,112.17269590008073,113.72387920005713,112.17269590008073,113.72387920005713,113.75749230000656,None,113.75749230000656,None,113.75749230000656,None,113.75749230000656,None,113.75749230000656,None,113.75749230000656,None,113.75749230000656,None,113.75749230000656,None,113.75749230000656,None,83,36,64,47,47,71,None,None,None,None,None,None,None,None,None,None,None,None,,None,None,,None,None,None,None,None,None,None,None,None,None,None,None,None,None,None,None,None,None,0.2,1,116.3045932999812,None,116.3045932999812,None,116.3045932999812,None,116.3045932999812,None,116.3045932999812,None,116.3045932999812,None,50,116.3045932999812,None,116.3045932999812,None,0.03515625,-0.2838541666666667,1,0,0,3.8498257000464946,tijiao_random_2,0.012316000065766275,None,116.3045932999812,None,1.0,0.9198508999543265,120.19875830004457,None,120.19875830004457,None,120.19875830004457,None,120.19875830004457,None,None,None,121.12848990003113,None,,,,,,,,,247,m,22,2023_Mar_22_1452,RL,2021.2.3,59.95969510713798,
0,0.3,0.225,0,7,7,7,,,,,,,,,,,,,,,None,None,None,None,None,123.13411690003704,None,123.13411690003704,None,123.13411690003704,None,123.13411690003704,None,i,0.36412040004506707,123.13411690003704,None,123.13411690003704,None,123.54112509998959,None,123.54112509998959,None,123.54112509998959,None,123.54112509998959,None,123.54112509998959,None,123.54112509998959,None,123.83085879997816,None,123.83085879997816,None,125.36178370006382,None,125.36178370006382,None,125.36178370006382,None,125.36178370006382,None,125.36178370006382,None,125.36178370006382,None,125.36178370006382,None,125.36178370006382,None,125.36178370006382,None,76,38,57,44,57,33,127.88146780000534,None,7.0,1.906652900041081,127.88146780000534,None,127.88146780000534,None,127.88146780000534,None,127.88146780000534,None,,None,None,,None,None,None,None,None,None,None,None,None,None,None,None,None,None,None,None,None,None,-0.2,3,None,None,None,None,None,None,None,None,None,None,None,None,,None,None,None,None,,,,,,,,None,None,None,None,None,None,None,None,None,None,None,None,None,None,None,None,129.8407978999894,None,,,,,,,,,247,m,22,2023_Mar_22_1452,RL,2021.2.3,59.95969510713798,
1,-0.3,-0.225,0,8,8,8,,,,,,,,,,,,,,,None,None,None,None,None,131.3899338999763,None,131.3899338999763,None,131.3899338999763,None,131.3899338999763,None,i,0.4183760999003425,131.3899338999763,None,131.3899338999763,None,131.8573074999731,None,131.8573074999731,None,131.8573074999731,None,131.8573074999731,None,131.8573074999731,None,131.8573074999731,None,132.1533233000664,None,132.1533233000664,None,133.6189194000326,None,133.6189194000326,None,133.6189194000326,None,133.6189194000326,None,133.6189194000326,None,133.6189194000326,None,133.6189194000326,None,133.6189194000326,None,133.6189194000326,None,77,26,61,35,61,69,136.14083210006356,None,7.0,1.1018850000109524,136.14083210006356,None,136.14083210006356,None,136.14083210006356,None,136.14083210006356,None,,None,None,,None,None,None,None,None,None,None,None,None,None,None,None,None,None,None,None,None,None,0.6,2,None,None,None,None,None,None,None,None,None,None,None,None,,None,None,None,None,,,,,,,,None,None,None,None,None,None,None,None,None,None,None,None,None,None,None,None,137.30508780002128,None,,,,,,,,,247,m,22,2023_Mar_22_1452,RL,2021.2.3,59.95969510713798,
0,0.3,0.225,0,9,9,9,,,,,,,,,,,,,,,None,None,None,None,None,139.14592210005503,None,139.14592210005503,None,139.14592210005503,None,139.14592210005503,None,r,0.48264970001764596,139.14592210005503,None,139.14592210005503,None,139.6801421000855,None,139.6801421000855,None,139.6801421000855,None,139.6801421000855,None,139.6801421000855,None,139.6801421000855,None,139.97551810008008,None,139.97551810008008,None,141.1969170999946,None,141.1969170999946,None,141.1969170999946,None,141.1969170999946,None,141.1969170999946,None,141.1969170999946,None,141.1969170999946,None,141.1969170999946,None,141.1969170999946,None,73,32,82,52,73,61,None,None,None,None,None,None,None,None,None,None,None,None,75,143.71938969998155,None,75,143.71938969998155,None,143.71938969998155,None,143.71938969998155,None,143.71938969998155,None,143.71938969998155,None,143.71938969998155,None,143.71938969998155,None,0.0003722000401467085,None,143.71938969998155,None,-0.6,0,None,None,None,None,None,None,None,None,None,None,None,None,,None,None,None,None,,,,,,,,None,None,None,None,6.065104166666666,1.0730706000467762,148.4919182000449,None,148.4919182000449,None,148.4919182000449,None,148.4919182000449,None,None,None,149.5813405000372,None,0.16276041666666666,-0.2890625,1,0,0,4.736582200042903,tijiao,,247,m,22,2023_Mar_22_1452,RL,2021.2.3,59.95969510713798,
1,-0.3,-0.225,0,10,10,10,,,,,,,,,,,,,,,None,None,None,None,None,151.4039942000527,None,151.4039942000527,None,151.4039942000527,None,151.4039942000527,None,r,0.37447359994985163,151.4039942000527,None,151.4039942000527,None,151.82392490003258,None,151.82392490003258,None,151.82392490003258,None,151.82392490003258,None,151.82392490003258,None,151.82392490003258,None,152.11741120007355,153.68501720007043,152.11741120007355,153.68501720007043,153.71836439997423,None,153.71836439997423,None,153.71836439997423,None,153.71836439997423,None,153.71836439997423,None,153.71836439997423,None,153.71836439997423,None,153.71836439997423,None,153.71836439997423,None,68,31,76,42,68,52,None,None,None,None,None,None,None,None,None,None,None,None,,None,None,,None,None,None,None,None,None,None,None,None,None,None,None,None,None,None,None,None,None,-0.2,1,156.26725849998184,None,156.26725849998184,None,156.26725849998184,None,156.26725849998184,None,156.26725849998184,None,156.26725849998184,None,1,156.26725849998184,None,156.26725849998184,None,0.0703125,-0.2955729166666667,1,0,0,4.848884499981068,tijiao_random_2,0.010503500001505017,None,156.26725849998184,None,1.026041666666667,0.8784356999676675,161.15153839997947,None,161.15153839997947,None,161.15153839997947,None,161.15153839997947,None,None,None,162.05686999997124,None,,,,,,,,,247,m,22,2023_Mar_22_1452,RL,2021.2.3,59.95969510713798,
0,0.3,0.225,0,11,11,11,,,,,,,,,,,,,,,None,None,None,None,None,163.59648349997588,None,163.59648349997588,None,163.59648349997588,None,163.59648349997588,None,j,0.6220344000030309,163.59648349997588,None,163.59648349997588,None,164.26474940008484,None,164.26474940008484,None,164.26474940008484,None,164.26474940008484,None,164.26474940008484,None,164.26474940008484,None,164.55900480004493,None,164.55900480004493,None,165.8568879000377,None,165.8568879000377,None,165.8568879000377,None,165.8568879000377,None,165.8568879000377,None,165.8568879000377,None,165.8568879000377,None,165.8568879000377,None,165.8568879000377,None,57,39,76,35,35,64,None,None,None,None,None,None,None,None,None,None,None,None,,None,None,,None,None,None,None,None,None,None,None,None,None,None,None,None,None,None,None,None,None,0.6,1,168.40691250003874,None,168.40691250003874,None,168.40691250003874,None,168.40691250003874,None,168.40691250003874,None,168.40691250003874,None,33,168.40691250003874,None,168.40691250003874,None,-0.016927083333333332,-0.2799479166666667,1,0,0,5.083789599942975,tijiao_random_2,0.012796299997717142,None,168.40691250003874,None,8.135416666666666,1.8379616000456735,173.52664400008507,None,173.52664400008507,None,173.52664400008507,None,173.52664400008507,None,None,None,175.38330039998982,None,,,,,,,,,247,m,22,2023_Mar_22_1452,RL,2021.2.3,59.95969510713798,
1,-0.3,-0.225,0,12,12,12,,,,,,,,,,,,,,,None,None,None,None,None,176.9041890000226,None,176.9041890000226,None,176.9041890000226,None,176.9041890000226,None,i,0.3145277000730857,176.9041890000226,None,176.9041890000226,None,177.25804480002262,None,177.25804480002262,None,177.25804480002262,None,177.25804480002262,None,177.25804480002262,None,177.25804480002262,None,177.5516550000757,None,177.5516550000757,None,179.38616730005015,None,179.38616730005015,None,179.38616730005015,None,179.38616730005015,None,179.38616730005015,None,179.38616730005015,None,179.38616730005015,None,179.38616730005015,None,179.38616730005015,None,61,39,71,52,71,62,181.907551900018,None,7.0,1.7859322000294924,181.907551900018,None,181.907551900018,None,181.907551900018,None,181.907551900018,None,,None,None,,None,None,None,None,None,None,None,None,None,None,None,None,None,None,None,None,None,None,0.6,2,None,None,None,None,None,None,None,None,None,None,None,None,,None,None,None,None,,,,,,,,None,None,None,None,None,None,None,None,None,None,None,None,None,None,None,None,183.75686209998094,None,,,,,,,,,247,m,22,2023_Mar_22_1452,RL,2021.2.3,59.95969510713798,
0,0.3,0.225,0,13,13,13,,,,,,,,,,,,,,,None,None,None,None,None,185.39415509998798,None,185.39415509998798,None,185.39415509998798,None,185.39415509998798,None,i,0.35447590006515384,185.39415509998798,None,185.39415509998798,None,185.7952303000493,None,185.7952303000493,None,185.7952303000493,None,185.7952303000493,None,185.7952303000493,None,185.7952303000493,None,186.09107429999858,None,186.09107429999858,None,188.10295510001015,None,188.10295510001015,None,188.10295510001015,None,188.10295510001015,None,188.10295510001015,None,188.10295510001015,None,188.10295510001015,None,188.10295510001015,None,188.10295510001015,None,66,37,77,34,77,71,190.63125269999728,None,7.0,1.281529700034298,190.63125269999728,None,190.63125269999728,None,190.63125269999728,None,190.63125269999728,None,,None,None,,None,None,None,None,None,None,None,None,None,None,None,None,None,None,None,None,None,None,0.2,2,None,None,None,None,None,None,None,None,None,None,None,None,,None,None,None,None,,,,,,,,None,None,None,None,None,None,None,None,None,None,None,None,None,None,None,None,191.96424810006283,None,,,,,,,,,247,m,22,2023_Mar_22_1452,RL,2021.2.3,59.95969510713798,
1,-0.3,-0.225,0,14,14,14,,,,,,,,,,,,,,,None,None,None,None,None,193.63369879999664,None,193.63369879999664,None,193.63369879999664,None,193.63369879999664,None,i,0.28501150000374764,193.63369879999664,None,193.63369879999664,None,193.96774910006206,None,193.96774910006206,None,193.96774910006206,None,193.96774910006206,None,193.96774910006206,None,193.96774910006206,None,194.2631371000316,195.19716089998838,194.2631371000316,195.19716089998838,195.22983129997738,None,195.22983129997738,None,195.22983129997738,None,195.22983129997738,None,195.22983129997738,None,195.22983129997738,None,195.22983129997738,None,195.22983129997738,None,195.22983129997738,None,63,44,76,46,76,63,197.74446319998242,None,7.0,1.0552506999811158,197.74446319998242,None,197.74446319998242,None,197.74446319998242,None,197.74446319998242,None,,None,None,,None,None,None,None,None,None,None,None,None,None,None,None,None,None,None,None,None,None,0.2,2,None,None,None,None,None,None,None,None,None,None,None,None,,None,None,None,None,,,,,,,,None,None,None,None,None,None,None,None,None,None,None,None,None,None,None,None,198.85168209997937,None,,,,,,,,,247,m,22,2023_Mar_22_1452,RL,2021.2.3,59.95969510713798,
0,0.3,0.225,0,15,15,15,,,,,,,,,,,,,,,None,None,None,None,None,200.57108290004544,None,200.57108290004544,None,200.57108290004544,None,200.57108290004544,None,i,0.477936299983412,200.57108290004544,None,200.57108290004544,None,201.09102719998918,None,201.09102719998918,None,201.09102719998918,None,201.09102719998918,None,201.09102719998918,None,201.09102719998918,None,201.38456510007381,202.65223190002143,201.38456510007381,202.65223190002143,202.6840062000556,None,202.6840062000556,None,202.6840062000556,None,202.6840062000556,None,202.6840062000556,None,202.6840062000556,None,202.6840062000556,None,202.6840062000556,None,202.6840062000556,None,49,41,83,44,83,81,205.20323920005467,None,7.0,1.2871786000905558,205.20323920005467,None,205.20323920005467,None,205.20323920005467,None,205.20323920005467,None,,None,None,,None,None,None,None,None,None,None,None,None,None,None,None,None,None,None,None,None,None,0.6,2,None,None,None,None,None,None,None,None,None,None,None,None,,None,None,None,None,,,,,,,,None,None,None,None,None,None,None,None,None,None,None,None,None,None,None,None,206.5401127000805,None,,,,,,,,,247,m,22,2023_Mar_22_1452,RL,2021.2.3,59.95969510713798,
1,-0.3,-0.225,0,16,16,16,,,,,,,,,,,,,,,None,None,None,None,None,208.5268364000367,None,208.5268364000367,None,208.5268364000367,None,208.5268364000367,None,i,0.2819602999370545,208.5268364000367,None,208.5268364000367,None,208.86051070003305,None,208.86051070003305,None,208.86051070003305,None,208.86051070003305,None,208.86051070003305,None,208.86051070003305,None,209.15688919997774,None,209.15688919997774,None,210.94538300007116,None,210.94538300007116,None,210.94538300007116,None,210.94538300007116,None,210.94538300007116,None,210.94538300007116,None,210.94538300007116,None,210.94538300007116,None,210.94538300007116,None,69,43,80,52,80,62,None,None,None,None,None,None,None,None,None,None,None,None,,None,None,,None,None,None,None,None,None,None,None,None,None,None,None,None,None,None,None,None,None,-0.6,1,213.48977730004117,None,213.48977730004117,None,213.48977730004117,None,213.48977730004117,None,213.48977730004117,None,213.48977730004117,None,71,213.48977730004117,None,213.48977730004117,None,0.08072916666666667,-0.30078125,1,0,0,4.14890390005894,tijiao_random_2,0.01210630009882152,None,213.48977730004117,None,7.822916666666666,1.6390277000609785,217.67814860004,None,217.67814860004,None,217.67814860004,None,217.67814860004,None,None,None,219.32981680007651,None,,,,,,,,,247,m,22,2023_Mar_22_1452,RL,2021.2.3,59.95969510713798,
0,0.3,0.225,0,17,17,17,,,,,,,,,,,,,,,None,None,None,None,None,221.30303870001808,None,221.30303870001808,None,221.30303870001808,None,221.30303870001808,None,i,0.33578980003949255,221.30303870001808,None,221.30303870001808,None,221.68259159999434,None,221.68259159999434,None,221.68259159999434,None,221.68259159999434,None,221.68259159999434,None,221.68259159999434,None,221.9819134999998,None,221.9819134999998,None,223.53101310005877,None,223.53101310005877,None,223.53101310005877,None,223.53101310005877,None,223.53101310005877,None,223.53101310005877,None,223.53101310005877,None,223.53101310005877,None,223.53101310005877,None,60,39,68,46,68,57,None,None,None,None,None,None,None,None,None,None,None,None,,None,None,,None,None,None,None,None,None,None,None,None,None,None,None,None,None,None,None,None,None,-0.6,1,226.08258480008226,None,226.08258480008226,None,226.08258480008226,None,226.08258480008226,None,226.08258480008226,None,226.08258480008226,None,71,226.08258480008226,None,226.08258480008226,None,-0.06510416666666667,-0.3059895833333333,1,0,0,2.896231499966234,tijiao_random_2,0.010333299986086786,None,226.08258480008226,None,7.028645833333334,1.7584169000620022,229.01083589997143,None,229.01083589997143,None,229.01083589997143,None,229.01083589997143,None,None,None,230.79942569998093,None,,,,,,,,,247,m,22,2023_Mar_22_1452,RL,2021.2.3,59.95969510713798,
1,-0.3,-0.225,0,18,18,18,,,,,,,,,,,,,,,None,None,None,None,None,232.57700230006594,None,232.57700230006594,None,232.57700230006594,None,232.57700230006594,None,r,0.2724548999685794,232.57700230006594,None,232.57700230006594,None,232.89751120004803,None,232.89751120004803,None,232.89751120004803,None,232.89751120004803,None,232.89751120004803,None,232.89751120004803,None,233.1901107999729,None,233.1901107999729,None,234.67238980007824,None,234.67238980007824,None,234.67238980007824,None,234.67238980007824,None,234.67238980007824,None,234.67238980007824,None,234.67238980007824,None,234.67238980007824,None,234.67238980007824,None,62,43,71,52,62,51,237.19180010003038,None,1.0,2.7203412000089884,237.19180010003038,None,237.19180010003038,None,237.19180010003038,None,237.19180010003038,None,,None,None,,None,None,None,None,None,None,None,None,None,None,None,None,None,None,None,None,None,None,-0.2,3,None,None,None,None,None,None,None,None,None,None,None,None,,None,None,None,None,,,,,,,,None,None,None,None,None,None,None,None,None,None,None,None,None,None,None,None,239.99173220002558,None,,,,,,,,,247,m,22,2023_Mar_22_1452,RL,2021.2.3,59.95969510713798,
0,0.3,0.225,0,19,19,19,,,,,,,,,,,,,,,None,None,None,None,None,241.66699270007666,None,241.66699270007666,None,241.66699270007666,None,241.66699270007666,None,r,0.46210259990766644,241.66699270007666,None,241.66699270007666,None,242.17233750002924,None,242.17233750002924,None,242.17233750002924,None,242.17233750002924,None,242.17233750002924,None,242.17233750002924,None,242.46319530007895,244.3815026000375,242.46319530007895,244.3815026000375,244.41353530006018,None,244.41353530006018,None,244.41353530006018,None,244.41353530006018,None,244.41353530006018,None,244.41353530006018,None,244.41353530006018,None,244.41353530006018,None,244.41353530006018,None,50,50,61,49,50,74,None,None,None,None,None,None,None,None,None,None,None,None,45,246.94052030006424,None,45,246.94052030006424,None,246.94052030006424,None,246.94052030006424,None,246.94052030006424,None,246.94052030006424,None,246.94052030006424,None,246.94052030006424,None,0.0015197000466287136,None,246.94052030006424,None,0.2,0,None,None,None,None,None,None,None,None,None,None,None,None,,None,None,None,None,,,,,,,,None,None,None,None,6.1171875,0.8552931000012904,251.23987869999837,None,251.23987869999837,None,251.23987869999837,None,251.23987869999837,None,None,None,252.11787010007538,None,0.024739583333333332,-0.2903645833333333,1,0,0,4.2549952999688685,tijiao,,247,m,22,2023_Mar_22_1452,RL,2021.2.3,59.95969510713798,
1,-0.3,-0.225,0,20,20,20,,,,,,,,,,,,,,,None,None,None,None,None,253.74210010003299,None,253.74210010003299,None,253.74210010003299,None,253.74210010003299,None,f,0.25712550000753254,253.74210010003299,None,253.74210010003299,None,254.04331630002707,None,254.04331630002707,None,254.04331630002707,None,254.04331630002707,None,254.04331630002707,None,254.04331630002707,None,254.33814220002387,None,254.33814220002387,None,255.90319009998348,None,255.90319009998348,None,255.90319009998348,None,255.90319009998348,None,255.90319009998348,None,255.90319009998348,None,255.90319009998348,None,255.90319009998348,None,255.90319009998348,None,64,41,62,59,41,70,258.42157500004396,None,1.0,1.8419577000895515,258.42157500004396,None,258.42157500004396,None,258.42157500004396,None,258.42157500004396,None,,None,None,,None,None,None,None,None,None,None,None,None,None,None,None,None,None,None,None,None,None,0.6,3,None,None,None,None,None,None,None,None,None,None,None,None,,None,None,None,None,,,,,,,,None,None,None,None,None,None,None,None,None,None,None,None,None,None,None,None,260.32079210004304,None,,,,,,,,,247,m,22,2023_Mar_22_1452,RL,2021.2.3,59.95969510713798,
0,0.3,0.225,0,21,21,21,,,,,,,,,,,,,,,None,None,None,None,None,261.9139049000805,None,261.9139049000805,None,261.9139049000805,None,261.9139049000805,None,i,0.3966106000589207,261.9139049000805,None,261.9139049000805,None,262.35167960007675,None,262.35167960007675,None,262.35167960007675,None,262.35167960007675,None,262.35167960007675,None,262.35167960007675,None,262.64377840003,263.845129000023,262.64377840003,263.845129000023,263.87866270006634,None,263.87866270006634,None,263.87866270006634,None,263.87866270006634,None,263.87866270006634,None,263.87866270006634,None,263.87866270006634,None,263.87866270006634,None,263.87866270006634,None,52,36,68,61,68,81,None,None,None,None,None,None,None,None,None,None,None,None,60,266.40745399997104,None,60,266.40745399997104,None,266.40745399997104,None,266.40745399997104,None,266.40745399997104,None,266.40745399997104,None,266.40745399997104,None,266.40745399997104,None,0.01383700012229383,None,266.40745399997104,None,-0.2,0,None,None,None,None,None,None,None,None,None,None,None,None,,None,None,None,None,,,,,,,,None,None,None,None,5.947916666666667,2.2515450000064448,271.18697340006474,None,271.18697340006474,None,271.18697340006474,None,271.18697340006474,None,None,None,273.4660574999871,None,-0.0026041666666666665,-0.3059895833333333,1,0,0,4.73439190001227,tijiao,,247,m,22,2023_Mar_22_1452,RL,2021.2.3,59.95969510713798,
1,-0.3,-0.225,0,22,22,22,,,,,,,,,,,,,,,None,None,None,None,None,275.00620329997037,None,275.00620329997037,None,275.00620329997037,None,275.00620329997037,None,i,0.4440861999755725,275.00620329997037,None,275.00620329997037,None,275.49171390000265,None,275.49171390000265,None,275.49171390000265,None,275.49171390000265,None,275.49171390000265,None,275.49171390000265,None,275.78645979997236,None,275.78645979997236,None,277.08480309997685,None,277.08480309997685,None,277.08480309997685,None,277.08480309997685,None,277.08480309997685,None,277.08480309997685,None,277.08480309997685,None,277.08480309997685,None,277.08480309997685,None,59,40,57,55,57,77,None,None,None,None,None,None,None,None,None,None,None,None,55,279.61575200001244,None,55,279.61575200001244,None,279.61575200001244,None,279.61575200001244,None,279.61575200001244,None,279.61575200001244,None,279.61575200001244,None,279.61575200001244,None,0.01494670007377863,None,279.61575200001244,None,0.2,0,None,None,None,None,None,None,None,None,None,None,None,None,,None,None,None,None,,,,,,,,None,None,None,None,6.9375,1.3743955999379978,283.1160031000618,None,283.1160031000618,None,283.1160031000618,None,283.1160031000618,None,None,None,284.50846520008054,None,-0.015625,-0.2916666666666667,1,0,0,3.45197279995773,tijiao,,247,m,22,2023_Mar_22_1452,RL,2021.2.3,59.95969510713798,
0,0.3,0.225,0,23,23,23,,,,,,,,,,,,,,,None,None,None,None,None,286.08077060000505,None,286.08077060000505,None,286.08077060000505,None,286.08077060000505,None,j,0.3095780999865383,286.08077060000505,None,286.08077060000505,None,286.4391650999896,None,286.4391650999896,None,286.4391650999896,None,286.4391650999896,None,286.4391650999896,None,286.4391650999896,None,286.7273949000519,None,286.7273949000519,None,288.74130280001555,None,288.74130280001555,None,288.74130280001555,None,288.74130280001555,None,288.74130280001555,None,288.74130280001555,None,288.74130280001555,None,288.74130280001555,None,288.74130280001555,None,62,36,67,47,47,56,291.260026599979,None,1.0,1.7903563000727445,291.260026599979,None,291.260026599979,None,291.260026599979,None,291.260026599979,None,,None,None,,None,None,None,None,None,None,None,None,None,None,None,None,None,None,None,None,None,None,-0.2,3,None,None,None,None,None,None,None,None,None,None,None,None,,None,None,None,None,,,,,,,,None,None,None,None,None,None,None,None,None,None,None,None,None,None,None,None,293.12535770004615,None,,,,,,,,,247,m,22,2023_Mar_22_1452,RL,2021.2.3,59.95969510713798,
1,-0.3,-0.225,0,24,24,24,,,,,,,,,,,,,,,None,None,None,None,None,294.82089760003146,None,294.82089760003146,None,294.82089760003146,None,294.82089760003146,None,r,0.2797910999506712,294.82089760003146,None,294.82089760003146,None,295.1434518999886,None,295.1434518999886,None,295.1434518999886,None,295.1434518999886,None,295.1434518999886,None,295.1434518999886,None,295.433280199999,None,295.433280199999,None,296.7034464000026,None,296.7034464000026,None,296.7034464000026,None,296.7034464000026,None,296.7034464000026,None,296.7034464000026,None,296.7034464000026,None,296.7034464000026,None,296.7034464000026,None,60,39,64,46,60,51,None,None,None,None,None,None,None,None,None,None,None,None,65,299.22917960002087,None,65,299.22917960002087,None,299.22917960002087,None,299.22917960002087,None,299.22917960002087,None,299.22917960002087,None,299.22917960002087,None,299.22917960002087,None,0.01555710006505251,None,299.22917960002087,None,0.2,0,None,None,None,None,None,None,None,None,None,None,None,None,,None,None,None,None,,,,,,,,None,None,None,None,6.091145833333334,1.095474599977024,302.78211300005205,None,302.78211300005205,None,302.78211300005205,None,302.78211300005205,None,None,None,303.90902710007504,None,0.06380208333333333,-0.29296875,1,0,0,3.5020361999049783,tijiao,,247,m,22,2023_Mar_22_1452,RL,2021.2.3,59.95969510713798,
0,0.3,0.225,0,25,25,25,,,,,,,,,,,,,,,None,None,None,None,None,305.8116224000696,None,305.8116224000696,None,305.8116224000696,None,305.8116224000696,None,r,0.28897150000557303,305.8116224000696,None,305.8116224000696,None,306.14744910004083,None,306.14744910004083,None,306.14744910004083,None,306.14744910004083,None,306.14744910004083,None,306.14744910004083,None,306.44120540004224,307.7586753000505,306.44120540004224,307.7586753000505,307.78976120008156,None,307.78976120008156,None,307.78976120008156,None,307.78976120008156,None,307.78976120008156,None,307.78976120008156,None,307.78976120008156,None,307.78976120008156,None,307.78976120008156,None,55,38,63,54,55,87,310.31845370004885,None,1.0,1.7173938000341877,310.31845370004885,None,310.31845370004885,None,310.31845370004885,None,310.31845370004885,None,,None,None,,None,None,None,None,None,None,None,None,None,None,None,None,None,None,None,None,None,None,0.6,3,None,None,None,None,None,None,None,None,None,None,None,None,,None,None,None,None,,,,,,,,None,None,None,None,None,None,None,None,None,None,None,None,None,None,None,None,312.09643849998247,None,,,,,,,,,247,m,22,2023_Mar_22_1452,RL,2021.2.3,59.95969510713798,
1,-0.3,-0.225,0,26,26,26,,,,,,,,,,,,,,,None,None,None,None,None,313.7005307000363,None,313.7005307000363,None,313.7005307000363,None,313.7005307000363,None,f,0.5299907999578863,313.7005307000363,None,313.7005307000363,None,314.26985679997597,None,314.26985679997597,None,314.26985679997597,None,314.26985679997597,None,314.26985679997597,None,314.26985679997597,None,314.5633013000479,315.73107169999275,314.5633013000479,315.73107169999275,315.7649842000101,None,315.7649842000101,None,315.7649842000101,None,315.7649842000101,None,315.7649842000101,None,315.7649842000101,None,315.7649842000101,None,315.7649842000101,None,315.7649842000101,None,62,34,58,47,34,53,None,None,None,None,None,None,None,None,None,None,None,None,30,318.28915450000204,None,30,318.28915450000204,None,318.28915450000204,None,318.28915450000204,None,318.28915450000204,None,318.28915450000204,None,318.28915450000204,None,318.28915450000204,None,0.001255400013178587,None,318.28915450000204,None,0.2,0,None,None,None,None,None,None,None,None,None,None,None,None,,None,None,None,None,,,,,,,,None,None,None,None,4.7109375,1.6657330999150872,322.38922830007505,None,322.38922830007505,None,322.38922830007505,None,322.38922830007505,None,None,None,324.0692191000562,None,0.006510416666666667,-0.2786458333333333,1,0,0,4.054805299965665,tijiao,,247,m,22,2023_Mar_22_1452,RL,2021.2.3,59.95969510713798,
0,0.3,0.225,0,27,27,27,,,,,,,,,,,,,,,None,None,None,None,None,325.62533439998515,None,325.62533439998515,None,325.62533439998515,None,325.62533439998515,None,j,0.4055227000499144,325.62533439998515,None,325.62533439998515,None,326.0775188000407,None,326.0775188000407,None,326.0775188000407,None,326.0775188000407,None,326.0775188000407,None,326.0775188000407,None,326.3716396000236,None,326.3716396000236,None,327.40673729998525,None,327.40673729998525,None,327.40673729998525,None,327.40673729998525,None,327.40673729998525,None,327.40673729998525,None,327.40673729998525,None,327.40673729998525,None,327.40673729998525,None,52,40,47,49,49,76,329.9295938999858,None,1.0,1.8862816999899223,329.9295938999858,None,329.9295938999858,None,329.9295938999858,None,329.9295938999858,None,,None,None,,None,None,None,None,None,None,None,None,None,None,None,None,None,None,None,None,None,None,-0.6,2,None,None,None,None,None,None,None,None,None,None,None,None,,None,None,None,None,,,,,,,,None,None,None,None,None,None,None,None,None,None,None,None,None,None,None,None,331.86610510002356,None,,,,,,,,,247,m,22,2023_Mar_22_1452,RL,2021.2.3,59.95969510713798,
1,-0.3,-0.225,0,28,28,28,,,,,,,,,,,,,,,None,None,None,None,None,333.5806866000639,None,333.5806866000639,None,333.5806866000639,None,333.5806866000639,None,i,0.8302546999184415,333.5806866000639,None,333.5806866000639,None,334.45129780005664,None,334.45129780005664,None,334.45129780005664,None,334.45129780005664,None,334.45129780005664,None,334.45129780005664,None,334.727383700083,335.77811249997467,334.727383700083,335.77811249997467,335.8083351000678,None,335.8083351000678,None,335.8083351000678,None,335.8083351000678,None,335.8083351000678,None,335.8083351000678,None,335.8083351000678,None,335.8083351000678,None,335.8083351000678,None,56,36,52,46,52,82,None,None,None,None,None,None,None,None,None,None,None,None,50,338.33698570006527,None,50,338.33698570006527,None,338.33698570006527,None,338.33698570006527,None,338.33698570006527,None,338.33698570006527,None,338.33698570006527,None,338.33698570006527,None,0.0013004000065848231,None,338.33698570006527,None,0.6,0,None,None,None,None,None,None,None,None,None,None,None,None,,None,None,None,None,,,,,,,,None,None,None,None,6.0390625,0.9312572999624535,342.036214999971,None,342.036214999971,None,342.036214999971,None,342.036214999971,None,None,None,342.982465100009,None,-0.0013020833333333333,-0.28515625,1,0,0,3.654831999912858,tijiao,,247,m,22,2023_Mar_22_1452,RL,2021.2.3,59.95969510713798,
0,0.3,0.225,0,29,29,29,,,,,,,,,,,,,,,None,None,None,None,None,344.8721854999894,None,344.8721854999894,None,344.8721854999894,None,344.8721854999894,None,r,0.2385372999124229,344.8721854999894,None,344.8721854999894,None,345.15709069999866,None,345.15709069999866,None,345.15709069999866,None,345.15709069999866,None,345.15709069999866,None,345.15709069999866,None,345.4514647000469,346.90248290007,345.4514647000469,346.90248290007,346.9403054000577,None,346.9403054000577,None,346.9403054000577,None,346.9403054000577,None,346.9403054000577,None,346.9403054000577,None,346.9403054000577,None,346.9403054000577,None,346.9403054000577,None,52,33,61,48,52,87,None,None,None,None,None,None,None,None,None,None,None,None,49,349.4696675000014,None,49,349.4696675000014,None,349.4696675000014,None,349.4696675000014,None,349.4696675000014,None,349.4696675000014,None,349.4696675000014,None,349.4696675000014,None,0.00988100003451109,None,349.4696675000014,None,0.2,0,None,None,None,None,None,None,None,None,None,None,None,None,,None,None,None,None,,,,,,,,None,None,None,None,7.028645833333334,1.2187858000397682,355.2608313000528,None,355.2608313000528,None,355.2608313000528,None,355.2608313000528,None,None,None,356.50901959999464,None,-0.01171875,-0.3033854166666667,1,0,0,5.747508900007233,tijiao,,247,m,22,2023_Mar_22_1452,RL,2021.2.3,59.95969510713798,
1,-0.3,-0.225,0,30,30,30,,,,,,,,,,,,,,,None,None,None,None,None,358.1469035000773,None,358.1469035000773,None,358.1469035000773,None,358.1469035000773,None,f,0.34395989996846765,358.1469035000773,None,358.1469035000773,None,358.53285219997633,None,358.53285219997633,None,358.53285219997633,None,358.53285219997633,None,358.53285219997633,None,358.53285219997633,None,358.8274221000029,None,358.8274221000029,None,360.81006010004785,None,360.81006010004785,None,360.81006010004785,None,360.81006010004785,None,360.81006010004785,None,360.81006010004785,None,360.81006010004785,None,360.81006010004785,None,360.81006010004785,None,52,45,43,45,45,76,363.33442620001733,None,1.0,1.5161143000004813,363.33442620001733,None,363.33442620001733,None,363.33442620001733,None,363.33442620001733,None,,None,None,,None,None,None,None,None,None,None,None,None,None,None,None,None,None,None,None,None,None,-0.6,3,None,None,None,None,None,None,None,None,None,None,None,None,,None,None,None,None,,,,,,,,None,None,None,None,None,None,None,None,None,None,None,None,None,None,None,None,364.91570890008006,None,,,,,,,,,247,m,22,2023_Mar_22_1452,RL,2021.2.3,59.95969510713798,
0,0.3,0.225,0,31,31,31,,,,,,,,,,,,,,,None,None,None,None,None,366.8054804999847,None,366.8054804999847,None,366.8054804999847,None,366.8054804999847,None,j,0.5554336999775842,366.8054804999847,None,366.8054804999847,None,367.405429400038,None,367.405429400038,None,367.405429400038,None,367.405429400038,None,367.405429400038,None,367.405429400038,None,367.70021550008096,None,367.70021550008096,None,369.46599469997454,None,369.46599469997454,None,369.46599469997454,None,369.46599469997454,None,369.46599469997454,None,369.46599469997454,None,369.46599469997454,None,369.46599469997454,None,369.46599469997454,None,58,38,53,46,46,85,None,None,None,None,None,None,None,None,None,None,None,None,,None,None,,None,None,None,None,None,None,None,None,None,None,None,None,None,None,None,None,None,None,-0.6,1,372.0135058000451,None,372.0135058000451,None,372.0135058000451,None,372.0135058000451,None,372.0135058000451,None,372.0135058000451,None,70,372.0135058000451,None,372.0135058000451,None,-0.049479166666666664,-0.3111979166666667,1,0,0,3.5853350999532267,tijiao_random_2,0.015013399999588728,None,372.0135058000451,None,1.208333333333333,1.7204745000926778,375.62948080000933,None,375.62948080000933,None,375.62948080000933,None,375.62948080000933,None,None,None,377.3717099999776,None,,,,,,,,,247,m,22,2023_Mar_22_1452,RL,2021.2.3,59.95969510713798,
1,-0.3,-0.225,0,32,32,32,,,,,,,,,,,,,,,None,None,None,None,None,379.0956235000631,None,379.0956235000631,None,379.0956235000631,None,379.0956235000631,None,r,0.34535129996947944,379.0956235000631,None,379.0956235000631,None,379.4835170999868,None,379.4835170999868,None,379.4835170999868,None,379.4835170999868,None,379.4835170999868,None,379.4835170999868,None,379.775283300085,381.52650480007287,379.775283300085,381.52650480007287,381.55876829999033,None,381.55876829999033,None,381.55876829999033,None,381.55876829999033,None,381.55876829999033,None,381.55876829999033,None,381.55876829999033,None,381.55876829999033,None,381.55876829999033,None,50,37,54,50,50,82,None,None,None,None,None,None,None,None,None,None,None,None,49,384.09361950005405,None,49,384.09361950005405,None,384.09361950005405,None,384.09361950005405,None,384.09361950005405,None,384.09361950005405,None,384.09361950005405,None,384.09361950005405,None,0.010449200053699315,None,384.09361950005405,None,0.6,0,None,None,None,None,None,None,None,None,None,None,None,None,,None,None,None,None,,,,,,,,None,None,None,None,11,2.421911699930206,388.31941670004744,None,388.31941670004744,None,388.31941670004744,None,388.31941670004744,None,None,None,390.77247910003643,None,-0.0013020833333333333,-0.2721354166666667,1,0,0,4.180523999966681,tijiao,,247,m,22,2023_Mar_22_1452,RL,2021.2.3,59.95969510713798,
0,0.3,0.225,0,33,33,33,,,,,,,,,,,,,,,None,None,None,None,None,392.68852010008413,None,392.68852010008413,None,392.68852010008413,None,392.68852010008413,None,f,0.5826362998923287,392.68852010008413,None,392.68852010008413,None,393.32326289999764,None,393.32326289999764,None,393.32326289999764,None,393.32326289999764,None,393.32326289999764,None,393.32326289999764,None,393.61849959997926,None,393.61849959997926,None,394.69867219997104,None,394.69867219997104,None,394.69867219997104,None,394.69867219997104,None,394.69867219997104,None,394.69867219997104,None,394.69867219997104,None,394.69867219997104,None,394.69867219997104,None,40,50,58,52,50,84,None,None,None,None,None,None,None,None,None,None,None,None,,None,None,,None,None,None,None,None,None,None,None,None,None,None,None,None,None,None,None,None,None,0.6,1,397.25223810004536,None,397.25223810004536,None,397.25223810004536,None,397.25223810004536,None,397.25223810004536,None,397.25223810004536,None,43,397.25223810004536,None,397.25223810004536,None,0.12630208333333334,-0.2630208333333333,1,0,0,3.880814499920234,tijiao_random_2,0.009822700056247413,None,397.25223810004536,None,5.075520833333333,0.9460009000031278,401.1650271000108,None,401.1650271000108,None,401.1650271000108,None,401.1650271000108,None,None,None,402.12423329998273,None,,,,,,,,,247,m,22,2023_Mar_22_1452,RL,2021.2.3,59.95969510713798,
1,-0.3,-0.225,0,34,34,34,,,,,,,,,,,,,,,None,None,None,None,None,403.863063900033,None,403.863063900033,None,403.863063900033,None,403.863063900033,None,i,0.4283471000380814,403.863063900033,None,403.863063900033,None,404.3340864999918,None,404.3340864999918,None,404.3340864999918,None,404.3340864999918,None,404.3340864999918,None,404.3340864999918,None,404.62594449997414,None,404.62594449997414,None,406.15929820004385,None,406.15929820004385,None,406.15929820004385,None,406.15929820004385,None,406.15929820004385,None,406.15929820004385,None,406.15929820004385,None,406.15929820004385,None,406.15929820004385,None,49,39,52,40,52,64,408.68015899998136,None,1.0,1.8365877999458462,408.68015899998136,None,408.68015899998136,None,408.68015899998136,None,408.68015899998136,None,,None,None,,None,None,None,None,None,None,None,None,None,None,None,None,None,None,None,None,None,None,-0.6,2,None,None,None,None,None,None,None,None,None,None,None,None,,None,None,None,None,,,,,,,,None,None,None,None,None,None,None,None,None,None,None,None,None,None,None,None,410.5703128000023,None,,,,,,,,,247,m,22,2023_Mar_22_1452,RL,2021.2.3,59.95969510713798,
0,0.3,0.225,0,35,35,35,,,,,,,,,,,,,,,None,None,None,None,None,412.4357563999947,None,412.4357563999947,None,412.4357563999947,None,412.4357563999947,None,i,0.4956680000759661,412.4357563999947,None,412.4357563999947,None,412.97005720005836,None,412.97005720005836,None,412.97005720005836,None,412.97005720005836,None,412.97005720005836,None,412.97005720005836,None,413.2651994000189,None,413.2651994000189,None,414.88032910006586,None,414.88032910006586,None,414.88032910006586,None,414.88032910006586,None,414.88032910006586,None,414.88032910006586,None,414.88032910006586,None,414.88032910006586,None,414.88032910006586,None,49,43,46,42,46,80,None,None,None,None,None,None,None,None,None,None,None,None,40,417.41914640006144,None,40,417.41914640006144,None,417.41914640006144,None,417.41914640006144,None,417.41914640006144,None,417.41914640006144,None,417.41914640006144,None,417.41914640006144,None,0.007562899962067604,None,417.41914640006144,None,-0.6,0,None,None,None,None,None,None,None,None,None,None,None,None,,None,None,None,None,,,,,,,,None,None,None,None,5.986979166666667,2.084455999894999,422.5776538000209,None,422.5776538000209,None,422.5776538000209,None,422.5776538000209,None,None,None,424.69271169998683,None,0.08854166666666667,-0.2942708333333333,1,0,0,5.112775299930945,tijiao,,247,m,22,2023_Mar_22_1452,RL,2021.2.3,59.95969510713798,
1,-0.3,-0.225,0,36,36,36,,,,,,,,,,,,,,,None,None,None,None,None,426.5620480000507,None,426.5620480000507,None,426.5620480000507,None,426.5620480000507,None,r,0.49027820001356304,426.5620480000507,None,426.5620480000507,None,427.09930160001386,None,427.09930160001386,None,427.09930160001386,None,427.09930160001386,None,427.09930160001386,None,427.09930160001386,None,427.375021200045,428.8095384000335,427.375021200045,428.8095384000335,428.858205000055,None,428.858205000055,None,428.858205000055,None,428.858205000055,None,428.858205000055,None,428.858205000055,None,428.858205000055,None,428.858205000055,None,428.858205000055,None,50,34,53,37,50,80,431.38314509997144,None,4.0,3.1156012000283226,431.38314509997144,None,431.38314509997144,None,431.38314509997144,None,431.38314509997144,None,,None,None,,None,None,None,None,None,None,None,None,None,None,None,None,None,None,None,None,None,None,0.6,2,None,None,None,None,None,None,None,None,None,None,None,None,,None,None,None,None,,,,,,,,None,None,None,None,None,None,None,None,None,None,None,None,None,None,None,None,434.5485321000451,None,,,,,,,,,247,m,22,2023_Mar_22_1452,RL,2021.2.3,59.95969510713798,
0,0.3,0.225,0,37,37,37,,,,,,,,,,,,,,,None,None,None,None,None,436.0686328000156,None,436.0686328000156,None,436.0686328000156,None,436.0686328000156,None,r,0.383944800007157,436.0686328000156,None,436.0686328000156,None,436.5072911999887,None,436.5072911999887,None,436.5072911999887,None,436.5072911999887,None,436.5072911999887,None,436.5072911999887,None,436.79836130002514,None,436.79836130002514,None,438.2147786000278,None,438.2147786000278,None,438.2147786000278,None,438.2147786000278,None,438.2147786000278,None,438.2147786000278,None,438.2147786000278,None,438.2147786000278,None,438.2147786000278,None,50,39,59,38,50,81,None,None,None,None,None,None,None,None,None,None,None,None,50,440.75294630008284,None,50,440.75294630008284,None,440.75294630008284,None,440.75294630008284,None,440.75294630008284,None,440.75294630008284,None,440.75294630008284,None,440.75294630008284,None,0.00647020002361387,None,440.75294630008284,None,0.2,0,None,None,None,None,None,None,None,None,None,None,None,None,,None,None,None,None,,,,,,,,None,None,None,None,9.033854166666668,1.9890221999958158,444.25400389998686,None,444.25400389998686,None,444.25400389998686,None,444.25400389998686,None,None,None,446.26916989998426,None,-0.04296875,-0.2994791666666667,1,0,0,3.4594290000386536,tijiao,,247,m,22,2023_Mar_22_1452,RL,2021.2.3,59.95969510713798,
1,-0.3,-0.225,0,38,38,38,,,,,,,,,,,,,,,None,None,None,None,None,447.8771056000842,None,447.8771056000842,None,447.8771056000842,None,447.8771056000842,None,r,0.3353302999166772,447.8771056000842,None,447.8771056000842,None,448.26184689998627,None,448.26184689998627,None,448.26184689998627,None,448.26184689998627,None,448.26184689998627,None,448.26184689998627,None,448.55644570000004,None,448.55644570000004,None,449.95289820001926,None,449.95289820001926,None,449.95289820001926,None,449.95289820001926,None,449.95289820001926,None,449.95289820001926,None,449.95289820001926,None,449.95289820001926,None,449.95289820001926,None,54,51,64,33,54,81,None,None,None,None,None,None,None,None,None,None,None,None,,None,None,,None,None,None,None,None,None,None,None,None,None,None,None,None,None,None,None,None,None,-0.6,1,452.5070741000818,None,452.5070741000818,None,452.5070741000818,None,452.5070741000818,None,452.5070741000818,None,452.5070741000818,None,50,452.5070741000818,None,452.5070741000818,None,0.109375,-0.2890625,1,0,0,3.56407299998682,tijiao_random_2,0.010244700009934604,None,452.5070741000818,None,7.979166666666666,2.612445199978538,456.10262550006155,None,456.10262550006155,None,456.10262550006155,None,456.10262550006155,None,None,None,458.7294688000111,None,,,,,,,,,247,m,22,2023_Mar_22_1452,RL,2021.2.3,59.95969510713798,
0,0.3,0.225,0,39,39,39,,,,,,,,,,,,,,,None,None,None,None,None,460.2523220999865,None,460.2523220999865,None,460.2523220999865,None,460.2523220999865,None,i,0.39048830000683665,460.2523220999865,None,460.2523220999865,None,460.6889134000521,None,460.6889134000521,None,460.6889134000521,None,460.6889134000521,None,460.6889134000521,None,460.6889134000521,None,460.98166960000526,462.66644830000587,460.98166960000526,462.66644830000587,462.70084499998484,None,462.70084499998484,None,462.70084499998484,None,462.70084499998484,None,462.70084499998484,None,462.70084499998484,None,462.70084499998484,None,462.70084499998484,None,462.70084499998484,None,55,44,64,33,64,48,None,None,None,None,None,None,None,None,None,None,None,None,,None,None,,None,None,None,None,None,None,None,None,None,None,None,None,None,None,None,None,None,None,0.2,1,465.24244170007296,None,465.24244170007296,None,465.24244170007296,None,465.24244170007296,None,465.24244170007296,None,465.24244170007296,None,70,465.24244170007296,None,465.24244170007296,None,0.029947916666666668,-0.2747395833333333,1,0,0,4.103476400021464,tijiao_random_2,0.016652400023303926,None,465.24244170007296,None,6.078125,1.4322587000206113,469.3898573999759,None,469.3898573999759,None,469.3898573999759,None,469.3898573999759,None,None,None,470.8362653000513,None,,,,,,,,,247,m,22,2023_Mar_22_1452,RL,2021.2.3,59.95969510713798,
1,-0.3,-0.225,0,40,40,40,,,,,,,,,,,,,,,None,None,None,None,None,472.39398110006005,None,472.39398110006005,None,472.39398110006005,None,472.39398110006005,None,i,0.2987421000143513,472.39398110006005,None,472.39398110006005,None,472.7449158000527,None,472.7449158000527,None,472.7449158000527,None,472.7449158000527,None,472.7449158000527,None,472.7449158000527,None,473.040038999985,None,473.040038999985,None,473.87004399998114,None,473.87004399998114,None,473.87004399998114,None,473.87004399998114,None,473.87004399998114,None,473.87004399998114,None,473.87004399998114,None,473.87004399998114,None,473.87004399998114,None,61,44,60,31,60,60,476.38943730003666,None,4.0,1.4246714999899268,476.38943730003666,None,476.38943730003666,None,476.38943730003666,None,476.38943730003666,None,,None,None,,None,None,None,None,None,None,None,None,None,None,None,None,None,None,None,None,None,None,-0.2,3,None,None,None,None,None,None,None,None,None,None,None,None,,None,None,None,None,,,,,,,,None,None,None,None,None,None,None,None,None,None,None,None,None,None,None,None,477.8758362000808,None,,,,,,,,,247,m,22,2023_Mar_22_1452,RL,2021.2.3,59.95969510713798,
0,0.3,0.225,0,41,41,41,,,,,,,,,,,,,,,None,None,None,None,None,479.78249540005345,None,479.78249540005345,None,479.78249540005345,None,479.78249540005345,None,i,0.33015970000997186,479.78249540005345,None,479.78249540005345,None,480.15142070001457,None,480.15142070001457,None,480.15142070001457,None,480.15142070001457,None,480.15142070001457,None,480.15142070001457,None,480.4453529000748,None,480.4453529000748,None,481.3321271999739,None,481.3321271999739,None,481.3321271999739,None,481.3321271999739,None,481.3321271999739,None,481.3321271999739,None,481.3321271999739,None,481.3321271999739,None,481.3321271999739,None,63,55,61,39,61,80,483.85278850002214,None,2.0,2.196194399963133,483.85278850002214,None,483.85278850002214,None,483.85278850002214,None,483.85278850002214,None,,None,None,,None,None,None,None,None,None,None,None,None,None,None,None,None,None,None,None,None,None,0.6,3,None,None,None,None,None,None,None,None,None,None,None,None,,None,None,None,None,,,,,,,,None,None,None,None,None,None,None,None,None,None,None,None,None,None,None,None,486.1002873000689,None,,,,,,,,,247,m,22,2023_Mar_22_1452,RL,2021.2.3,59.95969510713798,
1,-0.3,-0.225,0,42,42,42,,,,,,,,,,,,,,,None,None,None,None,None,488.08838980004657,None,488.08838980004657,None,488.08838980004657,None,488.08838980004657,None,r,0.5546184000559151,488.08838980004657,None,488.08838980004657,None,488.6882942999946,None,488.6882942999946,None,488.6882942999946,None,488.6882942999946,None,488.6882942999946,None,488.6882942999946,None,488.98448169999756,490.5346137000015,488.98448169999756,490.5346137000015,490.553737499984,None,490.553737499984,None,490.553737499984,None,490.553737499984,None,490.553737499984,None,490.553737499984,None,490.553737499984,None,490.553737499984,None,490.553737499984,None,68,55,53,52,68,62,None,None,None,None,None,None,None,None,None,None,None,None,70,493.0828775999835,None,70,493.0828775999835,None,493.0828775999835,None,493.0828775999835,None,493.0828775999835,None,493.0828775999835,None,493.0828775999835,None,493.0828775999835,None,0.013098100083880126,None,493.0828775999835,None,0.6,0,None,None,None,None,None,None,None,None,None,None,None,None,,None,None,None,None,,,,,,,,None,None,None,None,4.984375,2.173849400016479,496.2021015000064,None,496.2021015000064,None,496.2021015000064,None,496.2021015000064,None,None,None,498.3901873000432,None,-0.03515625,-0.2916666666666667,1,0,0,3.065683899912983,tijiao,,247,m,22,2023_Mar_22_1452,RL,2021.2.3,59.95969510713798,
0,0.3,0.225,0,43,43,43,,,,,,,,,,,,,,,None,None,None,None,None,500.3128141000634,None,500.3128141000634,None,500.3128141000634,None,500.3128141000634,None,r,0.3702296999981627,500.3128141000634,None,500.3128141000634,None,500.7343846000731,None,500.7343846000731,None,500.7343846000731,None,500.7343846000731,None,500.7343846000731,None,500.7343846000731,None,501.0261582999956,502.4770561000332,501.0261582999956,502.4770561000332,502.5118786999956,None,502.5118786999956,None,502.5118786999956,None,502.5118786999956,None,502.5118786999956,None,502.5118786999956,None,502.5118786999956,None,502.5118786999956,None,502.5118786999956,None,66,60,70,36,66,73,505.03444259997923,None,3.0,1.8021042000036687,505.03444259997923,None,505.03444259997923,None,505.03444259997923,None,505.03444259997923,None,,None,None,,None,None,None,None,None,None,None,None,None,None,None,None,None,None,None,None,None,None,-0.6,3,None,None,None,None,None,None,None,None,None,None,None,None,,None,None,None,None,,,,,,,,None,None,None,None,None,None,None,None,None,None,None,None,None,None,None,None,506.88765879999846,None,,,,,,,,,247,m,22,2023_Mar_22_1452,RL,2021.2.3,59.95969510713798,
1,-0.3,-0.225,0,44,44,44,,,,,,,,,,,,,,,None,None,None,None,None,508.40199490007944,None,508.40199490007944,None,508.40199490007944,None,508.40199490007944,None,i,0.5509495999431238,508.40199490007944,None,508.40199490007944,None,509.00307460001204,None,509.00307460001204,None,509.00307460001204,None,509.00307460001204,None,509.00307460001204,None,509.00307460001204,None,509.2985751000233,None,509.2985751000233,None,510.5132778000552,None,510.5132778000552,None,510.5132778000552,None,510.5132778000552,None,510.5132778000552,None,510.5132778000552,None,510.5132778000552,None,510.5132778000552,None,510.5132778000552,None,68,52,69,42,69,78,513.0383712999756,None,1.0,2.05039690004196,513.0383712999756,None,513.0383712999756,None,513.0383712999756,None,513.0383712999756,None,,None,None,,None,None,None,None,None,None,None,None,None,None,None,None,None,None,None,None,None,None,-0.2,3,None,None,None,None,None,None,None,None,None,None,None,None,,None,None,None,None,,,,,,,,None,None,None,None,None,None,None,None,None,None,None,None,None,None,None,None,515.1424398000818,None,,,,,,,,,247,m,22,2023_Mar_22_1452,RL,2021.2.3,59.95969510713798,
0,0.3,0.225,0,45,45,45,,,,,,,,,,,,,,,None,None,None,None,None,516.7747667999938,None,516.7747667999938,None,516.7747667999938,None,516.7747667999938,None,j,0.37820799998007715,516.7747667999938,None,516.7747667999938,None,517.1940179000376,None,517.1940179000376,None,517.1940179000376,None,517.1940179000376,None,517.1940179000376,None,517.1940179000376,None,517.4870658,519.405475000036,517.4870658,519.405475000036,519.4375867000781,None,519.4375867000781,None,519.4375867000781,None,519.4375867000781,None,519.4375867000781,None,519.4375867000781,None,519.4375867000781,None,519.4375867000781,None,519.4375867000781,None,70,62,62,40,40,67,521.953385300003,None,1.0,1.241757900104858,521.953385300003,None,521.953385300003,None,521.953385300003,None,521.953385300003,None,,None,None,,None,None,None,None,None,None,None,None,None,None,None,None,None,None,None,None,None,None,0.6,3,None,None,None,None,None,None,None,None,None,None,None,None,,None,None,None,None,,,,,,,,None,None,None,None,None,None,None,None,None,None,None,None,None,None,None,None,523.2481967000058,None,,,,,,,,,247,m,22,2023_Mar_22_1452,RL,2021.2.3,59.95969510713798,
1,-0.3,-0.225,0,46,46,46,,,,,,,,,,,,,,,None,None,None,None,None,525.1300716000842,None,525.1300716000842,None,525.1300716000842,None,525.1300716000842,None,j,0.6329709999263287,525.1300716000842,None,525.1300716000842,None,525.8151928000152,None,525.8151928000152,None,525.8151928000152,None,525.8151928000152,None,525.8151928000152,None,525.8151928000152,None,526.1101970999734,527.97811060003,526.1101970999734,527.97811060003,528.0116253000451,None,528.0116253000451,None,528.0116253000451,None,528.0116253000451,None,528.0116253000451,None,528.0116253000451,None,528.0116253000451,None,528.0116253000451,None,528.0116253000451,None,72,55,59,32,32,56,530.5347042999929,None,1.0,1.1809786000521854,530.5347042999929,None,530.5347042999929,None,530.5347042999929,None,530.5347042999929,None,,None,None,,None,None,None,None,None,None,None,None,None,None,None,None,None,None,None,None,None,None,-0.6,2,None,None,None,None,None,None,None,None,None,None,None,None,,None,None,None,None,,,,,,,,None,None,None,None,None,None,None,None,None,None,None,None,None,None,None,None,531.7668180000037,None,,,,,,,,,247,m,22,2023_Mar_22_1452,RL,2021.2.3,59.95969510713798,
0,0.3,0.225,0,47,47,47,,,,,,,,,,,,,,,None,None,None,None,None,533.7190644000657,None,533.7190644000657,None,533.7190644000657,None,533.7190644000657,None,r,0.653987199999392,533.7190644000657,None,533.7190644000657,None,534.4270190000534,None,534.4270190000534,None,534.4270190000534,None,534.4270190000534,None,534.4270190000534,None,534.4270190000534,None,534.7162069000769,535.9005462999921,534.7162069000769,535.9005462999921,535.9323146999814,None,535.9323146999814,None,535.9323146999814,None,535.9323146999814,None,535.9323146999814,None,535.9323146999814,None,535.9323146999814,None,535.9323146999814,None,535.9323146999814,None,71,58,51,31,71,76,538.4497224000515,None,1.0,1.0384347999934107,538.4497224000515,None,538.4497224000515,None,538.4497224000515,None,538.4497224000515,None,,None,None,,None,None,None,None,None,None,None,None,None,None,None,None,None,None,None,None,None,None,-0.2,3,None,None,None,None,None,None,None,None,None,None,None,None,,None,None,None,None,,,,,,,,None,None,None,None,None,None,None,None,None,None,None,None,None,None,None,None,539.545973500004,None,,,,,,,,,247,m,22,2023_Mar_22_1452,RL,2021.2.3,59.95969510713798,
1,-0.3,-0.225,0,48,48,48,,,,,,,,,,,,,,,None,None,None,None,None,541.258566500037,None,541.258566500037,None,541.258566500037,None,541.258566500037,None,r,0.5245601999340579,541.258566500037,None,541.258566500037,None,541.8251268999884,None,541.8251268999884,None,541.8251268999884,None,541.8251268999884,None,541.8251268999884,None,541.8251268999884,None,542.1214147000574,543.4556600999786,542.1214147000574,543.4556600999786,543.4899591000285,None,543.4899591000285,None,543.4899591000285,None,543.4899591000285,None,543.4899591000285,None,543.4899591000285,None,543.4899591000285,None,543.4899591000285,None,543.4899591000285,None,66,47,52,28,66,68,546.007895900053,None,4.0,1.0680596999591216,546.007895900053,None,546.007895900053,None,546.007895900053,None,546.007895900053,None,,None,None,,None,None,None,None,None,None,None,None,None,None,None,None,None,None,None,None,None,None,0.6,3,None,None,None,None,None,None,None,None,None,None,None,None,,None,None,None,None,,,,,,,,None,None,None,None,None,None,None,None,None,None,None,None,None,None,None,None,547.1292051000055,None,,,,,,,,,247,m,22,2023_Mar_22_1452,RL,2021.2.3,59.95969510713798,
0,0.3,0.225,0,49,49,49,,,,,,,,,,,,,,,None,None,None,None,None,549.0136460000649,None,549.0136460000649,None,549.0136460000649,None,549.0136460000649,None,f,0.509473399957642,549.0136460000649,None,549.0136460000649,None,549.572537500062,None,549.572537500062,None,549.572537500062,None,549.572537500062,None,549.572537500062,None,549.572537500062,None,549.8599453000352,None,549.8599453000352,None,551.5659129000269,None,551.5659129000269,None,551.5659129000269,None,551.5659129000269,None,551.5659129000269,None,551.5659129000269,None,551.5659129000269,None,551.5659129000269,None,551.5659129000269,None,64,49,53,26,49,80,None,None,None,None,None,None,None,None,None,None,None,None,45,554.0873793000355,None,45,554.0873793000355,None,554.0873793000355,None,554.0873793000355,None,554.0873793000355,None,554.0873793000355,None,554.0873793000355,None,554.0873793000355,None,0.0008098999969661236,None,554.0873793000355,None,0.6,0,None,None,None,None,None,None,None,None,None,None,None,None,,None,None,None,None,,,,,,,,None,None,None,None,2.067708333333333,2.728394399979152,559.7444621999748,None,559.7444621999748,None,559.7444621999748,None,559.7444621999748,None,None,None,562.5000592999859,None,0.015625,-0.3046875,1,0,0,5.605518499971367,tijiao,,247,m,22,2023_Mar_22_1452,RL,2021.2.3,59.95969510713798,
1,-0.3,-0.225,0,50,50,50,,,,,,,,,,,,,,,None,None,None,None,None,564.4410137999803,None,564.4410137999803,None,564.4410137999803,None,564.4410137999803,None,i,0.3521856999723241,564.4410137999803,None,564.4410137999803,None,564.8470579000423,None,564.8470579000423,None,564.8470579000423,None,564.8470579000423,None,564.8470579000423,None,564.8470579000423,None,565.1372163000051,566.0715409000404,565.1372163000051,566.0715409000404,566.1053181000752,None,566.1053181000752,None,566.1053181000752,None,566.1053181000752,None,566.1053181000752,None,566.1053181000752,None,566.1053181000752,None,566.1053181000752,None,566.1053181000752,None,67,48,54,33,54,79,568.6216465000762,None,1.0,2.506594799924642,568.6216465000762,None,568.6216465000762,None,568.6216465000762,None,568.6216465000762,None,,None,None,,None,None,None,None,None,None,None,None,None,None,None,None,None,None,None,None,None,None,-0.6,3,None,None,None,None,None,None,None,None,None,None,None,None,,None,None,None,None,,,,,,,,None,None,None,None,None,None,None,None,None,None,None,None,None,None,None,None,571.1950404000236,None,,,,,,,,,247,m,22,2023_Mar_22_1452,RL,2021.2.3,59.95969510713798,
0,0.3,0.225,0,51,51,51,,,,,,,,,,,,,,,None,None,None,None,None,572.9470419000136,None,572.9470419000136,None,572.9470419000136,None,572.9470419000136,None,r,0.41630229994188994,572.9470419000136,None,572.9470419000136,None,573.416464000009,None,573.416464000009,None,573.416464000009,None,573.416464000009,None,573.416464000009,None,573.416464000009,None,573.7098619000753,575.5946398000233,573.7098619000753,575.5946398000233,575.6273048999719,None,575.6273048999719,None,575.6273048999719,None,575.6273048999719,None,575.6273048999719,None,575.6273048999719,None,575.6273048999719,None,575.6273048999719,None,575.6273048999719,None,70,52,57,26,70,68,None,None,None,None,None,None,None,None,None,None,None,None,,None,None,,None,None,None,None,None,None,None,None,None,None,None,None,None,None,None,None,None,None,-0.2,1,578.1775872000726,None,578.1775872000726,None,578.1775872000726,None,578.1775872000726,None,578.1775872000726,None,578.1775872000726,None,40,578.1775872000726,None,578.1775872000726,None,0.0013020833333333333,-0.3203125,1,0,0,4.04616329993587,tijiao_random_2,0.009354999987408519,None,578.1775872000726,None,2.901041666666667,2.0500839999876916,582.2535124999704,None,582.2535124999704,None,582.2535124999704,None,582.2535124999704,None,None,None,584.3318279000232,None,,,,,,,,,247,m,22,2023_Mar_22_1452,RL,2021.2.3,59.95969510713798,
1,-0.3,-0.225,0,52,52,52,,,,,,,,,,,,,,,None,None,None,None,None,586.1565213999711,None,586.1565213999711,None,586.1565213999711,None,586.1565213999711,None,r,0.3480838000541553,586.1565213999711,None,586.1565213999711,None,586.5653051000554,None,586.5653051000554,None,586.5653051000554,None,586.5653051000554,None,586.5653051000554,None,586.5653051000554,None,586.8524101000512,None,586.8524101000512,None,588.2019311999902,None,588.2019311999902,None,588.2019311999902,None,588.2019311999902,None,588.2019311999902,None,588.2019311999902,None,588.2019311999902,None,588.2019311999902,None,588.2019311999902,None,56,37,48,19,56,77,590.7265708000632,None,2.0,1.2321100999834016,590.7265708000632,None,590.7265708000632,None,590.7265708000632,None,590.7265708000632,None,,None,None,,None,None,None,None,None,None,None,None,None,None,None,None,None,None,None,None,None,None,-0.6,3,None,None,None,None,None,None,None,None,None,None,None,None,,None,None,None,None,,,,,,,,None,None,None,None,None,None,None,None,None,None,None,None,None,None,None,None,592.0198012000183,None,,,,,,,,,247,m,22,2023_Mar_22_1452,RL,2021.2.3,59.95969510713798,
0,0.3,0.225,0,53,53,53,,,,,,,,,,,,,,,None,None,None,None,None,594.0118421000661,None,594.0118421000661,None,594.0118421000661,None,594.0118421000661,None,r,0.4826381999300793,594.0118421000661,None,594.0118421000661,None,594.5456785999704,None,594.5456785999704,None,594.5456785999704,None,594.5456785999704,None,594.5456785999704,None,594.5456785999704,None,594.8411335999845,None,594.8411335999845,None,595.8897120000329,None,595.8897120000329,None,595.8897120000329,None,595.8897120000329,None,595.8897120000329,None,595.8897120000329,None,595.8897120000329,None,595.8897120000329,None,595.8897120000329,None,66,45,54,14,66,79,None,None,None,None,None,None,None,None,None,None,None,None,,None,None,,None,None,None,None,None,None,None,None,None,None,None,None,None,None,None,None,None,None,-0.2,1,598.4381647000555,None,598.4381647000555,None,598.4381647000555,None,598.4381647000555,None,598.4381647000555,None,598.4381647000555,None,40,598.4381647000555,None,598.4381647000555,None,0.07291666666666667,-0.3020833333333333,1,0,0,3.349868100020103,tijiao_random_2,0.013524400070309639,None,598.4381647000555,None,1.1171875,1.1523267000447959,601.84306069999,None,601.84306069999,None,601.84306069999,None,601.84306069999,None,None,None,602.9963727999711,None,,,,,,,,,247,m,22,2023_Mar_22_1452,RL,2021.2.3,59.95969510713798,
1,-0.3,-0.225,0,54,54,54,,,,,,,,,,,,,,,None,None,None,None,None,604.6524558999809,None,604.6524558999809,None,604.6524558999809,None,604.6524558999809,None,r,0.512124800006859,604.6524558999809,None,604.6524558999809,None,605.2111134000588,None,605.2111134000588,None,605.2111134000588,None,605.2111134000588,None,605.2111134000588,None,605.2111134000588,None,605.4988869000226,606.8994364000391,605.4988869000226,606.8994364000391,606.9302354999818,None,606.9302354999818,None,606.9302354999818,None,606.9302354999818,None,606.9302354999818,None,606.9302354999818,None,606.9302354999818,None,606.9302354999818,None,606.9302354999818,None,59,37,46,23,59,76,None,None,None,None,None,None,None,None,None,None,None,None,,None,None,,None,None,None,None,None,None,None,None,None,None,None,None,None,None,None,None,None,None,0.6,1,609.4820592000615,None,609.4820592000615,None,609.4820592000615,None,609.4820592000615,None,609.4820592000615,None,609.4820592000615,None,30,609.4820592000615,None,609.4820592000615,None,-0.02734375,-0.2734375,1,0,0,3.1809525000862777,tijiao_random_2,0.010890400037169456,None,609.4820592000615,None,4.098958333333334,0.7813906000228599,612.6951428999892,None,612.6951428999892,None,612.6951428999892,None,612.6951428999892,None,None,None,613.5064207999967,None,,,,,,,,,247,m,22,2023_Mar_22_1452,RL,2021.2.3,59.95969510713798,
0,0.3,0.225,0,55,55,55,,,,,,,,,,,,,,,None,None,None,None,None,615.34302140004,None,615.34302140004,None,615.34302140004,None,615.34302140004,None,f,0.49187459994573146,615.34302140004,None,615.34302140004,None,615.8861139999935,None,615.8861139999935,None,615.8861139999935,None,615.8861139999935,None,615.8861139999935,None,615.8861139999935,None,616.1727207000367,617.4402591000544,616.1727207000367,617.4402591000544,617.472747300053,None,617.472747300053,None,617.472747300053,None,617.472747300053,None,617.472747300053,None,617.472747300053,None,617.472747300053,None,617.472747300053,None,617.472747300053,None,69,35,48,28,35,77,619.9939724999713,None,1.0,2.0368152000010014,619.9939724999713,None,619.9939724999713,None,619.9939724999713,None,619.9939724999713,None,,None,None,,None,None,None,None,None,None,None,None,None,None,None,None,None,None,None,None,None,None,0.6,3,None,None,None,None,None,None,None,None,None,None,None,None,,None,None,None,None,,,,,,,,None,None,None,None,None,None,None,None,None,None,None,None,None,None,None,None,622.0987154999748,None,,,,,,,,,247,m,22,2023_Mar_22_1452,RL,2021.2.3,59.95969510713798,
1,-0.3,-0.225,0,56,56,56,,,,,,,,,,,,,,,None,None,None,None,None,624.0492870999733,None,624.0492870999733,None,624.0492870999733,None,624.0492870999733,None,i,0.5556696000276133,624.0492870999733,None,624.0492870999733,None,624.651847000001,None,624.651847000001,None,624.651847000001,None,624.651847000001,None,624.651847000001,None,624.651847000001,None,624.9454891000642,None,624.9454891000642,None,626.4419086000416,None,626.4419086000416,None,626.4419086000416,None,626.4419086000416,None,626.4419086000416,None,626.4419086000416,None,626.4419086000416,None,626.4419086000416,None,626.4419086000416,None,66,38,49,32,49,77,628.9635441000573,None,1.0,1.0875376999611035,628.9635441000573,None,628.9635441000573,None,628.9635441000573,None,628.9635441000573,None,,None,None,,None,None,None,None,None,None,None,None,None,None,None,None,None,None,None,None,None,None,-0.2,2,None,None,None,None,None,None,None,None,None,None,None,None,,None,None,None,None,,,,,,,,None,None,None,None,None,None,None,None,None,None,None,None,None,None,None,None,630.1002540000482,None,,,,,,,,,247,m,22,2023_Mar_22_1452,RL,2021.2.3,59.95969510713798,
0,0.3,0.225,0,57,57,57,,,,,,,,,,,,,,,None,None,None,None,None,631.6877472000197,None,631.6877472000197,None,631.6877472000197,None,631.6877472000197,None,i,0.7574039000319317,631.6877472000197,None,631.6877472000197,None,632.4932149000233,None,632.4932149000233,None,632.4932149000233,None,632.4932149000233,None,632.4932149000233,None,632.4932149000233,None,632.7836464999709,None,632.7836464999709,None,633.6987915000645,None,633.6987915000645,None,633.6987915000645,None,633.6987915000645,None,633.6987915000645,None,633.6987915000645,None,633.6987915000645,None,633.6987915000645,None,633.6987915000645,None,64,33,56,28,56,79,None,None,None,None,None,None,None,None,None,None,None,None,55,636.237038900028,None,55,636.237038900028,None,636.237038900028,None,636.237038900028,None,636.237038900028,None,636.237038900028,None,636.237038900028,None,636.237038900028,None,0.009486300055868924,None,636.237038900028,None,-0.2,0,None,None,None,None,None,None,None,None,None,None,None,None,,None,None,None,None,,,,,,,,None,None,None,None,6.104166666666666,0.8296747000422329,640.1113264000742,None,640.1113264000742,None,640.1113264000742,None,640.1113264000742,None,None,None,640.9558258000761,None,0.0,-0.3033854166666667,1,0,0,3.829260900034569,tijiao,,247,m,22,2023_Mar_22_1452,RL,2021.2.3,59.95969510713798,
1,-0.3,-0.225,0,58,58,58,,,,,,,,,,,,,,,None,None,None,None,None,642.8624546000501,None,642.8624546000501,None,642.8624546000501,None,642.8624546000501,None,i,0.6825669999234378,642.8624546000501,None,642.8624546000501,None,643.5993881999748,None,643.5993881999748,None,643.5993881999748,None,643.5993881999748,None,643.5993881999748,None,643.5993881999748,None,643.8751658999827,645.2596203000285,643.8751658999827,645.2596203000285,645.2908848000225,None,645.2908848000225,None,645.2908848000225,None,645.2908848000225,None,645.2908848000225,None,645.2908848000225,None,645.2908848000225,None,645.2908848000225,None,645.2908848000225,None,72,32,54,30,54,79,None,None,None,None,None,None,None,None,None,None,None,None,,None,None,,None,None,None,None,None,None,None,None,None,None,None,None,None,None,None,None,None,None,0.2,1,647.8350343999919,None,647.8350343999919,None,647.8350343999919,None,647.8350343999919,None,647.8350343999919,None,647.8350343999919,None,53,647.8350343999919,None,647.8350343999919,None,0.0390625,-0.3190104166666667,1,0,0,3.7542280999477953,tijiao_random_2,0.0009154999861493707,None,647.8350343999919,None,7.783854166666666,1.7318120999261737,651.6197001000401,None,651.6197001000401,None,651.6197001000401,None,651.6197001000401,None,None,None,653.3793465000344,None,,,,,,,,,247,m,22,2023_Mar_22_1452,RL,2021.2.3,59.95969510713798,
0,0.3,0.225,0,59,59,59,,,,,,,,,,,,,,,None,None,None,None,None,655.1037346000085,None,655.1037346000085,None,655.1037346000085,None,655.1037346000085,None,r,0.3711573000764474,655.1037346000085,None,655.1037346000085,None,655.5196779000107,None,655.5196779000107,None,655.5196779000107,None,655.5196779000107,None,655.5196779000107,None,655.5196779000107,None,655.8170837999787,657.651853300049,655.8170837999787,657.651853300049,657.682655200013,None,657.682655200013,None,657.682655200013,None,657.682655200013,None,657.682655200013,None,657.682655200013,None,657.682655200013,None,657.682655200013,None,657.682655200013,None,63,26,50,32,63,57,660.1996564000146,None,7.0,3.124757600016892,660.1996564000146,None,660.1996564000146,None,660.1996564000146,None,660.1996564000146,None,,None,None,,None,None,None,None,None,None,None,None,None,None,None,None,None,None,None,None,None,None,-0.6,2,None,None,None,None,None,None,None,None,None,None,None,None,,None,None,None,None,,,,,,,,None,None,None,None,None,None,None,None,None,None,None,None,None,None,None,None,663.3896077000536,None,,,,,,,,,247,m,22,2023_Mar_22_1452,RL,2021.2.3,59.95969510713798,
1,-0.3,-0.225,0,60,60,60,,,,,,,,,,,,,,,None,None,None,None,None,665.010910400073,None,665.010910400073,None,665.010910400073,None,665.010910400073,None,r,0.5740698999725282,665.010910400073,None,665.010910400073,None,665.6354773000348,None,665.6354773000348,None,665.6354773000348,None,665.6354773000348,None,665.6354773000348,None,665.6354773000348,None,665.9238479000051,None,665.9238479000051,None,667.9382401000476,None,667.9382401000476,None,667.9382401000476,None,667.9382401000476,None,667.9382401000476,None,667.9382401000476,None,667.9382401000476,None,667.9382401000476,None,667.9382401000476,None,61,22,44,42,61,65,670.4633940000786,None,4.0,1.866979599930346,670.4633940000786,None,670.4633940000786,None,670.4633940000786,None,670.4633940000786,None,,None,None,,None,None,None,None,None,None,None,None,None,None,None,None,None,None,None,None,None,None,0.2,3,None,None,None,None,None,None,None,None,None,None,None,None,,None,None,None,None,,,,,,,,None,None,None,None,None,None,None,None,None,None,None,None,None,None,None,None,672.3831365000224,None,,,,,,,,,247,m,22,2023_Mar_22_1452,RL,2021.2.3,59.95969510713798,
0,0.3,0.225,0,61,61,61,,,,,,,,,,,,,,,None,None,None,None,None,674.3681406000396,None,674.3681406000396,None,674.3681406000396,None,674.3681406000396,None,r,0.6775850999401882,674.3681406000396,None,674.3681406000396,None,675.0873674000613,None,675.0873674000613,None,675.0873674000613,None,675.0873674000613,None,675.0873674000613,None,675.0873674000613,None,675.3804357000627,676.881601799978,675.3804357000627,676.881601799978,676.9140595999779,None,676.9140595999779,None,676.9140595999779,None,676.9140595999779,None,676.9140595999779,None,676.9140595999779,None,676.9140595999779,None,676.9140595999779,None,676.9140595999779,None,61,23,42,44,61,61,679.4300798000768,None,5.0,1.5245111000258476,679.4300798000768,None,679.4300798000768,None,679.4300798000768,None,679.4300798000768,None,,None,None,,None,None,None,None,None,None,None,None,None,None,None,None,None,None,None,None,None,None,-0.6,3,None,None,None,None,None,None,None,None,None,None,None,None,,None,None,None,None,,,,,,,,None,None,None,None,None,None,None,None,None,None,None,None,None,None,None,None,681.0116062000161,None,,,,,,,,,247,m,22,2023_Mar_22_1452,RL,2021.2.3,59.95969510713798,
1,-0.3,-0.225,0,62,62,62,,,,,,,,,,,,,,,None,None,None,None,None,682.5562295999844,None,682.5562295999844,None,682.5562295999844,None,682.5562295999844,None,f,0.8289906000718474,682.5562295999844,None,682.5562295999844,None,683.4247911000857,None,683.4247911000857,None,683.4247911000857,None,683.4247911000857,None,683.4247911000857,None,683.4247911000857,None,683.7197254999774,None,683.7197254999774,None,684.8006518000038,None,684.8006518000038,None,684.8006518000038,None,684.8006518000038,None,684.8006518000038,None,684.8006518000038,None,684.8006518000038,None,684.8006518000038,None,684.8006518000038,None,56,28,44,37,28,61,687.3188104999717,None,1.0,2.957571000093594,687.3188104999717,None,687.3188104999717,None,687.3188104999717,None,687.3188104999717,None,,None,None,,None,None,None,None,None,None,None,None,None,None,None,None,None,None,None,None,None,None,-0.2,3,None,None,None,None,None,None,None,None,None,None,None,None,,None,None,None,None,,,,,,,,None,None,None,None,None,None,None,None,None,None,None,None,None,None,None,None,690.3410460000159,None,,,,,,,,,247,m,22,2023_Mar_22_1452,RL,2021.2.3,59.95969510713798,
0,0.3,0.225,0,63,63,63,,,,,,,,,,,,,,,None,None,None,None,None,691.8793318000389,None,691.8793318000389,None,691.8793318000389,None,691.8793318000389,None,r,0.41595509997569025,691.8793318000389,None,691.8793318000389,None,692.3474879000569,None,692.3474879000569,None,692.3474879000569,None,692.3474879000569,None,692.3474879000569,None,692.3474879000569,None,692.6425254000351,None,692.6425254000351,None,694.4754234000575,None,694.4754234000575,None,694.4754234000575,None,694.4754234000575,None,694.4754234000575,None,694.4754234000575,None,694.4754234000575,None,694.4754234000575,None,694.4754234000575,None,69,31,44,40,69,68,696.9952364000492,None,5.0,2.1209517000243068,696.9952364000492,None,696.9952364000492,None,696.9952364000492,None,696.9952364000492,None,,None,None,,None,None,None,None,None,None,None,None,None,None,None,None,None,None,None,None,None,None,-0.6,3,None,None,None,None,None,None,None,None,None,None,None,None,,None,None,None,None,,,,,,,,None,None,None,None,None,None,None,None,None,None,None,None,None,None,None,None,699.1694330000319,None,,,,,,,,,247,m,22,2023_Mar_22_1452,RL,2021.2.3,59.95969510713798,
1,-0.3,-0.225,0,64,64,64,,,,,,,,,,,,,,,None,None,None,None,None,701.1020926000783,None,701.1020926000783,None,701.1020926000783,None,701.1020926000783,None,r,0.513115799985826,701.1020926000783,None,701.1020926000783,None,701.6538072000258,None,701.6538072000258,None,701.6538072000258,None,701.6538072000258,None,701.6538072000258,None,701.6538072000258,None,701.9489117000485,None,701.9489117000485,None,703.9143331000814,None,703.9143331000814,None,703.9143331000814,None,703.9143331000814,None,703.9143331000814,None,703.9143331000814,None,703.9143331000814,None,703.9143331000814,None,703.9143331000814,None,61,25,48,45,61,65,None,None,None,None,None,None,None,None,None,None,None,None,60,706.4477789000375,None,60,706.4477789000375,None,706.4477789000375,None,706.4477789000375,None,706.4477789000375,None,706.4477789000375,None,706.4477789000375,None,706.4477789000375,None,0.01235820003785193,None,706.4477789000375,None,0.6,0,None,None,None,None,None,None,None,None,None,None,None,None,,None,None,None,None,,,,,,,,None,None,None,None,5.84375,2.5696505999658257,710.7510443000356,None,710.7510443000356,None,710.7510443000356,None,710.7510443000356,None,None,None,713.338714200072,None,-0.055989583333333336,-0.3125,1,0,0,4.249632999999449,tijiao,,247,m,22,2023_Mar_22_1452,RL,2021.2.3,59.95969510713798,
0,0.3,0.225,0,65,65,65,,,,,,,,,,,,,,,None,None,None,None,None,715.1624429000076,None,715.1624429000076,None,715.1624429000076,None,715.1624429000076,None,i,0.46314989996608347,715.1624429000076,None,715.1624429000076,None,715.6702984999865,None,715.6702984999865,None,715.6702984999865,None,715.6702984999865,None,715.6702984999865,None,715.6702984999865,None,715.9586692000739,716.8260385000613,715.9586692000739,716.8260385000613,716.8577648000792,None,716.8577648000792,None,716.8577648000792,None,716.8577648000792,None,716.8577648000792,None,716.8577648000792,None,716.8577648000792,None,716.8577648000792,None,716.8577648000792,None,67,24,52,51,52,77,None,None,None,None,None,None,None,None,None,None,None,None,,None,None,,None,None,None,None,None,None,None,None,None,None,None,None,None,None,None,None,None,None,0.6,1,719.4003740000771,None,719.4003740000771,None,719.4003740000771,None,719.4003740000771,None,719.4003740000771,None,719.4003740000771,None,30,719.4003740000771,None,719.4003740000771,None,0.048177083333333336,-0.2942708333333333,1,0,0,4.07253020000644,tijiao_random_2,0.0017889001173898578,None,719.4003740000771,None,5.856770833333333,1.960610399954021,723.5066557000391,None,723.5066557000391,None,723.5066557000391,None,723.5066557000391,None,None,None,725.498521200032,None,,,,,,,,,247,m,22,2023_Mar_22_1452,RL,2021.2.3,59.95969510713798,
1,-0.3,-0.225,0,66,66,66,,,,,,,,,,,,,,,None,None,None,None,None,727.1871318999911,None,727.1871318999911,None,727.1871318999911,None,727.1871318999911,None,r,0.28940750006586313,727.1871318999911,None,727.1871318999911,None,727.5226302000228,None,727.5226302000228,None,727.5226302000228,None,727.5226302000228,None,727.5226302000228,None,727.5226302000228,None,727.8170268000104,None,727.8170268000104,None,728.6478629000485,None,728.6478629000485,None,728.6478629000485,None,728.6478629000485,None,728.6478629000485,None,728.6478629000485,None,728.6478629000485,None,728.6478629000485,None,728.6478629000485,None,67,28,46,37,67,72,None,None,None,None,None,None,None,None,None,None,None,None,63,731.1781660000561,None,63,731.1781660000561,None,731.1781660000561,None,731.1781660000561,None,731.1781660000561,None,731.1781660000561,None,731.1781660000561,None,731.1781660000561,None,0.0006495999405160546,None,731.1781660000561,None,-0.2,0,None,None,None,None,None,None,None,None,None,None,None,None,,None,None,None,None,,,,,,,,None,None,None,None,5.817708333333333,2.0934126999927685,736.0923081000801,None,736.0923081000801,None,736.0923081000801,None,736.0923081000801,None,None,None,738.2162209000671,None,0.03515625,-0.2955729166666667,1,0,0,4.871431899955496,tijiao,,247,m,22,2023_Mar_22_1452,RL,2021.2.3,59.95969510713798,
0,0.3,0.225,0,67,67,67,,,,,,,,,,,,,,,None,None,None,None,None,739.8631151000736,None,739.8631151000736,None,739.8631151000736,None,739.8631151000736,None,r,0.45352339989040047,739.8631151000736,None,739.8631151000736,None,740.3684386999812,None,740.3684386999812,None,740.3684386999812,None,740.3684386999812,None,740.3684386999812,None,740.3684386999812,None,740.6592215000419,741.8767801000504,740.6592215000419,741.8767801000504,741.9099877000554,None,741.9099877000554,None,741.9099877000554,None,741.9099877000554,None,741.9099877000554,None,741.9099877000554,None,741.9099877000554,None,741.9099877000554,None,741.9099877000554,None,61,33,53,41,61,70,744.4322203000775,None,1.0,2.085146400029771,744.4322203000775,None,744.4322203000775,None,744.4322203000775,None,744.4322203000775,None,,None,None,,None,None,None,None,None,None,None,None,None,None,None,None,None,None,None,None,None,None,-0.6,3,None,None,None,None,None,None,None,None,None,None,None,None,,None,None,None,None,,,,,,,,None,None,None,None,None,None,None,None,None,None,None,None,None,None,None,None,746.5939510000171,None,,,,,,,,,247,m,22,2023_Mar_22_1452,RL,2021.2.3,59.95969510713798,
1,-0.3,-0.225,0,68,68,68,,,,,,,,,,,,,,,None,None,None,None,None,748.5022833000403,None,748.5022833000403,None,748.5022833000403,None,748.5022833000403,None,r,0.764357200008817,748.5022833000403,None,748.5022833000403,None,749.3051633000141,None,749.3051633000141,None,749.3051633000141,None,749.3051633000141,None,749.3051633000141,None,749.3051633000141,None,749.5986104999902,None,749.5986104999902,None,750.9801917000441,None,750.9801917000441,None,750.9801917000441,None,750.9801917000441,None,750.9801917000441,None,750.9801917000441,None,750.9801917000441,None,750.9801917000441,None,750.9801917000441,None,68,24,43,42,68,87,None,None,None,None,None,None,None,None,None,None,None,None,99,753.509222600027,None,99,753.509222600027,None,753.509222600027,None,753.509222600027,None,753.509222600027,None,753.509222600027,None,753.509222600027,None,753.509222600027,None,0.00011850008741021156,None,753.509222600027,None,-0.2,0,None,None,None,None,None,None,None,None,None,None,None,None,,None,None,None,None,,,,,,,,None,None,None,None,1.1953125,1.4075799999991432,756.9654534000438,None,756.9654534000438,None,756.9654534000438,None,756.9654534000438,None,None,None,758.387410000083,None,-0.052083333333333336,-0.2591145833333333,1,0,0,3.403427500044927,tijiao,,247,m,22,2023_Mar_22_1452,RL,2021.2.3,59.95969510713798,
0,0.3,0.225,0,69,69,69,,,,,,,,,,,,,,,None,None,None,None,None,760.3107068000827,None,760.3107068000827,None,760.3107068000827,None,760.3107068000827,None,r,0.34626870008651167,760.3107068000827,None,760.3107068000827,None,760.6960951000219,None,760.6960951000219,None,760.6960951000219,None,760.6960951000219,None,760.6960951000219,None,760.6960951000219,None,760.9899910000386,762.7746070000576,760.9899910000386,762.7746070000576,762.8078142000595,None,762.8078142000595,None,762.8078142000595,None,762.8078142000595,None,762.8078142000595,None,762.8078142000595,None,762.8078142000595,None,762.8078142000595,None,762.8078142000595,None,71,26,42,43,71,76,None,None,None,None,None,None,None,None,None,None,None,None,99,765.3358436999843,None,99,765.3358436999843,None,765.3358436999843,None,765.3358436999843,None,765.3358436999843,None,765.3358436999843,None,765.3358436999843,None,765.3358436999843,None,0.015306600136682391,None,765.3358436999843,None,0.6,0,None,None,None,None,None,None,None,None,None,None,None,None,,None,None,None,None,,,,,,,,None,None,None,None,1,0.8674789000069723,772.4010756000644,None,772.4010756000644,None,772.4010756000644,None,772.4010756000644,None,None,None,773.2950730000157,None,0.08984375,-0.28125,1,0,0,7.021186299971305,tijiao,,247,m,22,2023_Mar_22_1452,RL,2021.2.3,59.95969510713798,
1,-0.3,-0.225,0,70,70,70,,,,,,,,,,,,,,,None,None,None,None,None,774.9209524000762,None,774.9209524000762,None,774.9209524000762,None,774.9209524000762,None,r,0.32585529994685203,774.9209524000762,None,774.9209524000762,None,775.2955414999742,None,775.2955414999742,None,775.2955414999742,None,775.2955414999742,None,775.2955414999742,None,775.2955414999742,None,775.5835286000511,None,775.5835286000511,None,777.4154408000177,None,777.4154408000177,None,777.4154408000177,None,777.4154408000177,None,777.4154408000177,None,777.4154408000177,None,777.4154408000177,None,777.4154408000177,None,777.4154408000177,None,76,25,51,48,76,78,779.9352409000276,None,6.0,2.0394642000319436,779.9352409000276,None,779.9352409000276,None,779.9352409000276,None,779.9352409000276,None,,None,None,,None,None,None,None,None,None,None,None,None,None,None,None,None,None,None,None,None,None,0.6,3,None,None,None,None,None,None,None,None,None,None,None,None,,None,None,None,None,,,,,,,,None,None,None,None,None,None,None,None,None,None,None,None,None,None,None,None,782.0256537999958,None,,,,,,,,,247,m,22,2023_Mar_22_1452,RL,2021.2.3,59.95969510713798,
0,0.3,0.225,0,71,71,71,,,,,,,,,,,,,,,None,None,None,None,None,783.9939313000068,None,783.9939313000068,None,783.9939313000068,None,783.9939313000068,None,r,0.6328848999692127,783.9939313000068,None,783.9939313000068,None,784.6772022000514,None,784.6772022000514,None,784.6772022000514,None,784.6772022000514,None,784.6772022000514,None,784.6772022000514,None,784.9733306000708,None,784.9733306000708,None,786.27148450003,None,786.27148450003,None,786.27148450003,None,786.27148450003,None,786.27148450003,None,786.27148450003,None,786.27148450003,None,786.27148450003,None,786.27148450003,None,62,33,34,60,62,73,None,None,None,None,None,None,None,None,None,None,None,None,70,788.7988294999814,None,70,788.7988294999814,None,788.7988294999814,None,788.7988294999814,None,788.7988294999814,None,788.7988294999814,None,788.7988294999814,None,788.7988294999814,None,0.0018124000634998083,None,788.7988294999814,None,0.2,0,None,None,None,None,None,None,None,None,None,None,None,None,,None,None,None,None,,,,,,,,None,None,None,None,5.778645833333333,1.8443932000081986,794.2886745000724,None,794.2886745000724,None,794.2886745000724,None,794.2886745000724,None,None,None,796.1630560000194,None,-0.07421875,-0.30078125,1,0,0,5.439679199946113,tijiao,,247,m,22,2023_Mar_22_1452,RL,2021.2.3,59.95969510713798,
1,-0.3,-0.225,0,72,72,72,,,,,,,,,,,,,,,None,None,None,None,None,798.120824099984,None,798.120824099984,None,798.120824099984,None,798.120824099984,None,r,0.24616530002094805,798.120824099984,None,798.120824099984,None,798.4105838000542,None,798.4105838000542,None,798.4105838000542,None,798.4105838000542,None,798.4105838000542,None,798.4105838000542,None,798.6995664000278,799.8168005000334,798.6995664000278,799.8168005000334,799.849000700051,None,799.849000700051,None,799.849000700051,None,799.849000700051,None,799.849000700051,None,799.849000700051,None,799.849000700051,None,799.849000700051,None,799.849000700051,None,62,22,42,59,62,67,802.3732039000606,None,1.0,1.9006279000313953,802.3732039000606,None,802.3732039000606,None,802.3732039000606,None,802.3732039000606,None,,None,None,,None,None,None,None,None,None,None,None,None,None,None,None,None,None,None,None,None,None,0.2,2,None,None,None,None,None,None,None,None,None,None,None,None,,None,None,None,None,,,,,,,,None,None,None,None,None,None,None,None,None,None,None,None,None,None,None,None,804.3260202000383,None,,,,,,,,,247,m,22,2023_Mar_22_1452,RL,2021.2.3,59.95969510713798,
0,0.3,0.225,0,73,73,73,,,,,,,,,,,,,,,None,None,None,None,None,806.2763166000368,None,806.2763166000368,None,806.2763166000368,None,806.2763166000368,None,r,0.4710270999930799,806.2763166000368,None,806.2763166000368,None,806.7942873999709,None,806.7942873999709,None,806.7942873999709,None,806.7942873999709,None,806.7942873999709,None,806.7942873999709,None,807.0885547000216,808.9232091000304,807.0885547000216,808.9232091000304,808.9575649000471,None,808.9575649000471,None,808.9575649000471,None,808.9575649000471,None,808.9575649000471,None,808.9575649000471,None,808.9575649000471,None,808.9575649000471,None,808.9575649000471,None,59,25,36,54,59,70,None,None,None,None,None,None,None,None,None,None,None,None,,None,None,,None,None,None,None,None,None,None,None,None,None,None,None,None,None,None,None,None,None,-0.2,1,811.498463200056,None,811.498463200056,None,811.498463200056,None,811.498463200056,None,811.498463200056,None,811.498463200056,None,20,811.498463200056,None,811.498463200056,None,0.06640625,-0.2877604166666667,1,0,0,4.204383199918084,tijiao_random_2,0.0010232999920845032,None,811.498463200056,None,5.010416666666667,1.8110911999829113,815.736373999971,None,815.736373999971,None,815.736373999971,None,815.736373999971,None,None,None,817.5620948000578,None,,,,,,,,,247,m,22,2023_Mar_22_1452,RL,2021.2.3,59.95969510713798,
1,-0.3,-0.225,0,74,74,74,,,,,,,,,,,,,,,None,None,None,None,None,819.3512867999962,None,819.3512867999962,None,819.3512867999962,None,819.3512867999962,None,f,0.3157770000398159,819.3512867999962,None,819.3512867999962,None,819.7185291000642,None,819.7185291000642,None,819.7185291000642,None,819.7185291000642,None,819.7185291000642,None,819.7185291000642,None,820.0142256000545,821.5486293999711,820.0142256000545,821.5486293999711,821.5851083999733,None,821.5851083999733,None,821.5851083999733,None,821.5851083999733,None,821.5851083999733,None,821.5851083999733,None,821.5851083999733,None,821.5851083999733,None,821.5851083999733,None,65,27,28,49,27,71,824.0948818000033,None,1.0,1.106434699962847,824.0948818000033,None,824.0948818000033,None,824.0948818000033,None,824.0948818000033,None,,None,None,,None,None,None,None,None,None,None,None,None,None,None,None,None,None,None,None,None,None,0.6,2,None,None,None,None,None,None,None,None,None,None,None,None,,None,None,None,None,,,,,,,,None,None,None,None,None,None,None,None,None,None,None,None,None,None,None,None,825.2574762000004,None,,,,,,,,,247,m,22,2023_Mar_22_1452,RL,2021.2.3,59.95969510713798,
0,0.3,0.225,0,75,75,75,,,,,,,,,,,,,,,827.2025241000811,None,q,827.2025241000811,None,949.1482007000595,None,949.1482007000595,None,949.1482007000595,None,949.1482007000595,None,f,0.7236942999297753,949.1482007000595,None,949.1482007000595,None,949.9155053000432,None,949.9155053000432,None,949.9155053000432,None,949.9155053000432,None,949.9155053000432,None,949.9155053000432,None,950.2046951000812,None,950.2046951000812,None,951.3663995000534,None,951.3663995000534,None,951.3663995000534,None,951.3663995000534,None,951.3663995000534,None,951.3663995000534,None,951.3663995000534,None,951.3663995000534,None,951.3663995000534,None,55,32,26,64,32,77,953.886692399974,None,1.0,1.6382759999250993,953.886692399974,None,953.886692399974,None,953.886692399974,None,953.886692399974,None,,None,None,,None,None,None,None,None,None,None,None,None,None,None,None,None,None,None,None,None,None,-0.6,2,None,None,None,None,None,None,None,None,None,None,None,None,,None,None,None,None,,,,,,,,None,None,None,None,None,None,None,None,None,None,None,None,None,None,None,None,955.582903600065,None,,,,,,,,121.90942749998067,247,m,22,2023_Mar_22_1452,RL,2021.2.3,59.95969510713798,
1,-0.3,-0.225,0,76,76,76,,,,,,,,,,,,,,,None,None,None,None,None,957.3457832999993,None,957.3457832999993,None,957.3457832999993,None,957.3457832999993,None,r,0.31618039996828884,957.3457832999993,None,957.3457832999993,None,957.7134313000133,None,957.7134313000133,None,957.7134313000133,None,957.7134313000133,None,957.7134313000133,None,957.7134313000133,None,958.0100653000409,None,958.0100653000409,None,958.9744040999794,None,958.9744040999794,None,958.9744040999794,None,958.9744040999794,None,958.9744040999794,None,958.9744040999794,None,958.9744040999794,None,958.9744040999794,None,958.9744040999794,None,62,23,32,59,62,66,None,None,None,None,None,None,None,None,None,None,None,None,,None,None,,None,None,None,None,None,None,None,None,None,None,None,None,None,None,None,None,None,None,-0.6,1,961.5206913000438,None,961.5206913000438,None,961.5206913000438,None,961.5206913000438,None,961.5206913000438,None,961.5206913000438,None,65,961.5206913000438,None,961.5206913000438,None,-0.048177083333333336,-0.2630208333333333,1,0,0,3.8049230999313295,tijiao_random_2,0.0015632000286132097,None,961.5206913000438,None,3.721354166666666,1.9996773999882862,965.357125999988,None,965.357125999988,None,965.357125999988,None,965.357125999988,None,None,None,967.3882598000346,None,,,,,,,,,247,m,22,2023_Mar_22_1452,RL,2021.2.3,59.95969510713798,
