bandit0,black_x_pos_random,black_y_pos_random,trials.thisRepN,trials.thisTrialN,trials.thisN,trials.thisIndex,instru_img1.started,instru_resp.started,instru_resp.keys,instru_resp.rt,instru_img2.started,instru_resp2.started,instru_resp2.keys,instru_resp2.rt,fixbefore_2.started,rest_response.keys,red.started,green.started,yellow.started,blue.started,choose_bandit.started,Fixation.started,choose_bandit.keys,choose_bandit.rt,black.started,red_2.started,green_2.started,yellow_2.started,blue_2.started,fixation_2.started,docs.started,wait_playerB.started,docs.stopped,wait_playerB.stopped,black.stopped,red_2.stopped,green_2.stopped,yellow_2.stopped,blue_2.stopped,fixation_2.stopped,black_com.started,reward_sub.started,palyerb.started,reward__sub.started,compare.started,red_compare.started,green_com.started,yellow_com.started,blue_com.started,image_3.started,slider.started,text.started,image_4.started,image_5.started,rewardyellow,rewardred,rewardblue,rewardgreen,subchoose,playerb,slider.response,slider.rt,expectself.text,value_expect_self,tijiao_click.x,tijiao_click.y,tijiao_click.leftButton,tijiao_click.midButton,tijiao_click.rightButton,tijiao_click.time,tijiao_click.clicked_name,random_whicharm,whether_ask,expect_random_3.text,tijiao_random.x,tijiao_random.y,tijiao_random.leftButton,tijiao_random.midButton,tijiao_random.rightButton,tijiao_random.time,tijiao_random.clicked_name,slider_2.response,slider_2.rt,intertrialfix.started,intertrialfix.stopped,jiantou_random.started,expect_red.started,expect_green.started,expect_yellow.started,expect_blue.started,expect_random_2.started,expect_random_3.started,tijiao_random_2.started,tijiao_random.started,check_2.started,slider_2.started,image_7.started,confi.started,notconfi.started,expectself.started,expect_self_black.started,expect_self.started,expect_self_red.started,expect_self_green.started,expect_self_yellow.started,expect_self_blue.started,tijiao.started,tijiao_click.started,check.started,rest_image.started,rest_response.started,rest_response.rt,participant,Gender,Age,date,expName,psychopyVersion,frameRate,
,,,,,,,32.55002560000867,32.55002560000867,space,5.726702999992995,,,,,,,,,,,,,,,,,,,,,,,,,,,,,,,,,,,,,,,,,,,,,,,,,,,,,,,,,,,,,,,,,,,,,,,,,,,,,,,,,,,,,,,,,,,,,,,,,,,,,,,248,f,18,2023-03-22_14h52.08.522,RL,2022.2.4,60.02872975568152,
,,,,,,,,,,,38.31122780000442,38.31122780000442,s,55.58824189999723,,,,,,,,,,,,,,,,,,,,,,,,,,,,,,,,,,,,,,,,,,,,,,,,,,,,,,,,,,,,,,,,,,,,,,,,,,,,,,,,,,,,,,,,,,,,,,,,,,,248,f,18,2023-03-22_14h52.08.522,RL,2022.2.4,60.02872975568152,
1,-0.3,-0.225,0,0,0,0,,,,,,,,,93.91900379999424,None,94.94503810000606,94.94503810000606,94.94503810000606,94.94503810000606,94.94503810000606,94.94503810000606,r,0.5063920000102371,95.49933469999814,95.49933469999814,95.49933469999814,95.49933469999814,95.49933469999814,95.49933469999814,95.77989569999045,95.77989569999045,97.52491370000644,97.52491370000644,97.54532760000438,97.54532760000438,97.54532760000438,97.54532760000438,97.54532760000438,97.54532760000438,97.54532760000438,97.54532760000438,97.54532760000438,97.54532760000438,97.54532760000438,97.54532760000438,97.54532760000438,97.54532760000438,97.54532760000438,100.05152149999049,100.05152149999049,100.05152149999049,100.05152149999049,100.05152149999049,46,65,59,49,46,53,3.0,2.7747010000166483,,,[],[],[],[],[],[],[],0.6,2,,[],[],[],[],[],[],[],None,None,103.00467070000013,104.98810950000188,,,,,,,,,,,,,,,,,,,,,,,,,,,,248,f,18,2023-03-22_14h52.08.522,RL,2022.2.4,60.02872975568152,
0,0.3,0.225,0,1,1,1,,,,,,,,,,None,104.98810950000188,104.98810950000188,104.98810950000188,104.98810950000188,104.98810950000188,104.98810950000188,j,0.5654782000056002,105.58674780000001,105.58674780000001,105.58674780000001,105.58674780000001,105.58674780000001,105.58674780000001,105.88566130000982,105.88566130000982,107.16536459999043,107.16536459999043,107.16536459999043,107.16536459999043,107.16536459999043,107.16536459999043,107.16536459999043,107.16536459999043,107.16536459999043,107.16536459999043,107.16536459999043,107.16536459999043,107.16536459999043,107.16536459999043,107.16536459999043,107.16536459999043,107.16536459999043,,,,,,41,64,55,46,46,60,None,None,,,[],[],[],[],[],[],[],0.6,1,46,[-0.046296296296296294],[-0.2638888888888889],[1],[0],[0],[3.9403670999745373],['tijiao_random_2'],7.953703703703704,4.047487400006503,117.7188082000066,119.5483619000006,109.70366060000379,109.70366060000379,109.70366060000379,109.70366060000379,109.70366060000379,109.70366060000379,109.70366060000379,109.70366060000379,0.0066574999946169555,109.70366060000379,113.65893999999389,113.65893999999389,113.65893999999389,113.65893999999389,,,,,,,,,,,,,,248,f,18,2023-03-22_14h52.08.522,RL,2022.2.4,60.02872975568152,
1,-0.3,-0.225,0,2,2,2,,,,,,,,,,None,119.5483619000006,119.5483619000006,119.5483619000006,119.5483619000006,119.5483619000006,119.5483619000006,j,0.4441647000203375,120.01397529998212,120.01397529998212,120.01397529998212,120.01397529998212,120.01397529998212,120.01397529998212,120.31323460000567,120.31323460000567,122.3076185999962,122.3076185999962,122.3076185999962,122.3076185999962,122.3076185999962,122.3076185999962,122.3076185999962,122.3076185999962,122.3076185999962,122.3076185999962,122.3076185999962,122.3076185999962,122.3076185999962,122.3076185999962,122.3076185999962,122.3076185999962,122.3076185999962,,,,,,45,71,58,47,47,61,None,None,48,48,[-0.08981481481481482],[-0.2777777777777778],[1],[0],[0],[6.204805999994278],['tijiao'],0.2,0,,[],[],[],[],[],[],[],8.981481481481481,5.304218700010097,136.36799520000932,138.29702009999892,,,,,,,,,,,131.0448250999907,131.0448250999907,131.0448250999907,131.0448250999907,124.82428179998533,124.82428179998533,124.82428179998533,124.82428179998533,124.82428179998533,124.82428179998533,124.82428179998533,124.82428179998533,0.008464800019282848,124.82428179998533,,,,248,f,18,2023-03-22_14h52.08.522,RL,2022.2.4,60.02872975568152,
0,0.3,0.225,0,3,3,3,,,,,,,,,,None,138.29702009999892,138.29702009999892,138.29702009999892,138.29702009999892,138.29702009999892,138.29702009999892,f,0.4799291999952402,138.80149759998312,138.80149759998312,138.80149759998312,138.80149759998312,138.80149759998312,138.80149759998312,139.09534410000197,139.09534410000197,140.30857180000748,140.30857180000748,140.30857180000748,140.30857180000748,140.30857180000748,140.30857180000748,140.30857180000748,140.30857180000748,140.30857180000748,140.30857180000748,140.30857180000748,140.30857180000748,140.30857180000748,140.30857180000748,140.30857180000748,140.30857180000748,140.30857180000748,142.81757139999536,142.81757139999536,142.81757139999536,142.81757139999536,142.81757139999536,42,66,50,36,66,33,7.0,2.1595992999791633,,,[],[],[],[],[],[],[],-0.6,3,,[],[],[],[],[],[],[],None,None,145.0019081000064,146.6077444999828,,,,,,,,,,,,,,,,,,,,,,,,,,,,248,f,18,2023-03-22_14h52.08.522,RL,2022.2.4,60.02872975568152,
1,-0.3,-0.225,0,4,4,4,,,,,,,,,,None,146.6077444999828,146.6077444999828,146.6077444999828,146.6077444999828,146.6077444999828,146.6077444999828,i,0.40756590000819415,147.04454709999845,147.04454709999845,147.04454709999845,147.04454709999845,147.04454709999845,147.04454709999845,147.33947549998993,147.33947549998993,149.15072469998267,149.15072469998267,149.16762560000643,149.16762560000643,149.16762560000643,149.16762560000643,149.16762560000643,149.16762560000643,149.16762560000643,149.16762560000643,149.16762560000643,149.16762560000643,149.16762560000643,149.16762560000643,149.16762560000643,149.16762560000643,149.16762560000643,,,,,,49,70,57,40,57,56,None,None,57,57,[0.004629629629629629],[-0.28888888888888886],[1],[0],[0],[7.734943499992369],['tijiao'],-0.6,0,,[],[],[],[],[],[],[],8.944444444444445,2.8787263999984134,162.33050340000773,163.87742679999792,,,,,,,,,,,159.4340186000045,159.4340186000045,159.4340186000045,159.4340186000045,151.67870630000834,151.67870630000834,151.67870630000834,151.67870630000834,151.67870630000834,151.67870630000834,151.67870630000834,151.67870630000834,0.006752199988113716,151.67870630000834,,,,248,f,18,2023-03-22_14h52.08.522,RL,2022.2.4,60.02872975568152,
0,0.3,0.225,0,5,5,5,,,,,,,,,,None,163.87742679999792,163.87742679999792,163.87742679999792,163.87742679999792,163.87742679999792,163.87742679999792,f,0.42983199999434873,164.3264525999839,164.3264525999839,164.3264525999839,164.3264525999839,164.3264525999839,164.3264525999839,164.6255278000026,164.6255278000026,166.5205222000077,166.5205222000077,166.5205222000077,166.5205222000077,166.5205222000077,166.5205222000077,166.5205222000077,166.5205222000077,166.5205222000077,166.5205222000077,166.5205222000077,166.5205222000077,166.5205222000077,166.5205222000077,166.5205222000077,166.5205222000077,166.5205222000077,169.0291322999983,169.0291322999983,169.0291322999983,169.0291322999983,169.0291322999983,50,76,63,42,76,34,7.0,3.190832499996759,,,[],[],[],[],[],[],[],0.6,2,,[],[],[],[],[],[],[],None,None,172.24704970000312,173.8835115999973,,,,,,,,,,,,,,,,,,,,,,,,,,,,248,f,18,2023-03-22_14h52.08.522,RL,2022.2.4,60.02872975568152,
1,-0.3,-0.225,0,6,6,6,,,,,,,,,,None,173.8835115999973,173.8835115999973,173.8835115999973,173.8835115999973,173.8835115999973,173.8835115999973,j,0.5756654000142589,174.4841327999893,174.4841327999893,174.4841327999893,174.4841327999893,174.4841327999893,174.4841327999893,174.78127879998647,174.78127879998647,176.5758971000032,176.5758971000032,176.5758971000032,176.5758971000032,176.5758971000032,176.5758971000032,176.5758971000032,176.5758971000032,176.5758971000032,176.5758971000032,176.5758971000032,176.5758971000032,176.5758971000032,176.5758971000032,176.5758971000032,176.5758971000032,176.5758971000032,179.08497409999836,179.08497409999836,179.08497409999836,179.08497409999836,179.08497409999836,46,81,66,46,46,57,3.0,2.9748465000011493,,,[],[],[],[],[],[],[],-0.2,2,,[],[],[],[],[],[],[],None,None,182.0838170000061,184.0219775000005,,,,,,,,,,,,,,,,,,,,,,,,,,,,248,f,18,2023-03-22_14h52.08.522,RL,2022.2.4,60.02872975568152,
0,0.3,0.225,0,7,7,7,,,,,,,,,,None,184.0219775000005,184.0219775000005,184.0219775000005,184.0219775000005,184.0219775000005,184.0219775000005,f,0.323505300009856,184.3735514,184.3735514,184.3735514,184.3735514,184.3735514,184.3735514,184.67094559999532,184.67094559999532,185.65137310000136,185.65137310000136,185.65137310000136,185.65137310000136,185.65137310000136,185.65137310000136,185.65137310000136,185.65137310000136,185.65137310000136,185.65137310000136,185.65137310000136,185.65137310000136,185.65137310000136,185.65137310000136,185.65137310000136,185.65137310000136,185.65137310000136,,,,,,49,72,65,45,72,48,None,None,70,70,[0.009259259259259259],[-0.29814814814814816],[1],[0],[0],[7.504410699999426],['tijiao'],-0.6,0,,[],[],[],[],[],[],[],8.935185185185185,4.455074900004547,200.16050830000313,201.80718360000174,,,,,,,,,,,195.68715139999404,195.68715139999404,195.68715139999404,195.68715139999404,188.1617583000043,188.1617583000043,188.1617583000043,188.1617583000043,188.1617583000043,188.1617583000043,188.1617583000043,188.1617583000043,0.0053696999966632575,188.1617583000043,,,,248,f,18,2023-03-22_14h52.08.522,RL,2022.2.4,60.02872975568152,
1,-0.3,-0.225,0,8,8,8,,,,,,,,,,None,201.80718360000174,201.80718360000174,201.80718360000174,201.80718360000174,201.80718360000174,201.80718360000174,f,0.4483567999850493,202.27282700000796,202.27282700000796,202.27282700000796,202.27282700000796,202.27282700000796,202.27282700000796,202.57196390000172,202.57196390000172,204.30087340000318,204.30087340000318,204.30087340000318,204.30087340000318,204.30087340000318,204.30087340000318,204.30087340000318,204.30087340000318,204.30087340000318,204.30087340000318,204.30087340000318,204.30087340000318,204.30087340000318,204.30087340000318,204.30087340000318,204.30087340000318,204.30087340000318,,,,,,58,68,58,46,68,30,None,None,68,68,"[-0.09722222222222222, -0.012037037037037037]","[-0.42407407407407405, -0.287962962962963]","[1, 1]","[0, 0]","[0, 0]","[8.68343500001356, 9.912972499994794]",['tijiao'],0.6,0,,[],[],[],[],[],[],[],8.916666666666668,2.112243999989005,218.87613329998567,220.87183160000131,,,,,,,,,,,216.7450370999868,216.7450370999868,216.7450370999868,216.7450370999868,206.8105316000001,206.8105316000001,206.8105316000001,206.8105316000001,206.8105316000001,206.8105316000001,206.8105316000001,206.8105316000001,0.005938900023465976,206.8105316000001,,,,248,f,18,2023-03-22_14h52.08.522,RL,2022.2.4,60.02872975568152,
0,0.3,0.225,0,9,9,9,,,,,,,,,,None,220.87183160000131,220.87183160000131,220.87183160000131,220.87183160000131,220.87183160000131,220.87183160000131,f,0.41791719998582266,221.32171729998663,221.32171729998663,221.32171729998663,221.32171729998663,221.32171729998663,221.32171729998663,221.61994750000304,221.61994750000304,222.716852499987,222.716852499987,222.716852499987,222.716852499987,222.716852499987,222.716852499987,222.716852499987,222.716852499987,222.716852499987,222.716852499987,222.716852499987,222.716852499987,222.716852499987,222.716852499987,222.716852499987,222.716852499987,222.716852499987,,,,,,53,74,45,56,74,68,None,None,,,[],[],[],[],[],[],[],-0.2,1,74,"[0.05648148148148148, 0.023148148148148147]","[-0.3611111111111111, -0.30462962962962964]","[1, 1]","[0, 0]","[0, 0]","[9.042905399983283, 11.46967299998505]",['tijiao_random_2'],11,4.3976565999910235,241.13210919999983,243.0611632000073,225.23360410000896,225.23360410000896,225.23360410000896,225.23360410000896,225.23360410000896,225.23360410000896,225.23360410000896,225.23360410000896,0.005697399989003316,225.23360410000896,236.71665930000017,236.71665930000017,236.71665930000017,236.71665930000017,,,,,,,,,,,,,,248,f,18,2023-03-22_14h52.08.522,RL,2022.2.4,60.02872975568152,
1,-0.3,-0.225,0,10,10,10,,,,,,,,,,None,243.0611632000073,243.0611632000073,243.0611632000073,243.0611632000073,243.0611632000073,243.0611632000073,i,0.44614139999612235,243.52687770000193,243.52687770000193,243.52687770000193,243.52687770000193,243.52687770000193,243.52687770000193,243.82611180000822,243.82611180000822,245.07302700000582,245.07302700000582,245.07302700000582,245.07302700000582,245.07302700000582,245.07302700000582,245.07302700000582,245.07302700000582,245.07302700000582,245.07302700000582,245.07302700000582,245.07302700000582,245.07302700000582,245.07302700000582,245.07302700000582,245.07302700000582,245.07302700000582,247.58138069999404,247.58138069999404,247.58138069999404,247.58138069999404,247.58138069999404,47,74,55,54,55,71,2.0,2.3594831000082195,,,[],[],[],[],[],[],[],0.2,3,,[],[],[],[],[],[],[],None,None,249.9668626000057,251.50472179998178,,,,,,,,,,,,,,,,,,,,,,,,,,,,248,f,18,2023-03-22_14h52.08.522,RL,2022.2.4,60.02872975568152,
0,0.3,0.225,0,11,11,11,,,,,,,,,,None,251.50472179998178,251.50472179998178,251.50472179998178,251.50472179998178,251.50472179998178,251.50472179998178,f,0.7614183999830857,252.2863437999913,252.2863437999913,252.2863437999913,252.2863437999913,252.2863437999913,252.2863437999913,252.58553979999851,252.58553979999851,254.0647847999935,254.0647847999935,254.0647847999935,254.0647847999935,254.0647847999935,254.0647847999935,254.0647847999935,254.0647847999935,254.0647847999935,254.0647847999935,254.0647847999935,254.0647847999935,254.0647847999935,254.0647847999935,254.0647847999935,254.0647847999935,254.0647847999935,256.573607600003,256.573607600003,256.573607600003,256.573607600003,256.573607600003,53,63,59,57,63,66,4.0,3.1909112999856006,,,[],[],[],[],[],[],[],0.2,3,,[],[],[],[],[],[],[],None,None,259.78952699998626,261.5275002999988,,,,,,,,,,,,,,,,,,,,,,,,,,,,248,f,18,2023-03-22_14h52.08.522,RL,2022.2.4,60.02872975568152,
1,-0.3,-0.225,0,12,12,12,,,,,,,,,,None,261.5275002999988,261.5275002999988,261.5275002999988,261.5275002999988,261.5275002999988,261.5275002999988,f,0.47012910002376884,262.02652710000984,262.02652710000984,262.02652710000984,262.02652710000984,262.02652710000984,262.02652710000984,262.3254842000024,262.3254842000024,263.60513310000533,263.60513310000533,263.60513310000533,263.60513310000533,263.60513310000533,263.60513310000533,263.60513310000533,263.60513310000533,263.60513310000533,263.60513310000533,263.60513310000533,263.60513310000533,263.60513310000533,263.60513310000533,263.60513310000533,263.60513310000533,263.60513310000533,,,,,,53,75,59,55,75,66,None,None,,,[],[],[],[],[],[],[],0.2,1,66,[-0.04259259259259259],[-0.2953703703703704],[1],[0],[0],[5.019746699981624],['tijiao_random_2'],11,1.7721212999895215,272.9453947999864,274.6582131999894,266.1227205999894,266.1227205999894,266.1227205999894,266.1227205999894,266.1227205999894,266.1227205999894,266.1227205999894,266.1227205999894,0.005807600013213232,266.1227205999894,271.1548377999861,271.1548377999861,271.1548377999861,271.1548377999861,,,,,,,,,,,,,,248,f,18,2023-03-22_14h52.08.522,RL,2022.2.4,60.02872975568152,
0,0.3,0.225,0,13,13,13,,,,,,,,,,None,274.6582131999894,274.6582131999894,274.6582131999894,274.6582131999894,274.6582131999894,274.6582131999894,f,0.44919060001848266,275.1428626999841,275.1428626999841,275.1428626999841,275.1428626999841,275.1428626999841,275.1428626999841,275.43952230000286,275.43952230000286,277.0519781000039,277.0519781000039,277.0519781000039,277.0519781000039,277.0519781000039,277.0519781000039,277.0519781000039,277.0519781000039,277.0519781000039,277.0519781000039,277.0519781000039,277.0519781000039,277.0519781000039,277.0519781000039,277.0519781000039,277.0519781000039,277.0519781000039,279.5609262000071,279.5609262000071,279.5609262000071,279.5609262000071,279.5609262000071,58,74,59,75,74,64,7.0,2.076880300010089,,,[],[],[],[],[],[],[],0.2,3,,[],[],[],[],[],[],[],None,None,281.6626036000089,283.20163769999635,,,,,,,,,,,,,,,,,,,,,,,,,,,,248,f,18,2023-03-22_14h52.08.522,RL,2022.2.4,60.02872975568152,
1,-0.3,-0.225,0,14,14,14,,,,,,,,,,None,283.20163769999635,283.20163769999635,283.20163769999635,283.20163769999635,283.20163769999635,283.20163769999635,i,0.5698313000029884,283.801077799988,283.801077799988,283.801077799988,283.801077799988,283.801077799988,283.801077799988,284.09950630000094,284.09950630000094,286.0110932000098,286.0110932000098,286.0110932000098,286.0110932000098,286.0110932000098,286.0110932000098,286.0110932000098,286.0110932000098,286.0110932000098,286.0110932000098,286.0110932000098,286.0110932000098,286.0110932000098,286.0110932000098,286.0110932000098,286.0110932000098,286.0110932000098,,,,,,53,77,67,72,67,52,None,None,,,[],[],[],[],[],[],[],0.2,1,67,[0.06388888888888888],[-0.287962962962963],[1],[0],[0],[3.439493500016397],['tijiao_random_2'],11,2.8525759000040125,294.85225450000144,296.6483417999989,288.5291523000051,288.5291523000051,288.5291523000051,288.5291523000051,288.5291523000051,288.5291523000051,288.5291523000051,288.5291523000051,0.006230400002095848,288.5291523000051,291.9809411999886,291.9809411999886,291.9809411999886,291.9809411999886,,,,,,,,,,,,,,248,f,18,2023-03-22_14h52.08.522,RL,2022.2.4,60.02872975568152,
0,0.3,0.225,0,15,15,15,,,,,,,,,,None,296.6483417999989,296.6483417999989,296.6483417999989,296.6483417999989,296.6483417999989,296.6483417999989,i,0.3623632999951951,297.0310109999846,297.0310109999846,297.0310109999846,297.0310109999846,297.0310109999846,297.0310109999846,297.3298028999998,297.3298028999998,298.1776011000038,298.1776011000038,298.1776011000038,298.1776011000038,298.1776011000038,298.1776011000038,298.1776011000038,298.1776011000038,298.1776011000038,298.1776011000038,298.1776011000038,298.1776011000038,298.1776011000038,298.1776011000038,298.1776011000038,298.1776011000038,298.1776011000038,300.6862359000079,300.6862359000079,300.6862359000079,300.6862359000079,300.6862359000079,57,69,64,76,64,67,7.0,1.8615248999849427,,,[],[],[],[],[],[],[],0.2,2,,[],[],[],[],[],[],[],None,None,302.571618099988,304.17772569999215,,,,,,,,,,,,,,,,,,,,,,,,,,,,248,f,18,2023-03-22_14h52.08.522,RL,2022.2.4,60.02872975568152,
1,-0.3,-0.225,0,16,16,16,,,,,,,,,,None,304.17772569999215,304.17772569999215,304.17772569999215,304.17772569999215,304.17772569999215,304.17772569999215,f,0.3713313000043854,304.57710190000944,304.57710190000944,304.57710190000944,304.57710190000944,304.57710190000944,304.57710190000944,304.8759132999985,304.8759132999985,305.9063576000044,305.9063576000044,305.9063576000044,305.9063576000044,305.9063576000044,305.9063576000044,305.9063576000044,305.9063576000044,305.9063576000044,305.9063576000044,305.9063576000044,305.9063576000044,305.9063576000044,305.9063576000044,305.9063576000044,305.9063576000044,305.9063576000044,,,,,,51,69,75,80,69,61,None,None,,,[],[],[],[],[],[],[],-0.6,1,55,[0.021296296296296296],[-0.2722222222222222],[1],[0],[0],[4.918637199996738],['tijiao_random_2'],7.953703703703704,3.1346767999930307,316.50970029999735,318.0398453999951,308.4255284999963,308.4255284999963,308.4255284999963,308.4255284999963,308.4255284999963,308.4255284999963,308.4255284999963,308.4255284999963,0.005781500018201768,308.4255284999963,313.3563400999992,313.3563400999992,313.3563400999992,313.3563400999992,,,,,,,,,,,,,,248,f,18,2023-03-22_14h52.08.522,RL,2022.2.4,60.02872975568152,
0,0.3,0.225,0,17,17,17,,,,,,,,,,None,318.0398453999951,318.0398453999951,318.0398453999951,318.0398453999951,318.0398453999951,318.0398453999951,f,0.33315290001337416,318.40625500000897,318.40625500000897,318.40625500000897,318.40625500000897,318.40625500000897,318.40625500000897,318.7051288000075,318.7051288000075,320.3173206000065,320.3173206000065,320.3173206000065,320.3173206000065,320.3173206000065,320.3173206000065,320.3173206000065,320.3173206000065,320.3173206000065,320.3173206000065,320.3173206000065,320.3173206000065,320.3173206000065,320.3173206000065,320.3173206000065,320.3173206000065,320.3173206000065,322.82652539998526,322.82652539998526,322.82652539998526,322.82652539998526,322.82652539998526,55,71,65,76,71,62,7.0,2.6415132000111043,,,[],[],[],[],[],[],[],0.6,2,,[],[],[],[],[],[],[],None,None,325.49369339999976,327.3478390999953,,,,,,,,,,,,,,,,,,,,,,,,,,,,248,f,18,2023-03-22_14h52.08.522,RL,2022.2.4,60.02872975568152,
1,-0.3,-0.225,0,18,18,18,,,,,,,,,,None,327.3478390999953,327.3478390999953,327.3478390999953,327.3478390999953,327.3478390999953,327.3478390999953,f,0.43408849998377264,327.81366079999134,327.81366079999134,327.81366079999134,327.81366079999134,327.81366079999134,327.81366079999134,328.1128914000001,328.1128914000001,329.7250594999932,329.7250594999932,329.7250594999932,329.7250594999932,329.7250594999932,329.7250594999932,329.7250594999932,329.7250594999932,329.7250594999932,329.7250594999932,329.7250594999932,329.7250594999932,329.7250594999932,329.7250594999932,329.7250594999932,329.7250594999932,329.7250594999932,332.2336675999977,332.2336675999977,332.2336675999977,332.2336675999977,332.2336675999977,57,71,76,71,71,59,7.0,1.8774673999869265,,,[],[],[],[],[],[],[],-0.2,3,,[],[],[],[],[],[],[],None,None,334.1372846000013,336.0242346999876,,,,,,,,,,,,,,,,,,,,,,,,,,,,248,f,18,2023-03-22_14h52.08.522,RL,2022.2.4,60.02872975568152,
0,0.3,0.225,0,19,19,19,,,,,,,,,,None,336.0242346999876,336.0242346999876,336.0242346999876,336.0242346999876,336.0242346999876,336.0242346999876,f,0.4407484999974258,336.48986709999735,336.48986709999735,336.48986709999735,336.48986709999735,336.48986709999735,336.48986709999735,336.7890933000017,336.7890933000017,338.1517108999833,338.1517108999833,338.1517108999833,338.1517108999833,338.1517108999833,338.1517108999833,338.1517108999833,338.1517108999833,338.1517108999833,338.1517108999833,338.1517108999833,338.1517108999833,338.1517108999833,338.1517108999833,338.1517108999833,338.1517108999833,338.1517108999833,340.6611894000089,340.6611894000089,340.6611894000089,340.6611894000089,340.6611894000089,60,69,67,80,69,47,7.0,1.8611049000173807,,,[],[],[],[],[],[],[],0.2,2,,[],[],[],[],[],[],[],None,None,342.5462816999934,344.1853256000031,,,,,,,,,,,,,,,,,,,,,,,,,,,,248,f,18,2023-03-22_14h52.08.522,RL,2022.2.4,60.02872975568152,
1,-0.3,-0.225,0,20,20,20,,,,,,,,,,None,344.1853256000031,344.1853256000031,344.1853256000031,344.1853256000031,344.1853256000031,344.1853256000031,i,0.6425614000181668,344.8503761999891,344.8503761999891,344.8503761999891,344.8503761999891,344.8503761999891,344.8503761999891,345.14932559998124,345.14932559998124,346.08032330000424,346.08032330000424,346.0969822999905,346.0969822999905,346.0969822999905,346.0969822999905,346.0969822999905,346.0969822999905,346.0969822999905,346.0969822999905,346.0969822999905,346.0969822999905,346.0969822999905,346.0969822999905,346.0969822999905,346.0969822999905,346.0969822999905,,,,,,68,72,65,79,65,35,None,None,65,65,[0.014814814814814815],[-0.27870370370370373],[1],[0],[0],[7.902084700006526],['tijiao'],-0.6,0,,[],[],[],[],[],[],[],9.935185185185187,3.143187499983469,359.6919676999969,361.58769230000325,,,,,,,,,,,356.52987239998765,356.52987239998765,356.52987239998765,356.52987239998765,348.6077079999959,348.6077079999959,348.6077079999959,348.6077079999959,348.6077079999959,348.6077079999959,348.6077079999959,348.6077079999959,0.006102000013925135,348.6077079999959,,,,248,f,18,2023-03-22_14h52.08.522,RL,2022.2.4,60.02872975568152,
0,0.3,0.225,0,21,21,21,,,,,,,,,,None,361.58769230000325,361.58769230000325,361.58769230000325,361.58769230000325,361.58769230000325,361.58769230000325,i,0.38192380001419224,361.9870028999867,361.9870028999867,361.9870028999867,361.9870028999867,361.9870028999867,361.9870028999867,362.28611519999686,362.28611519999686,363.46626139999717,363.46626139999717,363.46626139999717,363.46626139999717,363.46626139999717,363.46626139999717,363.46626139999717,363.46626139999717,363.46626139999717,363.46626139999717,363.46626139999717,363.46626139999717,363.46626139999717,363.46626139999717,363.46626139999717,363.46626139999717,363.46626139999717,365.97534169998835,365.97534169998835,365.97534169998835,365.97534169998835,365.97534169998835,62,68,69,69,69,46,7.0,1.9442333999904804,,,[],[],[],[],[],[],[],-0.2,3,,[],[],[],[],[],[],[],None,None,367.9439034999814,369.6321973000013,,,,,,,,,,,,,,,,,,,,,,,,,,,,248,f,18,2023-03-22_14h52.08.522,RL,2022.2.4,60.02872975568152,
1,-0.3,-0.225,0,22,22,22,,,,,,,,,,None,369.6321973000013,369.6321973000013,369.6321973000013,369.6321973000013,369.6321973000013,369.6321973000013,f,0.3411750000086613,369.99848969999584,369.99848969999584,369.99848969999584,369.99848969999584,369.99848969999584,369.99848969999584,370.29762080000364,370.29762080000364,372.24231780000264,372.24231780000264,372.24231780000264,372.24231780000264,372.24231780000264,372.24231780000264,372.24231780000264,372.24231780000264,372.24231780000264,372.24231780000264,372.24231780000264,372.24231780000264,372.24231780000264,372.24231780000264,372.24231780000264,372.24231780000264,372.24231780000264,,,,,,67,71,65,63,71,41,None,None,70,70,[0.05740740740740741],[-0.33240740740740743],[1],[0],[0],[4.760680700012017],['tijiao'],0.6,0,,[],[],[],[],[],[],[],9.722222222222221,3.457604800001718,383.01157100001,384.6250424000027,,,,,,,,,,,379.53500289999647,379.53500289999647,379.53500289999647,379.53500289999647,374.7524219999905,374.7524219999905,374.7524219999905,374.7524219999905,374.7524219999905,374.7524219999905,374.7524219999905,374.7524219999905,0.005774900026153773,374.7524219999905,,,,248,f,18,2023-03-22_14h52.08.522,RL,2022.2.4,60.02872975568152,
0,0.3,0.225,0,23,23,23,,,,,,,,,,None,384.6250424000027,384.6250424000027,384.6250424000027,384.6250424000027,384.6250424000027,384.6250424000027,f,0.46212240000022575,385.1071760999912,385.1071760999912,385.1071760999912,385.1071760999912,385.1071760999912,385.1071760999912,385.4065278999915,385.4065278999915,386.4700199000072,386.4700199000072,386.4700199000072,386.4700199000072,386.4700199000072,386.4700199000072,386.4700199000072,386.4700199000072,386.4700199000072,386.4700199000072,386.4700199000072,386.4700199000072,386.4700199000072,386.4700199000072,386.4700199000072,386.4700199000072,386.4700199000072,388.9790275999985,388.9790275999985,388.9790275999985,388.9790275999985,388.9790275999985,51,70,63,76,70,44,7.0,1.4782538000144996,,,[],[],[],[],[],[],[],-0.2,3,,[],[],[],[],[],[],[],None,None,390.4822656000033,392.0712444999954,,,,,,,,,,,,,,,,,,,,,,,,,,,,248,f,18,2023-03-22_14h52.08.522,RL,2022.2.4,60.02872975568152,
1,-0.3,-0.225,0,24,24,24,,,,,,,,,,None,392.0712444999954,392.0712444999954,392.0712444999954,392.0712444999954,392.0712444999954,392.0712444999954,j,0.3757767000060994,392.4705144999898,392.4705144999898,392.4705144999898,392.4705144999898,392.4705144999898,392.4705144999898,392.76962869998533,392.76962869998533,394.06604810000863,394.06604810000863,394.06604810000863,394.06604810000863,394.06604810000863,394.06604810000863,394.06604810000863,394.06604810000863,394.06604810000863,394.06604810000863,394.06604810000863,394.06604810000863,394.06604810000863,394.06604810000863,394.06604810000863,394.06604810000863,394.06604810000863,396.5752181999851,396.5752181999851,396.5752181999851,396.5752181999851,396.5752181999851,51,72,75,67,67,52,7.0,1.4122763999912422,,,[],[],[],[],[],[],[],0.6,2,,[],[],[],[],[],[],[],None,None,398.01092689999496,399.61732190000475,,,,,,,,,,,,,,,,,,,,,,,,,,,,248,f,18,2023-03-22_14h52.08.522,RL,2022.2.4,60.02872975568152,
0,0.3,0.225,0,25,25,25,,,,,,,,,,None,399.61732190000475,399.61732190000475,399.61732190000475,399.61732190000475,399.61732190000475,399.61732190000475,r,0.5036469000042416,400.1495510000095,400.1495510000095,400.1495510000095,400.1495510000095,400.1495510000095,400.1495510000095,400.4488641000062,400.4488641000062,401.9779430000053,401.9779430000053,401.9779430000053,401.9779430000053,401.9779430000053,401.9779430000053,401.9779430000053,401.9779430000053,401.9779430000053,401.9779430000053,401.9779430000053,401.9779430000053,401.9779430000053,401.9779430000053,401.9779430000053,401.9779430000053,401.9779430000053,,,,,,55,60,71,75,55,58,None,None,55,55,[-0.012962962962962963],[-0.2824074074074074],[1],[0],[0],[4.578987999993842],['tijiao'],0.2,0,,[],[],[],[],[],[],[],6.018518518518519,3.325419200002216,412.43145319999894,414.19426059999387,,,,,,,,,,,409.08711980000953,409.08711980000953,409.08711980000953,409.08711980000953,404.4879218999995,404.4879218999995,404.4879218999995,404.4879218999995,404.4879218999995,404.4879218999995,404.4879218999995,404.4879218999995,0.005422600021120161,404.4879218999995,,,,248,f,18,2023-03-22_14h52.08.522,RL,2022.2.4,60.02872975568152,
1,-0.3,-0.225,0,26,26,26,,,,,,,,,,None,414.19426059999387,414.19426059999387,414.19426059999387,414.19426059999387,414.19426059999387,414.19426059999387,i,0.39021119999233633,414.60999500000617,414.60999500000617,414.60999500000617,414.60999500000617,414.60999500000617,414.60999500000617,414.90928520000307,414.90928520000307,416.23862749998807,416.23862749998807,416.23862749998807,416.23862749998807,416.23862749998807,416.23862749998807,416.23862749998807,416.23862749998807,416.23862749998807,416.23862749998807,416.23862749998807,416.23862749998807,416.23862749998807,416.23862749998807,416.23862749998807,416.23862749998807,416.23862749998807,418.74802599998657,418.74802599998657,418.74802599998657,418.74802599998657,418.74802599998657,45,64,68,81,68,48,6.0,3.207310400001006,,,[],[],[],[],[],[],[],-0.2,3,,[],[],[],[],[],[],[],None,None,421.9796102999826,423.78471269999864,,,,,,,,,,,,,,,,,,,,,,,,,,,,248,f,18,2023-03-22_14h52.08.522,RL,2022.2.4,60.02872975568152,
0,0.3,0.225,0,27,27,27,,,,,,,,,,None,423.78471269999864,423.78471269999864,423.78471269999864,423.78471269999864,423.78471269999864,423.78471269999864,f,0.317153000010876,424.134075399983,424.134075399983,424.134075399983,424.134075399983,424.134075399983,424.134075399983,424.43330849998165,424.43330849998165,425.8127938999969,425.8127938999969,425.8127938999969,425.8127938999969,425.8127938999969,425.8127938999969,425.8127938999969,425.8127938999969,425.8127938999969,425.8127938999969,425.8127938999969,425.8127938999969,425.8127938999969,425.8127938999969,425.8127938999969,425.8127938999969,425.8127938999969,428.3215276999981,428.3215276999981,428.3215276999981,428.3215276999981,428.3215276999981,51,64,74,69,64,37,7.0,2.0272742999950424,,,[],[],[],[],[],[],[],-0.2,2,,[],[],[],[],[],[],[],None,None,430.3763932999864,432.2783832999994,,,,,,,,,,,,,,,,,,,,,,,,,,,,248,f,18,2023-03-22_14h52.08.522,RL,2022.2.4,60.02872975568152,
1,-0.3,-0.225,0,28,28,28,,,,,,,,,,None,432.2783832999994,432.2783832999994,432.2783832999994,432.2783832999994,432.2783832999994,432.2783832999994,f,0.4278982999967411,432.72747019998496,432.72747019998496,432.72747019998496,432.72747019998496,432.72747019998496,432.72747019998496,433.0264961000066,433.0264961000066,434.3391440999985,434.3391440999985,434.3391440999985,434.3391440999985,434.3391440999985,434.3391440999985,434.3391440999985,434.3391440999985,434.3391440999985,434.3391440999985,434.3391440999985,434.3391440999985,434.3391440999985,434.3391440999985,434.3391440999985,434.3391440999985,434.3391440999985,,,,,,49,75,72,75,75,58,None,None,70,70,[-0.028703703703703703],[-0.25092592592592594],[1],[0],[0],[3.681120099994587],['tijiao'],0.6,0,,[],[],[],[],[],[],[],10.972222222222221,2.4290693999791984,442.99784979998367,444.7273406999884,,,,,,,,,,,440.552016600006,440.552016600006,440.552016600006,440.552016600006,436.8496569999843,436.8496569999843,436.8496569999843,436.8496569999843,436.8496569999843,436.8496569999843,436.8496569999843,436.8496569999843,0.0056121999805327505,436.8496569999843,,,,248,f,18,2023-03-22_14h52.08.522,RL,2022.2.4,60.02872975568152,
0,0.3,0.225,0,29,29,29,,,,,,,,,,None,444.7273406999884,444.7273406999884,444.7273406999884,444.7273406999884,444.7273406999884,444.7273406999884,f,0.35336770000867546,445.1121662000078,445.1121662000078,445.1121662000078,445.1121662000078,445.1121662000078,445.1121662000078,445.40939179999987,445.40939179999987,446.5229619999882,446.5229619999882,446.5229619999882,446.5229619999882,446.5229619999882,446.5229619999882,446.5229619999882,446.5229619999882,446.5229619999882,446.5229619999882,446.5229619999882,446.5229619999882,446.5229619999882,446.5229619999882,446.5229619999882,446.5229619999882,446.5229619999882,449.0317940999812,449.0317940999812,449.0317940999812,449.0317940999812,449.0317940999812,48,69,81,67,69,62,7.0,3.007945999997901,,,[],[],[],[],[],[],[],-0.6,2,,[],[],[],[],[],[],[],None,None,452.06580350000877,453.66954139998415,,,,,,,,,,,,,,,,,,,,,,,,,,,,248,f,18,2023-03-22_14h52.08.522,RL,2022.2.4,60.02872975568152,
1,-0.3,-0.225,0,30,30,30,,,,,,,,,,None,453.66954139998415,453.66954139998415,453.66954139998415,453.66954139998415,453.66954139998415,453.66954139998415,i,0.3939795999904163,454.0856940000085,454.0856940000085,454.0856940000085,454.0856940000085,454.0856940000085,454.0856940000085,454.3849838000024,454.3849838000024,455.29895269998815,455.29895269998815,455.29895269998815,455.29895269998815,455.29895269998815,455.29895269998815,455.29895269998815,455.29895269998815,455.29895269998815,455.29895269998815,455.29895269998815,455.29895269998815,455.29895269998815,455.29895269998815,455.29895269998815,455.29895269998815,455.29895269998815,,,,,,54,67,72,75,72,46,None,None,75,75,[-0.08425925925925926],[-0.3388888888888889],[1],[0],[0],[8.102856199984672],['tijiao'],0.6,0,,[],[],[],[],[],[],[],8.824074074074074,3.3740717000036966,469.3260978999897,471.02258570000413,,,,,,,,,,,465.93298280000454,465.93298280000454,465.93298280000454,465.93298280000454,457.80924199998844,457.80924199998844,457.80924199998844,457.80924199998844,457.80924199998844,457.80924199998844,457.80924199998844,457.80924199998844,0.0052186000102665275,457.80924199998844,,,,248,f,18,2023-03-22_14h52.08.522,RL,2022.2.4,60.02872975568152,
0,0.3,0.225,0,31,31,31,,,,,,,,,,None,471.02258570000413,471.02258570000413,471.02258570000413,471.02258570000413,471.02258570000413,471.02258570000413,i,0.38282450000406243,471.4397413999832,471.4397413999832,471.4397413999832,471.4397413999832,471.4397413999832,471.4397413999832,471.7374361999973,471.7374361999973,473.01746209998964,473.01746209998964,473.01746209998964,473.01746209998964,473.01746209998964,473.01746209998964,473.01746209998964,473.01746209998964,473.01746209998964,473.01746209998964,473.01746209998964,473.01746209998964,473.01746209998964,473.01746209998964,473.01746209998964,473.01746209998964,473.01746209998964,475.52648539998336,475.52648539998336,475.52648539998336,475.52648539998336,475.52648539998336,53,69,76,69,76,45,7.0,2.3096516999939922,,,[],[],[],[],[],[],[],0.2,2,,[],[],[],[],[],[],[],None,None,477.8617503999849,479.79864349999116,,,,,,,,,,,,,,,,,,,,,,,,,,,,248,f,18,2023-03-22_14h52.08.522,RL,2022.2.4,60.02872975568152,
1,-0.3,-0.225,0,32,32,32,,,,,,,,,,None,479.79864349999116,479.79864349999116,479.79864349999116,479.79864349999116,479.79864349999116,479.79864349999116,i,0.4803721999924164,480.2975344999868,480.2975344999868,480.2975344999868,480.2975344999868,480.2975344999868,480.2975344999868,480.5967202000029,480.5967202000029,482.4910380000074,482.4910380000074,482.4910380000074,482.4910380000074,482.4910380000074,482.4910380000074,482.4910380000074,482.4910380000074,482.4910380000074,482.4910380000074,482.4910380000074,482.4910380000074,482.4910380000074,482.4910380000074,482.4910380000074,482.4910380000074,482.4910380000074,,,,,,59,68,72,71,72,44,None,None,,,[],[],[],[],[],[],[],-0.6,1,50,"[0.06388888888888888, 0.007407407407407408]","[-0.24537037037037038, -0.2675925925925926]","[1, 0]","[0, 0]","[0, 1]","[6.216230000020005, 8.177364900009707]",['tijiao_random_2'],6.851851851851851,2.053039299993543,495.27188300000853,496.88494789999095,485.0089139000047,485.0089139000047,485.0089139000047,485.0089139000047,485.0089139000047,485.0089139000047,485.0089139000047,485.0089139000047,0.0055108000233303756,485.0089139000047,493.2014949999866,493.2014949999866,493.2014949999866,493.2014949999866,,,,,,,,,,,,,,248,f,18,2023-03-22_14h52.08.522,RL,2022.2.4,60.02872975568152,
0,0.3,0.225,0,33,33,33,,,,,,,,,,None,496.88494789999095,496.88494789999095,496.88494789999095,496.88494789999095,496.88494789999095,496.88494789999095,j,0.41640399998868816,497.3346826999914,497.3346826999914,497.3346826999914,497.3346826999914,497.3346826999914,497.3346826999914,497.6334780000034,497.6334780000034,498.5475647999847,498.5475647999847,498.5475647999847,498.5475647999847,498.5475647999847,498.5475647999847,498.5475647999847,498.5475647999847,498.5475647999847,498.5475647999847,498.5475647999847,498.5475647999847,498.5475647999847,498.5475647999847,498.5475647999847,498.5475647999847,498.5475647999847,,,,,,58,62,68,70,70,48,None,None,,,[],[],[],[],[],[],[],-0.6,1,50,[0.001851851851851852],[-0.28703703703703703],[1],[0],[0],[3.6885843999916688],['tijiao_random_2'],4.842592592592593,2.636502899986226,507.42206660000375,508.93532679998316,501.06581539998297,501.06581539998297,501.06581539998297,501.06581539998297,501.06581539998297,501.06581539998297,501.06581539998297,501.06581539998297,0.005895599984796718,501.06581539998297,504.7670170000056,504.7670170000056,504.7670170000056,504.7670170000056,,,,,,,,,,,,,,248,f,18,2023-03-22_14h52.08.522,RL,2022.2.4,60.02872975568152,
1,-0.3,-0.225,0,34,34,34,,,,,,,,,,None,508.93532679998316,508.93532679998316,508.93532679998316,508.93532679998316,508.93532679998316,508.93532679998316,r,0.38755159999709576,509.3515119999938,509.3515119999938,509.3515119999938,509.3515119999938,509.3515119999938,509.3515119999938,509.6508154000039,509.6508154000039,510.68117319999146,510.68117319999146,510.69743749999907,510.69743749999907,510.69743749999907,510.69743749999907,510.69743749999907,510.69743749999907,510.69743749999907,510.69743749999907,510.69743749999907,510.69743749999907,510.69743749999907,510.69743749999907,510.69743749999907,510.69743749999907,510.69743749999907,,,,,,58,73,70,74,58,37,None,None,55,55,[-0.07314814814814814],[-0.29814814814814816],[1],[0],[0],[7.021185099991271],['tijiao'],-0.2,0,,[],[],[],[],[],[],[],4.768518518518519,2.695978000003379,522.9629877999832,524.7257148000062,,,,,,,,,,,520.2482126999821,520.2482126999821,520.2482126999821,520.2482126999821,513.2079939999967,513.2079939999967,513.2079939999967,513.2079939999967,513.2079939999967,513.2079939999967,513.2079939999967,513.2079939999967,0.005356899986509234,513.2079939999967,,,,248,f,18,2023-03-22_14h52.08.522,RL,2022.2.4,60.02872975568152,
0,0.3,0.225,0,35,35,35,,,,,,,,,,None,524.7257148000062,524.7257148000062,524.7257148000062,524.7257148000062,524.7257148000062,524.7257148000062,j,0.4950937000103295,525.2414497999998,525.2414497999998,525.2414497999998,525.2414497999998,525.2414497999998,525.2414497999998,525.5407637000026,525.5407637000026,526.6709737000056,526.6709737000056,526.6709737000056,526.6709737000056,526.6709737000056,526.6709737000056,526.6709737000056,526.6709737000056,526.6709737000056,526.6709737000056,526.6709737000056,526.6709737000056,526.6709737000056,526.6709737000056,526.6709737000056,526.6709737000056,526.6709737000056,529.1797468999866,529.1797468999866,529.1797468999866,529.1797468999866,529.1797468999866,60,64,63,65,65,71,3.0,2.2926783000002615,,,[],[],[],[],[],[],[],-0.6,2,,[],[],[],[],[],[],[],None,None,531.4965335000015,533.5021650999843,,,,,,,,,,,,,,,,,,,,,,,,,,,,248,f,18,2023-03-22_14h52.08.522,RL,2022.2.4,60.02872975568152,
1,-0.3,-0.225,0,36,36,36,,,,,,,,,,None,533.5021650999843,533.5021650999843,533.5021650999843,533.5021650999843,533.5021650999843,533.5021650999843,f,0.39674700002069585,533.917752999987,533.917752999987,533.917752999987,533.917752999987,533.917752999987,533.917752999987,534.2170864999935,534.2170864999935,535.4967739999993,535.4967739999993,535.4967739999993,535.4967739999993,535.4967739999993,535.4967739999993,535.4967739999993,535.4967739999993,535.4967739999993,535.4967739999993,535.4967739999993,535.4967739999993,535.4967739999993,535.4967739999993,535.4967739999993,535.4967739999993,535.4967739999993,538.0060137999826,538.0060137999826,538.0060137999826,538.0060137999826,538.0060137999826,61,63,73,63,63,27,7.0,2.8247528000210878,,,[],[],[],[],[],[],[],0.2,3,,[],[],[],[],[],[],[],None,None,540.8576476000017,542.6604203000024,,,,,,,,,,,,,,,,,,,,,,,,,,,,248,f,18,2023-03-22_14h52.08.522,RL,2022.2.4,60.02872975568152,
0,0.3,0.225,0,37,37,37,,,,,,,,,,None,542.6604203000024,542.6604203000024,542.6604203000024,542.6604203000024,542.6604203000024,542.6604203000024,f,0.49681300000520423,543.1763884999964,543.1763884999964,543.1763884999964,543.1763884999964,543.1763884999964,543.1763884999964,543.475220399996,543.475220399996,545.2532367999956,545.2532367999956,545.2532367999956,545.2532367999956,545.2532367999956,545.2532367999956,545.2532367999956,545.2532367999956,545.2532367999956,545.2532367999956,545.2532367999956,545.2532367999956,545.2532367999956,545.2532367999956,545.2532367999956,545.2532367999956,545.2532367999956,547.7624829999986,547.7624829999986,547.7624829999986,547.7624829999986,547.7624829999986,66,60,63,64,60,63,3.0,3.622143899992807,,,[],[],[],[],[],[],[],-0.2,3,,[],[],[],[],[],[],[],None,None,551.4096070000087,553.2643500999839,,,,,,,,,,,,,,,,,,,,,,,,,,,,248,f,18,2023-03-22_14h52.08.522,RL,2022.2.4,60.02872975568152,
1,-0.3,-0.225,0,38,38,38,,,,,,,,,,None,553.2643500999839,553.2643500999839,553.2643500999839,553.2643500999839,553.2643500999839,553.2643500999839,i,0.40568350002286024,553.697130799992,553.697130799992,553.697130799992,553.697130799992,553.697130799992,553.697130799992,553.9962515000079,553.9962515000079,555.3424146999896,555.3424146999896,555.3424146999896,555.3424146999896,555.3424146999896,555.3424146999896,555.3424146999896,555.3424146999896,555.3424146999896,555.3424146999896,555.3424146999896,555.3424146999896,555.3424146999896,555.3424146999896,555.3424146999896,555.3424146999896,555.3424146999896,,,,,,67,67,54,69,54,69,None,None,,,[],[],[],[],[],[],[],-0.6,1,45,[-0.012962962962962963],[-0.28425925925925927],[1],[0],[0],[6.248239900014596],['tijiao_random_2'],3.8611111111111107,5.163600800005952,569.3032119999989,571.0494353999966,557.8597403999884,557.8597403999884,557.8597403999884,557.8597403999884,557.8597403999884,557.8597403999884,557.8597403999884,557.8597403999884,0.005863800004590303,557.8597403999884,564.1206822999811,564.1206822999811,564.1206822999811,564.1206822999811,,,,,,,,,,,,,,248,f,18,2023-03-22_14h52.08.522,RL,2022.2.4,60.02872975568152,
0,0.3,0.225,0,39,39,39,,,,,,,,,,None,571.0494353999966,571.0494353999966,571.0494353999966,571.0494353999966,571.0494353999966,571.0494353999966,j,0.35214649999397807,571.4324216000095,571.4324216000095,571.4324216000095,571.4324216000095,571.4324216000095,571.4324216000095,571.7308955999906,571.7308955999906,573.2936423000065,573.2936423000065,573.2936423000065,573.2936423000065,573.2936423000065,573.2936423000065,573.2936423000065,573.2936423000065,573.2936423000065,573.2936423000065,573.2936423000065,573.2936423000065,573.2936423000065,573.2936423000065,573.2936423000065,573.2936423000065,573.2936423000065,,,,,,72,71,52,69,69,38,None,None,65,65,[0.03333333333333333],[-0.3277777777777778],[1],[0],[0],[4.030102199991234],['tijiao'],0.2,0,,[],[],[],[],[],[],[],8.046296296296296,2.694876199995633,582.5670561000006,584.114006799995,,,,,,,,,,,579.8534481000097,579.8534481000097,579.8534481000097,579.8534481000097,575.8039243000094,575.8039243000094,575.8039243000094,575.8039243000094,575.8039243000094,575.8039243000094,575.8039243000094,575.8039243000094,0.005416600004537031,575.8039243000094,,,,248,f,18,2023-03-22_14h52.08.522,RL,2022.2.4,60.02872975568152,
1,-0.3,-0.225,0,40,40,40,,,,,,,,,,None,584.114006799995,584.114006799995,584.114006799995,584.114006799995,584.114006799995,584.114006799995,i,0.363200699997833,584.496622799983,584.496622799983,584.496622799983,584.496622799983,584.496622799983,584.496622799983,584.7955702999898,584.7955702999898,586.3911826999974,586.3911826999974,586.3911826999974,586.3911826999974,586.3911826999974,586.3911826999974,586.3911826999974,586.3911826999974,586.3911826999974,586.3911826999974,586.3911826999974,586.3911826999974,586.3911826999974,586.3911826999974,586.3911826999974,586.3911826999974,586.3911826999974,,,,,,72,66,50,69,50,60,None,None,50,50,"[-0.009259259259259259, 0.008333333333333333]","[-0.38981481481481484, -0.2574074074074074]","[1, 1]","[0, 0]","[0, 0]","[5.55903770000441, 6.655894000025]",['tijiao'],-0.2,0,,[],[],[],[],[],[],[],4.898148148148149,3.059981800004607,598.6565188000095,600.6355045000091,,,,,,,,,,,595.577592799993,595.577592799993,595.577592799993,595.577592799993,588.9015172999934,588.9015172999934,588.9015172999934,588.9015172999934,588.9015172999934,588.9015172999934,588.9015172999934,588.9015172999934,0.0056124999828170985,588.9015172999934,,,,248,f,18,2023-03-22_14h52.08.522,RL,2022.2.4,60.02872975568152,
0,0.3,0.225,0,41,41,41,,,,,,,,,,None,600.6355045000091,600.6355045000091,600.6355045000091,600.6355045000091,600.6355045000091,600.6355045000091,f,0.37048690000665374,601.0347246000019,601.0347246000019,601.0347246000019,601.0347246000019,601.0347246000019,601.0347246000019,601.3335593999946,601.3335593999946,602.2643285999948,602.2643285999948,602.2643285999948,602.2643285999948,602.2643285999948,602.2643285999948,602.2643285999948,602.2643285999948,602.2643285999948,602.2643285999948,602.2643285999948,602.2643285999948,602.2643285999948,602.2643285999948,602.2643285999948,602.2643285999948,602.2643285999948,604.7736414000101,604.7736414000101,604.7736414000101,604.7736414000101,604.7736414000101,73,61,51,60,61,49,7.0,2.309471600019606,,,[],[],[],[],[],[],[],-0.2,3,,[],[],[],[],[],[],[],None,None,607.1079257999954,608.9794341000088,,,,,,,,,,,,,,,,,,,,,,,,,,,,248,f,18,2023-03-22_14h52.08.522,RL,2022.2.4,60.02872975568152,
1,-0.3,-0.225,0,42,42,42,,,,,,,,,,None,608.9794341000088,608.9794341000088,608.9794341000088,608.9794341000088,608.9794341000088,608.9794341000088,i,0.24629260000074282,609.2472884999879,609.2472884999879,609.2472884999879,609.2472884999879,609.2472884999879,609.2472884999879,609.5447807000019,609.5447807000019,610.8411693999951,610.8411693999951,610.8411693999951,610.8411693999951,610.8411693999951,610.8411693999951,610.8411693999951,610.8411693999951,610.8411693999951,610.8411693999951,610.8411693999951,610.8411693999951,610.8411693999951,610.8411693999951,610.8411693999951,610.8411693999951,610.8411693999951,,,,,,64,72,46,64,46,50,None,None,45,45,[0.16944444444444445],[-0.2638888888888889],[1],[0],[0],[5.758692100003827],['tijiao'],-0.6,0,,[],[],[],[],[],[],[],6.018518518518519,2.2796069999749307,621.4276571999944,623.4232368000085,,,,,,,,,,,619.1291560999816,619.1291560999816,619.1291560999816,619.1291560999816,613.3513027000008,613.3513027000008,613.3513027000008,613.3513027000008,613.3513027000008,613.3513027000008,613.3513027000008,613.3513027000008,0.005574700015131384,613.3513027000008,,,,248,f,18,2023-03-22_14h52.08.522,RL,2022.2.4,60.02872975568152,
0,0.3,0.225,0,43,43,43,,,,,,,,,,None,623.4232368000085,623.4232368000085,623.4232368000085,623.4232368000085,623.4232368000085,623.4232368000085,j,0.3870061000052374,623.839582399989,623.839582399989,623.839582399989,623.839582399989,623.839582399989,623.839582399989,624.1379524999938,624.1379524999938,626.1158234000031,626.1158234000031,626.1158234000031,626.1158234000031,626.1158234000031,626.1158234000031,626.1158234000031,626.1158234000031,626.1158234000031,626.1158234000031,626.1158234000031,626.1158234000031,626.1158234000031,626.1158234000031,626.1158234000031,626.1158234000031,626.1158234000031,628.6252875000064,628.6252875000064,628.6252875000064,628.6252875000064,628.6252875000064,71,67,52,64,64,63,7.0,2.0763756999804173,,,[],[],[],[],[],[],[],-0.6,2,,[],[],[],[],[],[],[],None,None,630.7258666999987,632.2326897000021,,,,,,,,,,,,,,,,,,,,,,,,,,,,248,f,18,2023-03-22_14h52.08.522,RL,2022.2.4,60.02872975568152,
1,-0.3,-0.225,0,44,44,44,,,,,,,,,,None,632.2326897000021,632.2326897000021,632.2326897000021,632.2326897000021,632.2326897000021,632.2326897000021,f,0.8704625999962445,633.1306121000089,633.1306121000089,633.1306121000089,633.1306121000089,633.1306121000089,633.1306121000089,633.4294683999906,633.4294683999906,635.4405084000027,635.4405084000027,635.4405084000027,635.4405084000027,635.4405084000027,635.4405084000027,635.4405084000027,635.4405084000027,635.4405084000027,635.4405084000027,635.4405084000027,635.4405084000027,635.4405084000027,635.4405084000027,635.4405084000027,635.4405084000027,635.4405084000027,637.9499955000065,637.9499955000065,637.9499955000065,637.9499955000065,637.9499955000065,64,70,52,66,70,52,7.0,2.3592658000125084,,,[],[],[],[],[],[],[],0.6,2,,[],[],[],[],[],[],[],None,None,640.3335385999817,642.221773199999,,,,,,,,,,,,,,,,,,,,,,,,,,,,248,f,18,2023-03-22_14h52.08.522,RL,2022.2.4,60.02872975568152,
0,0.3,0.225,0,45,45,45,,,,,,,,,,None,642.221773199999,642.221773199999,642.221773199999,642.221773199999,642.221773199999,642.221773199999,f,0.6449291000026278,642.8872608999955,642.8872608999955,642.8872608999955,642.8872608999955,642.8872608999955,642.8872608999955,643.1865142000024,643.1865142000024,644.748451499996,644.748451499996,644.748451499996,644.748451499996,644.748451499996,644.748451499996,644.748451499996,644.748451499996,644.748451499996,644.748451499996,644.748451499996,644.748451499996,644.748451499996,644.748451499996,644.748451499996,644.748451499996,644.748451499996,,,,,,62,66,57,67,66,61,None,None,65,65,[0.05462962962962963],[-0.3111111111111111],[1],[0],[0],[3.448217700002715],['tijiao'],-0.6,0,,[],[],[],[],[],[],[],9.824074074074074,2.2290855000028387,652.975064600003,654.854026999994,,,,,,,,,,,650.7262602999981,650.7262602999981,650.7262602999981,650.7262602999981,647.2593627999886,647.2593627999886,647.2593627999886,647.2593627999886,647.2593627999886,647.2593627999886,647.2593627999886,647.2593627999886,0.005917200003750622,647.2593627999886,,,,248,f,18,2023-03-22_14h52.08.522,RL,2022.2.4,60.02872975568152,
1,-0.3,-0.225,0,46,46,46,,,,,,,,,,None,654.854026999994,654.854026999994,654.854026999994,654.854026999994,654.854026999994,654.854026999994,f,0.3586753999989014,655.2369226999872,655.2369226999872,655.2369226999872,655.2369226999872,655.2369226999872,655.2369226999872,655.5360100999824,655.5360100999824,657.4474837000016,657.4474837000016,657.4474837000016,657.4474837000016,657.4474837000016,657.4474837000016,657.4474837000016,657.4474837000016,657.4474837000016,657.4474837000016,657.4474837000016,657.4474837000016,657.4474837000016,657.4474837000016,657.4474837000016,657.4474837000016,657.4474837000016,659.9560926999839,659.9560926999839,659.9560926999839,659.9560926999839,659.9560926999839,72,56,61,68,56,66,3.0,2.7753327999962494,,,[],[],[],[],[],[],[],-0.6,2,,[],[],[],[],[],[],[],None,None,662.7569053999905,664.6939723999822,,,,,,,,,,,,,,,,,,,,,,,,,,,,248,f,18,2023-03-22_14h52.08.522,RL,2022.2.4,60.02872975568152,
0,0.3,0.225,0,47,47,47,,,,,,,,,,None,664.6939723999822,664.6939723999822,664.6939723999822,664.6939723999822,664.6939723999822,664.6939723999822,j,0.4212827000010293,665.1430980000005,665.1430980000005,665.1430980000005,665.1430980000005,665.1430980000005,665.1430980000005,665.4420819999941,665.4420819999941,666.3064376999973,666.3064376999973,666.3064376999973,666.3064376999973,666.3064376999973,666.3064376999973,666.3064376999973,666.3064376999973,666.3064376999973,666.3064376999973,666.3064376999973,666.3064376999973,666.3064376999973,666.3064376999973,666.3064376999973,666.3064376999973,666.3064376999973,668.8153423999902,668.8153423999902,668.8153423999902,668.8153423999902,668.8153423999902,67,67,54,60,60,67,2.0,1.9107858999923337,,,[],[],[],[],[],[],[],0.2,2,,[],[],[],[],[],[],[],None,None,670.7524146999931,672.306693999999,,,,,,,,,,,,,,,,,,,,,,,,,,,,248,f,18,2023-03-22_14h52.08.522,RL,2022.2.4,60.02872975568152,
1,-0.3,-0.225,0,48,48,48,,,,,,,,,,None,672.306693999999,672.306693999999,672.306693999999,672.306693999999,672.306693999999,672.306693999999,i,0.5328431999951135,672.872283899982,672.872283899982,672.872283899982,672.872283899982,672.872283899982,672.872283899982,673.1708299999882,673.1708299999882,674.3843420000048,674.3843420000048,674.3843420000048,674.3843420000048,674.3843420000048,674.3843420000048,674.3843420000048,674.3843420000048,674.3843420000048,674.3843420000048,674.3843420000048,674.3843420000048,674.3843420000048,674.3843420000048,674.3843420000048,674.3843420000048,674.3843420000048,676.8935717999993,676.8935717999993,676.8935717999993,676.8935717999993,676.8935717999993,69,66,49,65,49,61,2.0,0.3978676999977324,,,[],[],[],[],[],[],[],0.2,3,,[],[],[],[],[],[],[],None,None,677.3147220000101,679.1711689000076,,,,,,,,,,,,,,,,,,,,,,,,,,,,248,f,18,2023-03-22_14h52.08.522,RL,2022.2.4,60.02872975568152,
0,0.3,0.225,0,49,49,49,,,,,,,,,,None,679.1711689000076,679.1711689000076,679.1711689000076,679.1711689000076,679.1711689000076,679.1711689000076,r,0.41869159997440875,679.6202180999971,679.6202180999971,679.6202180999971,679.6202180999971,679.6202180999971,679.6202180999971,679.9193808999844,679.9193808999844,680.9665475999936,680.9665475999936,680.9665475999936,680.9665475999936,680.9665475999936,680.9665475999936,680.9665475999936,680.9665475999936,680.9665475999936,680.9665475999936,680.9665475999936,680.9665475999936,680.9665475999936,680.9665475999936,680.9665475999936,680.9665475999936,680.9665475999936,683.475649400003,683.475649400003,683.475649400003,683.475649400003,683.475649400003,70,60,59,64,70,46,7.0,2.924726400000509,,,[],[],[],[],[],[],[],-0.2,2,,[],[],[],[],[],[],[],None,None,686.4249760000093,688.2129683000094,,,,,,,,,,,,,,,,,,,,,,,,,,,,248,f,18,2023-03-22_14h52.08.522,RL,2022.2.4,60.02872975568152,
1,-0.3,-0.225,0,50,50,50,,,,,,,,,,None,688.2129683000094,688.2129683000094,688.2129683000094,688.2129683000094,688.2129683000094,688.2129683000094,r,0.4464348000183236,688.6800232999958,688.6800232999958,688.6800232999958,688.6800232999958,688.6800232999958,688.6800232999958,688.977939400007,688.977939400007,690.8230801000027,690.8230801000027,690.8230801000027,690.8230801000027,690.8230801000027,690.8230801000027,690.8230801000027,690.8230801000027,690.8230801000027,690.8230801000027,690.8230801000027,690.8230801000027,690.8230801000027,690.8230801000027,690.8230801000027,690.8230801000027,690.8230801000027,,,,,,78,66,58,64,78,66,None,None,75,75,[0.012962962962962963],[-0.34444444444444444],[1],[0],[0],[4.246233100013342],['tijiao'],-0.2,0,,[],[],[],[],[],[],[],9.768518518518517,1.931021199998213,699.5477296999888,701.1112185000093,,,,,,,,,,,697.5983810999896,697.5983810999896,697.5983810999896,697.5983810999896,693.3331610999885,693.3331610999885,693.3331610999885,693.3331610999885,693.3331610999885,693.3331610999885,693.3331610999885,693.3331610999885,0.0053552000026684254,693.3331610999885,,,,248,f,18,2023-03-22_14h52.08.522,RL,2022.2.4,60.02872975568152,
0,0.3,0.225,0,51,51,51,,,,,,,,,,None,701.1112185000093,701.1112185000093,701.1112185000093,701.1112185000093,701.1112185000093,701.1112185000093,r,0.4595254999876488,701.5939072000037,701.5939072000037,701.5939072000037,701.5939072000037,701.5939072000037,701.5939072000037,701.8929413000005,701.8929413000005,703.4218509999919,703.4218509999919,703.4218509999919,703.4218509999919,703.4218509999919,703.4218509999919,703.4218509999919,703.4218509999919,703.4218509999919,703.4218509999919,703.4218509999919,703.4218509999919,703.4218509999919,703.4218509999919,703.4218509999919,703.4218509999919,703.4218509999919,,,,,,69,69,53,60,69,58,None,None,,,[],[],[],[],[],[],[],0.6,1,50,[0.08425925925925926],[-0.2638888888888889],[1],[0],[0],[4.934542200004216],['tijiao_random_2'],6.981481481481481,2.835632300004363,713.742416299996,715.6882999000081,705.9408198999881,705.9408198999881,705.9408198999881,705.9408198999881,705.9408198999881,705.9408198999881,705.9408198999881,705.9408198999881,0.005319799995049834,705.9408198999881,710.8878994999977,710.8878994999977,710.8878994999977,710.8878994999977,,,,,,,,,,,,,,248,f,18,2023-03-22_14h52.08.522,RL,2022.2.4,60.02872975568152,
1,-0.3,-0.225,0,52,52,52,,,,,,,,,,None,715.6882999000081,715.6882999000081,715.6882999000081,715.6882999000081,715.6882999000081,715.6882999000081,r,0.4778740000037942,716.1875481999887,716.1875481999887,716.1875481999887,716.1875481999887,716.1875481999887,716.1875481999887,716.4859281999816,716.4859281999816,717.549975300004,717.549975300004,717.549975300004,717.549975300004,717.549975300004,717.549975300004,717.549975300004,717.549975300004,717.549975300004,717.549975300004,717.549975300004,717.549975300004,717.549975300004,717.549975300004,717.549975300004,717.549975300004,717.549975300004,720.0592658999958,720.0592658999958,720.0592658999958,720.0592658999958,720.0592658999958,67,70,52,61,67,63,7.0,3.057461999997031,,,[],[],[],[],[],[],[],0.2,2,,[],[],[],[],[],[],[],None,None,723.140747700003,725.1124716000049,,,,,,,,,,,,,,,,,,,,,,,,,,,,248,f,18,2023-03-22_14h52.08.522,RL,2022.2.4,60.02872975568152,
0,0.3,0.225,0,53,53,53,,,,,,,,,,None,725.1124716000049,725.1124716000049,725.1124716000049,725.1124716000049,725.1124716000049,725.1124716000049,j,0.4081657000060659,725.5452761999913,725.5452761999913,725.5452761999913,725.5452761999913,725.5452761999913,725.5452761999913,725.8442214000097,725.8442214000097,726.7582799000083,726.7582799000083,726.7582799000083,726.7582799000083,726.7582799000083,726.7582799000083,726.7582799000083,726.7582799000083,726.7582799000083,726.7582799000083,726.7582799000083,726.7582799000083,726.7582799000083,726.7582799000083,726.7582799000083,726.7582799000083,726.7582799000083,729.2671501000004,729.2671501000004,729.2671501000004,729.2671501000004,729.2671501000004,68,62,44,53,53,60,2.0,2.708602400001837,,,[],[],[],[],[],[],[],0.6,2,,[],[],[],[],[],[],[],None,None,731.99951590001,733.6720935000048,,,,,,,,,,,,,,,,,,,,,,,,,,,,248,f,18,2023-03-22_14h52.08.522,RL,2022.2.4,60.02872975568152,
1,-0.3,-0.225,0,54,54,54,,,,,,,,,,None,733.6720935000048,733.6720935000048,733.6720935000048,733.6720935000048,733.6720935000048,733.6720935000048,i,0.402096799982246,734.1049327999935,734.1049327999935,734.1049327999935,734.1049327999935,734.1049327999935,734.1049327999935,734.4040977999975,734.4040977999975,736.1824385999935,736.1824385999935,736.1824385999935,736.1824385999935,736.1824385999935,736.1824385999935,736.1824385999935,736.1824385999935,736.1824385999935,736.1824385999935,736.1824385999935,736.1824385999935,736.1824385999935,736.1824385999935,736.1824385999935,736.1824385999935,736.1824385999935,738.6916129000019,738.6916129000019,738.6916129000019,738.6916129000019,738.6916129000019,62,67,57,57,57,61,4.0,2.608986199978972,,,[],[],[],[],[],[],[],0.2,2,,[],[],[],[],[],[],[],None,None,741.3239563999814,742.9804928000085,,,,,,,,,,,,,,,,,,,,,,,,,,,,248,f,18,2023-03-22_14h52.08.522,RL,2022.2.4,60.02872975568152,
0,0.3,0.225,0,55,55,55,,,,,,,,,,None,742.9804928000085,742.9804928000085,742.9804928000085,742.9804928000085,742.9804928000085,742.9804928000085,f,0.4286009999923408,743.4308677999943,743.4308677999943,743.4308677999943,743.4308677999943,743.4308677999943,743.4308677999943,743.7286997000047,743.7286997000047,744.7920291000046,744.7920291000046,744.7920291000046,744.7920291000046,744.7920291000046,744.7920291000046,744.7920291000046,744.7920291000046,744.7920291000046,744.7920291000046,744.7920291000046,744.7920291000046,744.7920291000046,744.7920291000046,744.7920291000046,744.7920291000046,744.7920291000046,747.3016629999911,747.3016629999911,747.3016629999911,747.3016629999911,747.3016629999911,66,70,56,57,70,65,7.0,1.811271399987163,,,[],[],[],[],[],[],[],-0.6,3,,[],[],[],[],[],[],[],None,None,749.1378678999899,751.0085895000084,,,,,,,,,,,,,,,,,,,,,,,,,,,,248,f,18,2023-03-22_14h52.08.522,RL,2022.2.4,60.02872975568152,
1,-0.3,-0.225,0,56,56,56,,,,,,,,,,None,751.0085895000084,751.0085895000084,751.0085895000084,751.0085895000084,751.0085895000084,751.0085895000084,r,0.6436354000179563,751.6750104000093,751.6750104000093,751.6750104000093,751.6750104000093,751.6750104000093,751.6750104000093,751.9728201999969,751.9728201999969,752.9202595999814,752.9202595999814,752.9202595999814,752.9202595999814,752.9202595999814,752.9202595999814,752.9202595999814,752.9202595999814,752.9202595999814,752.9202595999814,752.9202595999814,752.9202595999814,752.9202595999814,752.9202595999814,752.9202595999814,752.9202595999814,752.9202595999814,755.4294700000028,755.4294700000028,755.4294700000028,755.4294700000028,755.4294700000028,78,63,49,54,78,57,6.0,2.6420950000174344,,,[],[],[],[],[],[],[],0.2,3,,[],[],[],[],[],[],[],None,None,758.0948605999874,759.8842988999968,,,,,,,,,,,,,,,,,,,,,,,,,,,,248,f,18,2023-03-22_14h52.08.522,RL,2022.2.4,60.02872975568152,
0,0.3,0.225,0,57,57,57,,,,,,,,,,None,759.8842988999968,759.8842988999968,759.8842988999968,759.8842988999968,759.8842988999968,759.8842988999968,r,0.41330569999990985,760.3170737999899,760.3170737999899,760.3170737999899,760.3170737999899,760.3170737999899,760.3170737999899,760.6158637999906,760.6158637999906,762.3609982999915,762.3609982999915,762.3609982999915,762.3609982999915,762.3609982999915,762.3609982999915,762.3609982999915,762.3609982999915,762.3609982999915,762.3609982999915,762.3609982999915,762.3609982999915,762.3609982999915,762.3609982999915,762.3609982999915,762.3609982999915,762.3609982999915,,,,,,78,66,47,48,78,71,None,None,,,[],[],[],[],[],[],[],-0.2,1,70,[0.05462962962962963],[-0.2759259259259259],[1],[0],[0],[4.885564500000328],['tijiao_random_2'],6.972222222222222,2.4868693000171334,772.2826749999949,773.9959569000057,764.8786737000046,764.8786737000046,764.8786737000046,764.8786737000046,764.8786737000046,764.8786737000046,764.8786737000046,764.8786737000046,0.006043600005796179,764.8786737000046,769.7771749999956,769.7771749999956,769.7771749999956,769.7771749999956,,,,,,,,,,,,,,248,f,18,2023-03-22_14h52.08.522,RL,2022.2.4,60.02872975568152,
1,-0.3,-0.225,0,58,58,58,,,,,,,,,,None,773.9959569000057,773.9959569000057,773.9959569000057,773.9959569000057,773.9959569000057,773.9959569000057,f,0.4905863000021782,774.5115661000018,774.5115661000018,774.5115661000018,774.5115661000018,774.5115661000018,774.5115661000018,774.810610399989,774.810610399989,775.7080432999937,775.7080432999937,775.7080432999937,775.7080432999937,775.7080432999937,775.7080432999937,775.7080432999937,775.7080432999937,775.7080432999937,775.7080432999937,775.7080432999937,775.7080432999937,775.7080432999937,775.7080432999937,775.7080432999937,775.7080432999937,775.7080432999937,778.2167337999854,778.2167337999854,778.2167337999854,778.2167337999854,778.2167337999854,81,62,52,49,62,61,7.0,2.0270626000128686,,,[],[],[],[],[],[],[],-0.2,2,,[],[],[],[],[],[],[],None,None,780.269710499997,782.0737683000043,,,,,,,,,,,,,,,,,,,,,,,,,,,,248,f,18,2023-03-22_14h52.08.522,RL,2022.2.4,60.02872975568152,
0,0.3,0.225,0,59,59,59,,,,,,,,,,None,782.0737683000043,782.0737683000043,782.0737683000043,782.0737683000043,782.0737683000043,782.0737683000043,i,0.4768432999844663,782.5743993000069,782.5743993000069,782.5743993000069,782.5743993000069,782.5743993000069,782.5743993000069,782.8718360000057,782.8718360000057,784.5007957000053,784.5007957000053,784.5007957000053,784.5007957000053,784.5007957000053,784.5007957000053,784.5007957000053,784.5007957000053,784.5007957000053,784.5007957000053,784.5007957000053,784.5007957000053,784.5007957000053,784.5007957000053,784.5007957000053,784.5007957000053,784.5007957000053,787.0093576000072,787.0093576000072,787.0093576000072,787.0093576000072,787.0093576000072,72,68,60,50,60,65,3.0,2.7255182999942917,,,[],[],[],[],[],[],[],0.2,2,,[],[],[],[],[],[],[],None,None,789.7586904999916,791.3479924999992,,,,,,,,,,,,,,,,,,,,,,,,,,,,248,f,18,2023-03-22_14h52.08.522,RL,2022.2.4,60.02872975568152,
1,-0.3,-0.225,0,60,60,60,,,,,,,,,,None,791.3479924999992,791.3479924999992,791.3479924999992,791.3479924999992,791.3479924999992,791.3479924999992,r,0.4706970999832265,791.847363000008,791.847363000008,791.847363000008,791.847363000008,791.847363000008,791.847363000008,792.1461886999896,792.1461886999896,793.6256952999975,793.6256952999975,793.6256952999975,793.6256952999975,793.6256952999975,793.6256952999975,793.6256952999975,793.6256952999975,793.6256952999975,793.6256952999975,793.6256952999975,793.6256952999975,793.6256952999975,793.6256952999975,793.6256952999975,793.6256952999975,793.6256952999975,796.1348010000074,796.1348010000074,796.1348010000074,796.1348010000074,796.1348010000074,79,63,55,50,79,37,7.0,2.6588368999946397,,,[],[],[],[],[],[],[],-0.6,3,,[],[],[],[],[],[],[],None,None,798.8171863000025,800.7062280999962,,,,,,,,,,,,,,,,,,,,,,,,,,,,248,f,18,2023-03-22_14h52.08.522,RL,2022.2.4,60.02872975568152,
0,0.3,0.225,0,61,61,61,,,,,,,,,,None,800.7062280999962,800.7062280999962,800.7062280999962,800.7062280999962,800.7062280999962,800.7062280999962,r,0.4654143999796361,801.1889412000019,801.1889412000019,801.1889412000019,801.1889412000019,801.1889412000019,801.1889412000019,801.487619099993,801.487619099993,802.634493599995,802.634493599995,802.634493599995,802.634493599995,802.634493599995,802.634493599995,802.634493599995,802.634493599995,802.634493599995,802.634493599995,802.634493599995,802.634493599995,802.634493599995,802.634493599995,802.634493599995,802.634493599995,802.634493599995,805.143577699986,805.143577699986,805.143577699986,805.143577699986,805.143577699986,69,68,60,56,69,72,3.0,2.7918107000004966,,,[],[],[],[],[],[],[],-0.6,2,,[],[],[],[],[],[],[],None,None,807.9609022999939,809.6817327000026,,,,,,,,,,,,,,,,,,,,,,,,,,,,248,f,18,2023-03-22_14h52.08.522,RL,2022.2.4,60.02872975568152,
1,-0.3,-0.225,0,62,62,62,,,,,,,,,,None,809.6817327000026,809.6817327000026,809.6817327000026,809.6817327000026,809.6817327000026,809.6817327000026,f,0.38906290000886656,810.0977069000073,810.0977069000073,810.0977069000073,810.0977069000073,810.0977069000073,810.0977069000073,810.3965259999968,810.3965259999968,811.2608125999977,811.2608125999977,811.2608125999977,811.2608125999977,811.2608125999977,811.2608125999977,811.2608125999977,811.2608125999977,811.2608125999977,811.2608125999977,811.2608125999977,811.2608125999977,811.2608125999977,811.2608125999977,811.2608125999977,811.2608125999977,811.2608125999977,,,,,,74,58,58,60,58,59,None,None,55,55,[0.032407407407407406],[-0.29074074074074074],[1],[0],[0],[4.9777510999992955],['tijiao'],0.2,0,,[],[],[],[],[],[],[],7.953703703703704,3.1092104999988806,821.8972334999999,823.6100170999998,,,,,,,,,,,818.7693271999888,818.7693271999888,818.7693271999888,818.7693271999888,813.7711595000001,813.7711595000001,813.7711595000001,813.7711595000001,813.7711595000001,813.7711595000001,813.7711595000001,813.7711595000001,0.00538709998363629,813.7711595000001,,,,248,f,18,2023-03-22_14h52.08.522,RL,2022.2.4,60.02872975568152,
0,0.3,0.225,0,63,63,63,,,,,,,,,,None,823.6100170999998,823.6100170999998,823.6100170999998,823.6100170999998,823.6100170999998,823.6100170999998,r,0.350914400012698,823.9946490000002,823.9946490000002,823.9946490000002,823.9946490000002,823.9946490000002,823.9946490000002,824.2922367999854,824.2922367999854,825.5551246999821,825.5551246999821,825.5551246999821,825.5551246999821,825.5551246999821,825.5551246999821,825.5551246999821,825.5551246999821,825.5551246999821,825.5551246999821,825.5551246999821,825.5551246999821,825.5551246999821,825.5551246999821,825.5551246999821,825.5551246999821,825.5551246999821,,,,,,76,54,62,52,76,41,None,None,,,[],[],[],[],[],[],[],0.6,1,40,[0.05925925925925926],[-0.2898148148148148],[1],[0],[0],[4.502461399999447],['tijiao_random_2'],4.027777777777779,1.922425500000827,834.5295037000033,836.475297099998,828.0742167999852,828.0742167999852,828.0742167999852,828.0742167999852,828.0742167999852,828.0742167999852,828.0742167999852,828.0742167999852,0.006227600009879097,828.0742167999852,832.5881236999994,832.5881236999994,832.5881236999994,832.5881236999994,,,,,,,,,,,,,,248,f,18,2023-03-22_14h52.08.522,RL,2022.2.4,60.02872975568152,
1,-0.3,-0.225,0,64,64,64,,,,,,,,,,None,836.475297099998,836.475297099998,836.475297099998,836.475297099998,836.475297099998,836.475297099998,r,0.5308554999937769,837.0244930000044,837.0244930000044,837.0244930000044,837.0244930000044,837.0244930000044,837.0244930000044,837.3231552999932,837.3231552999932,838.187150599988,838.187150599988,838.187150599988,838.187150599988,838.187150599988,838.187150599988,838.187150599988,838.187150599988,838.187150599988,838.187150599988,838.187150599988,838.187150599988,838.187150599988,838.187150599988,838.187150599988,838.187150599988,838.187150599988,,,,,,73,60,62,55,73,71,None,None,75,75,"[0.008333333333333333, -0.014814814814814815]","[-0.375, -0.2824074074074074]","[1, 1]","[0, 0]","[0, 0]","[3.779271500010509, 4.94254690001253]",['tijiao'],-0.2,0,,[],[],[],[],[],[],[],8.925925925925926,2.8276714000094216,848.5080163000093,850.0710814000049,,,,,,,,,,,845.6617680999916,845.6617680999916,845.6617680999916,845.6617680999916,840.698823099985,840.698823099985,840.698823099985,840.698823099985,840.698823099985,840.698823099985,840.698823099985,840.698823099985,0.007375899993348867,840.698823099985,,,,248,f,18,2023-03-22_14h52.08.522,RL,2022.2.4,60.02872975568152,
0,0.3,0.225,0,65,65,65,,,,,,,,,,None,850.0710814000049,850.0710814000049,850.0710814000049,850.0710814000049,850.0710814000049,850.0710814000049,r,0.4504065999935847,850.5538704000064,850.5538704000064,850.5538704000064,850.5538704000064,850.5538704000064,850.5538704000064,850.8529696000041,850.8529696000041,851.9167116000026,851.9167116000026,851.9167116000026,851.9167116000026,851.9167116000026,851.9167116000026,851.9167116000026,851.9167116000026,851.9167116000026,851.9167116000026,851.9167116000026,851.9167116000026,851.9167116000026,851.9167116000026,851.9167116000026,851.9167116000026,851.9167116000026,854.4256959999911,854.4256959999911,854.4256959999911,854.4256959999911,854.4256959999911,76,67,64,57,76,51,6.0,2.409295200021006,,,[],[],[],[],[],[],[],-0.2,2,,[],[],[],[],[],[],[],None,None,856.8591213999898,858.4981045000022,,,,,,,,,,,,,,,,,,,,,,,,,,,,248,f,18,2023-03-22_14h52.08.522,RL,2022.2.4,60.02872975568152,
1,-0.3,-0.225,0,66,66,66,,,,,,,,,,None,858.4981045000022,858.4981045000022,858.4981045000022,858.4981045000022,858.4981045000022,858.4981045000022,r,0.392837999999756,858.9145500999875,858.9145500999875,858.9145500999875,858.9145500999875,858.9145500999875,858.9145500999875,859.2134297000011,859.2134297000011,860.0446988999902,860.0446988999902,860.0446988999902,860.0446988999902,860.0446988999902,860.0446988999902,860.0446988999902,860.0446988999902,860.0446988999902,860.0446988999902,860.0446988999902,860.0446988999902,860.0446988999902,860.0446988999902,860.0446988999902,860.0446988999902,860.0446988999902,,,,,,75,70,59,50,75,68,None,None,,,[],[],[],[],[],[],[],0.6,1,50,[0.05925925925925926],[-0.3296296296296296],[1],[0],[0],[5.218688699998893],['tijiao_random_2'],4.953703703703704,3.1019826999981888,870.9138410000014,872.4270121000009,862.561772599991,862.561772599991,862.561772599991,862.561772599991,862.561772599991,862.561772599991,862.561772599991,862.561772599991,0.005652899999404326,862.561772599991,867.7935806000023,867.7935806000023,867.7935806000023,867.7935806000023,,,,,,,,,,,,,,248,f,18,2023-03-22_14h52.08.522,RL,2022.2.4,60.02872975568152,
0,0.3,0.225,0,67,67,67,,,,,,,,,,None,872.4270121000009,872.4270121000009,872.4270121000009,872.4270121000009,872.4270121000009,872.4270121000009,r,0.47395899999537505,872.9261357999931,872.9261357999931,872.9261357999931,872.9261357999931,872.9261357999931,872.9261357999931,873.2252411000081,873.2252411000081,874.2227674000023,874.2227674000023,874.2227674000023,874.2227674000023,874.2227674000023,874.2227674000023,874.2227674000023,874.2227674000023,874.2227674000023,874.2227674000023,874.2227674000023,874.2227674000023,874.2227674000023,874.2227674000023,874.2227674000023,874.2227674000023,874.2227674000023,,,,,,79,73,61,55,79,68,None,None,70,70,[0.041666666666666664],[-0.30833333333333335],[1],[0],[0],[7.2723080000141636],['tijiao'],-0.2,0,,[],[],[],[],[],[],[],9.037037037037036,2.0628315999929328,886.105870600004,888.0345858999935,,,,,,,,,,,884.0236252000032,884.0236252000032,884.0236252000032,884.0236252000032,876.7323238000099,876.7323238000099,876.7323238000099,876.7323238000099,876.7323238000099,876.7323238000099,876.7323238000099,876.7323238000099,0.004874699981883168,876.7323238000099,,,,248,f,18,2023-03-22_14h52.08.522,RL,2022.2.4,60.02872975568152,
1,-0.3,-0.225,0,68,68,68,,,,,,,,,,None,888.0345858999935,888.0345858999935,888.0345858999935,888.0345858999935,888.0345858999935,888.0345858999935,r,0.5402847000223119,888.6001376000058,888.6001376000058,888.6001376000058,888.6001376000058,888.6001376000058,888.6001376000058,888.8991183000035,888.8991183000035,890.0626166999864,890.0626166999864,890.0626166999864,890.0626166999864,890.0626166999864,890.0626166999864,890.0626166999864,890.0626166999864,890.0626166999864,890.0626166999864,890.0626166999864,890.0626166999864,890.0626166999864,890.0626166999864,890.0626166999864,890.0626166999864,890.0626166999864,,,,,,75,68,61,55,75,69,None,None,,,[],[],[],[],[],[],[],0.2,1,70,[0.020370370370370372],[-0.29074074074074074],[1],[0],[0],[10.272300600016024],['tijiao_random_2'],8.916666666666668,2.1369518999999855,905.0204178999993,906.7164737999847,892.5791812000098,892.5791812000098,892.5791812000098,892.5791812000098,892.5791812000098,892.5791812000098,892.5791812000098,892.5791812000098,0.0057397999917156994,892.5791812000098,902.8652098999883,902.8652098999883,902.8652098999883,902.8652098999883,,,,,,,,,,,,,,248,f,18,2023-03-22_14h52.08.522,RL,2022.2.4,60.02872975568152,
0,0.3,0.225,0,69,69,69,,,,,,,,,,None,906.7164737999847,906.7164737999847,906.7164737999847,906.7164737999847,906.7164737999847,906.7164737999847,r,0.6360275000042748,907.3821125999966,907.3821125999966,907.3821125999966,907.3821125999966,907.3821125999966,907.3821125999966,907.6808500000043,907.6808500000043,909.658961499983,909.658961499983,909.658961499983,909.658961499983,909.658961499983,909.658961499983,909.658961499983,909.658961499983,909.658961499983,909.658961499983,909.658961499983,909.658961499983,909.658961499983,909.658961499983,909.658961499983,909.658961499983,909.658961499983,,,,,,82,69,58,53,82,67,None,None,80,80,[0.05277777777777778],[-0.275],[1],[0],[0],[3.198214999982156],['tijiao'],-0.6,0,,[],[],[],[],[],[],[],10.787037037037036,2.1937371999956667,917.6026879999845,919.3824487999955,,,,,,,,,,,915.390029400005,915.390029400005,915.390029400005,915.390029400005,912.1698928999831,912.1698928999831,912.1698928999831,912.1698928999831,912.1698928999831,912.1698928999831,912.1698928999831,912.1698928999831,0.006917899998370558,912.1698928999831,,,,248,f,18,2023-03-22_14h52.08.522,RL,2022.2.4,60.02872975568152,
1,-0.3,-0.225,0,70,70,70,,,,,,,,,,None,919.3824487999955,919.3824487999955,919.3824487999955,919.3824487999955,919.3824487999955,919.3824487999955,r,0.4355715000128839,919.8482306000078,919.8482306000078,919.8482306000078,919.8482306000078,919.8482306000078,919.8482306000078,920.1472287999932,920.1472287999932,921.0111221999978,921.0111221999978,921.0111221999978,921.0111221999978,921.0111221999978,921.0111221999978,921.0111221999978,921.0111221999978,921.0111221999978,921.0111221999978,921.0111221999978,921.0111221999978,921.0111221999978,921.0111221999978,921.0111221999978,921.0111221999978,921.0111221999978,923.5202846000029,923.5202846000029,923.5202846000029,923.5202846000029,923.5202846000029,74,76,51,54,74,58,7.0,2.159549000003608,,,[],[],[],[],[],[],[],-0.2,2,,[],[],[],[],[],[],[],None,None,925.7039506000001,927.476307999983,,,,,,,,,,,,,,,,,,,,,,,,,,,,248,f,18,2023-03-22_14h52.08.522,RL,2022.2.4,60.02872975568152,
0,0.3,0.225,0,71,71,71,,,,,,,,,,None,927.476307999983,927.476307999983,927.476307999983,927.476307999983,927.476307999983,927.476307999983,f,0.9809374999895226,928.4744470999867,928.4744470999867,928.4744470999867,928.4744470999867,928.4744470999867,928.4744470999867,928.7737897000043,928.7737897000043,930.4358035000041,930.4358035000041,930.4358035000041,930.4358035000041,930.4358035000041,930.4358035000041,930.4358035000041,930.4358035000041,930.4358035000041,930.4358035000041,930.4358035000041,930.4358035000041,930.4358035000041,930.4358035000041,930.4358035000041,930.4358035000041,930.4358035000041,932.9445724999823,932.9445724999823,932.9445724999823,932.9445724999823,932.9445724999823,73,72,59,40,72,61,7.0,1.36231629998656,,,[],[],[],[],[],[],[],0.2,2,,[],[],[],[],[],[],[],None,None,934.3314912999922,935.8540796999878,,,,,,,,,,,,,,,,,,,,,,,,,,,,248,f,18,2023-03-22_14h52.08.522,RL,2022.2.4,60.02872975568152,
1,-0.3,-0.225,0,72,72,72,,,,,,,,,,None,935.8540796999878,935.8540796999878,935.8540796999878,935.8540796999878,935.8540796999878,935.8540796999878,f,0.5233422000019345,936.4029641000088,936.4029641000088,936.4029641000088,936.4029641000088,936.4029641000088,936.4029641000088,936.7016489999951,936.7016489999951,937.6987801000068,937.6987801000068,937.6987801000068,937.6987801000068,937.6987801000068,937.6987801000068,937.6987801000068,937.6987801000068,937.6987801000068,937.6987801000068,937.6987801000068,937.6987801000068,937.6987801000068,937.6987801000068,937.6987801000068,937.6987801000068,937.6987801000068,940.2084549999854,940.2084549999854,940.2084549999854,940.2084549999854,940.2084549999854,67,63,57,36,63,63,5.0,1.8272956000000704,,,[],[],[],[],[],[],[],0.6,3,,[],[],[],[],[],[],[],None,None,942.0593918999948,943.8821788000059,,,,,,,,,,,,,,,,,,,,,,,,,,,,248,f,18,2023-03-22_14h52.08.522,RL,2022.2.4,60.02872975568152,
0,0.3,0.225,0,73,73,73,,,,,,,,,,None,943.8821788000059,943.8821788000059,943.8821788000059,943.8821788000059,943.8821788000059,943.8821788000059,r,0.4897308000072371,944.3992629999993,944.3992629999993,944.3992629999993,944.3992629999993,944.3992629999993,944.3992629999993,944.6966503000003,944.6966503000003,946.6078811000043,946.6078811000043,946.6078811000043,946.6078811000043,946.6078811000043,946.6078811000043,946.6078811000043,946.6078811000043,946.6078811000043,946.6078811000043,946.6078811000043,946.6078811000043,946.6078811000043,946.6078811000043,946.6078811000043,946.6078811000043,946.6078811000043,,,,,,70,81,64,47,70,71,None,None,70,70,"[0.06111111111111111, 0.05462962962962963]","[-0.24351851851851852, -0.28888888888888886]","[1, 1]","[0, 0]","[0, 0]","[3.896791800012579, 5.293000400008168]",['tijiao'],-0.2,0,,[],[],[],[],[],[],[],10.046296296296298,3.3086436000012327,957.7597980999853,959.6390218999877,,,,,,,,,,,954.4324646999885,954.4324646999885,954.4324646999885,954.4324646999885,949.1186887999938,949.1186887999938,949.1186887999938,949.1186887999938,949.1186887999938,949.1186887999938,949.1186887999938,949.1186887999938,0.0060981000133324414,949.1186887999938,,,,248,f,18,2023-03-22_14h52.08.522,RL,2022.2.4,60.02872975568152,
1,-0.3,-0.225,0,74,74,74,,,,,,,,,,None,959.6390218999877,959.6390218999877,959.6390218999877,959.6390218999877,959.6390218999877,959.6390218999877,r,0.4418322999845259,960.1047903999861,960.1047903999861,960.1047903999861,960.1047903999861,960.1047903999861,960.1047903999861,960.4040623999899,960.4040623999899,961.6507453999948,961.6507453999948,961.6507453999948,961.6507453999948,961.6507453999948,961.6507453999948,961.6507453999948,961.6507453999948,961.6507453999948,961.6507453999948,961.6507453999948,961.6507453999948,961.6507453999948,961.6507453999948,961.6507453999948,961.6507453999948,961.6507453999948,964.1597088999988,964.1597088999988,964.1597088999988,964.1597088999988,964.1597088999988,62,79,68,48,62,60,6.0,1.9440639000094961,,,[],[],[],[],[],[],[],0.2,3,,[],[],[],[],[],[],[],None,None,966.1263469999831,967.7667122999846,,,,,,,,,,,,,,,,,,,,,,,,,,,,248,f,18,2023-03-22_14h52.08.522,RL,2022.2.4,60.02872975568152,
0,0.3,0.225,0,75,75,75,,,,,,,,,,q,993.6142322999949,993.6142322999949,993.6142322999949,993.6142322999949,993.6142322999949,993.6142322999949,i,0.7353118000028189,994.378609300009,994.378609300009,994.378609300009,994.378609300009,994.378609300009,994.378609300009,994.6770838999946,994.6770838999946,995.9567620999878,995.9567620999878,995.9567620999878,995.9567620999878,995.9567620999878,995.9567620999878,995.9567620999878,995.9567620999878,995.9567620999878,995.9567620999878,995.9567620999878,995.9567620999878,995.9567620999878,995.9567620999878,995.9567620999878,995.9567620999878,995.9567620999878,,,,,,72,69,62,42,62,58,None,None,60,60,"[0.04537037037037037, 0.04537037037037037, 0.06296296296296296]","[-0.23703703703703705, -0.23703703703703705, -0.2935185185185185]","[1, 1, 1]","[0, 0, 0]","[0, 0, 0]","[6.537609999999404, 7.3694513000082225, 8.20059079999919]",['tijiao'],0.6,0,,[],[],[],[],[],[],[],7.888888888888889,2.7413293999852613,1009.4521358000056,1011.2811546000012,,,,,,,,,,,1006.6913687000051,1006.6913687000051,1006.6913687000051,1006.6913687000051,998.4683384000091,998.4683384000091,998.4683384000091,998.4683384000091,998.4683384000091,998.4683384000091,998.4683384000091,998.4683384000091,0.007280699996044859,998.4683384000091,967.7667122999846,967.7667122999846,25.828400500002317,248,f,18,2023-03-22_14h52.08.522,RL,2022.2.4,60.02872975568152,
1,-0.3,-0.225,0,76,76,76,,,,,,,,,,None,1011.2811546000012,1011.2811546000012,1011.2811546000012,1011.2811546000012,1011.2811546000012,1011.2811546000012,f,0.37736909999512136,1011.6807358000078,1011.6807358000078,1011.6807358000078,1011.6807358000078,1011.6807358000078,1011.6807358000078,1011.9796124999993,1011.9796124999993,1012.8107216999924,1012.8107216999924,1012.8107216999924,1012.8107216999924,1012.8107216999924,1012.8107216999924,1012.8107216999924,1012.8107216999924,1012.8107216999924,1012.8107216999924,1012.8107216999924,1012.8107216999924,1012.8107216999924,1012.8107216999924,1012.8107216999924,1012.8107216999924,1012.8107216999924,,,,,,57,86,60,44,86,52,None,None,85,85,[0.03796296296296296],[-0.2916666666666667],[1],[0],[0],[3.4468172999913804],['tijiao'],-0.6,0,,[],[],[],[],[],[],[],8.88888888888889,2.32935779998661,1021.1368599999987,1022.7168961999996,,,,,,,,,,,1018.7887575000059,1018.7887575000059,1018.7887575000059,1018.7887575000059,1015.3228269999963,1015.3228269999963,1015.3228269999963,1015.3228269999963,1015.3228269999963,1015.3228269999963,1015.3228269999963,1015.3228269999963,0.006977599987294525,1015.3228269999963,,,,248,f,18,2023-03-22_14h52.08.522,RL,2022.2.4,60.02872975568152,
0,0.3,0.225,0,77,77,77,,,,,,,,,,None,1022.7168961999996,1022.7168961999996,1022.7168961999996,1022.7168961999996,1022.7168961999996,1022.7168961999996,f,0.3686394999967888,1023.1181114999927,1023.1181114999927,1023.1181114999927,1023.1181114999927,1023.1181114999927,1023.1181114999927,1023.4153448999859,1023.4153448999859,1025.0442913000006,1025.0442913000006,1025.0442913000006,1025.0442913000006,1025.0442913000006,1025.0442913000006,1025.0442913000006,1025.0442913000006,1025.0442913000006,1025.0442913000006,1025.0442913000006,1025.0442913000006,1025.0442913000006,1025.0442913000006,1025.0442913000006,1025.0442913000006,1025.0442913000006,1027.5534849999822,1027.5534849999822,1027.5534849999822,1027.5534849999822,1027.5534849999822,70,77,49,46,77,53,7.0,1.8772849999950267,,,[],[],[],[],[],[],[],-0.6,2,,[],[],[],[],[],[],[],None,None,1029.4535943999945,1031.110377999983,,,,,,,,,,,,,,,,,,,,,,,,,,,,248,f,18,2023-03-22_14h52.08.522,RL,2022.2.4,60.02872975568152,
1,-0.3,-0.225,0,78,78,78,,,,,,,,,,None,1031.110377999983,1031.110377999983,1031.110377999983,1031.110377999983,1031.110377999983,1031.110377999983,f,0.5005540999991354,1031.6435174999933,1031.6435174999933,1031.6435174999933,1031.6435174999933,1031.6435174999933,1031.6435174999933,1031.9422119999945,1031.9422119999945,1033.4044426000037,1033.4044426000037,1033.421369699994,1033.421369699994,1033.421369699994,1033.421369699994,1033.421369699994,1033.421369699994,1033.421369699994,1033.421369699994,1033.421369699994,1033.421369699994,1033.421369699994,1033.421369699994,1033.421369699994,1033.421369699994,1033.421369699994,1035.9303636999975,1035.9303636999975,1035.9303636999975,1035.9303636999975,1035.9303636999975,62,75,67,38,75,54,6.0,2.542031399992993,,,[],[],[],[],[],[],[],0.6,2,,[],[],[],[],[],[],[],None,None,1038.4968310999975,1040.4349784000078,,,,,,,,,,,,,,,,,,,,,,,,,,,,248,f,18,2023-03-22_14h52.08.522,RL,2022.2.4,60.02872975568152,
0,0.3,0.225,0,79,79,79,,,,,,,,,,None,1040.4349784000078,1040.4349784000078,1040.4349784000078,1040.4349784000078,1040.4349784000078,1040.4349784000078,f,0.47390270000323653,1040.9346320999903,1040.9346320999903,1040.9346320999903,1040.9346320999903,1040.9346320999903,1040.9346320999903,1041.2333865999826,1041.2333865999826,1042.7954392000102,1042.7954392000102,1042.7954392000102,1042.7954392000102,1042.7954392000102,1042.7954392000102,1042.7954392000102,1042.7954392000102,1042.7954392000102,1042.7954392000102,1042.7954392000102,1042.7954392000102,1042.7954392000102,1042.7954392000102,1042.7954392000102,1042.7954392000102,1042.7954392000102,1045.3050634999818,1045.3050634999818,1045.3050634999818,1045.3050634999818,1045.3050634999818,72,76,62,40,76,66,7.0,3.1073866999940947,,,[],[],[],[],[],[],[],0.2,3,,[],[],[],[],[],[],[],None,None,1048.436493199988,1049.9426527000032,,,,,,,,,,,,,,,,,,,,,,,,,,,,248,f,18,2023-03-22_14h52.08.522,RL,2022.2.4,60.02872975568152,
1,-0.3,-0.225,0,80,80,80,,,,,,,,,,None,1049.9426527000032,1049.9426527000032,1049.9426527000032,1049.9426527000032,1049.9426527000032,1049.9426527000032,f,0.644973199989181,1050.607981899986,1050.607981899986,1050.607981899986,1050.607981899986,1050.607981899986,1050.607981899986,1050.9069805000036,1050.9069805000036,1052.2365462000016,1052.2365462000016,1052.2533103000023,1052.2533103000023,1052.2533103000023,1052.2533103000023,1052.2533103000023,1052.2533103000023,1052.2533103000023,1052.2533103000023,1052.2533103000023,1052.2533103000023,1052.2533103000023,1052.2533103000023,1052.2533103000023,1052.2533103000023,1052.2533103000023,1054.762214699993,1054.762214699993,1054.762214699993,1054.762214699993,1054.762214699993,70,74,58,33,74,61,7.0,1.3122833999805152,,,[],[],[],[],[],[],[],-0.6,2,,[],[],[],[],[],[],[],None,None,1056.1002945000073,1057.8208646999847,,,,,,,,,,,,,,,,,,,,,,,,,,,,248,f,18,2023-03-22_14h52.08.522,RL,2022.2.4,60.02872975568152,
0,0.3,0.225,0,81,81,81,,,,,,,,,,None,1057.8208646999847,1057.8208646999847,1057.8208646999847,1057.8208646999847,1057.8208646999847,1057.8208646999847,r,0.4967099000059534,1058.3369523999863,1058.3369523999863,1058.3369523999863,1058.3369523999863,1058.3369523999863,1058.3369523999863,1058.6357478999998,1058.6357478999998,1060.0153071999957,1060.0153071999957,1060.0153071999957,1060.0153071999957,1060.0153071999957,1060.0153071999957,1060.0153071999957,1060.0153071999957,1060.0153071999957,1060.0153071999957,1060.0153071999957,1060.0153071999957,1060.0153071999957,1060.0153071999957,1060.0153071999957,1060.0153071999957,1060.0153071999957,,,,,,68,78,60,41,68,72,None,None,,,[],[],[],[],[],[],[],0.6,1,60,[0.05555555555555555],[-0.32685185185185184],[1],[0],[0],[5.682214400003431],['tijiao_random_2'],4.962962962962964,3.41716599999927,1071.6657077999844,1073.3622311000072,1062.5347271999926,1062.5347271999926,1062.5347271999926,1062.5347271999926,1062.5347271999926,1062.5347271999926,1062.5347271999926,1062.5347271999926,0.005176199978450313,1062.5347271999926,1068.2300972999947,1068.2300972999947,1068.2300972999947,1068.2300972999947,,,,,,,,,,,,,,248,f,18,2023-03-22_14h52.08.522,RL,2022.2.4,60.02872975568152,
1,-0.3,-0.225,0,82,82,82,,,,,,,,,,None,1073.3622311000072,1073.3622311000072,1073.3622311000072,1073.3622311000072,1073.3622311000072,1073.3622311000072,i,0.4101125000161119,1073.7945583999972,1073.7945583999972,1073.7945583999972,1073.7945583999972,1073.7945583999972,1073.7945583999972,1074.0939214999962,1074.0939214999962,1074.9410038999922,1074.9410038999922,1074.9410038999922,1074.9410038999922,1074.9410038999922,1074.9410038999922,1074.9410038999922,1074.9410038999922,1074.9410038999922,1074.9410038999922,1074.9410038999922,1074.9410038999922,1074.9410038999922,1074.9410038999922,1074.9410038999922,1074.9410038999922,1074.9410038999922,,,,,,74,72,58,37,58,50,None,None,,,[],[],[],[],[],[],[],0.2,1,58,"[0.062037037037037036, 0.05925925925925926]","[-0.36666666666666664, -0.3]","[1, 1]","[0, 0]","[0, 0]","[3.4906527000130154, 4.986345700017409]",['tijiao_random_2'],10.712962962962964,2.3381797000183724,1084.8130881999969,1086.7422478999943,1077.4579425999837,1077.4579425999837,1077.4579425999837,1077.4579425999837,1077.4579425999837,1077.4579425999837,1077.4579425999837,1077.4579425999837,0.005807300010928884,1077.4579425999837,1082.4590418000007,1082.4590418000007,1082.4590418000007,1082.4590418000007,,,,,,,,,,,,,,248,f,18,2023-03-22_14h52.08.522,RL,2022.2.4,60.02872975568152,
0,0.3,0.225,0,83,83,83,,,,,,,,,,None,1086.7422478999943,1086.7422478999943,1086.7422478999943,1086.7422478999943,1086.7422478999943,1086.7422478999943,i,0.34616419998928905,1087.1084287999838,1087.1084287999838,1087.1084287999838,1087.1084287999838,1087.1084287999838,1087.1084287999838,1087.4073803999927,1087.4073803999927,1088.903136799985,1088.903136799985,1088.903136799985,1088.903136799985,1088.903136799985,1088.903136799985,1088.903136799985,1088.903136799985,1088.903136799985,1088.903136799985,1088.903136799985,1088.903136799985,1088.903136799985,1088.903136799985,1088.903136799985,1088.903136799985,1088.903136799985,,,,,,73,76,60,33,60,49,None,None,60,60,[0.08148148148148149],[-0.30277777777777776],[1],[0],[0],[5.8408306000055745],['tijiao'],-0.2,0,,[],[],[],[],[],[],[],8.935185185185185,5.918845600011991,1103.2129447000043,1105.1419394999975,,,,,,,,,,,1097.2755493999866,1097.2755493999866,1097.2755493999866,1097.2755493999866,1091.4147018000076,1091.4147018000076,1091.4147018000076,1091.4147018000076,1091.4147018000076,1091.4147018000076,1091.4147018000076,1091.4147018000076,0.00694429999566637,1091.4147018000076,,,,248,f,18,2023-03-22_14h52.08.522,RL,2022.2.4,60.02872975568152,
1,-0.3,-0.225,0,84,84,84,,,,,,,,,,None,1105.1419394999975,1105.1419394999975,1105.1419394999975,1105.1419394999975,1105.1419394999975,1105.1419394999975,f,0.4493087000155356,1105.6246558999992,1105.6246558999992,1105.6246558999992,1105.6246558999992,1105.6246558999992,1105.6246558999992,1105.923739699996,1105.923739699996,1107.0869596999837,1107.0869596999837,1107.0869596999837,1107.0869596999837,1107.0869596999837,1107.0869596999837,1107.0869596999837,1107.0869596999837,1107.0869596999837,1107.0869596999837,1107.0869596999837,1107.0869596999837,1107.0869596999837,1107.0869596999837,1107.0869596999837,1107.0869596999837,1107.0869596999837,1109.596129099984,1109.596129099984,1109.596129099984,1109.596129099984,1109.596129099984,69,68,60,47,68,51,6.0,2.1268112000252586,,,[],[],[],[],[],[],[],-0.6,2,,[],[],[],[],[],[],[],None,None,1111.7477762000053,1113.4691294000077,,,,,,,,,,,,,,,,,,,,,,,,,,,,248,f,18,2023-03-22_14h52.08.522,RL,2022.2.4,60.02872975568152,
0,0.3,0.225,0,85,85,85,,,,,,,,,,None,1113.4691294000077,1113.4691294000077,1113.4691294000077,1113.4691294000077,1113.4691294000077,1113.4691294000077,f,0.727425300021423,1114.2177346999815,1114.2177346999815,1114.2177346999815,1114.2177346999815,1114.2177346999815,1114.2177346999815,1114.5165592999838,1114.5165592999838,1115.5471254999866,1115.5471254999866,1115.5471254999866,1115.5471254999866,1115.5471254999866,1115.5471254999866,1115.5471254999866,1115.5471254999866,1115.5471254999866,1115.5471254999866,1115.5471254999866,1115.5471254999866,1115.5471254999866,1115.5471254999866,1115.5471254999866,1115.5471254999866,1115.5471254999866,,,,,,69,75,54,49,75,64,None,None,,,[],[],[],[],[],[],[],0.6,1,50,[0.06018518518518518],[-0.2777777777777778],[1],[0],[0],[4.503259300021455],['tijiao_random_2'],8.907407407407408,3.0180595999991056,1125.618788199994,1127.5476129000017,1118.0655337999924,1118.0655337999924,1118.0655337999924,1118.0655337999924,1118.0655337999924,1118.0655337999924,1118.0655337999924,1118.0655337999924,0.005811599985463545,1118.0655337999924,1122.5821842000005,1122.5821842000005,1122.5821842000005,1122.5821842000005,,,,,,,,,,,,,,248,f,18,2023-03-22_14h52.08.522,RL,2022.2.4,60.02872975568152,
1,-0.3,-0.225,0,86,86,86,,,,,,,,,,None,1127.5476129000017,1127.5476129000017,1127.5476129000017,1127.5476129000017,1127.5476129000017,1127.5476129000017,r,0.428881600004388,1127.9969849000045,1127.9969849000045,1127.9969849000045,1127.9969849000045,1127.9969849000045,1127.9969849000045,1128.2958941999823,1128.2958941999823,1129.9745839999814,1129.9745839999814,1129.9745839999814,1129.9745839999814,1129.9745839999814,1129.9745839999814,1129.9745839999814,1129.9745839999814,1129.9745839999814,1129.9745839999814,1129.9745839999814,1129.9745839999814,1129.9745839999814,1129.9745839999814,1129.9745839999814,1129.9745839999814,1129.9745839999814,,,,,,61,75,51,47,61,66,None,None,,,[],[],[],[],[],[],[],-0.2,1,60,"[0.018518518518518517, 0.012962962962962963]","[-0.22314814814814815, -0.2861111111111111]","[1, 1]","[0, 0]","[0, 0]","[7.144778599991696, 8.258513700013282]",['tijiao_random_2'],6.8240740740740735,2.137511100008851,1142.9211503999832,1144.467988599994,1132.4941658999887,1132.4941658999887,1132.4941658999887,1132.4941658999887,1132.4941658999887,1132.4941658999887,1132.4941658999887,1132.4941658999887,0.005404499999713153,1132.4941658999887,1140.7647990999976,1140.7647990999976,1140.7647990999976,1140.7647990999976,,,,,,,,,,,,,,248,f,18,2023-03-22_14h52.08.522,RL,2022.2.4,60.02872975568152,
0,0.3,0.225,0,87,87,87,,,,,,,,,,None,1144.467988599994,1144.467988599994,1144.467988599994,1144.467988599994,1144.467988599994,1144.467988599994,r,0.73300670000026,1145.2340063999873,1145.2340063999873,1145.2340063999873,1145.2340063999873,1145.2340063999873,1145.2340063999873,1145.532180899987,1145.532180899987,1147.1776039999968,1147.1776039999968,1147.1776039999968,1147.1776039999968,1147.1776039999968,1147.1776039999968,1147.1776039999968,1147.1776039999968,1147.1776039999968,1147.1776039999968,1147.1776039999968,1147.1776039999968,1147.1776039999968,1147.1776039999968,1147.1776039999968,1147.1776039999968,1147.1776039999968,,,,,,57,63,56,54,57,72,None,None,,,[],[],[],[],[],[],[],0.6,1,70,[0.07407407407407407],[-0.32314814814814813],[1],[0],[0],[3.854713199980324],['tijiao_random_2'],7.7407407407407405,1.954840399994282,1155.536775799992,1157.5321951000078,1149.6957304000098,1149.6957304000098,1149.6957304000098,1149.6957304000098,1149.6957304000098,1149.6957304000098,1149.6957304000098,1149.6957304000098,0.005515900003956631,1149.6957304000098,1153.5632118000067,1153.5632118000067,1153.5632118000067,1153.5632118000067,,,,,,,,,,,,,,248,f,18,2023-03-22_14h52.08.522,RL,2022.2.4,60.02872975568152,
1,-0.3,-0.225,0,88,88,88,,,,,,,,,,None,1157.5321951000078,1157.5321951000078,1157.5321951000078,1157.5321951000078,1157.5321951000078,1157.5321951000078,f,0.4152951000141911,1157.9651403999887,1157.9651403999887,1157.9651403999887,1157.9651403999887,1157.9651403999887,1157.9651403999887,1158.2641751999909,1158.2641751999909,1159.3110822000017,1159.3110822000017,1159.3110822000017,1159.3110822000017,1159.3110822000017,1159.3110822000017,1159.3110822000017,1159.3110822000017,1159.3110822000017,1159.3110822000017,1159.3110822000017,1159.3110822000017,1159.3110822000017,1159.3110822000017,1159.3110822000017,1159.3110822000017,1159.3110822000017,1161.8201927999908,1161.8201927999908,1161.8201927999908,1161.8201927999908,1161.8201927999908,61,63,56,52,63,61,7.0,2.841783599986229,,,[],[],[],[],[],[],[],0.2,2,,[],[],[],[],[],[],[],None,None,1164.6857705999864,1166.1922521000088,,,,,,,,,,,,,,,,,,,,,,,,,,,,248,f,18,2023-03-22_14h52.08.522,RL,2022.2.4,60.02872975568152,
0,0.3,0.225,0,89,89,89,,,,,,,,,,None,1166.1922521000088,1166.1922521000088,1166.1922521000088,1166.1922521000088,1166.1922521000088,1166.1922521000088,j,0.42517440000665374,1166.6414494999917,1166.6414494999917,1166.6414494999917,1166.6414494999917,1166.6414494999917,1166.6414494999917,1166.9404891000013,1166.9404891000013,1168.4196365999815,1168.4196365999815,1168.4196365999815,1168.4196365999815,1168.4196365999815,1168.4196365999815,1168.4196365999815,1168.4196365999815,1168.4196365999815,1168.4196365999815,1168.4196365999815,1168.4196365999815,1168.4196365999815,1168.4196365999815,1168.4196365999815,1168.4196365999815,1168.4196365999815,,,,,,68,58,55,50,50,52,None,None,50,50,"[0.08333333333333333, 0.08425925925925926]","[-0.2490740740740741, -0.33796296296296297]","[1, 1]","[0, 0]","[0, 0]","[4.06210499998997, 5.723966999998083]",['tijiao'],-0.2,0,,[],[],[],[],[],[],[],7.981481481481482,3.26050150001538,1179.953417199984,1181.7497200999933,,,,,,,,,,,1176.6740686999983,1176.6740686999983,1176.6740686999983,1176.6740686999983,1170.9306300999888,1170.9306300999888,1170.9306300999888,1170.9306300999888,1170.9306300999888,1170.9306300999888,1170.9306300999888,1170.9306300999888,0.0067934000107925385,1170.9306300999888,,,,248,f,18,2023-03-22_14h52.08.522,RL,2022.2.4,60.02872975568152,
