bandit0,black_x_pos_random,black_y_pos_random,trials.thisRepN,trials.thisTrialN,trials.thisN,trials.thisIndex,instru_img1.started,instru_img1.stopped,instru_resp.keys,instru_resp.rt,instru_resp.started,instru_resp.stopped,instru_img2.started,instru_img2.stopped,instru_resp2.keys,instru_resp2.rt,instru_resp2.started,instru_resp2.stopped,fixbefore_2.started,fixbefore_2.stopped,rest_image.started,rest_image.stopped,rest_response.keys,rest_response.started,rest_response.stopped,red.started,red.stopped,green.started,green.stopped,yellow.started,yellow.stopped,blue.started,blue.stopped,choose_bandit.keys,choose_bandit.rt,choose_bandit.started,choose_bandit.stopped,Fixation.started,Fixation.stopped,black.started,black.stopped,red_2.started,red_2.stopped,green_2.started,green_2.stopped,yellow_2.started,yellow_2.stopped,blue_2.started,blue_2.stopped,fixation_2.started,fixation_2.stopped,docs.started,docs.stopped,wait_playerB.started,wait_playerB.stopped,black_com.started,black_com.stopped,reward_sub.started,reward_sub.stopped,palyerb.started,palyerb.stopped,reward__sub.started,reward__sub.stopped,compare.started,compare.stopped,red_compare.started,red_compare.stopped,green_com.started,green_com.stopped,yellow_com.started,yellow_com.stopped,blue_com.started,blue_com.stopped,rewardyellow,rewardred,rewardblue,rewardgreen,subchoose,playerb,image_3.started,image_3.stopped,slider.response,slider.rt,slider.started,slider.stopped,text.started,text.stopped,image_4.started,image_4.stopped,image_5.started,image_5.stopped,expectself.text,expectself.started,expectself.stopped,value_expect_self,expect_self_black.started,expect_self_black.stopped,expect_self.started,expect_self.stopped,expect_self_red.started,expect_self_red.stopped,expect_self_green.started,expect_self_green.stopped,expect_self_yellow.started,expect_self_yellow.stopped,expect_self_blue.started,expect_self_blue.stopped,tijiao.started,tijiao.stopped,tijiao_click.started,tijiao_click.stopped,check.started,check.stopped,random_whicharm,whether_ask,jiantou_random.started,jiantou_random.stopped,expect_red.started,expect_red.stopped,expect_green.started,expect_green.stopped,expect_yellow.started,expect_yellow.stopped,expect_blue.started,expect_blue.stopped,expect_random_2.started,expect_random_2.stopped,expect_random_3.text,expect_random_3.started,expect_random_3.stopped,tijiao_random_2.started,tijiao_random_2.stopped,tijiao_random.started,tijiao_random.stopped,check_2.started,check_2.stopped,slider_2.response,slider_2.rt,slider_2.started,slider_2.stopped,image_7.started,image_7.stopped,confi.started,confi.stopped,notconfi.started,notconfi.stopped,bigx.started,bigx.stopped,intertrialfix.started,intertrialfix.stopped,tijiao_click.x,tijiao_click.y,tijiao_click.leftButton,tijiao_click.midButton,tijiao_click.rightButton,tijiao_click.time,tijiao_click.clicked_name,tijiao_random.x,tijiao_random.y,tijiao_random.leftButton,tijiao_random.midButton,tijiao_random.rightButton,tijiao_random.time,tijiao_random.clicked_name,rest_response.rt,participant,Gender,Age,date,expName,psychopyVersion,frameRate,
,,,,,,,25.05539009999484,None,space,5.668323999969289,25.05539009999484,None,,,,,,,,,,,,,,,,,,,,,,,,,,,,,,,,,,,,,,,,,,,,,,,,,,,,,,,,,,,,,,,,,,,,,,,,,,,,,,,,,,,,,,,,,,,,,,,,,,,,,,,,,,,,,,,,,,,,,,,,,,,,,,,,,,,,,,,,,,,,,,,,,,,,,,,,,,249,m,24,2023_Mar_22_1612,RL,2021.2.3,59.972928209557814,
,,,,,,,,,,,,,30.760711399954744,None,s,25.132446100004017,30.760711399954744,None,,,,,,,,,,,,,,,,,,,,,,,,,,,,,,,,,,,,,,,,,,,,,,,,,,,,,,,,,,,,,,,,,,,,,,,,,,,,,,,,,,,,,,,,,,,,,,,,,,,,,,,,,,,,,,,,,,,,,,,,,,,,,,,,,,,,,,,,,,,,,,,,,,,,249,m,24,2023_Mar_22_1612,RL,2021.2.3,59.972928209557814,
1,-0.3,-0.225,0,0,0,0,,,,,,,,,,,,,55.927802499965765,None,None,None,None,None,None,57.04861980001442,None,57.04861980001442,None,57.04861980001442,None,57.04861980001442,None,r,0.7345151000190526,57.04861980001442,None,57.04861980001442,None,57.919345399946906,None,57.919345399946906,None,57.919345399946906,None,57.919345399946906,None,57.919345399946906,None,57.919345399946906,None,58.21039489994291,None,58.21039489994291,None,59.40398099995218,None,59.40398099995218,None,59.40398099995218,None,59.40398099995218,None,59.40398099995218,None,59.40398099995218,None,59.40398099995218,None,59.40398099995218,None,59.40398099995218,None,37,60,26,55,37,48,62.033452400006354,None,2.0,2.0547793000005186,62.033452400006354,None,62.033452400006354,None,62.033452400006354,None,62.033452400006354,None,,None,None,,None,None,None,None,None,None,None,None,None,None,None,None,None,None,None,None,None,None,0.2,3,None,None,None,None,None,None,None,None,None,None,None,None,,None,None,None,None,None,None,None,None,None,None,None,None,None,None,None,None,None,None,None,None,64.75283040001523,None,,,,,,,,,,,,,,,,249,m,24,2023_Mar_22_1612,RL,2021.2.3,59.972928209557814,
0,0.3,0.225,0,1,1,1,,,,,,,,,,,,,,,None,None,None,None,None,66.45575740002096,None,66.45575740002096,None,66.45575740002096,None,66.45575740002096,None,f,0.6974622000707313,66.45575740002096,None,66.45575740002096,None,67.19968379999045,None,67.19968379999045,None,67.19968379999045,None,67.19968379999045,None,67.19968379999045,None,67.19968379999045,None,67.48321990005206,68.43412860005628,67.48321990005206,68.43412860005628,68.46720870002173,None,68.46720870002173,None,68.46720870002173,None,68.46720870002173,None,68.46720870002173,None,68.46720870002173,None,68.46720870002173,None,68.46720870002173,None,68.46720870002173,None,45,54,33,54,54,44,None,None,None,None,None,None,None,None,None,None,None,None,60,71.07377260003705,None,60,71.07377260003705,None,71.07377260003705,None,71.07377260003705,None,71.07377260003705,None,71.07377260003705,None,71.07377260003705,None,71.07377260003705,None,0.014035960077308118,None,71.07377260003705,None,-0.6,0,None,None,None,None,None,None,None,None,None,None,None,None,,None,None,None,None,None,None,None,None,1.15625,3.0390316999983042,78.5069445000263,None,78.5069445000263,None,78.5069445000263,None,78.5069445000263,None,None,None,81.55902859999333,None,0.07552083333333333,-0.2877604166666667,1,0,0,7.336277199909091,tijiao,,,,,,,,,249,m,24,2023_Mar_22_1612,RL,2021.2.3,59.972928209557814,
1,-0.3,-0.225,0,2,2,2,,,,,,,,,,,,,,,None,None,None,None,None,83.0819174000062,None,83.0819174000062,None,83.0819174000062,None,83.0819174000062,None,i,0.4116394999437034,83.0819174000062,None,83.0819174000062,None,83.53649730002508,None,83.53649730002508,None,83.53649730002508,None,83.53649730002508,None,83.53649730002508,None,83.53649730002508,None,83.82804960000794,None,83.82804960000794,None,85.71324279997498,None,85.71324279997498,None,85.71324279997498,None,85.71324279997498,None,85.71324279997498,None,85.71324279997498,None,85.71324279997498,None,85.71324279997498,None,85.71324279997498,None,36,54,32,58,32,56,88.23607420001645,None,1.0,1.8510204999474809,88.23607420001645,None,88.23607420001645,None,88.23607420001645,None,88.23607420001645,None,,None,None,,None,None,None,None,None,None,None,None,None,None,None,None,None,None,None,None,None,None,-0.2,3,None,None,None,None,None,None,None,None,None,None,None,None,,None,None,None,None,None,None,None,None,None,None,None,None,None,None,None,None,None,None,None,None,90.14445120003074,None,,,,,,,,,,,,,,,,249,m,24,2023_Mar_22_1612,RL,2021.2.3,59.972928209557814,
0,0.3,0.225,0,3,3,3,,,,,,,,,,,,,,,None,None,None,None,None,91.93816310004331,None,91.93816310004331,None,91.93816310004331,None,91.93816310004331,None,j,0.5752968000015244,91.93816310004331,None,91.93816310004331,None,92.56077980005648,None,92.56077980005648,None,92.56077980005648,None,92.56077980005648,None,92.56077980005648,None,92.56077980005648,None,92.85103819996584,94.43552299996372,92.85103819996584,94.43552299996372,94.47003159997985,None,94.47003159997985,None,94.47003159997985,None,94.47003159997985,None,94.47003159997985,None,94.47003159997985,None,94.47003159997985,None,94.47003159997985,None,94.47003159997985,None,43,54,30,52,52,32,96.99159550003242,None,7.0,2.665630599949509,96.99159550003242,None,96.99159550003242,None,96.99159550003242,None,96.99159550003242,None,,None,None,,None,None,None,None,None,None,None,None,None,None,None,None,None,None,None,None,None,None,0.6,3,None,None,None,None,None,None,None,None,None,None,None,None,,None,None,None,None,None,None,None,None,None,None,None,None,None,None,None,None,None,None,None,None,99.71227050002199,None,,,,,,,,,,,,,,,,249,m,24,2023_Mar_22_1612,RL,2021.2.3,59.972928209557814,
1,-0.3,-0.225,0,4,4,4,,,,,,,,,,,,,,,None,None,None,None,None,101.37802619999275,None,101.37802619999275,None,101.37802619999275,None,101.37802619999275,None,j,0.37537459994200617,101.37802619999275,None,101.37802619999275,None,101.79602620005608,None,101.79602620005608,None,101.79602620005608,None,101.79602620005608,None,101.79602620005608,None,101.79602620005608,None,102.09057430003304,None,102.09057430003304,None,103.54023729998153,None,103.54023729998153,None,103.54023729998153,None,103.54023729998153,None,103.54023729998153,None,103.54023729998153,None,103.54023729998153,None,103.54023729998153,None,103.54023729998153,None,46,54,28,49,49,47,106.06386240001302,None,7.0,1.7161968998843804,106.06386240001302,None,106.06386240001302,None,106.06386240001302,None,106.06386240001302,None,,None,None,,None,None,None,None,None,None,None,None,None,None,None,None,None,None,None,None,None,None,-0.6,3,None,None,None,None,None,None,None,None,None,None,None,None,,None,None,None,None,None,None,None,None,None,None,None,None,None,None,None,None,None,None,None,None,107.83134529995732,None,,,,,,,,,,,,,,,,249,m,24,2023_Mar_22_1612,RL,2021.2.3,59.972928209557814,
0,0.3,0.225,0,5,5,5,,,,,,,,,,,,,,,None,None,None,None,None,109.51671879994683,None,109.51671879994683,None,109.51671879994683,None,109.51671879994683,None,r,0.4868011000799015,109.51671879994683,None,109.51671879994683,None,110.05245199997444,None,110.05245199997444,None,110.05245199997444,None,110.05245199997444,None,110.05245199997444,None,110.05245199997444,None,110.34630370000377,None,110.34630370000377,None,111.26054819999263,None,111.26054819999263,None,111.26054819999263,None,111.26054819999263,None,111.26054819999263,None,111.26054819999263,None,111.26054819999263,None,111.26054819999263,None,111.26054819999263,None,37,47,30,52,37,49,113.77930529997684,None,2.0,2.1046014999737963,113.77930529997684,None,113.77930529997684,None,113.77930529997684,None,113.77930529997684,None,,None,None,,None,None,None,None,None,None,None,None,None,None,None,None,None,None,None,None,None,None,0.2,3,None,None,None,None,None,None,None,None,None,None,None,None,,None,None,None,None,None,None,None,None,None,None,None,None,None,None,None,None,None,None,None,None,115.94844199996442,None,,,,,,,,,,,,,,,,249,m,24,2023_Mar_22_1612,RL,2021.2.3,59.972928209557814,
1,-0.3,-0.225,0,6,6,6,,,,,,,,,,,,,,,None,None,None,None,None,117.83992900000885,None,117.83992900000885,None,117.83992900000885,None,117.83992900000885,None,f,0.6736408000579104,117.83992900000885,None,117.83992900000885,None,118.56296000001021,None,118.56296000001021,None,118.56296000001021,None,118.56296000001021,None,118.56296000001021,None,118.56296000001021,None,118.85220610001124,119.80301469995175,118.85220610001124,119.80301469995175,119.8348616999574,None,119.8348616999574,None,119.8348616999574,None,119.8348616999574,None,119.8348616999574,None,119.8348616999574,None,119.8348616999574,None,119.8348616999574,None,119.8348616999574,None,35,46,32,51,46,52,None,None,None,None,None,None,None,None,None,None,None,None,52,122.36382309999317,None,52,122.36382309999317,None,122.36382309999317,None,122.36382309999317,None,122.36382309999317,None,122.36382309999317,None,122.36382309999317,None,122.36382309999317,None,0.01598754001315683,None,122.36382309999317,None,-0.2,0,None,None,None,None,None,None,None,None,None,None,None,None,,None,None,None,None,None,None,None,None,5.010416666666667,1.8159704999998212,126.51445140002761,None,126.51445140002761,None,126.51445140002761,None,126.51445140002761,None,None,None,128.35699300002307,None,-0.032552083333333336,-0.27734375,1,0,0,4.103492000023834,tijiao,,,,,,,,,249,m,24,2023_Mar_22_1612,RL,2021.2.3,59.972928209557814,
0,0.3,0.225,0,7,7,7,,,,,,,,,,,,,,,None,None,None,None,None,130.13103980000596,None,130.13103980000596,None,130.13103980000596,None,130.13103980000596,None,j,0.4935498000122607,130.13103980000596,None,130.13103980000596,None,130.66924950003158,None,130.66924950003158,None,130.66924950003158,None,130.66924950003158,None,130.66924950003158,None,130.66924950003158,None,130.944114599959,132.6618002000032,130.944114599959,132.6618002000032,132.694912499981,None,132.694912499981,None,132.694912499981,None,132.694912499981,None,132.694912499981,None,132.694912499981,None,132.694912499981,None,132.694912499981,None,132.694912499981,None,37,50,35,58,58,52,135.21741459995974,None,7.0,2.33191569999326,135.21741459995974,None,135.21741459995974,None,135.21741459995974,None,135.21741459995974,None,,None,None,,None,None,None,None,None,None,None,None,None,None,None,None,None,None,None,None,None,None,0.2,3,None,None,None,None,None,None,None,None,None,None,None,None,,None,None,None,None,None,None,None,None,None,None,None,None,None,None,None,None,None,None,None,None,137.6049767000368,None,,,,,,,,,,,,,,,,249,m,24,2023_Mar_22_1612,RL,2021.2.3,59.972928209557814,
1,-0.3,-0.225,0,8,8,8,,,,,,,,,,,,,,,None,None,None,None,None,139.43753760005347,None,139.43753760005347,None,139.43753760005347,None,139.43753760005347,None,j,0.6276416000910103,139.43753760005347,None,139.43753760005347,None,140.10835320001934,None,140.10835320001934,None,140.10835320001934,None,140.10835320001934,None,140.10835320001934,None,140.10835320001934,None,140.4006187999621,None,140.4006187999621,None,141.3184871999547,None,141.3184871999547,None,141.3184871999547,None,141.3184871999547,None,141.3184871999547,None,141.3184871999547,None,141.3184871999547,None,141.3184871999547,None,141.3184871999547,None,31,45,40,54,54,52,143.8330417999532,None,7.0,1.191387000028044,143.8330417999532,None,143.8330417999532,None,143.8330417999532,None,143.8330417999532,None,,None,None,,None,None,None,None,None,None,None,None,None,None,None,None,None,None,None,None,None,None,0.6,3,None,None,None,None,None,None,None,None,None,None,None,None,,None,None,None,None,None,None,None,None,None,None,None,None,None,None,None,None,None,None,None,None,145.08058870001696,None,,,,,,,,,,,,,,,,249,m,24,2023_Mar_22_1612,RL,2021.2.3,59.972928209557814,
0,0.3,0.225,0,9,9,9,,,,,,,,,,,,,,,None,None,None,None,None,146.74296069995034,None,146.74296069995034,None,146.74296069995034,None,146.74296069995034,None,j,1.0018579000607133,146.74296069995034,None,146.74296069995034,None,147.79475040000398,None,147.79475040000398,None,147.79475040000398,None,147.79475040000398,None,147.79475040000398,None,147.79475040000398,None,148.08898250001948,149.57388269994408,148.08898250001948,149.57388269994408,149.60822449997067,None,149.60822449997067,None,149.60822449997067,None,149.60822449997067,None,149.60822449997067,None,149.60822449997067,None,149.60822449997067,None,149.60822449997067,None,149.60822449997067,None,30,41,40,45,45,51,None,None,None,None,None,None,None,None,None,None,None,None,54,152.14143049996346,None,54,152.14143049996346,None,152.14143049996346,None,152.14143049996346,None,152.14143049996346,None,152.14143049996346,None,152.14143049996346,None,152.14143049996346,None,0.009574239957146347,None,152.14143049996346,None,0.2,0,None,None,None,None,None,None,None,None,None,None,None,None,,None,None,None,None,None,None,None,None,7.953125,5.499807500047609,156.90138940000907,None,156.90138940000907,None,156.90138940000907,None,156.90138940000907,None,None,None,162.41533290001098,None,0.13541666666666666,-0.3020833333333333,1,0,0,4.714001700049266,tijiao,,,,,,,,,249,m,24,2023_Mar_22_1612,RL,2021.2.3,59.972928209557814,
1,-0.3,-0.225,0,10,10,10,,,,,,,,,,,,,,,None,None,None,None,None,164.37144879996777,None,164.37144879996777,None,164.37144879996777,None,164.37144879996777,None,f,0.333446400007233,164.37144879996777,None,164.37144879996777,None,164.75948729994707,None,164.75948729994707,None,164.75948729994707,None,164.75948729994707,None,164.75948729994707,None,164.75948729994707,None,165.05086139997002,None,165.05086139997002,None,166.31496400001924,None,166.31496400001924,None,166.31496400001924,None,166.31496400001924,None,166.31496400001924,None,166.31496400001924,None,166.31496400001924,None,166.31496400001924,None,166.31496400001924,None,35,47,30,54,47,31,None,None,None,None,None,None,None,None,None,None,None,None,,None,None,,None,None,None,None,None,None,None,None,None,None,None,None,None,None,None,None,None,None,0.6,1,168.8637919999892,None,168.8637919999892,None,168.8637919999892,None,168.8637919999892,None,168.8637919999892,None,168.8637919999892,None,54,168.8637919999892,None,168.8637919999892,None,0.016252919915132225,None,168.8637919999892,None,6.9765625,2.6264150999486446,176.14108850003686,None,176.14108850003686,None,176.14108850003686,None,176.14108850003686,None,None,None,178.7937457000371,None,,,,,,,,0.125,-0.28515625,1,0,0,7.105690299998969,tijiao_random_2,,249,m,24,2023_Mar_22_1612,RL,2021.2.3,59.972928209557814,
0,0.3,0.225,0,11,11,11,,,,,,,,,,,,,,,None,None,None,None,None,180.6831803000532,None,180.6831803000532,None,180.6831803000532,None,180.6831803000532,None,j,0.36188779992517084,180.6831803000532,None,180.6831803000532,None,181.0827777000377,None,181.0827777000377,None,181.0827777000377,None,181.0827777000377,None,181.0827777000377,None,181.0827777000377,None,181.3790042999899,None,181.3790042999899,None,183.37721239996608,None,183.37721239996608,None,183.37721239996608,None,183.37721239996608,None,183.37721239996608,None,183.37721239996608,None,183.37721239996608,None,183.37721239996608,None,183.37721239996608,None,39,49,39,52,52,51,185.90283569996245,None,7.0,2.451102500082925,185.90283569996245,None,185.90283569996245,None,185.90283569996245,None,185.90283569996245,None,,None,None,,None,None,None,None,None,None,None,None,None,None,None,None,None,None,None,None,None,None,-0.6,3,None,None,None,None,None,None,None,None,None,None,None,None,,None,None,None,None,None,None,None,None,None,None,None,None,None,None,None,None,None,None,None,None,188.4042448999826,None,,,,,,,,,,,,,,,,249,m,24,2023_Mar_22_1612,RL,2021.2.3,59.972928209557814,
1,-0.3,-0.225,0,12,12,12,,,,,,,,,,,,,,,None,None,None,None,None,190.2392330999719,None,190.2392330999719,None,190.2392330999719,None,190.2392330999719,None,j,0.4658236000686884,190.2392330999719,None,190.2392330999719,None,190.76013389998116,None,190.76013389998116,None,190.76013389998116,None,190.76013389998116,None,190.76013389998116,None,190.76013389998116,None,191.052560799988,None,191.052560799988,None,193.05128719995264,None,193.05128719995264,None,193.05128719995264,None,193.05128719995264,None,193.05128719995264,None,193.05128719995264,None,193.05128719995264,None,193.05128719995264,None,193.05128719995264,None,43,46,34,62,62,53,None,None,None,None,None,None,None,None,None,None,None,None,62,195.5826530000195,None,62,195.5826530000195,None,195.5826530000195,None,195.5826530000195,None,195.5826530000195,None,195.5826530000195,None,195.5826530000195,None,195.5826530000195,None,0.0151166400173679,None,195.5826530000195,None,0.2,0,None,None,None,None,None,None,None,None,None,None,None,None,,None,None,None,None,None,None,None,None,7.927083333333334,2.6518513000337407,203.33001210005023,None,203.33001210005023,None,203.33001210005023,None,203.33001210005023,None,None,None,206.0127644999884,None,0.14973958333333334,-0.3190104166666667,1,0,0,7.7043703000526875,tijiao,,,,,,,,,249,m,24,2023_Mar_22_1612,RL,2021.2.3,59.972928209557814,
0,0.3,0.225,0,13,13,13,,,,,,,,,,,,,,,None,None,None,None,None,208.018055499997,None,208.018055499997,None,208.018055499997,None,208.018055499997,None,j,0.6570131999906152,208.018055499997,None,208.018055499997,None,208.71904410002753,None,208.71904410002753,None,208.71904410002753,None,208.71904410002753,None,208.71904410002753,None,208.71904410002753,None,209.01486810005736,None,209.01486810005736,None,210.36094929999672,None,210.36094929999672,None,210.36094929999672,None,210.36094929999672,None,210.36094929999672,None,210.36094929999672,None,210.36094929999672,None,210.36094929999672,None,210.36094929999672,None,38,47,37,65,65,45,212.8702656000387,None,7.0,2.0162728999275714,212.8702656000387,None,212.8702656000387,None,212.8702656000387,None,212.8702656000387,None,,None,None,,None,None,None,None,None,None,None,None,None,None,None,None,None,None,None,None,None,None,-0.6,2,None,None,None,None,None,None,None,None,None,None,None,None,,None,None,None,None,None,None,None,None,None,None,None,None,None,None,None,None,None,None,None,None,214.9536321000196,None,,,,,,,,,,,,,,,,249,m,24,2023_Mar_22_1612,RL,2021.2.3,59.972928209557814,
1,-0.3,-0.225,0,14,14,14,,,,,,,,,,,,,,,None,None,None,None,None,216.57490829995368,None,216.57490829995368,None,216.57490829995368,None,216.57490829995368,None,j,0.4804083000635728,216.57490829995368,None,216.57490829995368,None,217.0922406000318,None,217.0922406000318,None,217.0922406000318,None,217.0922406000318,None,217.0922406000318,None,217.0922406000318,None,217.38733179995324,219.172154400032,217.38733179995324,219.172154400032,219.20415470004082,None,219.20415470004082,None,219.20415470004082,None,219.20415470004082,None,219.20415470004082,None,219.20415470004082,None,219.20415470004082,None,219.20415470004082,None,219.20415470004082,None,36,39,40,54,54,66,221.72412729996722,None,2.0,2.10243139998056,221.72412729996722,None,221.72412729996722,None,221.72412729996722,None,221.72412729996722,None,,None,None,,None,None,None,None,None,None,None,None,None,None,None,None,None,None,None,None,None,None,-0.2,2,None,None,None,None,None,None,None,None,None,None,None,None,,None,None,None,None,None,None,None,None,None,None,None,None,None,None,None,None,None,None,None,None,223.89529130002484,None,,,,,,,,,,,,,,,,249,m,24,2023_Mar_22_1612,RL,2021.2.3,59.972928209557814,
0,0.3,0.225,0,15,15,15,,,,,,,,,,,,,,,None,None,None,None,None,225.83089950005524,None,225.83089950005524,None,225.83089950005524,None,225.83089950005524,None,f,0.4045100000221282,225.83089950005524,None,225.83089950005524,None,226.2834496999858,None,226.2834496999858,None,226.2834496999858,None,226.2834496999858,None,226.2834496999858,None,226.2834496999858,None,226.57700849999674,None,226.57700849999674,None,227.6135003999807,None,227.6135003999807,None,227.6135003999807,None,227.6135003999807,None,227.6135003999807,None,227.6135003999807,None,227.6135003999807,None,227.6135003999807,None,227.6135003999807,None,29,47,38,59,47,26,None,None,None,None,None,None,None,None,None,None,None,None,,None,None,,None,None,None,None,None,None,None,None,None,None,None,None,None,None,None,None,None,None,0.6,1,230.1517690999899,None,230.1517690999899,None,230.1517690999899,None,230.1517690999899,None,230.1517690999899,None,230.1517690999899,None,53,230.1517690999899,None,230.1517690999899,None,0.0027595399878919125,None,230.1517690999899,None,7.940104166666666,2.080136700067669,236.6903315000236,None,236.6903315000236,None,236.6903315000236,None,236.6903315000236,None,None,None,238.78521510004066,None,,,,,,,,-0.05859375,-0.2942708333333333,1,0,0,6.508083800086752,tijiao_random_2,,249,m,24,2023_Mar_22_1612,RL,2021.2.3,59.972928209557814,
1,-0.3,-0.225,0,16,16,16,,,,,,,,,,,,,,,None,None,None,None,None,240.59099449997302,None,240.59099449997302,None,240.59099449997302,None,240.59099449997302,None,i,0.39436210005078465,240.59099449997302,None,240.59099449997302,None,241.02734489995055,None,241.02734489995055,None,241.02734489995055,None,241.02734489995055,None,241.02734489995055,None,241.02734489995055,None,241.32086530001834,242.38803280005231,241.32086530001834,242.38803280005231,242.4201806000201,None,242.4201806000201,None,242.4201806000201,None,242.4201806000201,None,242.4201806000201,None,242.4201806000201,None,242.4201806000201,None,242.4201806000201,None,242.4201806000201,None,28,38,47,53,47,42,None,None,None,None,None,None,None,None,None,None,None,None,36,244.945556199993,None,36,244.945556199993,None,244.945556199993,None,244.945556199993,None,244.945556199993,None,244.945556199993,None,244.945556199993,None,244.945556199993,None,0.0021860599517822266,None,244.945556199993,None,-0.6,0,None,None,None,None,None,None,None,None,None,None,None,None,,None,None,None,None,None,None,None,None,6.8984375,0.8121210999088362,252.96719310001936,None,252.96719310001936,None,252.96719310001936,None,252.96719310001936,None,None,None,253.79574109998066,None,0.11328125,-0.28125,1,0,0,7.9754179000156,tijiao,,,,,,,,,249,m,24,2023_Mar_22_1612,RL,2021.2.3,59.972928209557814,
0,0.3,0.225,0,17,17,17,,,,,,,,,,,,,,,None,None,None,None,None,255.4296893000137,None,255.4296893000137,None,255.4296893000137,None,255.4296893000137,None,j,0.41573880007490516,255.4296893000137,None,255.4296893000137,None,255.88111640000716,None,255.88111640000716,None,255.88111640000716,None,255.88111640000716,None,255.88111640000716,None,255.88111640000716,None,256.1804472999647,None,256.1804472999647,None,257.33136279997416,None,257.33136279997416,None,257.33136279997416,None,257.33136279997416,None,257.33136279997416,None,257.33136279997416,None,257.33136279997416,None,257.33136279997416,None,257.33136279997416,None,33,52,58,55,55,57,259.8467923999997,None,5.0,2.206966699915938,259.8467923999997,None,259.8467923999997,None,259.8467923999997,None,259.8467923999997,None,,None,None,,None,None,None,None,None,None,None,None,None,None,None,None,None,None,None,None,None,None,0.6,2,None,None,None,None,None,None,None,None,None,None,None,None,,None,None,None,None,None,None,None,None,None,None,None,None,None,None,None,None,None,None,None,None,262.11237790004816,None,,,,,,,,,,,,,,,,249,m,24,2023_Mar_22_1612,RL,2021.2.3,59.972928209557814,
1,-0.3,-0.225,0,18,18,18,,,,,,,,,,,,,,,None,None,None,None,None,263.9572930999566,None,263.9572930999566,None,263.9572930999566,None,263.9572930999566,None,r,0.6983204000862315,263.9572930999566,None,263.9572930999566,None,264.7075533999596,None,264.7075533999596,None,264.7075533999596,None,264.7075533999596,None,264.7075533999596,None,264.7075533999596,None,265.00376180000603,None,265.00376180000603,None,266.12420169997495,None,266.12420169997495,None,266.12420169997495,None,266.12420169997495,None,266.12420169997495,None,266.12420169997495,None,266.12420169997495,None,266.12420169997495,None,266.12420169997495,None,39,47,54,55,39,47,268.6450767000206,None,1.0,2.4019500999711454,268.6450767000206,None,268.6450767000206,None,268.6450767000206,None,268.6450767000206,None,,None,None,,None,None,None,None,None,None,None,None,None,None,None,None,None,None,None,None,None,None,0.6,2,None,None,None,None,None,None,None,None,None,None,None,None,,None,None,None,None,None,None,None,None,None,None,None,None,None,None,None,None,None,None,None,None,271.1074331999989,None,,,,,,,,,,,,,,,,249,m,24,2023_Mar_22_1612,RL,2021.2.3,59.972928209557814,
0,0.3,0.225,0,19,19,19,,,,,,,,,,,,,,,None,None,None,None,None,273.11370949994307,None,273.11370949994307,None,273.11370949994307,None,273.11370949994307,None,j,0.3421388000715524,273.11370949994307,None,273.11370949994307,None,273.49940450000577,None,273.49940450000577,None,273.49940450000577,None,273.49940450000577,None,273.49940450000577,None,273.49940450000577,None,273.7932044999907,None,273.7932044999907,None,274.84250539995264,None,274.84250539995264,None,274.84250539995264,None,274.84250539995264,None,274.84250539995264,None,274.84250539995264,None,274.84250539995264,None,274.84250539995264,None,274.84250539995264,None,49,54,54,60,60,62,277.35966359998565,None,4.0,2.3917998999822885,277.35966359998565,None,277.35966359998565,None,277.35966359998565,None,277.35966359998565,None,,None,None,,None,None,None,None,None,None,None,None,None,None,None,None,None,None,None,None,None,None,-0.6,3,None,None,None,None,None,None,None,None,None,None,None,None,,None,None,None,None,None,None,None,None,None,None,None,None,None,None,None,None,None,None,None,None,279.8024439000292,None,,,,,,,,,,,,,,,,249,m,24,2023_Mar_22_1612,RL,2021.2.3,59.972928209557814,
1,-0.3,-0.225,0,20,20,20,,,,,,,,,,,,,,,None,None,None,None,None,281.36942230002023,None,281.36942230002023,None,281.36942230002023,None,281.36942230002023,None,j,0.45768699992913753,281.36942230002023,None,281.36942230002023,None,281.8703619999578,None,281.8703619999578,None,281.8703619999578,None,281.8703619999578,None,281.8703619999578,None,281.8703619999578,None,282.16562380001415,None,282.16562380001415,None,284.17937919998076,None,284.17937919998076,None,284.17937919998076,None,284.17937919998076,None,284.17937919998076,None,284.17937919998076,None,284.17937919998076,None,284.17937919998076,None,284.17937919998076,None,48,53,59,54,54,53,None,None,None,None,None,None,None,None,None,None,None,None,62,286.7312017000513,None,62,286.7312017000513,None,286.7312017000513,None,286.7312017000513,None,286.7312017000513,None,286.7312017000513,None,286.7312017000513,None,286.7312017000513,None,0.0004203398711979389,None,286.7312017000513,None,0.6,0,None,None,None,None,None,None,None,None,None,None,None,None,,None,None,None,None,None,None,None,None,10.049479166666668,1.3181401999900118,291.15811660001054,None,291.15811660001054,None,291.15811660001054,None,291.15811660001054,None,None,None,292.50384629995096,None,0.026041666666666668,-0.2721354166666667,1,0,0,4.387308800010942,tijiao,,,,,,,,,249,m,24,2023_Mar_22_1612,RL,2021.2.3,59.972928209557814,
0,0.3,0.225,0,21,21,21,,,,,,,,,,,,,,,None,None,None,None,None,294.12839720002376,None,294.12839720002376,None,294.12839720002376,None,294.12839720002376,None,j,0.3784186999546364,294.12839720002376,None,294.12839720002376,None,294.553944400046,None,294.553944400046,None,294.553944400046,None,294.553944400046,None,294.553944400046,None,294.553944400046,None,294.84109849995,296.2253706000047,294.84109849995,296.2253706000047,296.2577704000287,None,296.2577704000287,None,296.2577704000287,None,296.2577704000287,None,296.2577704000287,None,296.2577704000287,None,296.2577704000287,None,296.2577704000287,None,296.2577704000287,None,38,54,56,61,61,58,None,None,None,None,None,None,None,None,None,None,None,None,62,298.7912611999782,None,62,298.7912611999782,None,298.7912611999782,None,298.7912611999782,None,298.7912611999782,None,298.7912611999782,None,298.7912611999782,None,298.7912611999782,None,0.010656539932824671,None,298.7912611999782,None,-0.2,0,None,None,None,None,None,None,None,None,None,None,None,None,,None,None,None,None,None,None,None,None,9.138020833333332,1.9725121000083163,309.2541418999899,None,309.2541418999899,None,309.2541418999899,None,309.2541418999899,None,None,None,311.25033149996307,None,0.13020833333333334,-0.2916666666666667,1,0,0,10.268723499961197,tijiao,,,,,,,,,249,m,24,2023_Mar_22_1612,RL,2021.2.3,59.972928209557814,
1,-0.3,-0.225,0,22,22,22,,,,,,,,,,,,,,,None,None,None,None,None,312.9078093999997,None,312.9078093999997,None,312.9078093999997,None,312.9078093999997,None,j,0.5990590000292286,312.9078093999997,None,312.9078093999997,None,313.5641439999454,None,313.5641439999454,None,313.5641439999454,None,313.5641439999454,None,313.5641439999454,None,313.5641439999454,None,313.8542897000443,315.1552866999991,313.8542897000443,315.1552866999991,315.1896828999743,None,315.1896828999743,None,315.1896828999743,None,315.1896828999743,None,315.1896828999743,None,315.1896828999743,None,315.1896828999743,None,315.1896828999743,None,315.1896828999743,None,42,43,59,58,58,63,317.7117840000428,None,4.0,1.6490308999782428,317.7117840000428,None,317.7117840000428,None,317.7117840000428,None,317.7117840000428,None,,None,None,,None,None,None,None,None,None,None,None,None,None,None,None,None,None,None,None,None,None,0.6,2,None,None,None,None,None,None,None,None,None,None,None,None,,None,None,None,None,None,None,None,None,None,None,None,None,None,None,None,None,None,None,None,None,319.41485039994586,None,,,,,,,,,,,,,,,,249,m,24,2023_Mar_22_1612,RL,2021.2.3,59.972928209557814,
0,0.3,0.225,0,23,23,23,,,,,,,,,,,,,,,None,None,None,None,None,321.29675790003967,None,321.29675790003967,None,321.29675790003967,None,321.29675790003967,None,f,0.4201674999203533,321.29675790003967,None,321.29675790003967,None,321.7707014000043,None,321.7707014000043,None,321.7707014000043,None,321.7707014000043,None,321.7707014000043,None,321.7707014000043,None,322.06014159996994,323.8778344000457,322.06014159996994,323.8778344000457,323.91220959997736,None,323.91220959997736,None,323.91220959997736,None,323.91220959997736,None,323.91220959997736,None,323.91220959997736,None,323.91220959997736,None,323.91220959997736,None,323.91220959997736,None,42,46,57,54,46,64,None,None,None,None,None,None,None,None,None,None,None,None,,None,None,,None,None,None,None,None,None,None,None,None,None,None,None,None,None,None,None,None,None,-0.6,1,326.4567921999842,None,326.4567921999842,None,326.4567921999842,None,326.4567921999842,None,326.4567921999842,None,326.4567921999842,None,34,326.4567921999842,None,326.4567921999842,None,0.014501819969154894,None,326.4567921999842,None,4.919270833333333,1.4895621999166906,332.27978310000617,None,332.27978310000617,None,332.27978310000617,None,332.27978310000617,None,None,None,333.7840301999822,None,,,,,,,,0.029947916666666668,-0.2864583333333333,1,0,0,5.786389000015333,tijiao_random_2,,249,m,24,2023_Mar_22_1612,RL,2021.2.3,59.972928209557814,
1,-0.3,-0.225,0,24,24,24,,,,,,,,,,,,,,,None,None,None,None,None,335.70594030001666,None,335.70594030001666,None,335.70594030001666,None,335.70594030001666,None,i,0.42113350005820394,335.70594030001666,None,335.70594030001666,None,336.1814482000191,None,336.1814482000191,None,336.1814482000191,None,336.1814482000191,None,336.1814482000191,None,336.1814482000191,None,336.46998529997654,337.5208374999929,336.46998529997654,337.5208374999929,337.55090350005776,None,337.55090350005776,None,337.55090350005776,None,337.55090350005776,None,337.55090350005776,None,337.55090350005776,None,337.55090350005776,None,337.55090350005776,None,337.55090350005776,None,49,46,57,58,57,38,340.0762748999987,None,7.0,1.9185054999543354,340.0762748999987,None,340.0762748999987,None,340.0762748999987,None,340.0762748999987,None,,None,None,,None,None,None,None,None,None,None,None,None,None,None,None,None,None,None,None,None,None,-0.2,2,None,None,None,None,None,None,None,None,None,None,None,None,,None,None,None,None,None,None,None,None,None,None,None,None,None,None,None,None,None,None,None,None,342.0515707000159,None,,,,,,,,,,,,,,,,249,m,24,2023_Mar_22_1612,RL,2021.2.3,59.972928209557814,
0,0.3,0.225,0,25,25,25,,,,,,,,,,,,,,,None,None,None,None,None,343.82930049998686,None,343.82930049998686,None,343.82930049998686,None,343.82930049998686,None,None,,343.82930049998686,None,343.82930049998686,None,None,None,None,None,None,None,None,None,None,None,None,None,None,None,None,None,None,None,None,None,None,None,None,None,None,None,None,None,None,None,None,None,None,None,49,32,61,49,0,**,None,None,None,None,None,None,None,None,None,None,None,None,,None,None,,None,None,None,None,None,None,None,None,None,None,None,None,None,None,None,None,None,None,-0.2,0,None,None,None,None,None,None,None,None,None,None,None,None,,None,None,None,None,None,None,None,None,None,None,None,None,None,None,None,None,None,None,345.60345309996046,None,351.61378180002794,None,,,,,,,,,,,,,,,,249,m,24,2023_Mar_22_1612,RL,2021.2.3,59.972928209557814,
1,-0.3,-0.225,0,26,26,26,,,,,,,,,,,,,,,None,None,None,None,None,353.2860972000053,None,353.2860972000053,None,353.2860972000053,None,353.2860972000053,None,f,0.3222084000008181,353.2860972000053,None,353.2860972000053,None,353.6546575999819,None,353.6546575999819,None,353.6546575999819,None,353.6546575999819,None,353.6546575999819,None,353.6546575999819,None,353.94906859996263,355.7336359999608,353.94906859996263,355.7336359999608,355.7655336000025,None,355.7655336000025,None,355.7655336000025,None,355.7655336000025,None,355.7655336000025,None,355.7655336000025,None,355.7655336000025,None,355.7655336000025,None,355.7655336000025,None,42,45,60,51,45,35,358.28209440002684,None,7.0,1.804592499975115,358.28209440002684,None,358.28209440002684,None,358.28209440002684,None,358.28209440002684,None,,None,None,,None,None,None,None,None,None,None,None,None,None,None,None,None,None,None,None,None,None,-0.2,3,None,None,None,None,None,None,None,None,None,None,None,None,,None,None,None,None,None,None,None,None,None,None,None,None,None,None,None,None,None,None,None,None,360.152618000051,None,,,,,,,,,,,,,,,,249,m,24,2023_Mar_22_1612,RL,2021.2.3,59.972928209557814,
0,0.3,0.225,0,27,27,27,,,,,,,,,,,,,,,None,None,None,None,None,362.14241680002306,None,362.14241680002306,None,362.14241680002306,None,362.14241680002306,None,i,0.29477709997445345,362.14241680002306,None,362.14241680002306,None,362.4765743999742,None,362.4765743999742,None,362.4765743999742,None,362.4765743999742,None,362.4765743999742,None,362.4765743999742,None,362.7714727000566,364.6397625999525,362.7714727000566,364.6397625999525,364.67725459998474,None,364.67725459998474,None,364.67725459998474,None,364.67725459998474,None,364.67725459998474,None,364.67725459998474,None,364.67725459998474,None,364.67725459998474,None,364.67725459998474,None,45,51,59,55,59,50,367.1962273999816,None,7.0,1.582623100024648,367.1962273999816,None,367.1962273999816,None,367.1962273999816,None,367.1962273999816,None,,None,None,,None,None,None,None,None,None,None,None,None,None,None,None,None,None,None,None,None,None,0.2,2,None,None,None,None,None,None,None,None,None,None,None,None,,None,None,None,None,None,None,None,None,None,None,None,None,None,None,None,None,None,None,None,None,368.83726000005845,None,,,,,,,,,,,,,,,,249,m,24,2023_Mar_22_1612,RL,2021.2.3,59.972928209557814,
1,-0.3,-0.225,0,28,28,28,,,,,,,,,,,,,,,None,None,None,None,None,370.68082350003533,None,370.68082350003533,None,370.68082350003533,None,370.68082350003533,None,r,0.33646449993830174,370.68082350003533,None,370.68082350003533,None,371.071002200013,None,371.071002200013,None,371.071002200013,None,371.071002200013,None,371.071002200013,None,371.071002200013,None,371.3612611000426,None,371.3612611000426,None,372.3625223999843,None,372.3625223999843,None,372.3625223999843,None,372.3625223999843,None,372.3625223999843,None,372.3625223999843,None,372.3625223999843,None,372.3625223999843,None,372.3625223999843,None,47,50,65,51,47,40,None,None,None,None,None,None,None,None,None,None,None,None,,None,None,,None,None,None,None,None,None,None,None,None,None,None,None,None,None,None,None,None,None,-0.2,1,374.9078929000534,None,374.9078929000534,None,374.9078929000534,None,374.9078929000534,None,374.9078929000534,None,374.9078929000534,None,62,374.9078929000534,None,374.9078929000534,None,0.013740219990722835,None,374.9078929000534,None,6.794270833333334,1.447521400055848,379.7404162000166,None,379.7404162000166,None,379.7404162000166,None,379.7404162000166,None,None,None,381.2157845000038,None,,,,,,,,0.1328125,-0.2760416666666667,1,0,0,4.801089699962176,tijiao_random_2,,249,m,24,2023_Mar_22_1612,RL,2021.2.3,59.972928209557814,
0,0.3,0.225,0,29,29,29,,,,,,,,,,,,,,,None,None,None,None,None,383.07323830004316,None,383.07323830004316,None,383.07323830004316,None,383.07323830004316,None,j,0.25432910001836717,383.07323830004316,None,383.07323830004316,None,383.37863679998554,None,383.37863679998554,None,383.37863679998554,None,383.37863679998554,None,383.37863679998554,None,383.37863679998554,None,383.6695151999593,None,383.6695151999593,None,384.8672861000523,None,384.8672861000523,None,384.8672861000523,None,384.8672861000523,None,384.8672861000523,None,384.8672861000523,None,384.8672861000523,None,384.8672861000523,None,384.8672861000523,None,43,59,69,49,49,40,387.38831159996334,None,7.0,2.0540314000099897,387.38831159996334,None,387.38831159996334,None,387.38831159996334,None,387.38831159996334,None,,None,None,,None,None,None,None,None,None,None,None,None,None,None,None,None,None,None,None,None,None,-0.6,2,None,None,None,None,None,None,None,None,None,None,None,None,,None,None,None,None,None,None,None,None,None,None,None,None,None,None,None,None,None,None,None,None,389.4968911999604,None,,,,,,,,,,,,,,,,249,m,24,2023_Mar_22_1612,RL,2021.2.3,59.972928209557814,
1,-0.3,-0.225,0,30,30,30,,,,,,,,,,,,,,,None,None,None,None,None,391.046170799993,None,391.046170799993,None,391.046170799993,None,391.046170799993,None,f,0.2823205000022426,391.046170799993,None,391.046170799993,None,391.3853718000464,None,391.3853718000464,None,391.3853718000464,None,391.3853718000464,None,391.3853718000464,None,391.3853718000464,None,391.67488960002083,392.6923411999596,391.67488960002083,392.6923411999596,392.72864750004373,None,392.72864750004373,None,392.72864750004373,None,392.72864750004373,None,392.72864750004373,None,392.72864750004373,None,392.72864750004373,None,392.72864750004373,None,392.72864750004373,None,35,58,74,52,58,71,None,None,None,None,None,None,None,None,None,None,None,None,71,395.25968350004405,None,71,395.25968350004405,None,395.25968350004405,None,395.25968350004405,None,395.25968350004405,None,395.25968350004405,None,395.25968350004405,None,395.25968350004405,None,0.010033739963546395,None,395.25968350004405,None,-0.6,0,None,None,None,None,None,None,None,None,None,None,None,None,,None,None,None,None,None,None,None,None,6.963541666666666,1.2109729999210685,400.90703789994586,None,400.90703789994586,None,400.90703789994586,None,400.90703789994586,None,None,None,402.13179999997374,None,0.13020833333333334,-0.2825520833333333,1,0,0,5.5985413999296725,tijiao,,,,,,,,,249,m,24,2023_Mar_22_1612,RL,2021.2.3,59.972928209557814,
0,0.3,0.225,0,31,31,31,,,,,,,,,,,,,,,None,None,None,None,None,403.90403099998366,None,403.90403099998366,None,403.90403099998366,None,403.90403099998366,None,f,0.2534579000202939,403.90403099998366,None,403.90403099998366,None,404.20507260004524,None,404.20507260004524,None,404.20507260004524,None,404.20507260004524,None,404.20507260004524,None,404.20507260004524,None,404.50058280001394,None,404.50058280001394,None,405.4828759999946,None,405.4828759999946,None,405.4828759999946,None,405.4828759999946,None,405.4828759999946,None,405.4828759999946,None,405.4828759999946,None,405.4828759999946,None,405.4828759999946,None,32,62,74,59,62,38,None,None,None,None,None,None,None,None,None,None,None,None,62,408.0151613999624,None,62,408.0151613999624,None,408.0151613999624,None,408.0151613999624,None,408.0151613999624,None,408.0151613999624,None,408.0151613999624,None,408.0151613999624,None,0.013136639958247542,None,408.0151613999624,None,0.6,0,None,None,None,None,None,None,None,None,None,None,None,None,,None,None,None,None,None,None,None,None,9.841145833333332,2.009844799991697,414.60303320002276,None,414.60303320002276,None,414.60303320002276,None,414.60303320002276,None,None,None,416.64032939996105,None,0.06380208333333333,-0.26953125,1,0,0,6.535398499923758,tijiao,,,,,,,,,249,m,24,2023_Mar_22_1612,RL,2021.2.3,59.972928209557814,
1,-0.3,-0.225,0,32,32,32,,,,,,,,,,,,,,,None,None,None,None,None,418.16409990005195,None,418.16409990005195,None,418.16409990005195,None,418.16409990005195,None,f,0.23358370002824813,418.16409990005195,None,418.16409990005195,None,418.4491980000166,None,418.4491980000166,None,418.4491980000166,None,418.4491980000166,None,418.4491980000166,None,418.4491980000166,None,418.7439029000234,420.3952080999734,418.7439029000234,420.3952080999734,420.42785920004826,None,420.42785920004826,None,420.42785920004826,None,420.42785920004826,None,420.42785920004826,None,420.42785920004826,None,420.42785920004826,None,420.42785920004826,None,420.42785920004826,None,42,56,79,68,56,59,None,None,None,None,None,None,None,None,None,None,None,None,34,422.9640656999545,None,34,422.9640656999545,None,422.9640656999545,None,422.9640656999545,None,422.9640656999545,None,422.9640656999545,None,422.9640656999545,None,422.9640656999545,None,0.008206640020944178,None,422.9640656999545,None,0.2,0,None,None,None,None,None,None,None,None,None,None,None,None,,None,None,None,None,None,None,None,None,3.096354166666667,2.460924500017427,428.09605249995366,None,428.09605249995366,None,428.09605249995366,None,428.09605249995366,None,None,None,430.5864976999583,None,0.13541666666666666,-0.2747395833333333,1,0,0,5.0795541000552475,tijiao,,,,,,,,,249,m,24,2023_Mar_22_1612,RL,2021.2.3,59.972928209557814,
0,0.3,0.225,0,33,33,33,,,,,,,,,,,,,,,None,None,None,None,None,432.50782609998714,None,432.50782609998714,None,432.50782609998714,None,432.50782609998714,None,i,0.22980710002593696,432.50782609998714,None,432.50782609998714,None,432.7773320999695,None,432.7773320999695,None,432.7773320999695,None,432.7773320999695,None,432.7773320999695,None,432.7773320999695,None,433.07023710000794,None,433.07023710000794,None,434.3174204999814,None,434.3174204999814,None,434.3174204999814,None,434.3174204999814,None,434.3174204999814,None,434.3174204999814,None,434.3174204999814,None,434.3174204999814,None,434.3174204999814,None,37,51,73,42,73,72,436.8371563999681,None,7.0,1.9877504999749362,436.8371563999681,None,436.8371563999681,None,436.8371563999681,None,436.8371563999681,None,,None,None,,None,None,None,None,None,None,None,None,None,None,None,None,None,None,None,None,None,None,-0.6,2,None,None,None,None,None,None,None,None,None,None,None,None,,None,None,None,None,None,None,None,None,None,None,None,None,None,None,None,None,None,None,None,None,438.8807196000125,None,,,,,,,,,,,,,,,,249,m,24,2023_Mar_22_1612,RL,2021.2.3,59.972928209557814,
1,-0.3,-0.225,0,34,34,34,,,,,,,,,,,,,,,None,None,None,None,None,440.47988080000505,None,440.47988080000505,None,440.47988080000505,None,440.47988080000505,None,i,0.25907030003145337,440.47988080000505,None,440.47988080000505,None,440.7817692999961,None,440.7817692999961,None,440.7817692999961,None,440.7817692999961,None,440.7817692999961,None,440.7817692999961,None,441.0760871999664,None,441.0760871999664,None,441.93944860005286,None,441.93944860005286,None,441.93944860005286,None,441.93944860005286,None,441.93944860005286,None,441.93944860005286,None,441.93944860005286,None,441.93944860005286,None,441.93944860005286,None,41,58,72,55,72,54,444.4591049000155,None,7.0,1.7728155999211594,444.4591049000155,None,444.4591049000155,None,444.4591049000155,None,444.4591049000155,None,,None,None,,None,None,None,None,None,None,None,None,None,None,None,None,None,None,None,None,None,None,0.6,3,None,None,None,None,None,None,None,None,None,None,None,None,,None,None,None,None,None,None,None,None,None,None,None,None,None,None,None,None,None,None,None,None,446.29581819998566,None,,,,,,,,,,,,,,,,249,m,24,2023_Mar_22_1612,RL,2021.2.3,59.972928209557814,
0,0.3,0.225,0,35,35,35,,,,,,,,,,,,,,,None,None,None,None,None,447.900978700025,None,447.900978700025,None,447.900978700025,None,447.900978700025,None,j,0.39801980007905513,447.900978700025,None,447.900978700025,None,448.3366868000012,None,448.3366868000012,None,448.3366868000012,None,448.3366868000012,None,448.3366868000012,None,448.3366868000012,None,448.6313155000098,None,448.6313155000098,None,449.5294267999707,None,449.5294267999707,None,449.5294267999707,None,449.5294267999707,None,449.5294267999707,None,449.5294267999707,None,449.5294267999707,None,449.5294267999707,None,449.5294267999707,None,38,54,85,56,56,71,None,None,None,None,None,None,None,None,None,None,None,None,,None,None,,None,None,None,None,None,None,None,None,None,None,None,None,None,None,None,None,None,None,0.6,1,452.0691990000196,None,452.0691990000196,None,452.0691990000196,None,452.0691990000196,None,452.0691990000196,None,452.0691990000196,None,71,452.0691990000196,None,452.0691990000196,None,0.006675040000118315,None,452.0691990000196,None,9.138020833333332,1.6977222999557853,455.14576600003056,None,455.14576600003056,None,455.14576600003056,None,455.14576600003056,None,None,None,456.8682663999498,None,,,,,,,,0.12760416666666666,-0.3098958333333333,1,0,0,3.0430832999991253,tijiao_random_2,,249,m,24,2023_Mar_22_1612,RL,2021.2.3,59.972928209557814,
1,-0.3,-0.225,0,36,36,36,,,,,,,,,,,,,,,None,None,None,None,None,458.6258893000195,None,458.6258893000195,None,458.6258893000195,None,458.6258893000195,None,j,0.26319129997864366,458.6258893000195,None,458.6258893000195,None,458.92950129997917,None,458.92950129997917,None,458.92950129997917,None,458.92950129997917,None,458.92950129997917,None,458.92950129997917,None,459.20520480000414,460.0557643000502,459.20520480000414,460.0557643000502,460.1048622999806,None,460.1048622999806,None,460.1048622999806,None,460.1048622999806,None,460.1048622999806,None,460.1048622999806,None,460.1048622999806,None,460.1048622999806,None,460.1048622999806,None,38,39,81,56,56,69,462.62589220004156,None,1.0,1.7179065000964329,462.62589220004156,None,462.62589220004156,None,462.62589220004156,None,462.62589220004156,None,,None,None,,None,None,None,None,None,None,None,None,None,None,None,None,None,None,None,None,None,None,-0.6,3,None,None,None,None,None,None,None,None,None,None,None,None,,None,None,None,None,None,None,None,None,None,None,None,None,None,None,None,None,None,None,None,None,464.3952609000262,None,,,,,,,,,,,,,,,,249,m,24,2023_Mar_22_1612,RL,2021.2.3,59.972928209557814,
0,0.3,0.225,0,37,37,37,,,,,,,,,,,,,,,None,None,None,None,None,466.3151236999547,None,466.3151236999547,None,466.3151236999547,None,466.3151236999547,None,f,0.22379880002699792,466.3151236999547,None,466.3151236999547,None,466.5805955999531,None,466.5805955999531,None,466.5805955999531,None,466.5805955999531,None,466.5805955999531,None,466.5805955999531,None,466.87716929998714,None,466.87716929998714,None,468.62733539997134,None,468.62733539997134,None,468.62733539997134,None,468.62733539997134,None,468.62733539997134,None,468.62733539997134,None,468.62733539997134,None,468.62733539997134,None,468.62733539997134,None,38,46,82,48,46,62,471.1517977999756,None,1.0,1.5828643999993801,471.1517977999756,None,471.1517977999756,None,471.1517977999756,None,471.1517977999756,None,,None,None,,None,None,None,None,None,None,None,None,None,None,None,None,None,None,None,None,None,None,-0.2,3,None,None,None,None,None,None,None,None,None,None,None,None,,None,None,None,None,None,None,None,None,None,None,None,None,None,None,None,None,None,None,None,None,472.7863153000362,None,,,,,,,,,,,,,,,,249,m,24,2023_Mar_22_1612,RL,2021.2.3,59.972928209557814,
1,-0.3,-0.225,0,38,38,38,,,,,,,,,,,,,,,None,None,None,None,None,474.7536543000024,None,474.7536543000024,None,474.7536543000024,None,474.7536543000024,None,j,0.32543680001981556,474.7536543000024,None,474.7536543000024,None,475.12113350001164,None,475.12113350001164,None,475.12113350001164,None,475.12113350001164,None,475.12113350001164,None,475.12113350001164,None,475.4159697999712,476.583993999986,475.4159697999712,476.583993999986,476.61704819998704,None,476.61704819998704,None,476.61704819998704,None,476.61704819998704,None,476.61704819998704,None,476.61704819998704,None,476.61704819998704,None,476.61704819998704,None,476.61704819998704,None,35,47,87,64,64,56,479.1338984000031,None,6.0,1.856735200039111,479.1338984000031,None,479.1338984000031,None,479.1338984000031,None,479.1338984000031,None,,None,None,,None,None,None,None,None,None,None,None,None,None,None,None,None,None,None,None,None,None,-0.6,3,None,None,None,None,None,None,None,None,None,None,None,None,,None,None,None,None,None,None,None,None,None,None,None,None,None,None,None,None,None,None,None,None,481.05019360000733,None,,,,,,,,,,,,,,,,249,m,24,2023_Mar_22_1612,RL,2021.2.3,59.972928209557814,
0,0.3,0.225,0,39,39,39,,,,,,,,,,,,,,,None,None,None,None,None,482.9761372000212,None,482.9761372000212,None,482.9761372000212,None,482.9761372000212,None,i,0.2930413999129087,482.9761372000212,None,482.9761372000212,None,483.3118043000577,None,483.3118043000577,None,483.3118043000577,None,483.3118043000577,None,483.3118043000577,None,483.3118043000577,None,483.5888807999436,484.5564283999847,483.5888807999436,484.5564283999847,484.5874058000045,None,484.5874058000045,None,484.5874058000045,None,484.5874058000045,None,484.5874058000045,None,484.5874058000045,None,484.5874058000045,None,484.5874058000045,None,484.5874058000045,None,41,45,74,46,74,75,None,None,None,None,None,None,None,None,None,None,None,None,,None,None,,None,None,None,None,None,None,None,None,None,None,None,None,None,None,None,None,None,None,-0.6,1,487.15216409997083,None,487.15216409997083,None,487.15216409997083,None,487.15216409997083,None,487.15216409997083,None,487.15216409997083,None,34,487.15216409997083,None,487.15216409997083,None,0.014874600106850266,None,487.15216409997083,None,6.950520833333334,0.9118604999966919,489.81626049999613,None,489.81626049999613,None,489.81626049999613,None,489.81626049999613,None,None,None,490.743239399977,None,,,,,,,,0.08333333333333333,-0.3020833333333333,1,0,0,2.6337295999983326,tijiao_random_2,,249,m,24,2023_Mar_22_1612,RL,2021.2.3,59.972928209557814,
1,-0.3,-0.225,0,40,40,40,,,,,,,,,,,,,,,None,None,None,None,None,492.3158837000374,None,492.3158837000374,None,492.3158837000374,None,492.3158837000374,None,r,0.4031839999370277,492.3158837000374,None,492.3158837000374,None,492.76699579996057,None,492.76699579996057,None,492.76699579996057,None,492.76699579996057,None,492.76699579996057,None,492.76699579996057,None,493.0620760000311,None,493.0620760000311,None,494.35934800002724,None,494.35934800002724,None,494.35934800002724,None,494.35934800002724,None,494.35934800002724,None,494.35934800002724,None,494.35934800002724,None,494.35934800002724,None,494.35934800002724,None,42,52,74,47,42,48,None,None,None,None,None,None,None,None,None,None,None,None,71,496.8994254999561,None,71,496.8994254999561,None,496.8994254999561,None,496.8994254999561,None,496.8994254999561,None,496.8994254999561,None,496.8994254999561,None,496.8994254999561,None,0.008093239972367883,None,496.8994254999561,None,0.6,0,None,None,None,None,None,None,None,None,None,None,None,None,,None,None,None,None,None,None,None,None,6.208333333333334,2.0333007000153884,501.1372586999787,None,501.1372586999787,None,501.1372586999787,None,501.1372586999787,None,None,None,503.1854084000224,None,0.13020833333333334,-0.3125,1,0,0,4.195508199976757,tijiao,,,,,,,,,249,m,24,2023_Mar_22_1612,RL,2021.2.3,59.972928209557814,
0,0.3,0.225,0,41,41,41,,,,,,,,,,,,,,,None,None,None,None,None,504.87413180002477,None,504.87413180002477,None,504.87413180002477,None,504.87413180002477,None,r,0.21513279993087053,504.87413180002477,None,504.87413180002477,None,505.12944120005704,None,505.12944120005704,None,505.12944120005704,None,505.12944120005704,None,505.12944120005704,None,505.12944120005704,None,505.42088959994726,None,505.42088959994726,None,507.4042374000419,None,507.4042374000419,None,507.4042374000419,None,507.4042374000419,None,507.4042374000419,None,507.4042374000419,None,507.4042374000419,None,507.4042374000419,None,507.4042374000419,None,46,40,78,65,46,50,None,None,None,None,None,None,None,None,None,None,None,None,46,509.93585200002417,None,46,509.93585200002417,None,509.93585200002417,None,509.93585200002417,None,509.93585200002417,None,509.93585200002417,None,509.93585200002417,None,509.93585200002417,None,0.012329839984886348,None,509.93585200002417,None,-0.2,0,None,None,None,None,None,None,None,None,None,None,None,None,,None,None,None,None,None,None,None,None,4.033854166666666,1.7309272999409586,515.2501283000456,None,515.2501283000456,None,515.2501283000456,None,515.2501283000456,None,None,None,516.9948905999772,None,0.11197916666666667,-0.3098958333333333,1,0,0,5.266590800019912,tijiao,,,,,,,,,249,m,24,2023_Mar_22_1612,RL,2021.2.3,59.972928209557814,
1,-0.3,-0.225,0,42,42,42,,,,,,,,,,,,,,,None,None,None,None,None,518.6339647000423,None,518.6339647000423,None,518.6339647000423,None,518.6339647000423,None,f,0.2653714999323711,518.6339647000423,None,518.6339647000423,None,518.952548100031,None,518.952548100031,None,518.952548100031,None,518.952548100031,None,518.952548100031,None,518.952548100031,None,519.2471449000295,520.3310752999969,519.2471449000295,520.3310752999969,520.3639089999488,None,520.3639089999488,None,520.3639089999488,None,520.3639089999488,None,520.3639089999488,None,520.3639089999488,None,520.3639089999488,None,520.3639089999488,None,520.3639089999488,None,45,39,76,55,39,49,None,None,None,None,None,None,None,None,None,None,None,None,,None,None,,None,None,None,None,None,None,None,None,None,None,None,None,None,None,None,None,None,None,-0.2,1,522.9140210000332,None,522.9140210000332,None,522.9140210000332,None,522.9140210000332,None,522.9140210000332,None,522.9140210000332,None,39,522.9140210000332,None,522.9140210000332,None,0.010163219878450036,None,522.9140210000332,None,10.895833333333332,1.9051346000051126,526.6761307000415,None,526.6761307000415,None,526.6761307000415,None,526.6761307000415,None,None,None,528.6107036999892,None,,,,,,,,0.09895833333333333,-0.31640625,1,0,0,3.7306242999620736,tijiao_random_2,,249,m,24,2023_Mar_22_1612,RL,2021.2.3,59.972928209557814,
0,0.3,0.225,0,43,43,43,,,,,,,,,,,,,,,None,None,None,None,None,530.3415845000418,None,530.3415845000418,None,530.3415845000418,None,530.3415845000418,None,j,0.2878410998964682,530.3415845000418,None,530.3415845000418,None,530.6801298999926,None,530.6801298999926,None,530.6801298999926,None,530.6801298999926,None,530.6801298999926,None,530.6801298999926,None,530.9553335000528,532.2892330000177,530.9553335000528,532.2892330000177,532.3214246999705,None,532.3214246999705,None,532.3214246999705,None,532.3214246999705,None,532.3214246999705,None,532.3214246999705,None,532.3214246999705,None,532.3214246999705,None,532.3214246999705,None,44,38,78,55,55,66,534.8361760999542,None,1.0,1.8716161999618635,534.8361760999542,None,534.8361760999542,None,534.8361760999542,None,534.8361760999542,None,,None,None,,None,None,None,None,None,None,None,None,None,None,None,None,None,None,None,None,None,None,-0.2,3,None,None,None,None,None,None,None,None,None,None,None,None,,None,None,None,None,None,None,None,None,None,None,None,None,None,None,None,None,None,None,None,None,536.7770225000568,None,,,,,,,,,,,,,,,,249,m,24,2023_Mar_22_1612,RL,2021.2.3,59.972928209557814,
1,-0.3,-0.225,0,44,44,44,,,,,,,,,,,,,,,None,None,None,None,None,538.3312304000137,None,538.3312304000137,None,538.3312304000137,None,538.3312304000137,None,f,0.2981203000526875,538.3312304000137,None,538.3312304000137,None,538.6784732999513,None,538.6784732999513,None,538.6784732999513,None,538.6784732999513,None,538.6784732999513,None,538.6784732999513,None,538.9772417000495,None,538.9772417000495,None,540.8921591000399,None,540.8921591000399,None,540.8921591000399,None,540.8921591000399,None,540.8921591000399,None,540.8921591000399,None,540.8921591000399,None,540.8921591000399,None,540.8921591000399,None,46,40,79,60,40,39,543.4135612000246,None,3.0,1.6722067999653518,543.4135612000246,None,543.4135612000246,None,543.4135612000246,None,543.4135612000246,None,,None,None,,None,None,None,None,None,None,None,None,None,None,None,None,None,None,None,None,None,None,-0.6,2,None,None,None,None,None,None,None,None,None,None,None,None,,None,None,None,None,None,None,None,None,None,None,None,None,None,None,None,None,None,None,None,None,545.1476431000046,None,,,,,,,,,,,,,,,,249,m,24,2023_Mar_22_1612,RL,2021.2.3,59.972928209557814,
0,0.3,0.225,0,45,45,45,,,,,,,,,,,,,,,None,None,None,None,None,546.7872713999823,None,546.7872713999823,None,546.7872713999823,None,546.7872713999823,None,r,0.2125125000020489,546.7872713999823,None,546.7872713999823,None,547.0406347999815,None,547.0406347999815,None,547.0406347999815,None,547.0406347999815,None,547.0406347999815,None,547.0406347999815,None,547.3163992000045,549.1509052000474,547.3163992000045,549.1509052000474,549.1819629999809,None,549.1819629999809,None,549.1819629999809,None,549.1819629999809,None,549.1819629999809,None,549.1819629999809,None,549.1819629999809,None,549.1819629999809,None,549.1819629999809,None,39,36,74,53,39,64,None,None,None,None,None,None,None,None,None,None,None,None,,None,None,,None,None,None,None,None,None,None,None,None,None,None,None,None,None,None,None,None,None,0.6,1,551.7250534000341,None,551.7250534000341,None,551.7250534000341,None,551.7250534000341,None,551.7250534000341,None,551.7250534000341,None,64,551.7250534000341,None,551.7250534000341,None,0.002711439970880747,None,551.7250534000341,None,6.963541666666666,0.8582664999412373,554.985512400046,None,554.985512400046,None,554.985512400046,None,554.985512400046,None,None,None,555.8704975000583,None,,,,,,,,-0.037760416666666664,-0.2825520833333333,1,0,0,3.2221118999877945,tijiao_random_2,,249,m,24,2023_Mar_22_1612,RL,2021.2.3,59.972928209557814,
1,-0.3,-0.225,0,46,46,46,,,,,,,,,,,,,,,None,None,None,None,None,557.794157300028,None,557.794157300028,None,557.794157300028,None,557.794157300028,None,j,0.1253992998972535,557.794157300028,None,557.794157300028,None,557.9674962999998,None,557.9674962999998,None,557.9674962999998,None,557.9674962999998,None,557.9674962999998,None,557.9674962999998,None,558.257305999985,559.9085508000571,558.257305999985,559.9085508000571,559.939841000014,None,559.939841000014,None,559.939841000014,None,559.939841000014,None,559.939841000014,None,559.939841000014,None,559.939841000014,None,559.939841000014,None,559.939841000014,None,41,37,66,63,63,46,562.4639535000315,None,7.0,1.651823200052604,562.4639535000315,None,562.4639535000315,None,562.4639535000315,None,562.4639535000315,None,,None,None,,None,None,None,None,None,None,None,None,None,None,None,None,None,None,None,None,None,None,0.2,2,None,None,None,None,None,None,None,None,None,None,None,None,,None,None,None,None,None,None,None,None,None,None,None,None,None,None,None,None,None,None,None,None,564.1712304999819,None,,,,,,,,,,,,,,,,249,m,24,2023_Mar_22_1612,RL,2021.2.3,59.972928209557814,
0,0.3,0.225,0,47,47,47,,,,,,,,,,,,,,,None,None,None,None,None,566.0171087000053,None,566.0171087000053,None,566.0171087000053,None,566.0171087000053,None,j,0.2725467999698594,566.0171087000053,None,566.0171087000053,None,566.3356370000402,None,566.3356370000402,None,566.3356370000402,None,566.3356370000402,None,566.3356370000402,None,566.3356370000402,None,566.629804700031,None,566.629804700031,None,568.2608462000499,None,568.2608462000499,None,568.2608462000499,None,568.2608462000499,None,568.2608462000499,None,568.2608462000499,None,568.2608462000499,None,568.2608462000499,None,568.2608462000499,None,35,31,70,53,53,47,None,None,None,None,None,None,None,None,None,None,None,None,64,570.7911033000564,None,64,570.7911033000564,None,570.7911033000564,None,570.7911033000564,None,570.7911033000564,None,570.7911033000564,None,570.7911033000564,None,570.7911033000564,None,4.285993054509163e-05,None,570.7911033000564,None,0.2,0,None,None,None,None,None,None,None,None,None,None,None,None,,None,None,None,None,None,None,None,None,10.895833333333332,1.463910000049509,574.6073554999894,None,574.6073554999894,None,574.6073554999894,None,574.6073554999894,None,None,None,576.0859447000548,None,0.09505208333333333,-0.2578125,1,0,0,3.7704772000433877,tijiao,,,,,,,,,249,m,24,2023_Mar_22_1612,RL,2021.2.3,59.972928209557814,
1,-0.3,-0.225,0,48,48,48,,,,,,,,,,,,,,,None,None,None,None,None,577.9084627999691,None,577.9084627999691,None,577.9084627999691,None,577.9084627999691,None,j,0.32229559996630996,577.9084627999691,None,577.9084627999691,None,578.2785615000175,None,578.2785615000175,None,578.2785615000175,None,578.2785615000175,None,578.2785615000175,None,578.2785615000175,None,578.5714411999797,None,578.5714411999797,None,580.187678999966,None,580.187678999966,None,580.187678999966,None,580.187678999966,None,580.187678999966,None,580.187678999966,None,580.187678999966,None,580.187678999966,None,580.187678999966,None,42,37,76,50,50,60,582.7124823000049,None,1.0,1.5848553000250831,582.7124823000049,None,582.7124823000049,None,582.7124823000049,None,582.7124823000049,None,,None,None,,None,None,None,None,None,None,None,None,None,None,None,None,None,None,None,None,None,None,0.2,3,None,None,None,None,None,None,None,None,None,None,None,None,,None,None,None,None,None,None,None,None,None,None,None,None,None,None,None,None,None,None,None,None,584.3615910999943,None,,,,,,,,,,,,,,,,249,m,24,2023_Mar_22_1612,RL,2021.2.3,59.972928209557814,
0,0.3,0.225,0,49,49,49,,,,,,,,,,,,,,,None,None,None,None,None,586.1643576000351,None,586.1643576000351,None,586.1643576000351,None,586.1643576000351,None,i,0.3156332999933511,586.1643576000351,None,586.1643576000351,None,586.5328432000242,None,586.5328432000242,None,586.5328432000242,None,586.5328432000242,None,586.5328432000242,None,586.5328432000242,None,586.8271031000186,None,586.8271031000186,None,588.5277924999828,None,588.5277924999828,None,588.5277924999828,None,588.5277924999828,None,588.5277924999828,None,588.5277924999828,None,588.5277924999828,None,588.5277924999828,None,588.5277924999828,None,45,50,80,50,80,64,None,None,None,None,None,None,None,None,None,None,None,None,80,591.0551964000333,None,80,591.0551964000333,None,591.0551964000333,None,591.0551964000333,None,591.0551964000333,None,591.0551964000333,None,591.0551964000333,None,591.0551964000333,None,0.01669853995554149,None,591.0551964000333,None,0.2,0,None,None,None,None,None,None,None,None,None,None,None,None,,None,None,None,None,None,None,None,None,11,1.2711126999929547,593.7673624999588,None,593.7673624999588,None,593.7673624999588,None,593.7673624999588,None,None,None,595.0643243000377,None,0.013020833333333334,-0.2721354166666667,1,0,0,2.6691892999224365,tijiao,,,,,,,,,249,m,24,2023_Mar_22_1612,RL,2021.2.3,59.972928209557814,
1,-0.3,-0.225,0,50,50,50,,,,,,,,,,,,,,,None,None,None,None,None,596.7883189000422,None,596.7883189000422,None,596.7883189000422,None,596.7883189000422,None,i,0.2630545999854803,596.7883189000422,None,596.7883189000422,None,597.0895410999656,None,597.0895410999656,None,597.0895410999656,None,597.0895410999656,None,597.0895410999656,None,597.0895410999656,None,597.3848492000252,None,597.3848492000252,None,599.2010727999732,None,599.2010727999732,None,599.2010727999732,None,599.2010727999732,None,599.2010727999732,None,599.2010727999732,None,599.2010727999732,None,599.2010727999732,None,599.2010727999732,None,41,35,73,56,73,68,601.7230781000108,None,7.0,1.3013920000521466,601.7230781000108,None,601.7230781000108,None,601.7230781000108,None,601.7230781000108,None,,None,None,,None,None,None,None,None,None,None,None,None,None,None,None,None,None,None,None,None,None,-0.2,2,None,None,None,None,None,None,None,None,None,None,None,None,,None,None,None,None,None,None,None,None,None,None,None,None,None,None,None,None,None,None,None,None,603.0814211999532,None,,,,,,,,,,,,,,,,249,m,24,2023_Mar_22_1612,RL,2021.2.3,59.972928209557814,
0,0.3,0.225,0,51,51,51,,,,,,,,,,,,,,,None,None,None,None,None,605.0277319999877,None,605.0277319999877,None,605.0277319999877,None,605.0277319999877,None,f,0.3031830000691116,605.0277319999877,None,605.0277319999877,None,605.3779154999647,None,605.3779154999647,None,605.3779154999647,None,605.3779154999647,None,605.3779154999647,None,605.3779154999647,None,605.6735342999455,None,605.6735342999455,None,606.9748705000384,None,606.9748705000384,None,606.9748705000384,None,606.9748705000384,None,606.9748705000384,None,606.9748705000384,None,606.9748705000384,None,606.9748705000384,None,606.9748705000384,None,45,38,66,50,38,51,609.4972867999459,None,2.0,2.2353202999802306,609.4972867999459,None,609.4972867999459,None,609.4972867999459,None,609.4972867999459,None,,None,None,,None,None,None,None,None,None,None,None,None,None,None,None,None,None,None,None,None,None,-0.2,2,None,None,None,None,None,None,None,None,None,None,None,None,,None,None,None,None,None,None,None,None,None,None,None,None,None,None,None,None,None,None,None,None,611.7951910999836,None,,,,,,,,,,,,,,,,249,m,24,2023_Mar_22_1612,RL,2021.2.3,59.972928209557814,
1,-0.3,-0.225,0,52,52,52,,,,,,,,,,,,,,,None,None,None,None,None,613.4505114000058,None,613.4505114000058,None,613.4505114000058,None,613.4505114000058,None,j,0.3504529999336228,613.4505114000058,None,613.4505114000058,None,613.8497234999668,None,613.8497234999668,None,613.8497234999668,None,613.8497234999668,None,613.8497234999668,None,613.8497234999668,None,614.146453000023,None,614.146453000023,None,616.0270986000542,None,616.0270986000542,None,616.0270986000542,None,616.0270986000542,None,616.0270986000542,None,616.0270986000542,None,616.0270986000542,None,616.0270986000542,None,616.0270986000542,None,50,42,75,54,54,60,None,None,None,None,None,None,None,None,None,None,None,None,64,618.5668127000099,None,64,618.5668127000099,None,618.5668127000099,None,618.5668127000099,None,618.5668127000099,None,618.5668127000099,None,618.5668127000099,None,618.5668127000099,None,0.008077139966189861,None,618.5668127000099,None,0.2,0,None,None,None,None,None,None,None,None,None,None,None,None,,None,None,None,None,None,None,None,None,8.721354166666668,1.1398273999802768,623.098740400048,None,623.098740400048,None,623.098740400048,None,623.098740400048,None,None,None,624.2525360999862,None,-0.1015625,-0.2942708333333333,1,0,0,4.479252300108783,tijiao,,,,,,,,,249,m,24,2023_Mar_22_1612,RL,2021.2.3,59.972928209557814,
0,0.3,0.225,0,53,53,53,,,,,,,,,,,,,,,None,None,None,None,None,626.2090197999496,None,626.2090197999496,None,626.2090197999496,None,626.2090197999496,None,j,0.2620951000135392,626.2090197999496,None,626.2090197999496,None,626.5114826000063,None,626.5114826000063,None,626.5114826000063,None,626.5114826000063,None,626.5114826000063,None,626.5114826000063,None,626.8052454000572,None,626.8052454000572,None,628.0413193999557,None,628.0413193999557,None,628.0413193999557,None,628.0413193999557,None,628.0413193999557,None,628.0413193999557,None,628.0413193999557,None,628.0413193999557,None,628.0413193999557,None,52,37,87,62,62,64,630.5536640000064,None,6.0,1.6061893999576569,630.5536640000064,None,630.5536640000064,None,630.5536640000064,None,630.5536640000064,None,,None,None,,None,None,None,None,None,None,None,None,None,None,None,None,None,None,None,None,None,None,0.2,2,None,None,None,None,None,None,None,None,None,None,None,None,,None,None,None,None,None,None,None,None,None,None,None,None,None,None,None,None,None,None,None,None,632.2375892000273,None,,,,,,,,,,,,,,,,249,m,24,2023_Mar_22_1612,RL,2021.2.3,59.972928209557814,
1,-0.3,-0.225,0,54,54,54,,,,,,,,,,,,,,,None,None,None,None,None,633.8464053999633,None,633.8464053999633,None,633.8464053999633,None,633.8464053999633,None,r,0.3846594999777153,633.8464053999633,None,633.8464053999633,None,634.289851199952,None,634.289851199952,None,634.289851199952,None,634.289851199952,None,634.289851199952,None,634.289851199952,None,634.5767424999503,636.0282560000196,634.5767424999503,636.0282560000196,636.0639969999902,None,636.0639969999902,None,636.0639969999902,None,636.0639969999902,None,636.0639969999902,None,636.0639969999902,None,636.0639969999902,None,636.0639969999902,None,636.0639969999902,None,55,27,78,62,55,62,None,None,None,None,None,None,None,None,None,None,None,None,62,638.5877701999852,None,62,638.5877701999852,None,638.5877701999852,None,638.5877701999852,None,638.5877701999852,None,638.5877701999852,None,638.5877701999852,None,638.5877701999852,None,0.0008590599754825234,None,638.5877701999852,None,-0.2,0,None,None,None,None,None,None,None,None,None,None,None,None,,None,None,None,None,None,None,None,None,6.9375,2.2165919999824837,642.2521330999443,None,642.2521330999443,None,642.2521330999443,None,642.2521330999443,None,None,None,644.4831992000109,None,0.10286458333333333,-0.29296875,1,0,0,3.6212166000623256,tijiao,,,,,,,,,249,m,24,2023_Mar_22_1612,RL,2021.2.3,59.972928209557814,
0,0.3,0.225,0,55,55,55,,,,,,,,,,,,,,,None,None,None,None,None,646.4559732000344,None,646.4559732000344,None,646.4559732000344,None,646.4559732000344,None,r,0.25527570000849664,646.4559732000344,None,646.4559732000344,None,646.7603142999578,None,646.7603142999578,None,646.7603142999578,None,646.7603142999578,None,646.7603142999578,None,646.7603142999578,None,647.0523044000147,648.8534669999499,647.0523044000147,648.8534669999499,648.8873840000015,None,648.8873840000015,None,648.8873840000015,None,648.8873840000015,None,648.8873840000015,None,648.8873840000015,None,648.8873840000015,None,648.8873840000015,None,648.8873840000015,None,48,33,82,54,48,45,None,None,None,None,None,None,None,None,None,None,None,None,34,651.4147832000162,None,34,651.4147832000162,None,651.4147832000162,None,651.4147832000162,None,651.4147832000162,None,651.4147832000162,None,651.4147832000162,None,651.4147832000162,None,0.01495793997310102,None,651.4147832000162,None,-0.2,0,None,None,None,None,None,None,None,None,None,None,None,None,,None,None,None,None,None,None,None,None,7.966145833333334,1.9804196000332013,655.5322693999624,None,655.5322693999624,None,655.5322693999624,None,655.5322693999624,None,None,None,657.5411805999465,None,0.09244791666666667,-0.29296875,1,0,0,4.068814400001429,tijiao,,,,,,,,,249,m,24,2023_Mar_22_1612,RL,2021.2.3,59.972928209557814,
1,-0.3,-0.225,0,56,56,56,,,,,,,,,,,,,,,None,None,None,None,None,659.0652490999782,None,659.0652490999782,None,659.0652490999782,None,659.0652490999782,None,j,0.3561112000606954,659.0652490999782,None,659.0652490999782,None,659.4680465999991,None,659.4680465999991,None,659.4680465999991,None,659.4680465999991,None,659.4680465999991,None,659.4680465999991,None,659.7445162000367,661.1787368999794,659.7445162000367,661.1787368999794,661.215992399957,None,661.215992399957,None,661.215992399957,None,661.215992399957,None,661.215992399957,None,661.215992399957,None,661.215992399957,None,661.215992399957,None,661.215992399957,None,50,31,85,55,55,65,None,None,None,None,None,None,None,None,None,None,None,None,,None,None,,None,None,None,None,None,None,None,None,None,None,None,None,None,None,None,None,None,None,0.6,1,663.771686000051,None,663.771686000051,None,663.771686000051,None,663.771686000051,None,663.771686000051,None,663.771686000051,None,70,663.771686000051,None,663.771686000051,None,0.00011153996456414461,None,663.771686000051,None,9.9453125,1.1777990000555292,667.6232336000539,None,667.6232336000539,None,667.6232336000539,None,667.6232336000539,None,None,None,668.8294169000583,None,,,,,,,,0.10416666666666667,-0.3020833333333333,1,0,0,3.820109899970703,tijiao_random_2,,249,m,24,2023_Mar_22_1612,RL,2021.2.3,59.972928209557814,
0,0.3,0.225,0,57,57,57,,,,,,,,,,,,,,,None,None,None,None,None,670.6385558999609,None,670.6385558999609,None,670.6385558999609,None,670.6385558999609,None,j,0.26284719991963357,670.6385558999609,None,670.6385558999609,None,670.9462739999872,None,670.9462739999872,None,670.9462739999872,None,670.9462739999872,None,670.9462739999872,None,670.9462739999872,None,671.2357400000328,673.0535663999617,671.2357400000328,673.0535663999617,673.0874418000458,None,673.0874418000458,None,673.0874418000458,None,673.0874418000458,None,673.0874418000458,None,673.0874418000458,None,673.0874418000458,None,673.0874418000458,None,673.0874418000458,None,47,30,77,62,62,77,675.6053589000367,None,6.0,1.9530161999864504,675.6053589000367,None,675.6053589000367,None,675.6053589000367,None,675.6053589000367,None,,None,None,,None,None,None,None,None,None,None,None,None,None,None,None,None,None,None,None,None,None,-0.2,3,None,None,None,None,None,None,None,None,None,None,None,None,,None,None,None,None,None,None,None,None,None,None,None,None,None,None,None,None,None,None,None,None,677.6192002999596,None,,,,,,,,,,,,,,,,249,m,24,2023_Mar_22_1612,RL,2021.2.3,59.972928209557814,
1,-0.3,-0.225,0,58,58,58,,,,,,,,,,,,,,,None,None,None,None,None,679.3125159000047,None,679.3125159000047,None,679.3125159000047,None,679.3125159000047,None,f,0.6590624999953434,679.3125159000047,None,679.3125159000047,None,680.0163318000268,None,680.0163318000268,None,680.0163318000268,None,680.0163318000268,None,680.0163318000268,None,680.0163318000268,None,680.3086881999625,None,680.3086881999625,None,682.057822200004,None,682.057822200004,None,682.057822200004,None,682.057822200004,None,682.057822200004,None,682.057822200004,None,682.057822200004,None,682.057822200004,None,682.057822200004,None,42,22,80,70,22,56,None,None,None,None,None,None,None,None,None,None,None,None,,None,None,,None,None,None,None,None,None,None,None,None,None,None,None,None,None,None,None,None,None,0.6,1,684.6006190000335,None,684.6006190000335,None,684.6006190000335,None,684.6006190000335,None,684.6006190000335,None,684.6006190000335,None,79,684.6006190000335,None,684.6006190000335,None,0.0028527399990707636,None,684.6006190000335,None,8.057291666666666,1.6473111000377685,689.5378339999588,None,689.5378339999588,None,689.5378339999588,None,689.5378339999588,None,None,None,691.1997366000433,None,,,,,,,,0.125,-0.28125,1,0,0,4.906574600026943,tijiao_random_2,,249,m,24,2023_Mar_22_1612,RL,2021.2.3,59.972928209557814,
0,0.3,0.225,0,59,59,59,,,,,,,,,,,,,,,None,None,None,None,None,693.1705068999436,None,693.1705068999436,None,693.1705068999436,None,693.1705068999436,None,i,0.29097050009295344,693.1705068999436,None,693.1705068999436,None,693.5151887000538,None,693.5151887000538,None,693.5151887000538,None,693.5151887000538,None,693.5151887000538,None,693.5151887000538,None,693.8014834000496,695.1522162000183,693.8014834000496,695.1522162000183,695.1843437999487,None,695.1843437999487,None,695.1843437999487,None,695.1843437999487,None,695.1843437999487,None,695.1843437999487,None,695.1843437999487,None,695.1843437999487,None,695.1843437999487,None,38,36,85,62,85,62,697.7094471999444,None,7.0,1.4334312999853864,697.7094471999444,None,697.7094471999444,None,697.7094471999444,None,697.7094471999444,None,,None,None,,None,None,None,None,None,None,None,None,None,None,None,None,None,None,None,None,None,None,-0.2,3,None,None,None,None,None,None,None,None,None,None,None,None,,None,None,None,None,None,None,None,None,None,None,None,None,None,None,None,None,None,None,None,None,699.2174994000234,None,,,,,,,,,,,,,,,,249,m,24,2023_Mar_22_1612,RL,2021.2.3,59.972928209557814,
1,-0.3,-0.225,0,60,60,60,,,,,,,,,,,,,,,None,None,None,None,None,701.1445088000037,None,701.1445088000037,None,701.1445088000037,None,701.1445088000037,None,j,0.38728769996669143,701.1445088000037,None,701.1445088000037,None,701.5772345999721,None,701.5772345999721,None,701.5772345999721,None,701.5772345999721,None,701.5772345999721,None,701.5772345999721,None,701.8737928000046,None,701.8737928000046,None,703.1552476000506,None,703.1552476000506,None,703.1552476000506,None,703.1552476000506,None,703.1552476000506,None,703.1552476000506,None,703.1552476000506,None,703.1552476000506,None,703.1552476000506,None,42,30,87,60,60,47,705.6732001999626,None,7.0,1.507536599994637,705.6732001999626,None,705.6732001999626,None,705.6732001999626,None,705.6732001999626,None,,None,None,,None,None,None,None,None,None,None,None,None,None,None,None,None,None,None,None,None,None,-0.2,3,None,None,None,None,None,None,None,None,None,None,None,None,,None,None,None,None,None,None,None,None,None,None,None,None,None,None,None,None,None,None,None,None,707.2443193000508,None,,,,,,,,,,,,,,,,249,m,24,2023_Mar_22_1612,RL,2021.2.3,59.972928209557814,
0,0.3,0.225,0,61,61,61,,,,,,,,,,,,,,,None,None,None,None,None,709.0160526999971,None,709.0160526999971,None,709.0160526999971,None,709.0160526999971,None,r,0.27555330004543066,709.0160526999971,None,709.0160526999971,None,709.3342943999451,None,709.3342943999451,None,709.3342943999451,None,709.3342943999451,None,709.3342943999451,None,709.3342943999451,None,709.6291781000327,None,709.6291781000327,None,710.961491700029,None,710.961491700029,None,710.961491700029,None,710.961491700029,None,710.961491700029,None,710.961491700029,None,710.961491700029,None,710.961491700029,None,710.961491700029,None,49,33,80,60,49,57,713.4784643000457,None,3.0,1.7726369999581948,713.4784643000457,None,713.4784643000457,None,713.4784643000457,None,713.4784643000457,None,,None,None,,None,None,None,None,None,None,None,None,None,None,None,None,None,None,None,None,None,None,-0.6,2,None,None,None,None,None,None,None,None,None,None,None,None,,None,None,None,None,None,None,None,None,None,None,None,None,None,None,None,None,None,None,None,None,715.3143845000304,None,,,,,,,,,,,,,,,,249,m,24,2023_Mar_22_1612,RL,2021.2.3,59.972928209557814,
1,-0.3,-0.225,0,62,62,62,,,,,,,,,,,,,,,None,None,None,None,None,717.2717665999662,None,717.2717665999662,None,717.2717665999662,None,717.2717665999662,None,r,0.24989790003746748,717.2717665999662,None,717.2717665999662,None,717.5793852000497,None,717.5793852000497,None,717.5793852000497,None,717.5793852000497,None,717.5793852000497,None,717.5793852000497,None,717.868228700012,718.9355534999631,717.868228700012,718.9355534999631,718.9679197999649,None,718.9679197999649,None,718.9679197999649,None,718.9679197999649,None,718.9679197999649,None,718.9679197999649,None,718.9679197999649,None,718.9679197999649,None,718.9679197999649,None,47,26,92,48,47,46,None,None,None,None,None,None,None,None,None,None,None,None,,None,None,,None,None,None,None,None,None,None,None,None,None,None,None,None,None,None,None,None,None,0.6,1,721.5131375000346,None,721.5131375000346,None,721.5131375000346,None,721.5131375000346,None,721.5131375000346,None,721.5131375000346,None,70,721.5131375000346,None,721.5131375000346,None,0.00026124005671590567,None,721.5131375000346,None,8.213541666666666,1.2298306000884622,725.1962620000122,None,725.1962620000122,None,725.1962620000122,None,725.1962620000122,None,None,None,726.4395958000096,None,,,,,,,,0.07291666666666667,-0.234375,1,0,0,3.4031928000040352,tijiao_random_2,,249,m,24,2023_Mar_22_1612,RL,2021.2.3,59.972928209557814,
0,0.3,0.225,0,63,63,63,,,,,,,,,,,,,,,None,None,None,None,None,727.9449935000157,None,727.9449935000157,None,727.9449935000157,None,727.9449935000157,None,i,0.3677052999846637,727.9449935000157,None,727.9449935000157,None,728.3671893000137,None,728.3671893000137,None,728.3671893000137,None,728.3671893000137,None,728.3671893000137,None,728.3671893000137,None,728.6590448999777,729.8932589000324,728.6590448999777,729.8932589000324,729.9256299999543,None,729.9256299999543,None,729.9256299999543,None,729.9256299999543,None,729.9256299999543,None,729.9256299999543,None,729.9256299999543,None,729.9256299999543,None,729.9256299999543,None,48,26,88,61,88,63,None,None,None,None,None,None,None,None,None,None,None,None,34,732.4581707000034,None,34,732.4581707000034,None,732.4581707000034,None,732.4581707000034,None,732.4581707000034,None,732.4581707000034,None,732.4581707000034,None,732.4581707000034,None,0.012726039974950254,None,732.4581707000034,None,-0.2,0,None,None,None,None,None,None,None,None,None,None,None,None,,None,None,None,None,None,None,None,None,5.114583333333333,0.9626472000963986,739.0235143000027,None,739.0235143000027,None,739.0235143000027,None,739.0235143000027,None,None,None,740.0147493999684,None,0.09114583333333333,-0.3111979166666667,1,0,0,6.518264599959366,tijiao,,,,,,,,,249,m,24,2023_Mar_22_1612,RL,2021.2.3,59.972928209557814,
1,-0.3,-0.225,0,64,64,64,,,,,,,,,,,,,,,None,None,None,None,None,741.9391220000107,None,741.9391220000107,None,741.9391220000107,None,741.9391220000107,None,i,0.2640030999900773,741.9391220000107,None,741.9391220000107,None,742.245913199964,None,742.245913199964,None,742.245913199964,None,742.245913199964,None,742.245913199964,None,742.245913199964,None,742.5352171000559,744.1530204999726,742.5352171000559,744.1530204999726,744.187512799981,None,744.187512799981,None,744.187512799981,None,744.187512799981,None,744.187512799981,None,744.187512799981,None,744.187512799981,None,744.187512799981,None,744.187512799981,None,49,25,89,51,89,46,None,None,None,None,None,None,None,None,None,None,None,None,62,746.71310980001,None,62,746.71310980001,None,746.71310980001,None,746.71310980001,None,746.71310980001,None,746.71310980001,None,746.71310980001,None,746.71310980001,None,0.00029185996390879154,None,746.71310980001,None,-0.6,0,None,None,None,None,None,None,None,None,None,None,None,None,,None,None,None,None,None,None,None,None,9.984375,1.5945114999776706,752.5694288000232,None,752.5694288000232,None,752.5694288000232,None,752.5694288000232,None,None,None,754.1914228999522,None,0.014322916666666666,-0.3020833333333333,1,0,0,5.80507999996189,tijiao,,,,,,,,,249,m,24,2023_Mar_22_1612,RL,2021.2.3,59.972928209557814,
0,0.3,0.225,0,65,65,65,,,,,,,,,,,,,,,None,None,None,None,None,756.0490722999675,None,756.0490722999675,None,756.0490722999675,None,756.0490722999675,None,j,0.2438580000307411,756.0490722999675,None,756.0490722999675,None,756.3395990000572,None,756.3395990000572,None,756.3395990000572,None,756.3395990000572,None,756.3395990000572,None,756.3395990000572,None,756.6283430999611,None,756.6283430999611,None,757.9119622999569,None,757.9119622999569,None,757.9119622999569,None,757.9119622999569,None,757.9119622999569,None,757.9119622999569,None,757.9119622999569,None,757.9119622999569,None,757.9119622999569,None,51,24,91,60,60,38,None,None,None,None,None,None,None,None,None,None,None,None,,None,None,,None,None,None,None,None,None,None,None,None,None,None,None,None,None,None,None,None,None,-0.2,1,760.4664515999611,None,760.4664515999611,None,760.4664515999611,None,760.4664515999611,None,760.4664515999611,None,760.4664515999611,None,52,760.4664515999611,None,760.4664515999611,None,0.006244419957511127,None,760.4664515999611,None,6.0390625,1.5807751999236643,769.1427869000472,None,769.1427869000472,None,769.1427869000472,None,769.1427869000472,None,None,None,770.7494993000291,None,,,,,,,,0.11328125,-0.2838541666666667,1,0,0,8.64631619991269,tijiao_random_2,,249,m,24,2023_Mar_22_1612,RL,2021.2.3,59.972928209557814,
1,-0.3,-0.225,0,66,66,66,,,,,,,,,,,,,,,None,None,None,None,None,772.4771498000482,None,772.4771498000482,None,772.4771498000482,None,772.4771498000482,None,f,0.25609060004353523,772.4771498000482,None,772.4771498000482,None,772.7838750999654,None,772.7838750999654,None,772.7838750999654,None,772.7838750999654,None,772.7838750999654,None,772.7838750999654,None,773.0734225000488,None,773.0734225000488,None,774.7549437000416,None,774.7549437000416,None,774.7549437000416,None,774.7549437000416,None,774.7549437000416,None,774.7549437000416,None,774.7549437000416,None,774.7549437000416,None,774.7549437000416,None,49,22,83,54,22,58,None,None,None,None,None,None,None,None,None,None,None,None,72,777.2929475000128,None,72,777.2929475000128,None,777.2929475000128,None,777.2929475000128,None,777.2929475000128,None,777.2929475000128,None,777.2929475000128,None,777.2929475000128,None,0.008483439916744828,None,777.2929475000128,None,0.2,0,None,None,None,None,None,None,None,None,None,None,None,None,,None,None,None,None,None,None,None,None,7.028645833333334,1.4437572000315413,781.7205628999509,None,781.7205628999509,None,781.7205628999509,None,781.7205628999509,None,None,None,783.1949585999828,None,0.09244791666666667,-0.2916666666666667,1,0,0,4.379299700027332,tijiao,,,,,,,,,249,m,24,2023_Mar_22_1612,RL,2021.2.3,59.972928209557814,
0,0.3,0.225,0,67,67,67,,,,,,,,,,,,,,,None,None,None,None,None,784.7186418999918,None,784.7186418999918,None,784.7186418999918,None,784.7186418999918,None,f,0.2547755000414327,784.7186418999918,None,784.7186418999918,None,785.024281400023,None,785.024281400023,None,785.024281400023,None,785.024281400023,None,785.024281400023,None,785.024281400023,None,785.3149731999729,786.6490110999439,785.3149731999729,786.6490110999439,786.6808076000307,None,786.6808076000307,None,786.6808076000307,None,786.6808076000307,None,786.6808076000307,None,786.6808076000307,None,786.6808076000307,None,786.6808076000307,None,786.6808076000307,None,56,27,92,53,27,59,None,None,None,None,None,None,None,None,None,None,None,None,80,789.2183003999526,None,80,789.2183003999526,None,789.2183003999526,None,789.2183003999526,None,789.2183003999526,None,789.2183003999526,None,789.2183003999526,None,789.2183003999526,None,0.008632239885628223,None,789.2183003999526,None,0.6,0,None,None,None,None,None,None,None,None,None,None,None,None,,None,None,None,None,None,None,None,None,9.0078125,1.6301437999354675,795.3954971999628,None,795.3954971999628,None,795.3954971999628,None,795.3954971999628,None,None,None,797.0393586000428,None,-0.0390625,-0.2799479166666667,1,0,0,6.13061829993967,tijiao,,,,,,,,,249,m,24,2023_Mar_22_1612,RL,2021.2.3,59.972928209557814,
1,-0.3,-0.225,0,68,68,68,,,,,,,,,,,,,,,None,None,None,None,None,798.5788573999889,None,798.5788573999889,None,798.5788573999889,None,798.5788573999889,None,j,0.2744943000143394,798.5788573999889,None,798.5788573999889,None,798.8993494999595,None,798.8993494999595,None,798.8993494999595,None,798.8993494999595,None,798.8993494999595,None,798.8993494999595,None,799.1912562999642,800.7590059000067,799.1912562999642,800.7590059000067,800.7920058999443,None,800.7920058999443,None,800.7920058999443,None,800.7920058999443,None,800.7920058999443,None,800.7920058999443,None,800.7920058999443,None,800.7920058999443,None,800.7920058999443,None,54,28,89,48,48,67,803.3060336000053,None,1.0,2.3257840999867767,803.3060336000053,None,803.3060336000053,None,803.3060336000053,None,803.3060336000053,None,,None,None,,None,None,None,None,None,None,None,None,None,None,None,None,None,None,None,None,None,None,-0.2,3,None,None,None,None,None,None,None,None,None,None,None,None,,None,None,None,None,None,None,None,None,None,None,None,None,None,None,None,None,None,None,None,None,805.6868157000281,None,,,,,,,,,,,,,,,,249,m,24,2023_Mar_22_1612,RL,2021.2.3,59.972928209557814,
0,0.3,0.225,0,69,69,69,,,,,,,,,,,,,,,None,None,None,None,None,807.6853182000341,None,807.6853182000341,None,807.6853182000341,None,807.6853182000341,None,j,0.28806149994488806,807.6853182000341,None,807.6853182000341,None,808.018648599973,None,808.018648599973,None,808.018648599973,None,808.018648599973,None,808.018648599973,None,808.018648599973,None,808.3144103999948,None,808.3144103999948,None,810.0190456999699,None,810.0190456999699,None,810.0190456999699,None,810.0190456999699,None,810.0190456999699,None,810.0190456999699,None,810.0190456999699,None,810.0190456999699,None,810.0190456999699,None,60,21,84,47,47,53,812.5371298999526,None,1.0,1.662309900042601,812.5371298999526,None,812.5371298999526,None,812.5371298999526,None,812.5371298999526,None,,None,None,,None,None,None,None,None,None,None,None,None,None,None,None,None,None,None,None,None,None,-0.2,2,None,None,None,None,None,None,None,None,None,None,None,None,,None,None,None,None,None,None,None,None,None,None,None,None,None,None,None,None,None,None,None,None,814.2536995999981,None,,,,,,,,,,,,,,,,249,m,24,2023_Mar_22_1612,RL,2021.2.3,59.972928209557814,
1,-0.3,-0.225,0,70,70,70,,,,,,,,,,,,,,,None,None,None,None,None,816.1735884000082,None,816.1735884000082,None,816.1735884000082,None,816.1735884000082,None,j,0.57996230002027,816.1735884000082,None,816.1735884000082,None,816.7932288999436,None,816.7932288999436,None,816.7932288999436,None,816.7932288999436,None,816.7932288999436,None,816.7932288999436,None,817.0869922999991,818.8883486000123,817.0869922999991,818.8883486000123,818.9203151999973,None,818.9203151999973,None,818.9203151999973,None,818.9203151999973,None,818.9203151999973,None,818.9203151999973,None,818.9203151999973,None,818.9203151999973,None,818.9203151999973,None,60,19,93,56,56,53,None,None,None,None,None,None,None,None,None,None,None,None,80,821.4576267000521,None,80,821.4576267000521,None,821.4576267000521,None,821.4576267000521,None,821.4576267000521,None,821.4576267000521,None,821.4576267000521,None,821.4576267000521,None,0.008728640037588775,None,821.4576267000521,None,0.6,0,None,None,None,None,None,None,None,None,None,None,None,None,,None,None,None,None,None,None,None,None,10.84375,1.7862311999779195,823.9147655999986,None,823.9147655999986,None,823.9147655999986,None,823.9147655999986,None,None,None,825.7241639000131,None,0.08854166666666667,-0.3125,1,0,0,2.4112068000249565,tijiao,,,,,,,,,249,m,24,2023_Mar_22_1612,RL,2021.2.3,59.972928209557814,
0,0.3,0.225,0,71,71,71,,,,,,,,,,,,,,,None,None,None,None,None,827.482106499956,None,827.482106499956,None,827.482106499956,None,827.482106499956,None,j,0.32125820009969175,827.482106499956,None,827.482106499956,None,827.8567116999766,None,827.8567116999766,None,827.8567116999766,None,827.8567116999766,None,827.8567116999766,None,827.8567116999766,None,828.1447282000445,829.9793147000019,828.1447282000445,829.9793147000019,830.0107087000506,None,830.0107087000506,None,830.0107087000506,None,830.0107087000506,None,830.0107087000506,None,830.0107087000506,None,830.0107087000506,None,830.0107087000506,None,830.0107087000506,None,51,19,91,45,45,75,832.5286466999678,None,1.0,1.8549551999894902,832.5286466999678,None,832.5286466999678,None,832.5286466999678,None,832.5286466999678,None,,None,None,,None,None,None,None,None,None,None,None,None,None,None,None,None,None,None,None,None,None,0.6,2,None,None,None,None,None,None,None,None,None,None,None,None,,None,None,None,None,None,None,None,None,None,None,None,None,None,None,None,None,None,None,None,None,834.4666402000003,None,,,,,,,,,,,,,,,,249,m,24,2023_Mar_22_1612,RL,2021.2.3,59.972928209557814,
1,-0.3,-0.225,0,72,72,72,,,,,,,,,,,,,,,None,None,None,None,None,836.1045482000336,None,836.1045482000336,None,836.1045482000336,None,836.1045482000336,None,j,0.3789551000809297,836.1045482000336,None,836.1045482000336,None,836.5230802999577,None,836.5230802999577,None,836.5230802999577,None,836.5230802999577,None,836.5230802999577,None,836.5230802999577,None,836.8174638999626,None,836.8174638999626,None,838.2480091999751,None,838.2480091999751,None,838.2480091999751,None,838.2480091999751,None,838.2480091999751,None,838.2480091999751,None,838.2480091999751,None,838.2480091999751,None,838.2480091999751,None,66,20,91,48,48,56,840.7724148000125,None,3.0,1.5167085999855772,840.7724148000125,None,840.7724148000125,None,840.7724148000125,None,840.7724148000125,None,,None,None,,None,None,None,None,None,None,None,None,None,None,None,None,None,None,None,None,None,None,0.2,3,None,None,None,None,None,None,None,None,None,None,None,None,,None,None,None,None,None,None,None,None,None,None,None,None,None,None,None,None,None,None,None,None,842.3442060999805,None,,,,,,,,,,,,,,,,249,m,24,2023_Mar_22_1612,RL,2021.2.3,59.972928209557814,
0,0.3,0.225,0,73,73,73,,,,,,,,,,,,,,,None,None,None,None,None,844.0769505000208,None,844.0769505000208,None,844.0769505000208,None,844.0769505000208,None,i,0.25660859991330653,844.0769505000208,None,844.0769505000208,None,844.3821282000281,None,844.3821282000281,None,844.3821282000281,None,844.3821282000281,None,844.3821282000281,None,844.3821282000281,None,844.6730100000277,None,844.6730100000277,None,846.6423348999815,None,846.6423348999815,None,846.6423348999815,None,846.6423348999815,None,846.6423348999815,None,846.6423348999815,None,846.6423348999815,None,846.6423348999815,None,846.6423348999815,None,60,6,92,49,92,35,849.1643863000209,None,7.0,0.9855898999376222,849.1643863000209,None,849.1643863000209,None,849.1643863000209,None,849.1643863000209,None,,None,None,,None,None,None,None,None,None,None,None,None,None,None,None,None,None,None,None,None,None,-0.6,3,None,None,None,None,None,None,None,None,None,None,None,None,,None,None,None,None,None,None,None,None,None,None,None,None,None,None,None,None,None,None,None,None,850.2134955000365,None,,,,,,,,,,,,,,,,249,m,24,2023_Mar_22_1612,RL,2021.2.3,59.972928209557814,
1,-0.3,-0.225,0,74,74,74,,,,,,,,,,,,,,,None,None,None,None,None,852.1830920999637,None,852.1830920999637,None,852.1830920999637,None,852.1830920999637,None,i,0.27052500005811453,852.1830920999637,None,852.1830920999637,None,852.5070968000218,None,852.5070968000218,None,852.5070968000218,None,852.5070968000218,None,852.5070968000218,None,852.5070968000218,None,852.7951983000385,None,852.7951983000385,None,853.9101249000523,None,853.9101249000523,None,853.9101249000523,None,853.9101249000523,None,853.9101249000523,None,853.9101249000523,None,853.9101249000523,None,853.9101249000523,None,853.9101249000523,None,68,22,93,56,93,61,None,None,None,None,None,None,None,None,None,None,None,None,,None,None,,None,None,None,None,None,None,None,None,None,None,None,None,None,None,None,None,None,None,0.2,1,856.460196100059,None,856.460196100059,None,856.460196100059,None,856.460196100059,None,856.460196100059,None,856.460196100059,None,93,856.460196100059,None,856.460196100059,None,0.012545819976367056,None,856.460196100059,None,10.8828125,0.8889664999442175,858.8571170000359,None,858.8571170000359,None,858.8571170000359,None,858.8571170000359,None,None,None,859.7646981000435,None,,,,,,,,0.15494791666666666,-0.2877604166666667,1,0,0,2.3493184000253677,tijiao_random_2,,249,m,24,2023_Mar_22_1612,RL,2021.2.3,59.972928209557814,
0,0.3,0.225,0,75,75,75,,,,,,,,,,,,,,,861.7349268000107,None,q,861.7349268000107,None,1112.677639600006,None,1112.677639600006,None,1112.677639600006,None,1112.677639600006,None,i,0.9969777000369504,1112.677639600006,None,1112.677639600006,None,1113.724221099983,None,1113.724221099983,None,1113.724221099983,None,1113.724221099983,None,1113.724221099983,None,1113.724221099983,None,1114.0098962000338,None,1114.0098962000338,None,1115.8102454999462,None,1115.8102454999462,None,1115.8102454999462,None,1115.8102454999462,None,1115.8102454999462,None,1115.8102454999462,None,1115.8102454999462,None,1115.8102454999462,None,1115.8102454999462,None,66,15,93,49,93,50,None,None,None,None,None,None,None,None,None,None,None,None,93,1118.3375479000388,None,93,1118.3375479000388,None,1118.3375479000388,None,1118.3375479000388,None,1118.3375479000388,None,1118.3375479000388,None,1118.3375479000388,None,1118.3375479000388,None,0.0008538600523024797,None,1118.3375479000388,None,-0.6,0,None,None,None,None,None,None,None,None,None,None,None,None,,None,None,None,None,None,None,None,None,11,1.5853377999737859,1122.4395762999775,None,1122.4395762999775,None,1122.4395762999775,None,1122.4395762999775,None,None,None,1124.0496033000527,None,0.14322916666666666,-0.3125,1,0,0,4.054398700012825,tijiao,,,,,,,,250.86948870006017,249,m,24,2023_Mar_22_1612,RL,2021.2.3,59.972928209557814,
1,-0.3,-0.225,0,76,76,76,,,,,,,,,,,,,,,None,None,None,None,None,1125.972678399994,None,1125.972678399994,None,1125.972678399994,None,1125.972678399994,None,i,0.2618440999649465,1125.972678399994,None,1125.972678399994,None,1126.2761270999908,None,1126.2761270999908,None,1126.2761270999908,None,1126.2761270999908,None,1126.2761270999908,None,1126.2761270999908,None,1126.568585000001,1128.386483600014,1126.568585000001,1128.386483600014,1128.4190366000403,None,1128.4190366000403,None,1128.4190366000403,None,1128.4190366000403,None,1128.4190366000403,None,1128.4190366000403,None,1128.4190366000403,None,1128.4190366000403,None,1128.4190366000403,None,75,27,88,41,88,65,None,None,None,None,None,None,None,None,None,None,None,None,,None,None,,None,None,None,None,None,None,None,None,None,None,None,None,None,None,None,None,None,None,0.2,1,1130.968680000049,None,1130.968680000049,None,1130.968680000049,None,1130.968680000049,None,1130.968680000049,None,1130.968680000049,None,93,1130.968680000049,None,1130.968680000049,None,0.010978920035995543,None,1130.968680000049,None,9.958333333333332,1.7491885999916121,1135.2137357000029,None,1135.2137357000029,None,1135.2137357000029,None,1135.2137357000029,None,None,None,1136.992443599971,None,,,,,,,,0.11848958333333333,-0.3059895833333333,1,0,0,4.214614000055008,tijiao_random_2,,249,m,24,2023_Mar_22_1612,RL,2021.2.3,59.972928209557814,
