bandit0,black_x_pos_random,black_y_pos_random,trials.thisRepN,trials.thisTrialN,trials.thisN,trials.thisIndex,instru_img1.started,instru_resp.started,instru_resp.keys,instru_resp.rt,instru_img2.started,instru_resp2.started,instru_resp2.keys,instru_resp2.rt,fixbefore_2.started,rest_response.keys,red.started,green.started,yellow.started,blue.started,choose_bandit.started,Fixation.started,choose_bandit.keys,choose_bandit.rt,black.started,red_2.started,green_2.started,yellow_2.started,blue_2.started,fixation_2.started,docs.started,wait_playerB.started,docs.stopped,wait_playerB.stopped,black.stopped,red_2.stopped,green_2.stopped,yellow_2.stopped,blue_2.stopped,fixation_2.stopped,black_com.started,reward_sub.started,palyerb.started,reward__sub.started,compare.started,red_compare.started,green_com.started,yellow_com.started,blue_com.started,image_3.started,slider.started,text.started,image_4.started,image_5.started,rewardyellow,rewardred,rewardblue,rewardgreen,subchoose,playerb,slider.response,slider.rt,expectself.text,value_expect_self,tijiao_click.x,tijiao_click.y,tijiao_click.leftButton,tijiao_click.midButton,tijiao_click.rightButton,tijiao_click.time,tijiao_click.clicked_name,random_whicharm,whether_ask,expect_random_3.text,tijiao_random.x,tijiao_random.y,tijiao_random.leftButton,tijiao_random.midButton,tijiao_random.rightButton,tijiao_random.time,tijiao_random.clicked_name,slider_2.response,slider_2.rt,intertrialfix.started,intertrialfix.stopped,jiantou_random.started,expect_red.started,expect_green.started,expect_yellow.started,expect_blue.started,expect_random_2.started,expect_random_3.started,tijiao_random_2.started,tijiao_random.started,check_2.started,slider_2.started,image_7.started,confi.started,notconfi.started,expectself.started,expect_self_black.started,expect_self.started,expect_self_red.started,expect_self_green.started,expect_self_yellow.started,expect_self_blue.started,tijiao.started,tijiao_click.started,check.started,rest_image.started,rest_response.started,rest_response.rt,participant,Gender,Age,date,expName,psychopyVersion,frameRate,
,,,,,,,34.048078100022394,34.048078100022394,space,11.667159999982687,,,,,,,,,,,,,,,,,,,,,,,,,,,,,,,,,,,,,,,,,,,,,,,,,,,,,,,,,,,,,,,,,,,,,,,,,,,,,,,,,,,,,,,,,,,,,,,,,,,,,,,250,f,23,2023-03-22_16h11.37.144,RL,2022.2.4,60.04091187084148,
,,,,,,,,,,,45.75349840000854,45.75349840000854,s,45.67769070001668,,,,,,,,,,,,,,,,,,,,,,,,,,,,,,,,,,,,,,,,,,,,,,,,,,,,,,,,,,,,,,,,,,,,,,,,,,,,,,,,,,,,,,,,,,,,,,,,,,,250,f,23,2023-03-22_16h11.37.144,RL,2022.2.4,60.04091187084148,
1,-0.3,-0.225,0,0,0,0,,,,,,,,,91.4542453000031,None,92.48195700001088,92.48195700001088,92.48195700001088,92.48195700001088,92.48195700001088,92.48195700001088,f,0.7037969999946654,93.23790590002318,93.23790590002318,93.23790590002318,93.23790590002318,93.23790590002318,93.23790590002318,93.51534620000166,93.51534620000166,94.67866650002543,94.67866650002543,94.69677370000863,94.69677370000863,94.69677370000863,94.69677370000863,94.69677370000863,94.69677370000863,94.69677370000863,94.69677370000863,94.69677370000863,94.69677370000863,94.69677370000863,94.69677370000863,94.69677370000863,94.69677370000863,94.69677370000863,97.2049498000124,97.2049498000124,97.2049498000124,97.2049498000124,97.2049498000124,48,42,57,28,42,35,5.0,2.076840199995786,,,[],[],[],[],[],[],[],-0.6,3,,[],[],[],[],[],[],[],None,None,99.46679020000738,101.3270769000228,,,,,,,,,,,,,,,,,,,,,,,,,,,,250,f,23,2023-03-22_16h11.37.144,RL,2022.2.4,60.04091187084148,
0,0.3,0.225,0,1,1,1,,,,,,,,,,None,101.3270769000228,101.3270769000228,101.3270769000228,101.3270769000228,101.3270769000228,101.3270769000228,j,0.5761907999985851,101.93065580000984,101.93065580000984,101.93065580000984,101.93065580000984,101.93065580000984,101.93065580000984,102.22463170002447,102.22463170002447,103.58776640001452,103.58776640001452,103.58776640001452,103.58776640001452,103.58776640001452,103.58776640001452,103.58776640001452,103.58776640001452,103.58776640001452,103.58776640001452,103.58776640001452,103.58776640001452,103.58776640001452,103.58776640001452,103.58776640001452,103.58776640001452,103.58776640001452,,,,,,46,41,50,25,25,56,None,None,,,[],[],[],[],[],[],[],0.2,1,30,[0.09814814814814815],[-0.2935185185185185],[1],[0],[0],[8.215090199984843],['tijiao_random_2'],4.0,2.154512800014345,116.51810030001798,118.51318660000106,106.12070080000558,106.12070080000558,106.12070080000558,106.12070080000558,106.12070080000558,106.12070080000558,106.12070080000558,106.12070080000558,0.005355700006475672,106.12070080000558,114.35095020002336,114.35095020002336,114.35095020002336,114.35095020002336,,,,,,,,,,,,,,250,f,23,2023-03-22_16h11.37.144,RL,2022.2.4,60.04091187084148,
1,-0.3,-0.225,0,2,2,2,,,,,,,,,,None,118.51318660000106,118.51318660000106,118.51318660000106,118.51318660000106,118.51318660000106,118.51318660000106,i,0.5535298000031617,119.10157540001092,119.10157540001092,119.10157540001092,119.10157540001092,119.10157540001092,119.10157540001092,119.39467800001148,119.39467800001148,120.24227919999976,120.24227919999976,120.24227919999976,120.24227919999976,120.24227919999976,120.24227919999976,120.24227919999976,120.24227919999976,120.24227919999976,120.24227919999976,120.24227919999976,120.24227919999976,120.24227919999976,120.24227919999976,120.24227919999976,120.24227919999976,120.24227919999976,,,,,,42,43,47,35,47,60,None,None,,,[],[],[],[],[],[],[],-0.6,1,40,[-0.01574074074074074],[-0.30092592592592593],[1],[0],[0],[4.8515558000071906],['tijiao_random_2'],2.9537037037037037,4.0325489999959245,131.67664990000776,133.67219460001797,122.76147210001363,122.76147210001363,122.76147210001363,122.76147210001363,122.76147210001363,122.76147210001363,122.76147210001363,122.76147210001363,0.006308299984084442,122.76147210001363,127.62561220000498,127.62561220000498,127.62561220000498,127.62561220000498,,,,,,,,,,,,,,250,f,23,2023-03-22_16h11.37.144,RL,2022.2.4,60.04091187084148,
0,0.3,0.225,0,3,3,3,,,,,,,,,,None,133.67219460001797,133.67219460001797,133.67219460001797,133.67219460001797,133.67219460001797,133.67219460001797,i,0.463201200007461,134.156532300025,134.156532300025,134.156532300025,134.156532300025,134.156532300025,134.156532300025,134.4536091000191,134.4536091000191,135.4175824999984,135.4175824999984,135.4175824999984,135.4175824999984,135.4175824999984,135.4175824999984,135.4175824999984,135.4175824999984,135.4175824999984,135.4175824999984,135.4175824999984,135.4175824999984,135.4175824999984,135.4175824999984,135.4175824999984,135.4175824999984,135.4175824999984,137.92666100000497,137.92666100000497,137.92666100000497,137.92666100000497,137.92666100000497,34,32,44,34,44,64,3.0,2.6585167000012007,,,[],[],[],[],[],[],[],-0.2,3,,[],[],[],[],[],[],[],None,None,140.61063900002046,142.44792920001782,,,,,,,,,,,,,,,,,,,,,,,,,,,,250,f,23,2023-03-22_16h11.37.144,RL,2022.2.4,60.04091187084148,
1,-0.3,-0.225,0,4,4,4,,,,,,,,,,None,142.44792920001782,142.44792920001782,142.44792920001782,142.44792920001782,142.44792920001782,142.44792920001782,r,0.625406799983466,143.10118210001383,143.10118210001383,143.10118210001383,143.10118210001383,143.10118210001383,143.10118210001383,143.39578950000578,143.39578950000578,144.82537570002023,144.82537570002023,144.82537570002023,144.82537570002023,144.82537570002023,144.82537570002023,144.82537570002023,144.82537570002023,144.82537570002023,144.82537570002023,144.82537570002023,144.82537570002023,144.82537570002023,144.82537570002023,144.82537570002023,144.82537570002023,144.82537570002023,147.33406049999758,147.33406049999758,147.33406049999758,147.33406049999758,147.33406049999758,30,41,43,23,30,62,2.0,3.855172000010498,,,[],[],[],[],[],[],[],0.2,2,,[],[],[],[],[],[],[],None,None,151.21521799999755,153.0858384000021,,,,,,,,,,,,,,,,,,,,,,,,,,,,250,f,23,2023-03-22_16h11.37.144,RL,2022.2.4,60.04091187084148,
0,0.3,0.225,0,5,5,5,,,,,,,,,,None,153.0858384000021,153.0858384000021,153.0858384000021,153.0858384000021,153.0858384000021,153.0858384000021,i,0.4452473999990616,153.55175350001082,153.55175350001082,153.55175350001082,153.55175350001082,153.55175350001082,153.55175350001082,153.85076580001623,153.85076580001623,155.59592400002293,155.59592400002293,155.59592400002293,155.59592400002293,155.59592400002293,155.59592400002293,155.59592400002293,155.59592400002293,155.59592400002293,155.59592400002293,155.59592400002293,155.59592400002293,155.59592400002293,155.59592400002293,155.59592400002293,155.59592400002293,155.59592400002293,158.10497680000844,158.10497680000844,158.10497680000844,158.10497680000844,158.10497680000844,42,47,41,27,41,65,2.0,3.091088999994099,,,[],[],[],[],[],[],[],-0.6,2,,[],[],[],[],[],[],[],None,None,161.22168210000382,163.05845110001974,,,,,,,,,,,,,,,,,,,,,,,,,,,,250,f,23,2023-03-22_16h11.37.144,RL,2022.2.4,60.04091187084148,
1,-0.3,-0.225,0,6,6,6,,,,,,,,,,None,163.05845110001974,163.05845110001974,163.05845110001974,163.05845110001974,163.05845110001974,163.05845110001974,j,0.480133900011424,163.5576300000248,163.5576300000248,163.5576300000248,163.5576300000248,163.5576300000248,163.5576300000248,163.85690100002103,163.85690100002103,164.87072890001582,164.87072890001582,164.87072890001582,164.87072890001582,164.87072890001582,164.87072890001582,164.87072890001582,164.87072890001582,164.87072890001582,164.87072890001582,164.87072890001582,164.87072890001582,164.87072890001582,164.87072890001582,164.87072890001582,164.87072890001582,164.87072890001582,167.37987870001234,167.37987870001234,167.37987870001234,167.37987870001234,167.37987870001234,49,43,45,23,23,62,2.0,2.192617099994095,,,[],[],[],[],[],[],[],0.6,2,,[],[],[],[],[],[],[],None,None,169.59803260001354,171.4523501000076,,,,,,,,,,,,,,,,,,,,,,,,,,,,250,f,23,2023-03-22_16h11.37.144,RL,2022.2.4,60.04091187084148,
0,0.3,0.225,0,7,7,7,,,,,,,,,,None,171.4523501000076,171.4523501000076,171.4523501000076,171.4523501000076,171.4523501000076,171.4523501000076,f,0.4997866000048816,171.98477619999903,171.98477619999903,171.98477619999903,171.98477619999903,171.98477619999903,171.98477619999903,172.28378970001359,172.28378970001359,173.164617500006,173.164617500006,173.1811273000203,173.1811273000203,173.1811273000203,173.1811273000203,173.1811273000203,173.1811273000203,173.1811273000203,173.1811273000203,173.1811273000203,173.1811273000203,173.1811273000203,173.1811273000203,173.1811273000203,173.1811273000203,173.1811273000203,,,,,,48,45,46,23,45,70,None,None,40,40,[0.025925925925925925],[-0.2777777777777778],[1],[0],[0],[6.174272900010692],['tijiao'],0.2,0,,[],[],[],[],[],[],[],5.0,1.8470158000127412,183.75131170000532,185.2814435000182,,,,,,,,,,,181.88610750000225,181.88610750000225,181.88610750000225,181.88610750000225,175.69423040002584,175.69423040002584,175.69423040002584,175.69423040002584,175.69423040002584,175.69423040002584,175.69423040002584,175.69423040002584,0.005201099993428215,175.69423040002584,,,,250,f,23,2023-03-22_16h11.37.144,RL,2022.2.4,60.04091187084148,
1,-0.3,-0.225,0,8,8,8,,,,,,,,,,None,185.2814435000182,185.2814435000182,185.2814435000182,185.2814435000182,185.2814435000182,185.2814435000182,r,0.4060260999831371,185.7155304000189,185.7155304000189,185.7155304000189,185.7155304000189,185.7155304000189,185.7155304000189,186.01267870000447,186.01267870000447,187.27623940000194,187.27623940000194,187.27623940000194,187.27623940000194,187.27623940000194,187.27623940000194,187.27623940000194,187.27623940000194,187.27623940000194,187.27623940000194,187.27623940000194,187.27623940000194,187.27623940000194,187.27623940000194,187.27623940000194,187.27623940000194,187.27623940000194,189.78509200000553,189.78509200000553,189.78509200000553,189.78509200000553,189.78509200000553,43,36,50,32,43,76,2.0,3.1248827999806963,,,[],[],[],[],[],[],[],0.6,3,,[],[],[],[],[],[],[],None,None,192.93510220001917,194.6226324000163,,,,,,,,,,,,,,,,,,,,,,,,,,,,250,f,23,2023-03-22_16h11.37.144,RL,2022.2.4,60.04091187084148,
0,0.3,0.225,0,9,9,9,,,,,,,,,,None,194.6226324000163,194.6226324000163,194.6226324000163,194.6226324000163,194.6226324000163,194.6226324000163,f,0.5882639999908861,195.23781070002588,195.23781070002588,195.23781070002588,195.23781070002588,195.23781070002588,195.23781070002588,195.53712040002574,195.53712040002574,197.46526230001473,197.46526230001473,197.46526230001473,197.46526230001473,197.46526230001473,197.46526230001473,197.46526230001473,197.46526230001473,197.46526230001473,197.46526230001473,197.46526230001473,197.46526230001473,197.46526230001473,197.46526230001473,197.46526230001473,197.46526230001473,197.46526230001473,199.97420490000513,199.97420490000513,199.97420490000513,199.97420490000513,199.97420490000513,50,47,47,23,47,72,2.0,2.9242749999975786,,,[],[],[],[],[],[],[],0.6,2,,[],[],[],[],[],[],[],None,None,202.9230869000021,204.84466050000628,,,,,,,,,,,,,,,,,,,,,,,,,,,,250,f,23,2023-03-22_16h11.37.144,RL,2022.2.4,60.04091187084148,
1,-0.3,-0.225,0,10,10,10,,,,,,,,,,None,204.84466050000628,204.84466050000628,204.84466050000628,204.84466050000628,204.84466050000628,204.84466050000628,i,0.47945489999256097,205.34358270000666,205.34358270000666,205.34358270000666,205.34358270000666,205.34358270000666,205.34358270000666,205.64276330001303,205.64276330001303,206.8893720000051,206.8893720000051,206.8893720000051,206.8893720000051,206.8893720000051,206.8893720000051,206.8893720000051,206.8893720000051,206.8893720000051,206.8893720000051,206.8893720000051,206.8893720000051,206.8893720000051,206.8893720000051,206.8893720000051,206.8893720000051,206.8893720000051,209.3984357000154,209.3984357000154,209.3984357000154,209.3984357000154,209.3984357000154,49,50,56,20,56,33,4.0,2.9079262999875937,,,[],[],[],[],[],[],[],0.2,2,,[],[],[],[],[],[],[],None,None,212.33033120000619,213.93644330001553,,,,,,,,,,,,,,,,,,,,,,,,,,,,250,f,23,2023-03-22_16h11.37.144,RL,2022.2.4,60.04091187084148,
0,0.3,0.225,0,11,11,11,,,,,,,,,,None,213.93644330001553,213.93644330001553,213.93644330001553,213.93644330001553,213.93644330001553,213.93644330001553,i,0.49230299997725524,214.45214460001444,214.45214460001444,214.45214460001444,214.45214460001444,214.45214460001444,214.45214460001444,214.7513115000038,214.7513115000038,216.54598690001876,216.54598690001876,216.54598690001876,216.54598690001876,216.54598690001876,216.54598690001876,216.54598690001876,216.54598690001876,216.54598690001876,216.54598690001876,216.54598690001876,216.54598690001876,216.54598690001876,216.54598690001876,216.54598690001876,216.54598690001876,216.54598690001876,,,,,,45,52,48,30,48,69,None,None,45,45,[0.021296296296296296],[-0.2916666666666667],[1],[0],[0],[5.774876999988919],['tijiao'],-0.2,0,,[],[],[],[],[],[],[],5.981481481481482,4.889097900013439,229.7589752000058,231.5215501000057,,,,,,,,,,,224.8511082000041,224.8511082000041,224.8511082000041,224.8511082000041,219.05627370000002,219.05627370000002,219.05627370000002,219.05627370000002,219.05627370000002,219.05627370000002,219.05627370000002,219.05627370000002,0.00559010001597926,219.05627370000002,,,,250,f,23,2023-03-22_16h11.37.144,RL,2022.2.4,60.04091187084148,
1,-0.3,-0.225,0,12,12,12,,,,,,,,,,None,231.5215501000057,231.5215501000057,231.5215501000057,231.5215501000057,231.5215501000057,231.5215501000057,i,0.4144947000022512,231.95608530001482,231.95608530001482,231.95608530001482,231.95608530001482,231.95608530001482,231.95608530001482,232.2535717000137,232.2535717000137,233.94892780002556,233.94892780002556,233.94892780002556,233.94892780002556,233.94892780002556,233.94892780002556,233.94892780002556,233.94892780002556,233.94892780002556,233.94892780002556,233.94892780002556,233.94892780002556,233.94892780002556,233.94892780002556,233.94892780002556,233.94892780002556,233.94892780002556,,,,,,46,51,51,31,51,65,None,None,,,[],[],[],[],[],[],[],-0.6,1,40,[-0.03148148148148148],[-0.287962962962963],[1],[0],[0],[4.353742199979024],['tijiao_random_2'],6.0,3.952461199980462,244.80119180001202,246.63010190002387,236.4658647000033,236.4658647000033,236.4658647000033,236.4658647000033,236.4658647000033,236.4658647000033,236.4658647000033,236.4658647000033,0.005854699993506074,236.4658647000033,240.8315319000103,240.8315319000103,240.8315319000103,240.8315319000103,,,,,,,,,,,,,,250,f,23,2023-03-22_16h11.37.144,RL,2022.2.4,60.04091187084148,
0,0.3,0.225,0,13,13,13,,,,,,,,,,None,246.63010190002387,246.63010190002387,246.63010190002387,246.63010190002387,246.63010190002387,246.63010190002387,r,0.3354255000012927,246.99845939999796,246.99845939999796,246.99845939999796,246.99845939999796,246.99845939999796,246.99845939999796,247.29552460002014,247.29552460002014,248.72449130000314,248.72449130000314,248.72449130000314,248.72449130000314,248.72449130000314,248.72449130000314,248.72449130000314,248.72449130000314,248.72449130000314,248.72449130000314,248.72449130000314,248.72449130000314,248.72449130000314,248.72449130000314,248.72449130000314,248.72449130000314,248.72449130000314,251.23384570001508,251.23384570001508,251.23384570001508,251.23384570001508,251.23384570001508,49,43,41,31,49,52,4.0,3.9725729000056162,,,[],[],[],[],[],[],[],-0.2,2,,[],[],[],[],[],[],[],None,None,255.2303130000073,257.1850258000195,,,,,,,,,,,,,,,,,,,,,,,,,,,,250,f,23,2023-03-22_16h11.37.144,RL,2022.2.4,60.04091187084148,
1,-0.3,-0.225,0,14,14,14,,,,,,,,,,None,257.1850258000195,257.1850258000195,257.1850258000195,257.1850258000195,257.1850258000195,257.1850258000195,j,0.5935314999951515,257.8030515999999,257.8030515999999,257.8030515999999,257.8030515999999,257.8030515999999,257.8030515999999,258.0996229000157,258.0996229000157,259.9111912000226,259.9111912000226,259.9111912000226,259.9111912000226,259.9111912000226,259.9111912000226,259.9111912000226,259.9111912000226,259.9111912000226,259.9111912000226,259.9111912000226,259.9111912000226,259.9111912000226,259.9111912000226,259.9111912000226,259.9111912000226,259.9111912000226,,,,,,45,47,43,35,35,59,None,None,40,40,[-0.040740740740740744],[-0.2851851851851852],[1],[0],[0],[7.850407999998424],['tijiao'],-0.6,0,,[],[],[],[],[],[],[],5.953703703703703,1.9801829000061844,272.2930032000004,273.98938020001515,,,,,,,,,,,270.2940189000219,270.2940189000219,270.2940189000219,270.2940189000219,262.4233324000088,262.4233324000088,262.4233324000088,262.4233324000088,262.4233324000088,262.4233324000088,262.4233324000088,262.4233324000088,0.007700100017245859,262.4233324000088,,,,250,f,23,2023-03-22_16h11.37.144,RL,2022.2.4,60.04091187084148,
0,0.3,0.225,0,15,15,15,,,,,,,,,,None,273.98938020001515,273.98938020001515,273.98938020001515,273.98938020001515,273.98938020001515,273.98938020001515,j,0.29711819998919964,274.3062717000139,274.3062717000139,274.3062717000139,274.3062717000139,274.3062717000139,274.3062717000139,274.6046697999991,274.6046697999991,275.5520286000101,275.5520286000101,275.5520286000101,275.5520286000101,275.5520286000101,275.5520286000101,275.5520286000101,275.5520286000101,275.5520286000101,275.5520286000101,275.5520286000101,275.5520286000101,275.5520286000101,275.5520286000101,275.5520286000101,275.5520286000101,275.5520286000101,278.06098530002055,278.06098530002055,278.06098530002055,278.06098530002055,278.06098530002055,44,38,42,30,30,33,4.0,2.2428638999990653,,,[],[],[],[],[],[],[],-0.2,2,,[],[],[],[],[],[],[],None,None,280.3286350000126,282.08347380001214,,,,,,,,,,,,,,,,,,,,,,,,,,,,250,f,23,2023-03-22_16h11.37.144,RL,2022.2.4,60.04091187084148,
1,-0.3,-0.225,0,16,16,16,,,,,,,,,,None,282.08347380001214,282.08347380001214,282.08347380001214,282.08347380001214,282.08347380001214,282.08347380001214,i,0.47241180000128224,282.5826260000176,282.5826260000176,282.5826260000176,282.5826260000176,282.5826260000176,282.5826260000176,282.8820467000187,282.8820467000187,283.81251100002555,283.81251100002555,283.81251100002555,283.81251100002555,283.81251100002555,283.81251100002555,283.81251100002555,283.81251100002555,283.81251100002555,283.81251100002555,283.81251100002555,283.81251100002555,283.81251100002555,283.81251100002555,283.81251100002555,283.81251100002555,283.81251100002555,,,,,,38,43,51,31,51,66,None,None,66,66,[0.09259259259259259],[-0.28888888888888886],[1],[0],[0],[6.854267899994738],['tijiao'],-0.6,0,,[],[],[],[],[],[],[],6.972222222222222,4.6237744000100065,297.8399790000112,299.4864385999972,,,,,,,,,,,293.1973455999978,293.1973455999978,293.1973455999978,293.1973455999978,286.3239887000236,286.3239887000236,286.3239887000236,286.3239887000236,286.3239887000236,286.3239887000236,286.3239887000236,286.3239887000236,0.006553000013809651,286.3239887000236,,,,250,f,23,2023-03-22_16h11.37.144,RL,2022.2.4,60.04091187084148,
0,0.3,0.225,0,17,17,17,,,,,,,,,,None,299.4864385999972,299.4864385999972,299.4864385999972,299.4864385999972,299.4864385999972,299.4864385999972,i,0.36245359998429194,299.86896380002145,299.86896380002145,299.86896380002145,299.86896380002145,299.86896380002145,299.86896380002145,300.16821750000236,300.16821750000236,301.04862200000207,301.04862200000207,301.04862200000207,301.04862200000207,301.04862200000207,301.04862200000207,301.04862200000207,301.04862200000207,301.04862200000207,301.04862200000207,301.04862200000207,301.04862200000207,301.04862200000207,301.04862200000207,301.04862200000207,301.04862200000207,301.04862200000207,303.5580913000158,303.5580913000158,303.5580913000158,303.5580913000158,303.5580913000158,49,39,58,29,58,58,5.0,2.8584036999964155,,,[],[],[],[],[],[],[],0.2,2,,[],[],[],[],[],[],[],None,None,306.4412084000069,308.32898280001245,,,,,,,,,,,,,,,,,,,,,,,,,,,,250,f,23,2023-03-22_16h11.37.144,RL,2022.2.4,60.04091187084148,
1,-0.3,-0.225,0,18,18,18,,,,,,,,,,None,308.32898280001245,308.32898280001245,308.32898280001245,308.32898280001245,308.32898280001245,308.32898280001245,i,0.3838419000094291,308.74660460001905,308.74660460001905,308.74660460001905,308.74660460001905,308.74660460001905,308.74660460001905,309.0439121000236,309.0439121000236,310.05766500000027,310.05766500000027,310.0746490000165,310.0746490000165,310.0746490000165,310.0746490000165,310.0746490000165,310.0746490000165,310.0746490000165,310.0746490000165,310.0746490000165,310.0746490000165,310.0746490000165,310.0746490000165,310.0746490000165,310.0746490000165,310.0746490000165,,,,,,51,41,52,31,52,59,None,None,55,55,[0.125],[-0.2962962962962963],[1],[0],[0],[3.647455700003775],['tijiao'],0.2,0,,[],[],[],[],[],[],[],7.962962962962963,3.060282399994321,319.3312289000023,320.86131639999803,,,,,,,,,,,316.25601959999767,316.25601959999767,316.25601959999767,316.25601959999767,312.5845842999988,312.5845842999988,312.5845842999988,312.5845842999988,312.5845842999988,312.5845842999988,312.5845842999988,312.5845842999988,0.005083500000182539,312.5845842999988,,,,250,f,23,2023-03-22_16h11.37.144,RL,2022.2.4,60.04091187084148,
0,0.3,0.225,0,19,19,19,,,,,,,,,,None,320.86131639999803,320.86131639999803,320.86131639999803,320.86131639999803,320.86131639999803,320.86131639999803,i,0.6378855000075419,321.52652320000925,321.52652320000925,321.52652320000925,321.52652320000925,321.52652320000925,321.52652320000925,321.82541710001533,321.82541710001533,323.7705119000166,323.7705119000166,323.7705119000166,323.7705119000166,323.7705119000166,323.7705119000166,323.7705119000166,323.7705119000166,323.7705119000166,323.7705119000166,323.7705119000166,323.7705119000166,323.7705119000166,323.7705119000166,323.7705119000166,323.7705119000166,323.7705119000166,,,,,,58,33,49,33,49,50,None,None,55,55,[0.049074074074074076],[-0.3037037037037037],[1],[0],[0],[8.100334899994778],['tijiao'],0.6,0,,[],[],[],[],[],[],[],6.972222222222222,2.017211300000781,336.4273621000175,338.31370660001994,,,,,,,,,,,334.4025154999981,334.4025154999981,334.4025154999981,334.4025154999981,326.282517500018,326.282517500018,326.282517500018,326.282517500018,326.282517500018,326.282517500018,326.282517500018,326.282517500018,0.007619699987117201,326.282517500018,,,,250,f,23,2023-03-22_16h11.37.144,RL,2022.2.4,60.04091187084148,
1,-0.3,-0.225,0,20,20,20,,,,,,,,,,None,338.31370660001994,338.31370660001994,338.31370660001994,338.31370660001994,338.31370660001994,338.31370660001994,f,0.3892546000133734,338.72949870000593,338.72949870000593,338.72949870000593,338.72949870000593,338.72949870000593,338.72949870000593,339.0287344000244,339.0287344000244,340.6244707000151,340.6244707000151,340.6244707000151,340.6244707000151,340.6244707000151,340.6244707000151,340.6244707000151,340.6244707000151,340.6244707000151,340.6244707000151,340.6244707000151,340.6244707000151,340.6244707000151,340.6244707000151,340.6244707000151,340.6244707000151,340.6244707000151,343.1335001999978,343.1335001999978,343.1335001999978,343.1335001999978,343.1335001999978,60,35,51,35,35,55,3.0,1.9436558000161313,,,[],[],[],[],[],[],[],-0.6,3,,[],[],[],[],[],[],[],None,None,345.1018117000058,346.7408553000132,,,,,,,,,,,,,,,,,,,,,,,,,,,,250,f,23,2023-03-22_16h11.37.144,RL,2022.2.4,60.04091187084148,
0,0.3,0.225,0,21,21,21,,,,,,,,,,None,346.7408553000132,346.7408553000132,346.7408553000132,346.7408553000132,346.7408553000132,346.7408553000132,f,0.8509157999942545,347.6235048000235,347.6235048000235,347.6235048000235,347.6235048000235,347.6235048000235,347.6235048000235,347.92125990000204,347.92125990000204,349.8160885000252,349.8160885000252,349.8160885000252,349.8160885000252,349.8160885000252,349.8160885000252,349.8160885000252,349.8160885000252,349.8160885000252,349.8160885000252,349.8160885000252,349.8160885000252,349.8160885000252,349.8160885000252,349.8160885000252,349.8160885000252,349.8160885000252,352.3247527000203,352.3247527000203,352.3247527000203,352.3247527000203,352.3247527000203,50,41,42,34,41,24,6.0,3.0908832999994047,,,[],[],[],[],[],[],[],-0.2,3,,[],[],[],[],[],[],[],None,None,355.4397535000171,357.32878510002047,,,,,,,,,,,,,,,,,,,,,,,,,,,,250,f,23,2023-03-22_16h11.37.144,RL,2022.2.4,60.04091187084148,
1,-0.3,-0.225,0,22,22,22,,,,,,,,,,None,357.32878510002047,357.32878510002047,357.32878510002047,357.32878510002047,357.32878510002047,357.32878510002047,j,0.9263079999946058,358.2763094000111,358.2763094000111,358.2763094000111,358.2763094000111,358.2763094000111,358.2763094000111,358.57535030000145,358.57535030000145,359.52266040001996,359.52266040001996,359.53944810002577,359.53944810002577,359.53944810002577,359.53944810002577,359.53944810002577,359.53944810002577,359.53944810002577,359.53944810002577,359.53944810002577,359.53944810002577,359.53944810002577,359.53944810002577,359.53944810002577,359.53944810002577,359.53944810002577,,,,,,49,35,50,27,27,52,None,None,,,[],[],[],[],[],[],[],-0.2,1,55,[0.06111111111111111],[-0.2833333333333333],[1],[0],[0],[8.36133549999795],['tijiao_random_2'],6.944444444444445,3.8994999999995343,374.3477370000037,376.1107239999983,362.0558445000206,362.0558445000206,362.0558445000206,362.0558445000206,362.0558445000206,362.0558445000206,362.0558445000206,362.0558445000206,0.005484599998453632,362.0558445000206,370.42962870001793,370.42962870001793,370.42962870001793,370.42962870001793,,,,,,,,,,,,,,250,f,23,2023-03-22_16h11.37.144,RL,2022.2.4,60.04091187084148,
0,0.3,0.225,0,23,23,23,,,,,,,,,,None,376.1107239999983,376.1107239999983,376.1107239999983,376.1107239999983,376.1107239999983,376.1107239999983,f,0.35119619997567497,376.49535870002,376.49535870002,376.49535870002,376.49535870002,376.49535870002,376.49535870002,376.79249020002317,376.79249020002317,378.2547073000169,378.2547073000169,378.2547073000169,378.2547073000169,378.2547073000169,378.2547073000169,378.2547073000169,378.2547073000169,378.2547073000169,378.2547073000169,378.2547073000169,378.2547073000169,378.2547073000169,378.2547073000169,378.2547073000169,378.2547073000169,378.2547073000169,,,,,,48,32,51,31,32,36,None,None,,,[],[],[],[],[],[],[],-0.6,1,33,[0.14814814814814814],[-0.3074074074074074],[1],[0],[0],[4.0553807000105735],['tijiao_random_2'],7.953703703703704,5.894424099999014,390.7528300000122,392.63223720001406,380.77234060000046,380.77234060000046,380.77234060000046,380.77234060000046,380.77234060000046,380.77234060000046,380.77234060000046,380.77234060000046,0.005852900008903816,380.77234060000046,384.8395977000182,384.8395977000182,384.8395977000182,384.8395977000182,,,,,,,,,,,,,,250,f,23,2023-03-22_16h11.37.144,RL,2022.2.4,60.04091187084148,
1,-0.3,-0.225,0,24,24,24,,,,,,,,,,None,392.63223720001406,392.63223720001406,392.63223720001406,392.63223720001406,392.63223720001406,392.63223720001406,r,0.33023490000050515,392.9815067000163,392.9815067000163,392.9815067000163,392.9815067000163,392.9815067000163,392.9815067000163,393.28075570001965,393.28075570001965,394.6435524999979,394.6435524999979,394.6435524999979,394.6435524999979,394.6435524999979,394.6435524999979,394.6435524999979,394.6435524999979,394.6435524999979,394.6435524999979,394.6435524999979,394.6435524999979,394.6435524999979,394.6435524999979,394.6435524999979,394.6435524999979,394.6435524999979,397.1527207000181,397.1527207000181,397.1527207000181,397.1527207000181,397.1527207000181,45,37,63,31,45,59,4.0,2.542133199982345,,,[],[],[],[],[],[],[],-0.6,2,,[],[],[],[],[],[],[],None,None,399.72020940002403,401.62418050001725,,,,,,,,,,,,,,,,,,,,,,,,,,,,250,f,23,2023-03-22_16h11.37.144,RL,2022.2.4,60.04091187084148,
0,0.3,0.225,0,25,25,25,,,,,,,,,,None,401.62418050001725,401.62418050001725,401.62418050001725,401.62418050001725,401.62418050001725,401.62418050001725,i,0.48100659999181516,402.1231587000075,402.1231587000075,402.1231587000075,402.1231587000075,402.1231587000075,402.1231587000075,402.42201219999697,402.42201219999697,403.436291799997,403.436291799997,403.436291799997,403.436291799997,403.436291799997,403.436291799997,403.436291799997,403.436291799997,403.436291799997,403.436291799997,403.436291799997,403.436291799997,403.436291799997,403.436291799997,403.436291799997,403.436291799997,403.436291799997,,,,,,56,43,70,25,70,47,None,None,60,60,[0.005555555555555556],[-0.2962962962962963],[1],[0],[0],[8.217649199999869],['tijiao'],-0.6,0,,[],[],[],[],[],[],[],7.953703703703704,5.3531234999827575,419.55811810001615,421.0711024000193,,,,,,,,,,,414.18561529999715,414.18561529999715,414.18561529999715,414.18561529999715,405.9474373999983,405.9474373999983,405.9474373999983,405.9474373999983,405.9474373999983,405.9474373999983,405.9474373999983,405.9474373999983,0.006675999989965931,405.9474373999983,,,,250,f,23,2023-03-22_16h11.37.144,RL,2022.2.4,60.04091187084148,
1,-0.3,-0.225,0,26,26,26,,,,,,,,,,None,421.0711024000193,421.0711024000193,421.0711024000193,421.0711024000193,421.0711024000193,421.0711024000193,j,0.35132590000284836,421.4559977000172,421.4559977000172,421.4559977000172,421.4559977000172,421.4559977000172,421.4559977000172,421.7531366000185,421.7531366000185,423.4653286000248,423.4653286000248,423.4653286000248,423.4653286000248,423.4653286000248,423.4653286000248,423.4653286000248,423.4653286000248,423.4653286000248,423.4653286000248,423.4653286000248,423.4653286000248,423.4653286000248,423.4653286000248,423.4653286000248,423.4653286000248,423.4653286000248,425.9740587999986,425.9740587999986,425.9740587999986,425.9740587999986,425.9740587999986,52,31,68,21,21,33,3.0,3.673357899999246,,,[],[],[],[],[],[],[],0.2,2,,[],[],[],[],[],[],[],None,None,429.67085029999726,431.3100282000087,,,,,,,,,,,,,,,,,,,,,,,,,,,,250,f,23,2023-03-22_16h11.37.144,RL,2022.2.4,60.04091187084148,
0,0.3,0.225,0,27,27,27,,,,,,,,,,None,431.3100282000087,431.3100282000087,431.3100282000087,431.3100282000087,431.3100282000087,431.3100282000087,f,0.39982819999568164,431.7424547999981,431.7424547999981,431.7424547999981,431.7424547999981,431.7424547999981,431.7424547999981,432.0414088999969,432.0414088999969,433.1215599999996,433.1215599999996,433.1215599999996,433.1215599999996,433.1215599999996,433.1215599999996,433.1215599999996,433.1215599999996,433.1215599999996,433.1215599999996,433.1215599999996,433.1215599999996,433.1215599999996,433.1215599999996,433.1215599999996,433.1215599999996,433.1215599999996,,,,,,46,41,63,24,41,52,None,None,,,[],[],[],[],[],[],[],0.6,1,40,[-0.08981481481481482],[-0.28703703703703703],[1],[0],[0],[14.195112299988978],['tijiao_random_2'],6.944444444444445,3.7495175000221934,453.6148582000169,455.39429779999773,435.6387340000074,435.6387340000074,435.6387340000074,435.6387340000074,435.6387340000074,435.6387340000074,435.6387340000074,435.6387340000074,0.005611900007352233,435.6387340000074,449.84681400001864,449.84681400001864,449.84681400001864,449.84681400001864,,,,,,,,,,,,,,250,f,23,2023-03-22_16h11.37.144,RL,2022.2.4,60.04091187084148,
1,-0.3,-0.225,0,28,28,28,,,,,,,,,,None,455.39429779999773,455.39429779999773,455.39429779999773,455.39429779999773,455.39429779999773,455.39429779999773,i,0.42054610000923276,455.84486650000326,455.84486650000326,455.84486650000326,455.84486650000326,455.84486650000326,455.84486650000326,456.1426006999973,456.1426006999973,457.5056346000056,457.5056346000056,457.5056346000056,457.5056346000056,457.5056346000056,457.5056346000056,457.5056346000056,457.5056346000056,457.5056346000056,457.5056346000056,457.5056346000056,457.5056346000056,457.5056346000056,457.5056346000056,457.5056346000056,457.5056346000056,457.5056346000056,,,,,,50,33,59,23,59,53,None,None,,,[],[],[],[],[],[],[],0.2,1,45,[0.10092592592592593],[-0.2898148148148148],[1],[0],[0],[10.868936100014253],['tijiao_random_2'],6.972222222222222,3.8658574000000954,474.79021090001334,476.70239320001565,460.02423000001,460.02423000001,460.02423000001,460.02423000001,460.02423000001,460.02423000001,460.02423000001,460.02423000001,0.005767099995864555,460.02423000001,470.9056619000039,470.9056619000039,470.9056619000039,470.9056619000039,,,,,,,,,,,,,,250,f,23,2023-03-22_16h11.37.144,RL,2022.2.4,60.04091187084148,
0,0.3,0.225,0,29,29,29,,,,,,,,,,None,476.70239320001565,476.70239320001565,476.70239320001565,476.70239320001565,476.70239320001565,476.70239320001565,f,0.5126371999795083,477.23499810000067,477.23499810000067,477.23499810000067,477.23499810000067,477.23499810000067,477.23499810000067,477.53418850002345,477.53418850002345,478.7303080999991,478.7303080999991,478.7303080999991,478.7303080999991,478.7303080999991,478.7303080999991,478.7303080999991,478.7303080999991,478.7303080999991,478.7303080999991,478.7303080999991,478.7303080999991,478.7303080999991,478.7303080999991,478.7303080999991,478.7303080999991,478.7303080999991,,,,,,46,26,63,20,26,57,None,None,55,55,[0.05185185185185185],[-0.28425925925925927],[1],[0],[0],[8.982142300024861],['tijiao'],0.2,0,,[],[],[],[],[],[],[],3.953703703703704,3.390627199987648,493.65539940001327,495.3186675000179,,,,,,,,,,,490.24582170002395,490.24582170002395,490.24582170002395,490.24582170002395,481.2421399000159,481.2421399000159,481.2421399000159,481.2421399000159,481.2421399000159,481.2421399000159,481.2421399000159,481.2421399000159,0.006670900009339675,481.2421399000159,,,,250,f,23,2023-03-22_16h11.37.144,RL,2022.2.4,60.04091187084148,
1,-0.3,-0.225,0,30,30,30,,,,,,,,,,None,495.3186675000179,495.3186675000179,495.3186675000179,495.3186675000179,495.3186675000179,495.3186675000179,i,0.34900159999961033,495.68459460002487,495.68459460002487,495.68459460002487,495.68459460002487,495.68459460002487,495.68459460002487,495.9834909000201,495.9834909000201,497.86202369999955,497.86202369999955,497.86202369999955,497.86202369999955,497.86202369999955,497.86202369999955,497.86202369999955,497.86202369999955,497.86202369999955,497.86202369999955,497.86202369999955,497.86202369999955,497.86202369999955,497.86202369999955,497.86202369999955,497.86202369999955,497.86202369999955,,,,,,40,32,67,15,67,45,None,None,,,[],[],[],[],[],[],[],-0.6,1,33,[-0.0712962962962963],[-0.27870370370370373],[1],[0],[0],[8.059083499974804],['tijiao_random_2'],7.0,3.748870200011879,512.2214987000043,514.0175615000189,500.38158630000544,500.38158630000544,500.38158630000544,500.38158630000544,500.38158630000544,500.38158630000544,500.38158630000544,500.38158630000544,0.005648899998050183,500.38158630000544,508.4540150000248,508.4540150000248,508.4540150000248,508.4540150000248,,,,,,,,,,,,,,250,f,23,2023-03-22_16h11.37.144,RL,2022.2.4,60.04091187084148,
0,0.3,0.225,0,31,31,31,,,,,,,,,,None,514.0175615000189,514.0175615000189,514.0175615000189,514.0175615000189,514.0175615000189,514.0175615000189,r,0.49224429999594577,514.533144200017,514.533144200017,514.533144200017,514.533144200017,514.533144200017,514.533144200017,514.8323920000112,514.8323920000112,516.5606879999978,516.5606879999978,516.5606879999978,516.5606879999978,516.5606879999978,516.5606879999978,516.5606879999978,516.5606879999978,516.5606879999978,516.5606879999978,516.5606879999978,516.5606879999978,516.5606879999978,516.5606879999978,516.5606879999978,516.5606879999978,516.5606879999978,519.0697134000075,519.0697134000075,519.0697134000075,519.0697134000075,519.0697134000075,44,34,62,17,44,42,5.0,1.9942461999889929,,,[],[],[],[],[],[],[],0.6,3,,[],[],[],[],[],[],[],None,None,521.090050800005,522.9766206000058,,,,,,,,,,,,,,,,,,,,,,,,,,,,250,f,23,2023-03-22_16h11.37.144,RL,2022.2.4,60.04091187084148,
1,-0.3,-0.225,0,32,32,32,,,,,,,,,,None,522.9766206000058,522.9766206000058,522.9766206000058,522.9766206000058,522.9766206000058,522.9766206000058,j,0.48684250001679175,523.4934681000013,523.4934681000013,523.4934681000013,523.4934681000013,523.4934681000013,523.4934681000013,523.7910325000121,523.7910325000121,524.821680699999,524.821680699999,524.821680699999,524.821680699999,524.821680699999,524.821680699999,524.821680699999,524.821680699999,524.821680699999,524.821680699999,524.821680699999,524.821680699999,524.821680699999,524.821680699999,524.821680699999,524.821680699999,524.821680699999,527.3307987000153,527.3307987000153,527.3307987000153,527.3307987000153,527.3307987000153,40,29,58,18,18,39,2.0,3.920280799997272,,,[],[],[],[],[],[],[],0.2,3,,[],[],[],[],[],[],[],None,None,531.2768193000229,533.0324909000192,,,,,,,,,,,,,,,,,,,,,,,,,,,,250,f,23,2023-03-22_16h11.37.144,RL,2022.2.4,60.04091187084148,
0,0.3,0.225,0,33,33,33,,,,,,,,,,None,533.0324909000192,533.0324909000192,533.0324909000192,533.0324909000192,533.0324909000192,533.0324909000192,f,0.5993120000057388,533.6644729000109,533.6644729000109,533.6644729000109,533.6644729000109,533.6644729000109,533.6644729000109,533.9634216999984,533.9634216999984,535.8749773000018,535.8749773000018,535.8749773000018,535.8749773000018,535.8749773000018,535.8749773000018,535.8749773000018,535.8749773000018,535.8749773000018,535.8749773000018,535.8749773000018,535.8749773000018,535.8749773000018,535.8749773000018,535.8749773000018,535.8749773000018,535.8749773000018,,,,,,37,24,62,22,24,58,None,None,30,30,[-0.028703703703703703],[-0.26851851851851855],[1],[0],[0],[9.632267000008142],['tijiao'],0.2,0,,[],[],[],[],[],[],[],2.935185185185185,3.691404399985913,551.7471265000058,553.2771691000089,,,,,,,,,,,548.0368578000052,548.0368578000052,548.0368578000052,548.0368578000052,538.384836000012,538.384836000012,538.384836000012,538.384836000012,538.384836000012,538.384836000012,538.384836000012,538.384836000012,0.005075399996712804,538.384836000012,,,,250,f,23,2023-03-22_16h11.37.144,RL,2022.2.4,60.04091187084148,
1,-0.3,-0.225,0,34,34,34,,,,,,,,,,None,553.2771691000089,553.2771691000089,553.2771691000089,553.2771691000089,553.2771691000089,553.2771691000089,f,0.5063025999988895,553.8092330000072,553.8092330000072,553.8092330000072,553.8092330000072,553.8092330000072,553.8092330000072,554.1087162000185,554.1087162000185,555.3219146000047,555.3219146000047,555.3219146000047,555.3219146000047,555.3219146000047,555.3219146000047,555.3219146000047,555.3219146000047,555.3219146000047,555.3219146000047,555.3219146000047,555.3219146000047,555.3219146000047,555.3219146000047,555.3219146000047,555.3219146000047,555.3219146000047,557.8309039000014,557.8309039000014,557.8309039000014,557.8309039000014,557.8309039000014,40,26,66,16,26,48,4.0,2.342898900009459,,,[],[],[],[],[],[],[],-0.6,2,,[],[],[],[],[],[],[],None,None,560.1980115000042,562.0699682999984,,,,,,,,,,,,,,,,,,,,,,,,,,,,250,f,23,2023-03-22_16h11.37.144,RL,2022.2.4,60.04091187084148,
0,0.3,0.225,0,35,35,35,,,,,,,,,,None,562.0699682999984,562.0699682999984,562.0699682999984,562.0699682999984,562.0699682999984,562.0699682999984,j,0.4286013999953866,562.5188924000249,562.5188924000249,562.5188924000249,562.5188924000249,562.5188924000249,562.5188924000249,562.8177828000044,562.8177828000044,563.6990287000081,563.6990287000081,563.6990287000081,563.6990287000081,563.6990287000081,563.6990287000081,563.6990287000081,563.6990287000081,563.6990287000081,563.6990287000081,563.6990287000081,563.6990287000081,563.6990287000081,563.6990287000081,563.6990287000081,563.6990287000081,563.6990287000081,,,,,,34,30,62,19,19,59,None,None,,,[],[],[],[],[],[],[],0.2,1,50,[0.058333333333333334],[-0.30462962962962964],[1],[0],[0],[3.788369599991711],['tijiao_random_2'],5.944444444444445,3.3174064999911934,573.3545816999977,575.233954700001,566.2180268000229,566.2180268000229,566.2180268000229,566.2180268000229,566.2180268000229,566.2180268000229,566.2180268000229,566.2180268000229,0.005257600016193464,566.2180268000229,570.019271600002,570.019271600002,570.019271600002,570.019271600002,,,,,,,,,,,,,,250,f,23,2023-03-22_16h11.37.144,RL,2022.2.4,60.04091187084148,
1,-0.3,-0.225,0,36,36,36,,,,,,,,,,None,575.233954700001,575.233954700001,575.233954700001,575.233954700001,575.233954700001,575.233954700001,i,0.34621759998844936,575.5998087000044,575.5998087000044,575.5998087000044,575.5998087000044,575.5998087000044,575.5998087000044,575.8986858999997,575.8986858999997,577.8766759000137,577.8766759000137,577.8766759000137,577.8766759000137,577.8766759000137,577.8766759000137,577.8766759000137,577.8766759000137,577.8766759000137,577.8766759000137,577.8766759000137,577.8766759000137,577.8766759000137,577.8766759000137,577.8766759000137,577.8766759000137,577.8766759000137,,,,,,30,26,62,23,62,47,None,None,33,33,[0.06111111111111111],[-0.28425925925925927],[1],[0],[0],[8.101136300014332],['tijiao'],-0.2,0,,[],[],[],[],[],[],[],6.907407407407408,2.6285499000223354,591.156098300009,593.0352331000031,,,,,,,,,,,588.5091647000227,588.5091647000227,588.5091647000227,588.5091647000227,580.3884887000022,580.3884887000022,580.3884887000022,580.3884887000022,580.3884887000022,580.3884887000022,580.3884887000022,580.3884887000022,0.0071226999862119555,580.3884887000022,,,,250,f,23,2023-03-22_16h11.37.144,RL,2022.2.4,60.04091187084148,
0,0.3,0.225,0,37,37,37,,,,,,,,,,None,593.0352331000031,593.0352331000031,593.0352331000031,593.0352331000031,593.0352331000031,593.0352331000031,r,0.44216529998811893,593.500886200025,593.500886200025,593.500886200025,593.500886200025,593.500886200025,593.500886200025,593.7834710000025,593.7834710000025,594.6975400000229,594.6975400000229,594.7141132000252,594.7141132000252,594.7141132000252,594.7141132000252,594.7141132000252,594.7141132000252,594.7141132000252,594.7141132000252,594.7141132000252,594.7141132000252,594.7141132000252,594.7141132000252,594.7141132000252,594.7141132000252,594.7141132000252,,,,,,39,26,57,23,39,55,None,None,,,[],[],[],[],[],[],[],-0.6,1,33,[0.009259259259259259],[-0.287962962962963],[1],[0],[0],[7.978301900002407],['tijiao_random_2'],8.037037037037038,4.347361099993577,609.5890042000101,611.4180022000219,597.2315526000166,597.2315526000166,597.2315526000166,597.2315526000166,597.2315526000166,597.2315526000166,597.2315526000166,597.2315526000166,0.005820599995786324,597.2315526000166,605.2235653000243,605.2235653000243,605.2235653000243,605.2235653000243,,,,,,,,,,,,,,250,f,23,2023-03-22_16h11.37.144,RL,2022.2.4,60.04091187084148,
1,-0.3,-0.225,0,38,38,38,,,,,,,,,,None,611.4180022000219,611.4180022000219,611.4180022000219,611.4180022000219,611.4180022000219,611.4180022000219,i,0.4585083000129089,611.9035958000168,611.9035958000168,611.9035958000168,611.9035958000168,611.9035958000168,611.9035958000168,612.1993474000192,612.1993474000192,614.1944769000111,614.1944769000111,614.1944769000111,614.1944769000111,614.1944769000111,614.1944769000111,614.1944769000111,614.1944769000111,614.1944769000111,614.1944769000111,614.1944769000111,614.1944769000111,614.1944769000111,614.1944769000111,614.1944769000111,614.1944769000111,614.1944769000111,,,,,,45,31,59,15,59,45,None,None,45,45,[0.07222222222222222],[-0.27685185185185185],[1],[0],[0],[10.412711699987995],['tijiao'],-0.6,0,,[],[],[],[],[],[],[],6.0,2.4948865000042133,629.6509855000186,631.5137649000098,,,,,,,,,,,627.1369613000134,627.1369613000134,627.1369613000134,627.1369613000134,616.7049629000248,616.7049629000248,616.7049629000248,616.7049629000248,616.7049629000248,616.7049629000248,616.7049629000248,616.7049629000248,0.005773299984866753,616.7049629000248,,,,250,f,23,2023-03-22_16h11.37.144,RL,2022.2.4,60.04091187084148,
0,0.3,0.225,0,39,39,39,,,,,,,,,,None,631.5137649000098,631.5137649000098,631.5137649000098,631.5137649000098,631.5137649000098,631.5137649000098,i,0.3830858000146691,631.9302163000102,631.9302163000102,631.9302163000102,631.9302163000102,631.9302163000102,631.9302163000102,632.2287780000188,632.2287780000188,633.2590385000221,633.2590385000221,633.2590385000221,633.2590385000221,633.2590385000221,633.2590385000221,633.2590385000221,633.2590385000221,633.2590385000221,633.2590385000221,633.2590385000221,633.2590385000221,633.2590385000221,633.2590385000221,633.2590385000221,633.2590385000221,633.2590385000221,635.7682322000037,635.7682322000037,635.7682322000037,635.7682322000037,635.7682322000037,45,35,63,20,63,54,6.0,2.924195699975826,,,[],[],[],[],[],[],[],-0.2,3,,[],[],[],[],[],[],[],None,None,638.7175208000117,640.5058640000061,,,,,,,,,,,,,,,,,,,,,,,,,,,,250,f,23,2023-03-22_16h11.37.144,RL,2022.2.4,60.04091187084148,
1,-0.3,-0.225,0,40,40,40,,,,,,,,,,None,640.5058640000061,640.5058640000061,640.5058640000061,640.5058640000061,640.5058640000061,640.5058640000061,j,0.5300649999990128,641.054927500023,641.054927500023,641.054927500023,641.054927500023,641.054927500023,641.054927500023,641.3535101000161,641.3535101000161,642.9992145000142,642.9992145000142,642.9992145000142,642.9992145000142,642.9992145000142,642.9992145000142,642.9992145000142,642.9992145000142,642.9992145000142,642.9992145000142,642.9992145000142,642.9992145000142,642.9992145000142,642.9992145000142,642.9992145000142,642.9992145000142,642.9992145000142,645.5082973000244,645.5082973000244,645.5082973000244,645.5082973000244,645.5082973000244,41,41,66,22,22,49,3.0,3.6221332999994047,,,[],[],[],[],[],[],[],0.2,3,,[],[],[],[],[],[],[],None,None,649.1578161000216,650.794532800006,,,,,,,,,,,,,,,,,,,,,,,,,,,,250,f,23,2023-03-22_16h11.37.144,RL,2022.2.4,60.04091187084148,
0,0.3,0.225,0,41,41,41,,,,,,,,,,None,650.794532800006,650.794532800006,650.794532800006,650.794532800006,650.794532800006,650.794532800006,f,0.9712148999969941,651.7922126000049,651.7922126000049,651.7922126000049,651.7922126000049,651.7922126000049,651.7922126000049,652.0910922000185,652.0910922000185,652.9552636000153,652.9552636000153,652.9552636000153,652.9552636000153,652.9552636000153,652.9552636000153,652.9552636000153,652.9552636000153,652.9552636000153,652.9552636000153,652.9552636000153,652.9552636000153,652.9552636000153,652.9552636000153,652.9552636000153,652.9552636000153,652.9552636000153,,,,,,43,35,62,25,35,37,None,None,50,50,[-0.018518518518518517],[-0.2953703703703704],[1],[0],[0],[4.294753999973182],['tijiao'],-0.6,0,,[],[],[],[],[],[],[],6.962962962962964,3.8415321999927983,663.6417276000138,665.3547699000046,,,,,,,,,,,659.7812137000146,659.7812137000146,659.7812137000146,659.7812137000146,655.4668899000098,655.4668899000098,655.4668899000098,655.4668899000098,655.4668899000098,655.4668899000098,655.4668899000098,655.4668899000098,0.006990400026552379,655.4668899000098,,,,250,f,23,2023-03-22_16h11.37.144,RL,2022.2.4,60.04091187084148,
1,-0.3,-0.225,0,42,42,42,,,,,,,,,,None,665.3547699000046,665.3547699000046,665.3547699000046,665.3547699000046,665.3547699000046,665.3547699000046,i,0.09177810000255704,665.4712902000174,665.4712902000174,665.4712902000174,665.4712902000174,665.4712902000174,665.4712902000174,665.7702229999995,665.7702229999995,667.2497116000159,667.2497116000159,667.2497116000159,667.2497116000159,667.2497116000159,667.2497116000159,667.2497116000159,667.2497116000159,667.2497116000159,667.2497116000159,667.2497116000159,667.2497116000159,667.2497116000159,667.2497116000159,667.2497116000159,667.2497116000159,667.2497116000159,669.7586136000173,669.7586136000173,669.7586136000173,669.7586136000173,669.7586136000173,49,35,55,27,55,73,5.0,2.1101791000110097,,,[],[],[],[],[],[],[],0.2,3,,[],[],[],[],[],[],[],None,None,671.8933137000131,673.7485100000049,,,,,,,,,,,,,,,,,,,,,,,,,,,,250,f,23,2023-03-22_16h11.37.144,RL,2022.2.4,60.04091187084148,
0,0.3,0.225,0,43,43,43,,,,,,,,,,None,673.7485100000049,673.7485100000049,673.7485100000049,673.7485100000049,673.7485100000049,673.7485100000049,r,0.6066261999949347,674.3806352000101,674.3806352000101,674.3806352000101,674.3806352000101,674.3806352000101,674.3806352000101,674.6795248000126,674.6795248000126,675.5602037000062,675.5602037000062,675.5602037000062,675.5602037000062,675.5602037000062,675.5602037000062,675.5602037000062,675.5602037000062,675.5602037000062,675.5602037000062,675.5602037000062,675.5602037000062,675.5602037000062,675.5602037000062,675.5602037000062,675.5602037000062,675.5602037000062,,,,,,38,39,46,18,38,73,None,None,,,[],[],[],[],[],[],[],0.6,1,28,[0.11388888888888889],[-0.28055555555555556],[1],[0],[0],[9.971901399985654],['tijiao_random_2'],8.0,2.4531363999994937,690.5348511000047,692.34788690001,678.0791787000198,678.0791787000198,678.0791787000198,678.0791787000198,678.0791787000198,678.0791787000198,678.0791787000198,678.0791787000198,0.005257699987851083,678.0791787000198,688.0631857000117,688.0631857000117,688.0631857000117,688.0631857000117,,,,,,,,,,,,,,250,f,23,2023-03-22_16h11.37.144,RL,2022.2.4,60.04091187084148,
1,-0.3,-0.225,0,44,44,44,,,,,,,,,,None,692.34788690001,692.34788690001,692.34788690001,692.34788690001,692.34788690001,692.34788690001,i,0.38793430000077933,692.7650976000004,692.7650976000004,692.7650976000004,692.7650976000004,692.7650976000004,692.7650976000004,693.0626907999977,693.0626907999977,694.0431604000041,694.0431604000041,694.0599954000209,694.0599954000209,694.0599954000209,694.0599954000209,694.0599954000209,694.0599954000209,694.0599954000209,694.0599954000209,694.0599954000209,694.0599954000209,694.0599954000209,694.0599954000209,694.0599954000209,694.0599954000209,694.0599954000209,696.5686419999984,696.5686419999984,696.5686419999984,696.5686419999984,696.5686419999984,58,44,47,18,47,72,2.0,3.589431499975035,,,[],[],[],[],[],[],[],-0.6,3,,[],[],[],[],[],[],[],None,None,700.1832718000223,701.9048799000157,,,,,,,,,,,,,,,,,,,,,,,,,,,,250,f,23,2023-03-22_16h11.37.144,RL,2022.2.4,60.04091187084148,
0,0.3,0.225,0,45,45,45,,,,,,,,,,None,701.9048799000157,701.9048799000157,701.9048799000157,701.9048799000157,701.9048799000157,701.9048799000157,j,0.4985797999834176,702.4208343000209,702.4208343000209,702.4208343000209,702.4208343000209,702.4208343000209,702.4208343000209,702.7193428000028,702.7193428000028,704.614476000017,704.614476000017,704.614476000017,704.614476000017,704.614476000017,704.614476000017,704.614476000017,704.614476000017,704.614476000017,704.614476000017,704.614476000017,704.614476000017,704.614476000017,704.614476000017,704.614476000017,704.614476000017,704.614476000017,707.123519100016,707.123519100016,707.123519100016,707.123519100016,707.123519100016,45,43,49,24,24,83,2.0,1.4452916999871377,,,[],[],[],[],[],[],[],0.2,2,,[],[],[],[],[],[],[],None,None,708.5939751999977,710.4979366000043,,,,,,,,,,,,,,,,,,,,,,,,,,,,250,f,23,2023-03-22_16h11.37.144,RL,2022.2.4,60.04091187084148,
1,-0.3,-0.225,0,46,46,46,,,,,,,,,,None,710.4979366000043,710.4979366000043,710.4979366000043,710.4979366000043,710.4979366000043,710.4979366000043,r,0.6507141000183765,711.180027000024,711.180027000024,711.180027000024,711.180027000024,711.180027000024,711.180027000024,711.4787022000237,711.4787022000237,713.4232925000251,713.4232925000251,713.4232925000251,713.4232925000251,713.4232925000251,713.4232925000251,713.4232925000251,713.4232925000251,713.4232925000251,713.4232925000251,713.4232925000251,713.4232925000251,713.4232925000251,713.4232925000251,713.4232925000251,713.4232925000251,713.4232925000251,,,,,,44,44,43,23,44,71,None,None,45,45,[-0.010185185185185186],[-0.28888888888888886],[1],[0],[0],[4.128907300007995],['tijiao'],-0.2,0,,[],[],[],[],[],[],[],6.944444444444445,3.690964700013865,723.7938160000194,725.4740671000036,,,,,,,,,,,720.0839207000099,720.0839207000099,720.0839207000099,720.0839207000099,715.9346498000086,715.9346498000086,715.9346498000086,715.9346498000086,715.9346498000086,715.9346498000086,715.9346498000086,715.9346498000086,0.006777899980079383,715.9346498000086,,,,250,f,23,2023-03-22_16h11.37.144,RL,2022.2.4,60.04091187084148,
0,0.3,0.225,0,47,47,47,,,,,,,,,,None,725.4740671000036,725.4740671000036,725.4740671000036,725.4740671000036,725.4740671000036,725.4740671000036,f,0.4851302999886684,725.9894438000047,725.9894438000047,725.9894438000047,725.9894438000047,725.9894438000047,725.9894438000047,726.2886831000214,726.2886831000214,727.6848022000049,727.6848022000049,727.6848022000049,727.6848022000049,727.6848022000049,727.6848022000049,727.6848022000049,727.6848022000049,727.6848022000049,727.6848022000049,727.6848022000049,727.6848022000049,727.6848022000049,727.6848022000049,727.6848022000049,727.6848022000049,727.6848022000049,730.1939193000144,730.1939193000144,730.1939193000144,730.1939193000144,730.1939193000144,40,46,45,16,46,67,4.0,2.2765942999976687,,,[],[],[],[],[],[],[],0.6,2,,[],[],[],[],[],[],[],None,None,732.494591100025,734.1835761000111,,,,,,,,,,,,,,,,,,,,,,,,,,,,250,f,23,2023-03-22_16h11.37.144,RL,2022.2.4,60.04091187084148,
1,-0.3,-0.225,0,48,48,48,,,,,,,,,,None,734.1835761000111,734.1835761000111,734.1835761000111,734.1835761000111,734.1835761000111,734.1835761000111,i,0.5268852000008337,734.733836200001,734.733836200001,734.733836200001,734.733836200001,734.733836200001,734.733836200001,735.0313802000019,735.0313802000019,736.4108265000104,736.4108265000104,736.4276087000035,736.4276087000035,736.4276087000035,736.4276087000035,736.4276087000035,736.4276087000035,736.4276087000035,736.4276087000035,736.4276087000035,736.4276087000035,736.4276087000035,736.4276087000035,736.4276087000035,736.4276087000035,736.4276087000035,,,,,,49,48,53,15,53,69,None,None,,,[],[],[],[],[],[],[],0.2,1,55,[0.022222222222222223],[-0.29444444444444445],[1],[0],[0],[5.549131800013129],['tijiao_random_2'],7.935185185185185,3.5677286999998614,748.0944042000046,749.757645900012,738.9465729000221,738.9465729000221,738.9465729000221,738.9465729000221,738.9465729000221,738.9465729000221,738.9465729000221,738.9465729000221,0.005335599998943508,738.9465729000221,744.5081493000034,744.5081493000034,744.5081493000034,744.5081493000034,,,,,,,,,,,,,,250,f,23,2023-03-22_16h11.37.144,RL,2022.2.4,60.04091187084148,
0,0.3,0.225,0,49,49,49,,,,,,,,,,None,749.757645900012,749.757645900012,749.757645900012,749.757645900012,749.757645900012,749.757645900012,i,0.3431239000055939,750.1250631000148,750.1250631000148,750.1250631000148,750.1250631000148,750.1250631000148,750.1250631000148,750.4228065000207,750.4228065000207,752.1182889000047,752.1182889000047,752.1182889000047,752.1182889000047,752.1182889000047,752.1182889000047,752.1182889000047,752.1182889000047,752.1182889000047,752.1182889000047,752.1182889000047,752.1182889000047,752.1182889000047,752.1182889000047,752.1182889000047,752.1182889000047,752.1182889000047,754.6272806000197,754.6272806000197,754.6272806000197,754.6272806000197,754.6272806000197,37,46,52,16,52,49,6.0,1.9106829999946058,,,[],[],[],[],[],[],[],-0.6,2,,[],[],[],[],[],[],[],None,None,756.5623766000208,758.1847572000115,,,,,,,,,,,,,,,,,,,,,,,,,,,,250,f,23,2023-03-22_16h11.37.144,RL,2022.2.4,60.04091187084148,
1,-0.3,-0.225,0,50,50,50,,,,,,,,,,None,758.1847572000115,758.1847572000115,758.1847572000115,758.1847572000115,758.1847572000115,758.1847572000115,f,0.42527009997866116,758.6339201000228,758.6339201000228,758.6339201000228,758.6339201000228,758.6339201000228,758.6339201000228,758.9329506000213,758.9329506000213,760.328908800002,760.328908800002,760.328908800002,760.328908800002,760.328908800002,760.328908800002,760.328908800002,760.328908800002,760.328908800002,760.328908800002,760.328908800002,760.328908800002,760.328908800002,760.328908800002,760.328908800002,760.328908800002,760.328908800002,,,,,,47,50,45,16,50,70,None,None,,,[],[],[],[],[],[],[],0.2,1,60,[0.03148148148148148],[-0.3],[1],[0],[0],[10.30562529998133],['tijiao_random_2'],7.888888888888889,2.3551491999824066,775.5364811000181,777.3821473999997,762.8456826000183,762.8456826000183,762.8456826000183,762.8456826000183,762.8456826000183,762.8456826000183,762.8456826000183,762.8456826000183,0.00541230000089854,762.8456826000183,773.1632340000069,773.1632340000069,773.1632340000069,773.1632340000069,,,,,,,,,,,,,,250,f,23,2023-03-22_16h11.37.144,RL,2022.2.4,60.04091187084148,
0,0.3,0.225,0,51,51,51,,,,,,,,,,None,777.3821473999997,777.3821473999997,777.3821473999997,777.3821473999997,777.3821473999997,777.3821473999997,i,0.40037399998982437,777.8151669000217,777.8151669000217,777.8151669000217,777.8151669000217,777.8151669000217,777.8151669000217,778.1136193000129,778.1136193000129,778.9781712000258,778.9781712000258,778.9781712000258,778.9781712000258,778.9781712000258,778.9781712000258,778.9781712000258,778.9781712000258,778.9781712000258,778.9781712000258,778.9781712000258,778.9781712000258,778.9781712000258,778.9781712000258,778.9781712000258,778.9781712000258,778.9781712000258,781.4868987000082,781.4868987000082,781.4868987000082,781.4868987000082,781.4868987000082,53,51,44,15,44,68,3.0,1.6778974999906495,,,[],[],[],[],[],[],[],-0.6,2,,[],[],[],[],[],[],[],None,None,783.1895277000149,785.1110887000104,,,,,,,,,,,,,,,,,,,,,,,,,,,,250,f,23,2023-03-22_16h11.37.144,RL,2022.2.4,60.04091187084148,
1,-0.3,-0.225,0,52,52,52,,,,,,,,,,None,785.1110887000104,785.1110887000104,785.1110887000104,785.1110887000104,785.1110887000104,785.1110887000104,f,0.5678832000121474,785.7100711000094,785.7100711000094,785.7100711000094,785.7100711000094,785.7100711000094,785.7100711000094,786.0090442000073,786.0090442000073,786.8566976000147,786.8566976000147,786.8566976000147,786.8566976000147,786.8566976000147,786.8566976000147,786.8566976000147,786.8566976000147,786.8566976000147,786.8566976000147,786.8566976000147,786.8566976000147,786.8566976000147,786.8566976000147,786.8566976000147,786.8566976000147,786.8566976000147,,,,,,57,57,43,30,57,62,None,None,50,50,[-0.06574074074074074],[-0.2851851851851852],[1],[0],[0],[4.827794899989385],['tijiao'],-0.2,0,,[],[],[],[],[],[],[],8.018518518518519,2.0951720000011846,796.329426500015,798.2087699000258,,,,,,,,,,,794.2153867000015,794.2153867000015,794.2153867000015,794.2153867000015,789.3668546999979,789.3668546999979,789.3668546999979,789.3668546999979,789.3668546999979,789.3668546999979,789.3668546999979,789.3668546999979,0.005407200020272285,789.3668546999979,,,,250,f,23,2023-03-22_16h11.37.144,RL,2022.2.4,60.04091187084148,
0,0.3,0.225,0,53,53,53,,,,,,,,,,None,798.2087699000258,798.2087699000258,798.2087699000258,798.2087699000258,798.2087699000258,798.2087699000258,i,0.3627905999892391,798.5929752000084,798.5929752000084,798.5929752000084,798.5929752000084,798.5929752000084,798.5929752000084,798.8902157999983,798.8902157999983,799.9043835000193,799.9043835000193,799.9210953000002,799.9210953000002,799.9210953000002,799.9210953000002,799.9210953000002,799.9210953000002,799.9210953000002,799.9210953000002,799.9210953000002,799.9210953000002,799.9210953000002,799.9210953000002,799.9210953000002,799.9210953000002,799.9210953000002,,,,,,50,67,45,26,45,71,None,None,30,30,[0.1259259259259259],[-0.29444444444444445],[1],[0],[0],[6.039849799999502],['tijiao'],0.2,0,,[],[],[],[],[],[],[],7.9259259259259265,2.0469344000157434,810.5573320000258,812.2372668000171,,,,,,,,,,,808.4922034000047,808.4922034000047,808.4922034000047,808.4922034000047,802.4320704000129,802.4320704000129,802.4320704000129,802.4320704000129,802.4320704000129,802.4320704000129,802.4320704000129,802.4320704000129,0.006835500011220574,802.4320704000129,,,,250,f,23,2023-03-22_16h11.37.144,RL,2022.2.4,60.04091187084148,
1,-0.3,-0.225,0,54,54,54,,,,,,,,,,None,812.2372668000171,812.2372668000171,812.2372668000171,812.2372668000171,812.2372668000171,812.2372668000171,r,0.40488630000618286,812.6698811000097,812.6698811000097,812.6698811000097,812.6698811000097,812.6698811000097,812.6698811000097,812.9685278000252,812.9685278000252,814.7637272000138,814.7637272000138,814.7637272000138,814.7637272000138,814.7637272000138,814.7637272000138,814.7637272000138,814.7637272000138,814.7637272000138,814.7637272000138,814.7637272000138,814.7637272000138,814.7637272000138,814.7637272000138,814.7637272000138,814.7637272000138,814.7637272000138,,,,,,59,60,35,19,59,35,None,None,,,[],[],[],[],[],[],[],-0.6,1,25,[0.06574074074074074],[-0.28055555555555556],[1],[0],[0],[12.549085100006778],['tijiao_random_2'],8.898148148148147,2.502681500016479,832.3644968000008,834.1439389000006,817.2807185999991,817.2807185999991,817.2807185999991,817.2807185999991,817.2807185999991,817.2807185999991,817.2807185999991,817.2807185999991,0.0054749999835621566,817.2807185999991,829.8439986000012,829.8439986000012,829.8439986000012,829.8439986000012,,,,,,,,,,,,,,250,f,23,2023-03-22_16h11.37.144,RL,2022.2.4,60.04091187084148,
0,0.3,0.225,0,55,55,55,,,,,,,,,,None,834.1439389000006,834.1439389000006,834.1439389000006,834.1439389000006,834.1439389000006,834.1439389000006,i,0.4188915000122506,834.5954486000119,834.5954486000119,834.5954486000119,834.5954486000119,834.5954486000119,834.5954486000119,834.8923767000088,834.8923767000088,835.8398801000149,835.8398801000149,835.8398801000149,835.8398801000149,835.8398801000149,835.8398801000149,835.8398801000149,835.8398801000149,835.8398801000149,835.8398801000149,835.8398801000149,835.8398801000149,835.8398801000149,835.8398801000149,835.8398801000149,835.8398801000149,835.8398801000149,838.3487701000122,838.3487701000122,838.3487701000122,838.3487701000122,838.3487701000122,51,59,37,27,37,63,2.0,4.221045000012964,,,[],[],[],[],[],[],[],0.6,3,,[],[],[],[],[],[],[],None,None,842.5939931000175,844.5489871000173,,,,,,,,,,,,,,,,,,,,,,,,,,,,250,f,23,2023-03-22_16h11.37.144,RL,2022.2.4,60.04091187084148,
1,-0.3,-0.225,0,56,56,56,,,,,,,,,,None,844.5489871000173,844.5489871000173,844.5489871000173,844.5489871000173,844.5489871000173,844.5489871000173,j,0.48773130000336096,845.0659485000069,845.0659485000069,845.0659485000069,845.0659485000069,845.0659485000069,845.0659485000069,845.3637593000021,845.3637593000021,846.7930391000118,846.7930391000118,846.7930391000118,846.7930391000118,846.7930391000118,846.7930391000118,846.7930391000118,846.7930391000118,846.7930391000118,846.7930391000118,846.7930391000118,846.7930391000118,846.7930391000118,846.7930391000118,846.7930391000118,846.7930391000118,846.7930391000118,,,,,,57,71,50,16,16,46,None,None,45,45,[-0.03148148148148148],[-0.2759259259259259],[1],[0],[0],[6.140884399996139],['tijiao'],0.2,0,,[],[],[],[],[],[],[],6.018518518518519,3.309674099989934,858.7923119000043,860.5554138000007,,,,,,,,,,,855.4638725999976,855.4638725999976,855.4638725999976,855.4638725999976,849.3033832000219,849.3033832000219,849.3033832000219,849.3033832000219,849.3033832000219,849.3033832000219,849.3033832000219,849.3033832000219,0.005306900013238192,849.3033832000219,,,,250,f,23,2023-03-22_16h11.37.144,RL,2022.2.4,60.04091187084148,
0,0.3,0.225,0,57,57,57,,,,,,,,,,None,860.5554138000007,860.5554138000007,860.5554138000007,860.5554138000007,860.5554138000007,860.5554138000007,i,0.27714940000441857,860.8573485000234,860.8573485000234,860.8573485000234,860.8573485000234,860.8573485000234,860.8573485000234,861.1537715000159,861.1537715000159,862.0016525000101,862.0016525000101,862.0016525000101,862.0016525000101,862.0016525000101,862.0016525000101,862.0016525000101,862.0016525000101,862.0016525000101,862.0016525000101,862.0016525000101,862.0016525000101,862.0016525000101,862.0016525000101,862.0016525000101,862.0016525000101,862.0016525000101,,,,,,54,63,49,11,49,40,None,None,44,44,[0.05277777777777778],[-0.30185185185185187],[1],[0],[0],[10.627855099999579],['tijiao'],0.6,0,,[],[],[],[],[],[],[],7.962962962962963,3.7747846999845933,878.9541220000247,880.7503674000036,,,,,,,,,,,875.159916500008,875.159916500008,875.159916500008,875.159916500008,864.5122765999986,864.5122765999986,864.5122765999986,864.5122765999986,864.5122765999986,864.5122765999986,864.5122765999986,864.5122765999986,0.0062701000133529305,864.5122765999986,,,,250,f,23,2023-03-22_16h11.37.144,RL,2022.2.4,60.04091187084148,
1,-0.3,-0.225,0,58,58,58,,,,,,,,,,None,880.7503674000036,880.7503674000036,880.7503674000036,880.7503674000036,880.7503674000036,880.7503674000036,f,0.4646085000131279,881.2326573000173,881.2326573000173,881.2326573000173,881.2326573000173,881.2326573000173,881.2326573000173,881.5317747000081,881.5317747000081,882.4125867999974,882.4125867999974,882.4125867999974,882.4125867999974,882.4125867999974,882.4125867999974,882.4125867999974,882.4125867999974,882.4125867999974,882.4125867999974,882.4125867999974,882.4125867999974,882.4125867999974,882.4125867999974,882.4125867999974,882.4125867999974,882.4125867999974,884.9217564999999,884.9217564999999,884.9217564999999,884.9217564999999,884.9217564999999,52,67,46,23,67,72,5.0,2.1931742999877315,,,[],[],[],[],[],[],[],-0.2,2,,[],[],[],[],[],[],[],None,None,887.1394663000247,888.6952494000143,,,,,,,,,,,,,,,,,,,,,,,,,,,,250,f,23,2023-03-22_16h11.37.144,RL,2022.2.4,60.04091187084148,
0,0.3,0.225,0,59,59,59,,,,,,,,,,None,888.6952494000143,888.6952494000143,888.6952494000143,888.6952494000143,888.6952494000143,888.6952494000143,i,0.4050695000041742,889.1293977000169,889.1293977000169,889.1293977000169,889.1293977000169,889.1293977000169,889.1293977000169,889.426887700014,889.426887700014,890.8397263000079,890.8397263000079,890.8397263000079,890.8397263000079,890.8397263000079,890.8397263000079,890.8397263000079,890.8397263000079,890.8397263000079,890.8397263000079,890.8397263000079,890.8397263000079,890.8397263000079,890.8397263000079,890.8397263000079,890.8397263000079,890.8397263000079,,,,,,59,64,44,18,44,68,None,None,,,[],[],[],[],[],[],[],-0.2,1,60,[0.08055555555555556],[-0.28425925925925927],[1],[0],[0],[7.2468839999928605],['tijiao_random_2'],6.944444444444445,3.4664698999840766,904.1022359000053,906.0977224000089,893.3570641000115,893.3570641000115,893.3570641000115,893.3570641000115,893.3570641000115,893.3570641000115,893.3570641000115,893.3570641000115,0.006502300006104633,893.3570641000115,900.6166292999987,900.6166292999987,900.6166292999987,900.6166292999987,,,,,,,,,,,,,,250,f,23,2023-03-22_16h11.37.144,RL,2022.2.4,60.04091187084148,
1,-0.3,-0.225,0,60,60,60,,,,,,,,,,None,906.0977224000089,906.0977224000089,906.0977224000089,906.0977224000089,906.0977224000089,906.0977224000089,i,0.39761949999956414,906.5135555000161,906.5135555000161,906.5135555000161,906.5135555000161,906.5135555000161,906.5135555000161,906.812333400012,906.812333400012,908.4081680000236,908.4081680000236,908.4081680000236,908.4081680000236,908.4081680000236,908.4081680000236,908.4081680000236,908.4081680000236,908.4081680000236,908.4081680000236,908.4081680000236,908.4081680000236,908.4081680000236,908.4081680000236,908.4081680000236,908.4081680000236,908.4081680000236,910.9175122000161,910.9175122000161,910.9175122000161,910.9175122000161,910.9175122000161,72,61,48,18,48,32,4.0,1.7944104000052903,,,[],[],[],[],[],[],[],-0.2,3,,[],[],[],[],[],[],[],None,None,912.734614200017,914.2588929000194,,,,,,,,,,,,,,,,,,,,,,,,,,,,250,f,23,2023-03-22_16h11.37.144,RL,2022.2.4,60.04091187084148,
0,0.3,0.225,0,61,61,61,,,,,,,,,,None,914.2588929000194,914.2588929000194,914.2588929000194,914.2588929000194,914.2588929000194,914.2588929000194,f,0.481397299998207,914.757932700013,914.757932700013,914.757932700013,914.757932700013,914.757932700013,914.757932700013,915.0568314999982,915.0568314999982,916.8517897000129,916.8517897000129,916.8517897000129,916.8517897000129,916.8517897000129,916.8517897000129,916.8517897000129,916.8517897000129,916.8517897000129,916.8517897000129,916.8517897000129,916.8517897000129,916.8517897000129,916.8517897000129,916.8517897000129,916.8517897000129,916.8517897000129,,,,,,63,53,50,10,53,73,None,None,50,50,[0.04814814814814815],[-0.30185185185185187],[1],[0],[0],[7.96925339999143],['tijiao'],-0.2,0,,[],[],[],[],[],[],[],7.935185185185185,3.874507900007302,931.2446553000191,933.173907999997,,,,,,,,,,,927.351018300018,927.351018300018,927.351018300018,927.351018300018,919.3620834000176,919.3620834000176,919.3620834000176,919.3620834000176,919.3620834000176,919.3620834000176,919.3620834000176,919.3620834000176,0.00555899998289533,919.3620834000176,,,,250,f,23,2023-03-22_16h11.37.144,RL,2022.2.4,60.04091187084148,
1,-0.3,-0.225,0,62,62,62,,,,,,,,,,None,933.173907999997,933.173907999997,933.173907999997,933.173907999997,933.173907999997,933.173907999997,i,0.3166421999922022,933.5234715999977,933.5234715999977,933.5234715999977,933.5234715999977,933.5234715999977,933.5234715999977,933.8223772000056,933.8223772000056,935.6836935000028,935.6836935000028,935.6836935000028,935.6836935000028,935.6836935000028,935.6836935000028,935.6836935000028,935.6836935000028,935.6836935000028,935.6836935000028,935.6836935000028,935.6836935000028,935.6836935000028,935.6836935000028,935.6836935000028,935.6836935000028,935.6836935000028,,,,,,72,49,52,23,52,47,None,None,,,[],[],[],[],[],[],[],0.2,1,48,[0.09907407407407408],[-0.3],[1],[0],[0],[7.462736500019673],['tijiao_random_2'],8.037037037037038,2.3533618999936152,948.0489811000007,949.7121082000085,938.2009607000218,938.2009607000218,938.2009607000218,938.2009607000218,938.2009607000218,938.2009607000218,938.2009607000218,938.2009607000218,0.005812899995362386,938.2009607000218,945.6770355000044,945.6770355000044,945.6770355000044,945.6770355000044,,,,,,,,,,,,,,250,f,23,2023-03-22_16h11.37.144,RL,2022.2.4,60.04091187084148,
0,0.3,0.225,0,63,63,63,,,,,,,,,,None,949.7121082000085,949.7121082000085,949.7121082000085,949.7121082000085,949.7121082000085,949.7121082000085,i,0.44248689999221824,950.1778324000188,950.1778324000188,950.1778324000188,950.1778324000188,950.1778324000188,950.1778324000188,950.4768485000241,950.4768485000241,951.8728415000078,951.8728415000078,951.8895448000112,951.8895448000112,951.8895448000112,951.8895448000112,951.8895448000112,951.8895448000112,951.8895448000112,951.8895448000112,951.8895448000112,951.8895448000112,951.8895448000112,951.8895448000112,951.8895448000112,951.8895448000112,951.8895448000112,954.3988352000015,954.3988352000015,954.3988352000015,954.3988352000015,954.3988352000015,74,60,53,27,53,64,4.0,2.1435859999910463,,,[],[],[],[],[],[],[],-0.2,2,,[],[],[],[],[],[],[],None,None,956.566871100018,958.2885149000213,,,,,,,,,,,,,,,,,,,,,,,,,,,,250,f,23,2023-03-22_16h11.37.144,RL,2022.2.4,60.04091187084148,
1,-0.3,-0.225,0,64,64,64,,,,,,,,,,None,958.2885149000213,958.2885149000213,958.2885149000213,958.2885149000213,958.2885149000213,958.2885149000213,f,0.45100049997563474,958.7734530000016,958.7734530000016,958.7734530000016,958.7734530000016,958.7734530000016,958.7734530000016,959.0701791000029,959.0701791000029,960.6823305000144,960.6823305000144,960.6823305000144,960.6823305000144,960.6823305000144,960.6823305000144,960.6823305000144,960.6823305000144,960.6823305000144,960.6823305000144,960.6823305000144,960.6823305000144,960.6823305000144,960.6823305000144,960.6823305000144,960.6823305000144,960.6823305000144,,,,,,62,50,44,14,50,42,None,None,45,45,[0.09074074074074075],[-0.32314814814814813],[1],[0],[0],[5.526106900011655],['tijiao'],-0.6,0,,[],[],[],[],[],[],[],8.00925925925926,4.088683100009803,972.8477574000135,974.527424800006,,,,,,,,,,,968.7405274000193,968.7405274000193,968.7405274000193,968.7405274000193,963.1925424000074,963.1925424000074,963.1925424000074,963.1925424000074,963.1925424000074,963.1925424000074,963.1925424000074,963.1925424000074,0.005299799988279119,963.1925424000074,,,,250,f,23,2023-03-22_16h11.37.144,RL,2022.2.4,60.04091187084148,
0,0.3,0.225,0,65,65,65,,,,,,,,,,None,974.527424800006,974.527424800006,974.527424800006,974.527424800006,974.527424800006,974.527424800006,i,0.3819604000018444,974.9286897999991,974.9286897999991,974.9286897999991,974.9286897999991,974.9286897999991,974.9286897999991,975.2261392000073,975.2261392000073,976.2895464000176,976.2895464000176,976.2895464000176,976.2895464000176,976.2895464000176,976.2895464000176,976.2895464000176,976.2895464000176,976.2895464000176,976.2895464000176,976.2895464000176,976.2895464000176,976.2895464000176,976.2895464000176,976.2895464000176,976.2895464000176,976.2895464000176,978.7988965999975,978.7988965999975,978.7988965999975,978.7988965999975,978.7988965999975,58,44,44,23,44,72,4.0,0.9467449999938253,,,[],[],[],[],[],[],[],-0.2,2,,[],[],[],[],[],[],[],None,None,979.7699923000182,981.6083568000176,,,,,,,,,,,,,,,,,,,,,,,,,,,,250,f,23,2023-03-22_16h11.37.144,RL,2022.2.4,60.04091187084148,
1,-0.3,-0.225,0,66,66,66,,,,,,,,,,None,981.6083568000176,981.6083568000176,981.6083568000176,981.6083568000176,981.6083568000176,981.6083568000176,r,1.056624799995916,982.6891242999991,982.6891242999991,982.6891242999991,982.6891242999991,982.6891242999991,982.6891242999991,982.9883280000067,982.9883280000067,984.9663297000225,984.9663297000225,984.9663297000225,984.9663297000225,984.9663297000225,984.9663297000225,984.9663297000225,984.9663297000225,984.9663297000225,984.9663297000225,984.9663297000225,984.9663297000225,984.9663297000225,984.9663297000225,984.9663297000225,984.9663297000225,984.9663297000225,987.4749221000238,987.4749221000238,987.4749221000238,987.4749221000238,987.4749221000238,63,46,52,17,63,32,5.0,1.9937874999886844,,,[],[],[],[],[],[],[],0.2,3,,[],[],[],[],[],[],[],None,None,989.4963971000107,991.2320302000153,,,,,,,,,,,,,,,,,,,,,,,,,,,,250,f,23,2023-03-22_16h11.37.144,RL,2022.2.4,60.04091187084148,
0,0.3,0.225,0,67,67,67,,,,,,,,,,None,991.2320302000153,991.2320302000153,991.2320302000153,991.2320302000153,991.2320302000153,991.2320302000153,j,0.7319250000000466,991.9969964000047,991.9969964000047,991.9969964000047,991.9969964000047,991.9969964000047,991.9969964000047,992.2961850000138,992.2961850000138,994.2739883000031,994.2739883000031,994.2739883000031,994.2739883000031,994.2739883000031,994.2739883000031,994.2739883000031,994.2739883000031,994.2739883000031,994.2739883000031,994.2739883000031,994.2739883000031,994.2739883000031,994.2739883000031,994.2739883000031,994.2739883000031,994.2739883000031,,,,,,59,57,51,21,21,78,None,None,44,44,[0.06388888888888888],[-0.28055555555555556],[1],[0],[0],[4.8449863999849185],['tijiao'],-0.2,0,,[],[],[],[],[],[],[],7.907407407407407,1.9803561999869999,1003.6470560000162,1005.1773052000208,,,,,,,,,,,1001.648405200016,1001.648405200016,1001.648405200016,1001.648405200016,996.7842668000085,996.7842668000085,996.7842668000085,996.7842668000085,996.7842668000085,996.7842668000085,996.7842668000085,996.7842668000085,0.005532800016226247,996.7842668000085,,,,250,f,23,2023-03-22_16h11.37.144,RL,2022.2.4,60.04091187084148,
1,-0.3,-0.225,0,68,68,68,,,,,,,,,,None,1005.1773052000208,1005.1773052000208,1005.1773052000208,1005.1773052000208,1005.1773052000208,1005.1773052000208,i,0.32470259998808615,1005.526944400015,1005.526944400015,1005.526944400015,1005.526944400015,1005.526944400015,1005.526944400015,1005.8258829000115,1005.8258829000115,1007.3716500000155,1007.3716500000155,1007.3716500000155,1007.3716500000155,1007.3716500000155,1007.3716500000155,1007.3716500000155,1007.3716500000155,1007.3716500000155,1007.3716500000155,1007.3716500000155,1007.3716500000155,1007.3716500000155,1007.3716500000155,1007.3716500000155,1007.3716500000155,1007.3716500000155,1009.8806897000177,1009.8806897000177,1009.8806897000177,1009.8806897000177,1009.8806897000177,61,44,52,22,52,79,4.0,4.253699799999595,,,[],[],[],[],[],[],[],-0.2,2,,[],[],[],[],[],[],[],None,None,1014.1621481000038,1015.7483980000252,,,,,,,,,,,,,,,,,,,,,,,,,,,,250,f,23,2023-03-22_16h11.37.144,RL,2022.2.4,60.04091187084148,
0,0.3,0.225,0,69,69,69,,,,,,,,,,None,1015.7483980000252,1015.7483980000252,1015.7483980000252,1015.7483980000252,1015.7483980000252,1015.7483980000252,f,0.396680199977709,1016.164500200015,1016.164500200015,1016.164500200015,1016.164500200015,1016.164500200015,1016.164500200015,1016.463562000019,1016.463562000019,1018.391650000005,1018.391650000005,1018.391650000005,1018.391650000005,1018.391650000005,1018.391650000005,1018.391650000005,1018.391650000005,1018.391650000005,1018.391650000005,1018.391650000005,1018.391650000005,1018.391650000005,1018.391650000005,1018.391650000005,1018.391650000005,1018.391650000005,1020.90043780001,1020.90043780001,1020.90043780001,1020.90043780001,1020.90043780001,55,57,56,13,57,81,3.0,2.376043500000378,,,[],[],[],[],[],[],[],0.6,3,,[],[],[],[],[],[],[],None,None,1023.3003768000053,1024.8568902999978,,,,,,,,,,,,,,,,,,,,,,,,,,,,250,f,23,2023-03-22_16h11.37.144,RL,2022.2.4,60.04091187084148,
1,-0.3,-0.225,0,70,70,70,,,,,,,,,,None,1024.8568902999978,1024.8568902999978,1024.8568902999978,1024.8568902999978,1024.8568902999978,1024.8568902999978,r,0.5028137999761384,1025.3893668000237,1025.3893668000237,1025.3893668000237,1025.3893668000237,1025.3893668000237,1025.3893668000237,1025.6883739000186,1025.6883739000186,1026.7355366999982,1026.7355366999982,1026.7355366999982,1026.7355366999982,1026.7355366999982,1026.7355366999982,1026.7355366999982,1026.7355366999982,1026.7355366999982,1026.7355366999982,1026.7355366999982,1026.7355366999982,1026.7355366999982,1026.7355366999982,1026.7355366999982,1026.7355366999982,1026.7355366999982,,,,,,51,58,62,16,51,41,None,None,40,40,[0.04537037037037037],[-0.2916666666666667],[1],[0],[0],[6.839239599998109],['tijiao'],0.6,0,,[],[],[],[],[],[],[],6.953703703703703,4.790211799991084,1040.9122812999994,1042.4922332999995,,,,,,,,,,,1036.1032807000156,1036.1032807000156,1036.1032807000156,1036.1032807000156,1029.245560500014,1029.245560500014,1029.245560500014,1029.245560500014,1029.245560500014,1029.245560500014,1029.245560500014,1029.245560500014,0.005429599987110123,1029.245560500014,,,,250,f,23,2023-03-22_16h11.37.144,RL,2022.2.4,60.04091187084148,
0,0.3,0.225,0,71,71,71,,,,,,,,,,None,1042.4922332999995,1042.4922332999995,1042.4922332999995,1042.4922332999995,1042.4922332999995,1042.4922332999995,f,0.3276604000129737,1042.8413579000044,1042.8413579000044,1042.8413579000044,1042.8413579000044,1042.8413579000044,1042.8413579000044,1043.1403634000162,1043.1403634000162,1044.9355411000142,1044.9355411000142,1044.9355411000142,1044.9355411000142,1044.9355411000142,1044.9355411000142,1044.9355411000142,1044.9355411000142,1044.9355411000142,1044.9355411000142,1044.9355411000142,1044.9355411000142,1044.9355411000142,1044.9355411000142,1044.9355411000142,1044.9355411000142,1044.9355411000142,,,,,,51,59,56,14,59,71,None,None,30,30,[0.018518518518518517],[-0.2972222222222222],[1],[0],[0],[9.780446100019617],['tijiao'],-0.2,0,,[],[],[],[],[],[],[],7.0092592592592595,3.210543499997584,1060.475288800022,1062.022229299997,,,,,,,,,,,1057.2456375000183,1057.2456375000183,1057.2456375000183,1057.2456375000183,1047.4460031000199,1047.4460031000199,1047.4460031000199,1047.4460031000199,1047.4460031000199,1047.4460031000199,1047.4460031000199,1047.4460031000199,0.0056757999991532415,1047.4460031000199,,,,250,f,23,2023-03-22_16h11.37.144,RL,2022.2.4,60.04091187084148,
1,-0.3,-0.225,0,72,72,72,,,,,,,,,,None,1062.022229299997,1062.022229299997,1062.022229299997,1062.022229299997,1062.022229299997,1062.022229299997,j,0.4699395000061486,1062.5225909000146,1062.5225909000146,1062.5225909000146,1062.5225909000146,1062.5225909000146,1062.5225909000146,1062.820349800022,1062.820349800022,1064.681697300024,1064.681697300024,1064.681697300024,1064.681697300024,1064.681697300024,1064.681697300024,1064.681697300024,1064.681697300024,1064.681697300024,1064.681697300024,1064.681697300024,1064.681697300024,1064.681697300024,1064.681697300024,1064.681697300024,1064.681697300024,1064.681697300024,,,,,,53,62,58,29,29,45,None,None,,,[],[],[],[],[],[],[],0.2,1,50,[0.05925925925925926],[-0.2861111111111111],[1],[0],[0],[5.0857849000021815],['tijiao_random_2'],6.018518518518519,3.6825236000004224,1075.9995570000028,1077.895576800016,1067.199200300005,1067.199200300005,1067.199200300005,1067.199200300005,1067.199200300005,1067.199200300005,1067.199200300005,1067.199200300005,0.00576929998351261,1067.199200300005,1072.2990312000038,1072.2990312000038,1072.2990312000038,1072.2990312000038,,,,,,,,,,,,,,250,f,23,2023-03-22_16h11.37.144,RL,2022.2.4,60.04091187084148,
0,0.3,0.225,0,73,73,73,,,,,,,,,,None,1077.895576800016,1077.895576800016,1077.895576800016,1077.895576800016,1077.895576800016,1077.895576800016,f,0.6481806999945547,1078.5611334000132,1078.5611334000132,1078.5611334000132,1078.5611334000132,1078.5611334000132,1078.5611334000132,1078.8599113000091,1078.8599113000091,1080.538599899999,1080.538599899999,1080.538599899999,1080.538599899999,1080.538599899999,1080.538599899999,1080.538599899999,1080.538599899999,1080.538599899999,1080.538599899999,1080.538599899999,1080.538599899999,1080.538599899999,1080.538599899999,1080.538599899999,1080.538599899999,1080.538599899999,,,,,,53,50,56,27,50,52,None,None,,,[],[],[],[],[],[],[],0.2,1,45,[0.011111111111111112],[-0.2916666666666667],[1],[0],[0],[6.399317499977769],['tijiao_random_2'],7.9907407407407405,2.1875352000060957,1091.6734577000025,1093.2370133000077,1083.0551790000172,1083.0551790000172,1083.0551790000172,1083.0551790000172,1083.0551790000172,1083.0551790000172,1083.0551790000172,1083.0551790000172,0.005612000008113682,1083.0551790000172,1089.4675068000215,1089.4675068000215,1089.4675068000215,1089.4675068000215,,,,,,,,,,,,,,250,f,23,2023-03-22_16h11.37.144,RL,2022.2.4,60.04091187084148,
1,-0.3,-0.225,0,74,74,74,,,,,,,,,,None,1093.2370133000077,1093.2370133000077,1093.2370133000077,1093.2370133000077,1093.2370133000077,1093.2370133000077,f,0.7671675000165123,1094.035274200025,1094.035274200025,1094.035274200025,1094.035274200025,1094.035274200025,1094.035274200025,1094.334276300011,1094.334276300011,1095.7798668000032,1095.7798668000032,1095.7967309000087,1095.7967309000087,1095.7967309000087,1095.7967309000087,1095.7967309000087,1095.7967309000087,1095.7967309000087,1095.7967309000087,1095.7967309000087,1095.7967309000087,1095.7967309000087,1095.7967309000087,1095.7967309000087,1095.7967309000087,1095.7967309000087,,,,,,55,56,56,24,56,72,None,None,,,[],[],[],[],[],[],[],-0.6,1,23,[0.09907407407407408],[-0.29907407407407405],[1],[0],[0],[8.277330399985658],['tijiao_random_2'],7.064814814814815,2.469118199980585,1109.0926304000022,1110.9716571000172,1098.3138454,1098.3138454,1098.3138454,1098.3138454,1098.3138454,1098.3138454,1098.3138454,1098.3138454,0.00573830000939779,1098.3138454,1106.6054057000147,1106.6054057000147,1106.6054057000147,1106.6054057000147,,,,,,,,,,,,,,250,f,23,2023-03-22_16h11.37.144,RL,2022.2.4,60.04091187084148,
0,0.3,0.225,0,75,75,75,,,,,,,,,,q,1148.2548608000216,1148.2548608000216,1148.2548608000216,1148.2548608000216,1148.2548608000216,1148.2548608000216,f,0.6606192000035662,1148.9353205000225,1148.9353205000225,1148.9353205000225,1148.9353205000225,1148.9353205000225,1148.9353205000225,1149.2345692000235,1149.2345692000235,1151.1127031000215,1151.1127031000215,1151.1127031000215,1151.1127031000215,1151.1127031000215,1151.1127031000215,1151.1127031000215,1151.1127031000215,1151.1127031000215,1151.1127031000215,1151.1127031000215,1151.1127031000215,1151.1127031000215,1151.1127031000215,1151.1127031000215,1151.1127031000215,1151.1127031000215,1153.6217960000213,1153.6217960000213,1153.6217960000213,1153.6217960000213,1153.6217960000213,55,57,62,19,57,73,3.0,2.3429788000066765,,,[],[],[],[],[],[],[],-0.6,3,,[],[],[],[],[],[],[],None,None,1155.9879729000095,1157.9599331000063,,,,,,,,,,,,,,,,,,,,,,,,,1110.9716571000172,1110.9716571000172,37.25880119999056,250,f,23,2023-03-22_16h11.37.144,RL,2022.2.4,60.04091187084148,
1,-0.3,-0.225,0,76,76,76,,,,,,,,,,None,1157.9599331000063,1157.9599331000063,1157.9599331000063,1157.9599331000063,1157.9599331000063,1157.9599331000063,i,0.43050950000179,1158.409364000021,1158.409364000021,1158.409364000021,1158.409364000021,1158.409364000021,1158.409364000021,1158.7085797000036,1158.7085797000036,1160.503391300008,1160.503391300008,1160.503391300008,1160.503391300008,1160.503391300008,1160.503391300008,1160.503391300008,1160.503391300008,1160.503391300008,1160.503391300008,1160.503391300008,1160.503391300008,1160.503391300008,1160.503391300008,1160.503391300008,1160.503391300008,1160.503391300008,1163.0128328000137,1163.0128328000137,1163.0128328000137,1163.0128328000137,1163.0128328000137,53,51,64,25,64,62,4.0,2.077549600013299,,,[],[],[],[],[],[],[],0.6,3,,[],[],[],[],[],[],[],None,None,1165.1179677000036,1167.1018047000107,,,,,,,,,,,,,,,,,,,,,,,,,,,,250,f,23,2023-03-22_16h11.37.144,RL,2022.2.4,60.04091187084148,
0,0.3,0.225,0,77,77,77,,,,,,,,,,None,1167.1018047000107,1167.1018047000107,1167.1018047000107,1167.1018047000107,1167.1018047000107,1167.1018047000107,r,0.44020110002020374,1167.5683067000064,1167.5683067000064,1167.5683067000064,1167.5683067000064,1167.5683067000064,1167.5683067000064,1167.8669038000226,1167.8669038000226,1169.0468836000073,1169.0468836000073,1169.063630700024,1169.063630700024,1169.063630700024,1169.063630700024,1169.063630700024,1169.063630700024,1169.063630700024,1169.063630700024,1169.063630700024,1169.063630700024,1169.063630700024,1169.063630700024,1169.063630700024,1169.063630700024,1169.063630700024,,,,,,49,48,67,27,49,71,None,None,,,[],[],[],[],[],[],[],0.2,1,50,[0.04722222222222222],[-0.2962962962962963],[1],[0],[0],[4.170887999993283],['tijiao_random_2'],7.944444444444445,3.1678013000055216,1178.9521447000152,1180.781227200001,1171.5816489999997,1171.5816489999997,1171.5816489999997,1171.5816489999997,1171.5816489999997,1171.5816489999997,1171.5816489999997,1171.5816489999997,0.005816600023536012,1171.5816489999997,1175.7660886000085,1175.7660886000085,1175.7660886000085,1175.7660886000085,,,,,,,,,,,,,,250,f,23,2023-03-22_16h11.37.144,RL,2022.2.4,60.04091187084148,
1,-0.3,-0.225,0,78,78,78,,,,,,,,,,None,1180.781227200001,1180.781227200001,1180.781227200001,1180.781227200001,1180.781227200001,1180.781227200001,f,0.4427591999992728,1181.247088700009,1181.247088700009,1181.247088700009,1181.247088700009,1181.247088700009,1181.247088700009,1181.54616540001,1181.54616540001,1182.5099383000052,1182.5099383000052,1182.5099383000052,1182.5099383000052,1182.5099383000052,1182.5099383000052,1182.5099383000052,1182.5099383000052,1182.5099383000052,1182.5099383000052,1182.5099383000052,1182.5099383000052,1182.5099383000052,1182.5099383000052,1182.5099383000052,1182.5099383000052,1182.5099383000052,,,,,,54,43,70,33,43,59,None,None,,,[],[],[],[],[],[],[],0.6,1,23,[0.12037037037037036],[-0.2777777777777778],[1],[0],[0],[8.062386600009631],['tijiao_random_2'],6.953703703703703,2.8672059000236914,1195.9888101000106,1197.7519308000046,1185.0266908000049,1185.0266908000049,1185.0266908000049,1185.0266908000049,1185.0266908000049,1185.0266908000049,1185.0266908000049,1185.0266908000049,0.005903500015847385,1185.0266908000049,1193.103715300007,1193.103715300007,1193.103715300007,1193.103715300007,,,,,,,,,,,,,,250,f,23,2023-03-22_16h11.37.144,RL,2022.2.4,60.04091187084148,
0,0.3,0.225,0,79,79,79,,,,,,,,,,None,1197.7519308000046,1197.7519308000046,1197.7519308000046,1197.7519308000046,1197.7519308000046,1197.7519308000046,r,0.33247699998901226,1198.118030600017,1198.118030600017,1198.118030600017,1198.118030600017,1198.118030600017,1198.118030600017,1198.4169478000258,1198.4169478000258,1199.5141174000164,1199.5141174000164,1199.5141174000164,1199.5141174000164,1199.5141174000164,1199.5141174000164,1199.5141174000164,1199.5141174000164,1199.5141174000164,1199.5141174000164,1199.5141174000164,1199.5141174000164,1199.5141174000164,1199.5141174000164,1199.5141174000164,1199.5141174000164,1199.5141174000164,1202.022673200001,1202.022673200001,1202.022673200001,1202.022673200001,1202.022673200001,55,51,74,37,55,48,5.0,3.091158199997153,,,[],[],[],[],[],[],[],0.2,2,,[],[],[],[],[],[],[],None,None,1205.1376435999991,1206.9930365000037,,,,,,,,,,,,,,,,,,,,,,,,,,,,250,f,23,2023-03-22_16h11.37.144,RL,2022.2.4,60.04091187084148,
1,-0.3,-0.225,0,80,80,80,,,,,,,,,,None,1206.9930365000037,1206.9930365000037,1206.9930365000037,1206.9930365000037,1206.9930365000037,1206.9930365000037,j,0.4970237000088673,1207.5088047000172,1207.5088047000172,1207.5088047000172,1207.5088047000172,1207.5088047000172,1207.5088047000172,1207.80766760002,1207.80766760002,1209.6028357000032,1209.6028357000032,1209.6028357000032,1209.6028357000032,1209.6028357000032,1209.6028357000032,1209.6028357000032,1209.6028357000032,1209.6028357000032,1209.6028357000032,1209.6028357000032,1209.6028357000032,1209.6028357000032,1209.6028357000032,1209.6028357000032,1209.6028357000032,1209.6028357000032,,,,,,55,43,70,30,30,62,None,None,48,48,[0.07777777777777778],[-0.2898148148148148],[1],[0],[0],[7.154932799981907],['tijiao'],-0.6,0,,[],[],[],[],[],[],[],6.972222222222222,2.212973299989244,1221.5193345000152,1223.3982636000146,,,,,,,,,,,1219.287384700001,1219.287384700001,1219.287384700001,1219.287384700001,1212.112944100023,1212.112944100023,1212.112944100023,1212.112944100023,1212.112944100023,1212.112944100023,1212.112944100023,1212.112944100023,0.005864700011443347,1212.112944100023,,,,250,f,23,2023-03-22_16h11.37.144,RL,2022.2.4,60.04091187084148,
0,0.3,0.225,0,81,81,81,,,,,,,,,,None,1223.3982636000146,1223.3982636000146,1223.3982636000146,1223.3982636000146,1223.3982636000146,1223.3982636000146,f,0.3372423999826424,1223.764566400001,1223.764566400001,1223.764566400001,1223.764566400001,1223.764566400001,1223.764566400001,1224.0632332000241,1224.0632332000241,1224.9445501000155,1224.9445501000155,1224.9445501000155,1224.9445501000155,1224.9445501000155,1224.9445501000155,1224.9445501000155,1224.9445501000155,1224.9445501000155,1224.9445501000155,1224.9445501000155,1224.9445501000155,1224.9445501000155,1224.9445501000155,1224.9445501000155,1224.9445501000155,1224.9445501000155,1227.4536155000096,1227.4536155000096,1227.4536155000096,1227.4536155000096,1227.4536155000096,41,35,65,28,35,53,3.0,2.0104371999914292,,,[],[],[],[],[],[],[],0.6,2,,[],[],[],[],[],[],[],None,None,1229.4906810000248,1231.2102583000087,,,,,,,,,,,,,,,,,,,,,,,,,,,,250,f,23,2023-03-22_16h11.37.144,RL,2022.2.4,60.04091187084148,
1,-0.3,-0.225,0,82,82,82,,,,,,,,,,None,1231.2102583000087,1231.2102583000087,1231.2102583000087,1231.2102583000087,1231.2102583000087,1231.2102583000087,i,0.40061579999746755,1231.6431599000061,1231.6431599000061,1231.6431599000061,1231.6431599000061,1231.6431599000061,1231.6431599000061,1231.9417869000172,1231.9417869000172,1233.8867013000126,1233.8867013000126,1233.903567900008,1233.903567900008,1233.903567900008,1233.903567900008,1233.903567900008,1233.903567900008,1233.903567900008,1233.903567900008,1233.903567900008,1233.903567900008,1233.903567900008,1233.903567900008,1233.903567900008,1233.903567900008,1233.903567900008,,,,,,58,37,65,30,65,75,None,None,,,[],[],[],[],[],[],[],-0.2,1,52,[-0.022222222222222223],[-0.2574074074074074],[1],[0],[0],[12.466797400003998],['tijiao_random_2'],6.981481481481481,1.7534583999949973,1250.6728944000206,1252.4858886000002,1236.4199623000168,1236.4199623000168,1236.4199623000168,1236.4199623000168,1236.4199623000168,1236.4199623000168,1236.4199623000168,1236.4199623000168,0.005429099983302876,1236.4199623000168,1248.9017424000194,1248.9017424000194,1248.9017424000194,1248.9017424000194,,,,,,,,,,,,,,250,f,23,2023-03-22_16h11.37.144,RL,2022.2.4,60.04091187084148,
0,0.3,0.225,0,83,83,83,,,,,,,,,,None,1252.4858886000002,1252.4858886000002,1252.4858886000002,1252.4858886000002,1252.4858886000002,1252.4858886000002,i,0.2785415999824181,1252.787441100023,1252.787441100023,1252.787441100023,1252.787441100023,1252.787441100023,1252.787441100023,1253.084518800024,1253.084518800024,1254.480299500021,1254.480299500021,1254.480299500021,1254.480299500021,1254.480299500021,1254.480299500021,1254.480299500021,1254.480299500021,1254.480299500021,1254.480299500021,1254.480299500021,1254.480299500021,1254.480299500021,1254.480299500021,1254.480299500021,1254.480299500021,1254.480299500021,,,,,,50,41,78,39,78,60,None,None,50,50,[0.05185185185185185],[-0.287962962962963],[1],[0],[0],[5.225279299978865],['tijiao'],-0.6,0,,[],[],[],[],[],[],[],4.981481481481481,5.901242199994158,1268.158669700002,1270.1377072000178,,,,,,,,,,,1262.2388554000063,1262.2388554000063,1262.2388554000063,1262.2388554000063,1256.9912377000146,1256.9912377000146,1256.9912377000146,1256.9912377000146,1256.9912377000146,1256.9912377000146,1256.9912377000146,1256.9912377000146,0.006731299974489957,1256.9912377000146,,,,250,f,23,2023-03-22_16h11.37.144,RL,2022.2.4,60.04091187084148,
1,-0.3,-0.225,0,84,84,84,,,,,,,,,,None,1270.1377072000178,1270.1377072000178,1270.1377072000178,1270.1377072000178,1270.1377072000178,1270.1377072000178,f,0.41693589999340475,1270.5868487000116,1270.5868487000116,1270.5868487000116,1270.5868487000116,1270.5868487000116,1270.5868487000116,1270.885522800003,1270.885522800003,1272.2986105000018,1272.2986105000018,1272.2986105000018,1272.2986105000018,1272.2986105000018,1272.2986105000018,1272.2986105000018,1272.2986105000018,1272.2986105000018,1272.2986105000018,1272.2986105000018,1272.2986105000018,1272.2986105000018,1272.2986105000018,1272.2986105000018,1272.2986105000018,1272.2986105000018,1274.8077827000234,1274.8077827000234,1274.8077827000234,1274.8077827000234,1274.8077827000234,57,38,75,32,38,80,2.0,1.4617655999900308,,,[],[],[],[],[],[],[],-0.6,2,,[],[],[],[],[],[],[],None,None,1276.2931040000112,1277.849941499997,,,,,,,,,,,,,,,,,,,,,,,,,,,,250,f,23,2023-03-22_16h11.37.144,RL,2022.2.4,60.04091187084148,
0,0.3,0.225,0,85,85,85,,,,,,,,,,None,1277.849941499997,1277.849941499997,1277.849941499997,1277.849941499997,1277.849941499997,1277.849941499997,i,0.5156295000051614,1278.3991016000218,1278.3991016000218,1278.3991016000218,1278.3991016000218,1278.3991016000218,1278.3991016000218,1278.6976446000044,1278.6976446000044,1280.3932145000144,1280.3932145000144,1280.3932145000144,1280.3932145000144,1280.3932145000144,1280.3932145000144,1280.3932145000144,1280.3932145000144,1280.3932145000144,1280.3932145000144,1280.3932145000144,1280.3932145000144,1280.3932145000144,1280.3932145000144,1280.3932145000144,1280.3932145000144,1280.3932145000144,1282.9024017000047,1282.9024017000047,1282.9024017000047,1282.9024017000047,1282.9024017000047,54,40,71,33,71,71,4.0,2.459466100001009,,,[],[],[],[],[],[],[],0.6,3,,[],[],[],[],[],[],[],None,None,1285.385510000022,1287.3073416000116,,,,,,,,,,,,,,,,,,,,,,,,,,,,250,f,23,2023-03-22_16h11.37.144,RL,2022.2.4,60.04091187084148,
1,-0.3,-0.225,0,86,86,86,,,,,,,,,,None,1287.3073416000116,1287.3073416000116,1287.3073416000116,1287.3073416000116,1287.3073416000116,1287.3073416000116,j,0.4436961000028532,1287.7735158000141,1287.7735158000141,1287.7735158000141,1287.7735158000141,1287.7735158000141,1287.7735158000141,1288.0723081000033,1288.0723081000033,1289.9338864000165,1289.9338864000165,1289.9338864000165,1289.9338864000165,1289.9338864000165,1289.9338864000165,1289.9338864000165,1289.9338864000165,1289.9338864000165,1289.9338864000165,1289.9338864000165,1289.9338864000165,1289.9338864000165,1289.9338864000165,1289.9338864000165,1289.9338864000165,1289.9338864000165,,,,,,48,39,64,28,28,70,None,None,50,50,[0.013888888888888888],[-0.29259259259259257],[1],[0],[0],[4.960457000008319],['tijiao'],-0.6,0,,[],[],[],[],[],[],[],6.898148148148148,1.713946500007296,1299.1572959000187,1300.85383930002,,,,,,,,,,,1297.4242683000048,1297.4242683000048,1297.4242683000048,1297.4242683000048,1292.4442424000008,1292.4442424000008,1292.4442424000008,1292.4442424000008,1292.4442424000008,1292.4442424000008,1292.4442424000008,1292.4442424000008,0.005947600002400577,1292.4442424000008,,,,250,f,23,2023-03-22_16h11.37.144,RL,2022.2.4,60.04091187084148,
0,0.3,0.225,0,87,87,87,,,,,,,,,,None,1300.85383930002,1300.85383930002,1300.85383930002,1300.85383930002,1300.85383930002,1300.85383930002,i,0.3541107000201009,1301.2362079000159,1301.2362079000159,1301.2362079000159,1301.2362079000159,1301.2362079000159,1301.2362079000159,1301.5355954999977,1301.5355954999977,1303.230867300008,1303.230867300008,1303.230867300008,1303.230867300008,1303.230867300008,1303.230867300008,1303.230867300008,1303.230867300008,1303.230867300008,1303.230867300008,1303.230867300008,1303.230867300008,1303.230867300008,1303.230867300008,1303.230867300008,1303.230867300008,1303.230867300008,1305.739710200025,1305.739710200025,1305.739710200025,1305.739710200025,1305.739710200025,53,40,66,29,66,58,4.0,2.4416691999940667,,,[],[],[],[],[],[],[],-0.2,2,,[],[],[],[],[],[],[],None,None,1308.2063150000176,1309.8459629999998,,,,,,,,,,,,,,,,,,,,,,,,,,,,250,f,23,2023-03-22_16h11.37.144,RL,2022.2.4,60.04091187084148,
1,-0.3,-0.225,0,88,88,88,,,,,,,,,,None,1309.8459629999998,1309.8459629999998,1309.8459629999998,1309.8459629999998,1309.8459629999998,1309.8459629999998,f,0.646776100009447,1310.5112035000056,1310.5112035000056,1310.5112035000056,1310.5112035000056,1310.5112035000056,1310.5112035000056,1310.8101757000259,1310.8101757000259,1312.2392789000005,1312.2392789000005,1312.2392789000005,1312.2392789000005,1312.2392789000005,1312.2392789000005,1312.2392789000005,1312.2392789000005,1312.2392789000005,1312.2392789000005,1312.2392789000005,1312.2392789000005,1312.2392789000005,1312.2392789000005,1312.2392789000005,1312.2392789000005,1312.2392789000005,,,,,,64,36,65,17,36,40,None,None,,,[],[],[],[],[],[],[],-0.6,1,33,[0.03888888888888889],[-0.29907407407407405],[1],[0],[0],[6.780359399999725],['tijiao_random_2'],5.925925925925926,3.1835880000144243,1324.754198700015,1326.3509254000091,1314.757548100024,1314.757548100024,1314.757548100024,1314.757548100024,1314.757548100024,1314.757548100024,1314.757548100024,1314.757548100024,0.005736599996453151,1314.757548100024,1321.5532191000239,1321.5532191000239,1321.5532191000239,1321.5532191000239,,,,,,,,,,,,,,250,f,23,2023-03-22_16h11.37.144,RL,2022.2.4,60.04091187084148,
0,0.3,0.225,0,89,89,89,,,,,,,,,,None,1326.3509254000091,1326.3509254000091,1326.3509254000091,1326.3509254000091,1326.3509254000091,1326.3509254000091,i,0.6324175999907311,1327.0160160000087,1327.0160160000087,1327.0160160000087,1327.0160160000087,1327.0160160000087,1327.0160160000087,1327.3150541000068,1327.3150541000068,1328.8941101000237,1328.8941101000237,1328.8941101000237,1328.8941101000237,1328.8941101000237,1328.8941101000237,1328.8941101000237,1328.8941101000237,1328.8941101000237,1328.8941101000237,1328.8941101000237,1328.8941101000237,1328.8941101000237,1328.8941101000237,1328.8941101000237,1328.8941101000237,1328.8941101000237,,,,,,60,48,67,24,67,61,None,None,30,30,[-0.013888888888888888],[-0.31296296296296294],[1],[0],[0],[8.882619900017744],['tijiao'],0.2,0,,[],[],[],[],[],[],[],6.925925925925926,2.7091117999807466,1343.037547600019,1344.7505636000133,,,,,,,,,,,1340.3095591000165,1340.3095591000165,1340.3095591000165,1340.3095591000165,1331.4052854000183,1331.4052854000183,1331.4052854000183,1331.4052854000183,1331.4052854000183,1331.4052854000183,1331.4052854000183,1331.4052854000183,0.006874499988043681,1331.4052854000183,,,,250,f,23,2023-03-22_16h11.37.144,RL,2022.2.4,60.04091187084148,
