bandit0,black_x_pos_random,black_y_pos_random,trials.thisRepN,trials.thisTrialN,trials.thisN,trials.thisIndex,instru_img1.started,instru_resp.started,instru_resp.keys,instru_resp.rt,instru_img2.started,instru_resp2.started,instru_resp2.keys,instru_resp2.rt,fixbefore_2.started,rest_response.keys,red.started,green.started,yellow.started,blue.started,choose_bandit.started,Fixation.started,choose_bandit.keys,choose_bandit.rt,black.started,red_2.started,green_2.started,yellow_2.started,blue_2.started,fixation_2.started,docs.started,wait_playerB.started,docs.stopped,wait_playerB.stopped,black.stopped,red_2.stopped,green_2.stopped,yellow_2.stopped,blue_2.stopped,fixation_2.stopped,black_com.started,reward_sub.started,palyerb.started,reward__sub.started,compare.started,red_compare.started,green_com.started,yellow_com.started,blue_com.started,image_3.started,slider.started,text.started,image_4.started,image_5.started,rewardyellow,rewardred,rewardblue,rewardgreen,subchoose,playerb,slider.response,slider.rt,expectself.text,value_expect_self,tijiao_click.x,tijiao_click.y,tijiao_click.leftButton,tijiao_click.midButton,tijiao_click.rightButton,tijiao_click.time,tijiao_click.clicked_name,random_whicharm,whether_ask,expect_random_3.text,tijiao_random.x,tijiao_random.y,tijiao_random.leftButton,tijiao_random.midButton,tijiao_random.rightButton,tijiao_random.time,tijiao_random.clicked_name,slider_2.response,slider_2.rt,intertrialfix.started,intertrialfix.stopped,expectself.started,expect_self_black.started,expect_self.started,expect_self_red.started,expect_self_green.started,expect_self_yellow.started,expect_self_blue.started,tijiao.started,tijiao_click.started,check.started,slider_2.started,image_7.started,confi.started,notconfi.started,jiantou_random.started,expect_red.started,expect_green.started,expect_yellow.started,expect_blue.started,expect_random_2.started,expect_random_3.started,tijiao_random_2.started,tijiao_random.started,check_2.started,bigx.started,bigx.stopped,rest_image.started,rest_response.started,rest_response.rt,participant,Gender,Age,date,expName,psychopyVersion,frameRate,
,,,,,,,43.26209689999814,43.26209689999814,space,6.9833096000074875,,,,,,,,,,,,,,,,,,,,,,,,,,,,,,,,,,,,,,,,,,,,,,,,,,,,,,,,,,,,,,,,,,,,,,,,,,,,,,,,,,,,,,,,,,,,,,,,,,,,,,,,,251,f,18,2023-03-22_17h36.20.712,RL,2022.2.4,60.151750844111255,
,,,,,,,,,,,50.28357190001407,50.28357190001407,s,35.10394960001577,,,,,,,,,,,,,,,,,,,,,,,,,,,,,,,,,,,,,,,,,,,,,,,,,,,,,,,,,,,,,,,,,,,,,,,,,,,,,,,,,,,,,,,,,,,,,,,,,,,,,251,f,18,2023-03-22_17h36.20.712,RL,2022.2.4,60.151750844111255,
1,-0.3,-0.225,0,0,0,0,,,,,,,,,85.41446140001062,None,86.44148030001088,86.44148030001088,86.44148030001088,86.44148030001088,86.44148030001088,86.44148030001088,j,0.6253285999991931,87.1140696000075,87.1140696000075,87.1140696000075,87.1140696000075,87.1140696000075,87.1140696000075,87.39180380001199,87.39180380001199,89.23648580000736,89.23648580000736,89.25415019999491,89.25415019999491,89.25415019999491,89.25415019999491,89.25415019999491,89.25415019999491,89.25415019999491,89.25415019999491,89.25415019999491,89.25415019999491,89.25415019999491,89.25415019999491,89.25415019999491,89.25415019999491,89.25415019999491,91.7628079999995,91.7628079999995,91.7628079999995,91.7628079999995,91.7628079999995,66,50,32,50,50,59,5.0,2.193422299984377,,,[],[],[],[],[],[],[],-0.2,3,,[],[],[],[],[],[],[],None,None,94.13802030001534,95.95139450000715,,,,,,,,,,,,,,,,,,,,,,,,,,,,,,251,f,18,2023-03-22_17h36.20.712,RL,2022.2.4,60.151750844111255,
0,0.3,0.225,0,1,1,1,,,,,,,,,,None,95.95139450000715,95.95139450000715,95.95139450000715,95.95139450000715,95.95139450000715,95.95139450000715,i,0.7131679999874905,96.68741640000371,96.68741640000371,96.68741640000371,96.68741640000371,96.68741640000371,96.68741640000371,96.98210230001132,96.98210230001132,98.79367810001713,98.79367810001713,98.81031850000727,98.81031850000727,98.81031850000727,98.81031850000727,98.81031850000727,98.81031850000727,98.81031850000727,98.81031850000727,98.81031850000727,98.81031850000727,98.81031850000727,98.81031850000727,98.81031850000727,98.81031850000727,98.81031850000727,,,,,,63,42,37,42,37,52,None,None,37,37,[0.017592592592592594],[-0.2935185185185185],[1],[0],[0],[5.663372799986973],['tijiao'],0.6,0,,[],[],[],[],[],[],[],7.027777777777778,1.843976100004511,108.8816190000216,110.59476360000554,101.34316650000983,101.34316650000983,101.34316650000983,101.34316650000983,101.34316650000983,101.34316650000983,101.34316650000983,101.34316650000983,0.005424600007245317,101.34316650000983,107.02455140001257,107.02455140001257,107.02455140001257,107.02455140001257,,,,,,,,,,,,,,,,251,f,18,2023-03-22_17h36.20.712,RL,2022.2.4,60.151750844111255,
1,-0.3,-0.225,0,2,2,2,,,,,,,,,,None,110.59476360000554,110.59476360000554,110.59476360000554,110.59476360000554,110.59476360000554,110.59476360000554,j,0.82121689998894,111.44274170001154,111.44274170001154,111.44274170001154,111.44274170001154,111.44274170001154,111.44274170001154,111.74181599999429,111.74181599999429,113.61985380001715,113.61985380001715,113.61985380001715,113.61985380001715,113.61985380001715,113.61985380001715,113.61985380001715,113.61985380001715,113.61985380001715,113.61985380001715,113.61985380001715,113.61985380001715,113.61985380001715,113.61985380001715,113.61985380001715,113.61985380001715,113.61985380001715,,,,,,59,51,38,51,51,39,None,None,60,60,[0.06851851851851852],[-0.27685185185185185],[1],[0],[0],[5.325268700020388],['tijiao'],-0.6,0,,[],[],[],[],[],[],[],7.0,2.6427985000191256,124.14012389999698,125.9194774000207,116.13093400001526,116.13093400001526,116.13093400001526,116.13093400001526,116.13093400001526,116.13093400001526,116.13093400001526,116.13093400001526,0.0067125000059604645,116.13093400001526,121.47860689999652,121.47860689999652,121.47860689999652,121.47860689999652,,,,,,,,,,,,,,,,251,f,18,2023-03-22_17h36.20.712,RL,2022.2.4,60.151750844111255,
0,0.3,0.225,0,3,3,3,,,,,,,,,,None,125.9194774000207,125.9194774000207,125.9194774000207,125.9194774000207,125.9194774000207,125.9194774000207,r,0.7618270000093617,126.70582240002113,126.70582240002113,126.70582240002113,126.70582240002113,126.70582240002113,126.70582240002113,127.00019580000662,127.00019580000662,127.83125020001899,127.83125020001899,127.83125020001899,127.83125020001899,127.83125020001899,127.83125020001899,127.83125020001899,127.83125020001899,127.83125020001899,127.83125020001899,127.83125020001899,127.83125020001899,127.83125020001899,127.83125020001899,127.83125020001899,127.83125020001899,127.83125020001899,130.34043999999994,130.34043999999994,130.34043999999994,130.34043999999994,130.34043999999994,67,54,30,52,67,51,5.0,2.1600779999862425,,,[],[],[],[],[],[],[],0.6,3,,[],[],[],[],[],[],[],None,None,132.52587850001873,134.11376580002252,,,,,,,,,,,,,,,,,,,,,,,,,,,,,,251,f,18,2023-03-22_17h36.20.712,RL,2022.2.4,60.151750844111255,
1,-0.3,-0.225,0,4,4,4,,,,,,,,,,None,134.11376580002252,134.11376580002252,134.11376580002252,134.11376580002252,134.11376580002252,134.11376580002252,f,0.6773863999987952,134.81754290001118,134.81754290001118,134.81754290001118,134.81754290001118,134.81754290001118,134.81754290001118,135.1114645000198,135.1114645000198,136.49089070002083,136.49089070002083,136.49089070002083,136.49089070002083,136.49089070002083,136.49089070002083,136.49089070002083,136.49089070002083,136.49089070002083,136.49089070002083,136.49089070002083,136.49089070002083,136.49089070002083,136.49089070002083,136.49089070002083,136.49089070002083,136.49089070002083,,,,,,55,52,35,55,52,47,None,None,50,50,[0.01574074074074074],[-0.287962962962963],[1],[0],[0],[5.027356000005966],['tijiao'],-0.6,0,,[],[],[],[],[],[],[],7.027777777777778,2.0956361000135075,146.16326800000388,147.67694520001533,139.00137310000719,139.00137310000719,139.00137310000719,139.00137310000719,139.00137310000719,139.00137310000719,139.00137310000719,139.00137310000719,0.005246499989880249,139.00137310000719,144.04899640000076,144.04899640000076,144.04899640000076,144.04899640000076,,,,,,,,,,,,,,,,251,f,18,2023-03-22_17h36.20.712,RL,2022.2.4,60.151750844111255,
0,0.3,0.225,0,5,5,5,,,,,,,,,,None,147.67694520001533,147.67694520001533,147.67694520001533,147.67694520001533,147.67694520001533,147.67694520001533,r,0.41507889999775216,148.10928360000253,148.10928360000253,148.10928360000253,148.10928360000253,148.10928360000253,148.10928360000253,148.40852739999536,148.40852739999536,150.1037436000188,150.1037436000188,150.1037436000188,150.1037436000188,150.1037436000188,150.1037436000188,150.1037436000188,150.1037436000188,150.1037436000188,150.1037436000188,150.1037436000188,150.1037436000188,150.1037436000188,150.1037436000188,150.1037436000188,150.1037436000188,150.1037436000188,,,,,,61,58,44,47,61,56,None,None,50,50,[0.03333333333333333],[-0.2851851851851852],[1],[0],[0],[3.77883669998846],['tijiao'],-0.2,0,,[],[],[],[],[],[],[],7.962962962962963,2.910257500014268,159.34391060000053,161.05687540001236,152.61517649999587,152.61517649999587,152.61517649999587,152.61517649999587,152.61517649999587,152.61517649999587,152.61517649999587,152.61517649999587,0.00743920000968501,152.61517649999587,156.41505330000655,156.41505330000655,156.41505330000655,156.41505330000655,,,,,,,,,,,,,,,,251,f,18,2023-03-22_17h36.20.712,RL,2022.2.4,60.151750844111255,
1,-0.3,-0.225,0,6,6,6,,,,,,,,,,None,161.05687540001236,161.05687540001236,161.05687540001236,161.05687540001236,161.05687540001236,161.05687540001236,r,0.647406999982195,161.72472769999877,161.72472769999877,161.72472769999877,161.72472769999877,161.72472769999877,161.72472769999877,162.02132880000863,162.02132880000863,163.46744969999418,163.46744969999418,163.46744969999418,163.46744969999418,163.46744969999418,163.46744969999418,163.46744969999418,163.46744969999418,163.46744969999418,163.46744969999418,163.46744969999418,163.46744969999418,163.46744969999418,163.46744969999418,163.46744969999418,163.46744969999418,163.46744969999418,,,,,,54,46,45,42,54,64,None,None,50,50,[0.03333333333333333],[-0.2953703703703704],[1],[0],[0],[3.896682000020519],['tijiao'],-0.6,0,,[],[],[],[],[],[],[],8.13888888888889,1.896893800003454,171.81008990001283,173.60618760000216,165.97747020001407,165.97747020001407,165.97747020001407,165.97747020001407,165.97747020001407,165.97747020001407,165.97747020001407,165.97747020001407,0.005841400008648634,165.97747020001407,169.89421580001363,169.89421580001363,169.89421580001363,169.89421580001363,,,,,,,,,,,,,,,,251,f,18,2023-03-22_17h36.20.712,RL,2022.2.4,60.151750844111255,
0,0.3,0.225,0,7,7,7,,,,,,,,,,None,173.60618760000216,173.60618760000216,173.60618760000216,173.60618760000216,173.60618760000216,173.60618760000216,i,0.8294419999874663,174.45408140000654,174.45408140000654,174.45408140000654,174.45408140000654,174.45408140000654,174.45408140000654,174.753288900014,174.753288900014,176.29852350000874,176.29852350000874,176.29852350000874,176.29852350000874,176.29852350000874,176.29852350000874,176.29852350000874,176.29852350000874,176.29852350000874,176.29852350000874,176.29852350000874,176.29852350000874,176.29852350000874,176.29852350000874,176.29852350000874,176.29852350000874,176.29852350000874,178.8076714000199,178.8076714000199,178.8076714000199,178.8076714000199,178.8076714000199,63,41,45,42,45,48,5.0,2.3092579999938607,,,[],[],[],[],[],[],[],-0.6,2,,[],[],[],[],[],[],[],None,None,181.14213059999747,182.88089670002228,,,,,,,,,,,,,,,,,,,,,,,,,,,,,,251,f,18,2023-03-22_17h36.20.712,RL,2022.2.4,60.151750844111255,
1,-0.3,-0.225,0,8,8,8,,,,,,,,,,None,182.88089670002228,182.88089670002228,182.88089670002228,182.88089670002228,182.88089670002228,182.88089670002228,r,0.7854068000160623,183.695815700019,183.695815700019,183.695815700019,183.695815700019,183.695815700019,183.695815700019,183.99435750002158,183.99435750002158,185.0584209000226,185.0584209000226,185.0584209000226,185.0584209000226,185.0584209000226,185.0584209000226,185.0584209000226,185.0584209000226,185.0584209000226,185.0584209000226,185.0584209000226,185.0584209000226,185.0584209000226,185.0584209000226,185.0584209000226,185.0584209000226,185.0584209000226,187.5675809000095,187.5675809000095,187.5675809000095,187.5675809000095,187.5675809000095,56,48,44,41,56,62,5.0,2.2102406000194605,,,[],[],[],[],[],[],[],-0.2,2,,[],[],[],[],[],[],[],None,None,189.80220420000842,191.70639000000665,,,,,,,,,,,,,,,,,,,,,,,,,,,,,,251,f,18,2023-03-22_17h36.20.712,RL,2022.2.4,60.151750844111255,
0,0.3,0.225,0,9,9,9,,,,,,,,,,None,191.70639000000665,191.70639000000665,191.70639000000665,191.70639000000665,191.70639000000665,191.70639000000665,r,0.8588070999830961,192.58798199999728,192.58798199999728,192.58798199999728,192.58798199999728,192.58798199999728,192.58798199999728,192.88716390001355,192.88716390001355,194.0008799000061,194.0008799000061,194.0008799000061,194.0008799000061,194.0008799000061,194.0008799000061,194.0008799000061,194.0008799000061,194.0008799000061,194.0008799000061,194.0008799000061,194.0008799000061,194.0008799000061,194.0008799000061,194.0008799000061,194.0008799000061,194.0008799000061,196.5094100999995,196.5094100999995,196.5094100999995,196.5094100999995,196.5094100999995,56,53,51,52,56,62,6.0,2.774920600000769,,,[],[],[],[],[],[],[],-0.6,2,,[],[],[],[],[],[],[],None,None,199.3095060000196,200.8651544000022,,,,,,,,,,,,,,,,,,,,,,,,,,,,,,251,f,18,2023-03-22_17h36.20.712,RL,2022.2.4,60.151750844111255,
1,-0.3,-0.225,0,10,10,10,,,,,,,,,,None,200.8651544000022,200.8651544000022,200.8651544000022,200.8651544000022,200.8651544000022,200.8651544000022,r,0.7040295999904629,201.59671250000247,201.59671250000247,201.59671250000247,201.59671250000247,201.59671250000247,201.59671250000247,201.89585900001111,201.89585900001111,203.27534550000564,203.27534550000564,203.27534550000564,203.27534550000564,203.27534550000564,203.27534550000564,203.27534550000564,203.27534550000564,203.27534550000564,203.27534550000564,203.27534550000564,203.27534550000564,203.27534550000564,203.27534550000564,203.27534550000564,203.27534550000564,203.27534550000564,,,,,,50,50,57,44,50,49,None,None,50,50,[0.018518518518518517],[-0.2833333333333333],[1],[0],[0],[3.5305537000240292],['tijiao'],-0.2,0,,[],[],[],[],[],[],[],8.842592592592592,2.062755000020843,211.4185180000204,213.16482040000847,205.78593440001714,205.78593440001714,205.78593440001714,205.78593440001714,205.78593440001714,205.78593440001714,205.78593440001714,205.78593440001714,0.0067119000013917685,205.78593440001714,209.33729850000236,209.33729850000236,209.33729850000236,209.33729850000236,,,,,,,,,,,,,,,,251,f,18,2023-03-22_17h36.20.712,RL,2022.2.4,60.151750844111255,
0,0.3,0.225,0,11,11,11,,,,,,,,,,None,213.16482040000847,213.16482040000847,213.16482040000847,213.16482040000847,213.16482040000847,213.16482040000847,r,0.4734662999981083,213.663710599998,213.663710599998,213.663710599998,213.663710599998,213.663710599998,213.663710599998,213.96299250001903,213.96299250001903,215.79124439999578,215.79124439999578,215.79124439999578,215.79124439999578,215.79124439999578,215.79124439999578,215.79124439999578,215.79124439999578,215.79124439999578,215.79124439999578,215.79124439999578,215.79124439999578,215.79124439999578,215.79124439999578,215.79124439999578,215.79124439999578,215.79124439999578,218.30039869999746,218.30039869999746,218.30039869999746,218.30039869999746,218.30039869999746,63,54,53,39,63,43,6.0,2.6252437999937683,,,[],[],[],[],[],[],[],-0.2,3,,[],[],[],[],[],[],[],None,None,220.95095600001514,222.68883180001285,,,,,,,,,,,,,,,,,,,,,,,,,,,,,,251,f,18,2023-03-22_17h36.20.712,RL,2022.2.4,60.151750844111255,
1,-0.3,-0.225,0,12,12,12,,,,,,,,,,None,222.68883180001285,222.68883180001285,222.68883180001285,222.68883180001285,222.68883180001285,222.68883180001285,r,0.7260834000189789,223.43695870001102,223.43695870001102,223.43695870001102,223.43695870001102,223.43695870001102,223.43695870001102,223.73626530001638,223.73626530001638,224.88255720000598,224.88255720000598,224.88255720000598,224.88255720000598,224.88255720000598,224.88255720000598,224.88255720000598,224.88255720000598,224.88255720000598,224.88255720000598,224.88255720000598,224.88255720000598,224.88255720000598,224.88255720000598,224.88255720000598,224.88255720000598,224.88255720000598,227.39223590001347,227.39223590001347,227.39223590001347,227.39223590001347,227.39223590001347,52,50,61,48,52,57,6.0,1.5946240999910515,,,[],[],[],[],[],[],[],-0.6,3,,[],[],[],[],[],[],[],None,None,229.01063450000947,230.78330080001615,,,,,,,,,,,,,,,,,,,,,,,,,,,,,,251,f,18,2023-03-22_17h36.20.712,RL,2022.2.4,60.151750844111255,
0,0.3,0.225,0,13,13,13,,,,,,,,,,None,230.78330080001615,230.78330080001615,230.78330080001615,230.78330080001615,230.78330080001615,230.78330080001615,j,1.301626500004204,232.1133267999976,232.1133267999976,232.1133267999976,232.1133267999976,232.1133267999976,232.1133267999976,232.4124853000103,232.4124853000103,233.7422069000022,233.7422069000022,233.7422069000022,233.7422069000022,233.7422069000022,233.7422069000022,233.7422069000022,233.7422069000022,233.7422069000022,233.7422069000022,233.7422069000022,233.7422069000022,233.7422069000022,233.7422069000022,233.7422069000022,233.7422069000022,233.7422069000022,,,,,,66,47,56,41,41,48,None,None,,,[],[],[],[],[],[],[],-0.2,1,30,[0.08703703703703704],[-0.30277777777777776],[1],[0],[0],[4.055867299990496],['tijiao_random_2'],7.037037037037037,1.338953099999344,241.68586190001224,243.64839020001818,,,,,,,,,,,240.32852569999523,240.32852569999523,240.32852569999523,240.32852569999523,236.26234680000925,236.26234680000925,236.26234680000925,236.26234680000925,236.26234680000925,236.26234680000925,236.26234680000925,236.26234680000925,0.006033399986336008,236.26234680000925,,,,,,251,f,18,2023-03-22_17h36.20.712,RL,2022.2.4,60.151750844111255,
1,-0.3,-0.225,0,14,14,14,,,,,,,,,,None,243.64839020001818,243.64839020001818,243.64839020001818,243.64839020001818,243.64839020001818,243.64839020001818,r,0.5139261999865994,244.18047680001473,244.18047680001473,244.18047680001473,244.18047680001473,244.18047680001473,244.18047680001473,244.47959370000171,244.47959370000171,245.36065550000058,245.36065550000058,245.36065550000058,245.36065550000058,245.36065550000058,245.36065550000058,245.36065550000058,245.36065550000058,245.36065550000058,245.36065550000058,245.36065550000058,245.36065550000058,245.36065550000058,245.36065550000058,245.36065550000058,245.36065550000058,245.36065550000058,247.86985570000252,247.86985570000252,247.86985570000252,247.86985570000252,247.86985570000252,63,53,53,36,63,44,6.0,1.9772393999737687,,,[],[],[],[],[],[],[],-0.2,3,,[],[],[],[],[],[],[],None,None,249.8719543000043,251.7758292000217,,,,,,,,,,,,,,,,,,,,,,,,,,,,,,251,f,18,2023-03-22_17h36.20.712,RL,2022.2.4,60.151750844111255,
0,0.3,0.225,0,15,15,15,,,,,,,,,,None,251.7758292000217,251.7758292000217,251.7758292000217,251.7758292000217,251.7758292000217,251.7758292000217,r,0.911532600002829,252.70728440000676,252.70728440000676,252.70728440000676,252.70728440000676,252.70728440000676,252.70728440000676,253.00642310001422,253.00642310001422,254.21967980000773,254.21967980000773,254.21967980000773,254.21967980000773,254.21967980000773,254.21967980000773,254.21967980000773,254.21967980000773,254.21967980000773,254.21967980000773,254.21967980000773,254.21967980000773,254.21967980000773,254.21967980000773,254.21967980000773,254.21967980000773,254.21967980000773,256.72848030002206,256.72848030002206,256.72848030002206,256.72848030002206,256.72848030002206,65,57,46,37,65,53,6.0,1.7612969999900088,,,[],[],[],[],[],[],[],-0.6,2,,[],[],[],[],[],[],[],None,None,258.5130261000013,260.4022341000091,,,,,,,,,,,,,,,,,,,,,,,,,,,,,,251,f,18,2023-03-22_17h36.20.712,RL,2022.2.4,60.151750844111255,
1,-0.3,-0.225,0,16,16,16,,,,,,,,,,None,260.4022341000091,260.4022341000091,260.4022341000091,260.4022341000091,260.4022341000091,260.4022341000091,r,0.5836154000135139,261.01805529999547,261.01805529999547,261.01805529999547,261.01805529999547,261.01805529999547,261.01805529999547,261.3169149000023,261.3169149000023,263.2118660999986,263.2118660999986,263.2118660999986,263.2118660999986,263.2118660999986,263.2118660999986,263.2118660999986,263.2118660999986,263.2118660999986,263.2118660999986,263.2118660999986,263.2118660999986,263.2118660999986,263.2118660999986,263.2118660999986,263.2118660999986,263.2118660999986,,,,,,67,49,58,46,67,37,None,None,,,[],[],[],[],[],[],[],-0.6,1,60,[0.04722222222222222],[-0.2814814814814815],[1],[0],[0],[4.207138699974166],['tijiao_random_2'],9.055555555555555,1.7212084000057075,271.6873145000136,273.2506791000196,,,,,,,,,,,269.94786630000453,269.94786630000453,269.94786630000453,269.94786630000453,265.72705190000124,265.72705190000124,265.72705190000124,265.72705190000124,265.72705190000124,265.72705190000124,265.72705190000124,265.72705190000124,0.0054462999978568405,265.72705190000124,,,,,,251,f,18,2023-03-22_17h36.20.712,RL,2022.2.4,60.151750844111255,
0,0.3,0.225,0,17,17,17,,,,,,,,,,None,273.2506791000196,273.2506791000196,273.2506791000196,273.2506791000196,273.2506791000196,273.2506791000196,r,0.6269629999878816,273.8993855000008,273.8993855000008,273.8993855000008,273.8993855000008,273.8993855000008,273.8993855000008,274.19863729999634,274.19863729999634,276.07655600001453,276.07655600001453,276.07655600001453,276.07655600001453,276.07655600001453,276.07655600001453,276.07655600001453,276.07655600001453,276.07655600001453,276.07655600001453,276.07655600001453,276.07655600001453,276.07655600001453,276.07655600001453,276.07655600001453,276.07655600001453,276.07655600001453,278.58546030000434,278.58546030000434,278.58546030000434,278.58546030000434,278.58546030000434,66,55,56,52,66,32,6.0,1.511589500005357,,,[],[],[],[],[],[],[],-0.6,2,,[],[],[],[],[],[],[],None,None,280.12294739999925,281.97673110000324,,,,,,,,,,,,,,,,,,,,,,,,,,,,,,251,f,18,2023-03-22_17h36.20.712,RL,2022.2.4,60.151750844111255,
1,-0.3,-0.225,0,18,18,18,,,,,,,,,,None,281.97673110000324,281.97673110000324,281.97673110000324,281.97673110000324,281.97673110000324,281.97673110000324,r,0.9502754000131972,282.9599742999999,282.9599742999999,282.9599742999999,282.9599742999999,282.9599742999999,282.9599742999999,283.2572155999951,283.2572155999951,284.1214447999955,284.1214447999955,284.1214447999955,284.1214447999955,284.1214447999955,284.1214447999955,284.1214447999955,284.1214447999955,284.1214447999955,284.1214447999955,284.1214447999955,284.1214447999955,284.1214447999955,284.1214447999955,284.1214447999955,284.1214447999955,284.1214447999955,286.6301388000138,286.6301388000138,286.6301388000138,286.6301388000138,286.6301388000138,59,47,59,45,59,36,6.0,1.4448534999974072,,,[],[],[],[],[],[],[],0.6,3,,[],[],[],[],[],[],[],None,None,288.09945040001185,290.07153640000615,,,,,,,,,,,,,,,,,,,,,,,,,,,,,,251,f,18,2023-03-22_17h36.20.712,RL,2022.2.4,60.151750844111255,
0,0.3,0.225,0,19,19,19,,,,,,,,,,None,290.07153640000615,290.07153640000615,290.07153640000615,290.07153640000615,290.07153640000615,290.07153640000615,r,0.42591380001977086,290.52062190001016,290.52062190001016,290.52062190001016,290.52062190001016,290.52062190001016,290.52062190001016,290.819800199999,290.819800199999,292.382136900007,292.382136900007,292.382136900007,292.382136900007,292.382136900007,292.382136900007,292.382136900007,292.382136900007,292.382136900007,292.382136900007,292.382136900007,292.382136900007,292.382136900007,292.382136900007,292.382136900007,292.382136900007,292.382136900007,,,,,,56,48,53,51,56,39,None,None,,,[],[],[],[],[],[],[],0.2,1,50,[0.003703703703703704],[-0.33055555555555555],[1],[0],[0],[4.303186700009974],['tijiao_random_2'],7.75,1.8889869000122417,301.1238510000112,302.7531621000089,,,,,,,,,,,299.2165495000081,299.2165495000081,299.2165495000081,299.2165495000081,294.9008599999943,294.9008599999943,294.9008599999943,294.9008599999943,294.9008599999943,294.9008599999943,294.9008599999943,294.9008599999943,0.005884999991394579,294.9008599999943,,,,,,251,f,18,2023-03-22_17h36.20.712,RL,2022.2.4,60.151750844111255,
1,-0.3,-0.225,0,20,20,20,,,,,,,,,,None,302.7531621000089,302.7531621000089,302.7531621000089,302.7531621000089,302.7531621000089,302.7531621000089,r,0.6214206999866292,303.4021100999962,303.4021100999962,303.4021100999962,303.4021100999962,303.4021100999962,303.4021100999962,303.7010425000044,303.7010425000044,305.4962611999945,305.4962611999945,305.4962611999945,305.4962611999945,305.4962611999945,305.4962611999945,305.4962611999945,305.4962611999945,305.4962611999945,305.4962611999945,305.4962611999945,305.4962611999945,305.4962611999945,305.4962611999945,305.4962611999945,305.4962611999945,305.4962611999945,,,,,,59,46,53,51,59,40,None,None,60,60,[-0.021296296296296296],[-0.29814814814814816],[1],[0],[0],[4.560139600012917],['tijiao'],0.2,0,,[],[],[],[],[],[],[],9.12962962962963,1.8624484000029042,314.4707803000056,316.3996885000088,308.0084235999966,308.0084235999966,308.0084235999966,308.0084235999966,308.0084235999966,308.0084235999966,308.0084235999966,308.0084235999966,0.007498199993278831,308.0084235999966,312.58960639999714,312.58960639999714,312.58960639999714,312.58960639999714,,,,,,,,,,,,,,,,251,f,18,2023-03-22_17h36.20.712,RL,2022.2.4,60.151750844111255,
0,0.3,0.225,0,21,21,21,,,,,,,,,,None,316.3996885000088,316.3996885000088,316.3996885000088,316.3996885000088,316.3996885000088,316.3996885000088,r,0.5801765999931376,316.99848060001386,316.99848060001386,316.99848060001386,316.99848060001386,316.99848060001386,316.99848060001386,317.29751990002114,317.29751990002114,318.5439843000204,318.5439843000204,318.5607901000185,318.5607901000185,318.5607901000185,318.5607901000185,318.5607901000185,318.5607901000185,318.5607901000185,318.5607901000185,318.5607901000185,318.5607901000185,318.5607901000185,318.5607901000185,318.5607901000185,318.5607901000185,318.5607901000185,,,,,,55,54,51,50,55,43,None,None,,,[],[],[],[],[],[],[],0.2,1,40,[0.08333333333333333],[-0.3111111111111111],[1],[0],[0],[4.918880500015803],['tijiao_random_2'],7.898148148148149,2.5858698000083677,328.6153215999948,330.51125579999643,,,,,,,,,,,326.01079990001745,326.01079990001745,326.01079990001745,326.01079990001745,321.0792161000136,321.0792161000136,321.0792161000136,321.0792161000136,321.0792161000136,321.0792161000136,321.0792161000136,321.0792161000136,0.006137399992439896,321.0792161000136,,,,,,251,f,18,2023-03-22_17h36.20.712,RL,2022.2.4,60.151750844111255,
1,-0.3,-0.225,0,22,22,22,,,,,,,,,,None,330.51125579999643,330.51125579999643,330.51125579999643,330.51125579999643,330.51125579999643,330.51125579999643,r,0.559700600017095,331.09326290001627,331.09326290001627,331.09326290001627,331.09326290001627,331.09326290001627,331.09326290001627,331.3922145999968,331.3922145999968,332.60561300002155,332.60561300002155,332.60561300002155,332.60561300002155,332.60561300002155,332.60561300002155,332.60561300002155,332.60561300002155,332.60561300002155,332.60561300002155,332.60561300002155,332.60561300002155,332.60561300002155,332.60561300002155,332.60561300002155,332.60561300002155,332.60561300002155,,,,,,57,58,66,57,57,52,None,None,60,60,[0.05],[-0.2935185185185185],[1],[0],[0],[4.409940499986988],['tijiao'],-0.6,0,,[],[],[],[],[],[],[],7.972222222222221,1.2495221999997739,340.8153586999979,342.49523180001415,335.1181351999985,335.1181351999985,335.1181351999985,335.1181351999985,335.1181351999985,335.1181351999985,335.1181351999985,335.1181351999985,0.00734579999698326,335.1181351999985,339.54731940000784,339.54731940000784,339.54731940000784,339.54731940000784,,,,,,,,,,,,,,,,251,f,18,2023-03-22_17h36.20.712,RL,2022.2.4,60.151750844111255,
0,0.3,0.225,0,23,23,23,,,,,,,,,,None,342.49523180001415,342.49523180001415,342.49523180001415,342.49523180001415,342.49523180001415,342.49523180001415,r,0.8127108000044245,343.32805660000304,343.32805660000304,343.32805660000304,343.32805660000304,343.32805660000304,343.32805660000304,343.6255531000206,343.6255531000206,345.3375667000073,345.3375667000073,345.3544000000111,345.3544000000111,345.3544000000111,345.3544000000111,345.3544000000111,345.3544000000111,345.3544000000111,345.3544000000111,345.3544000000111,345.3544000000111,345.3544000000111,345.3544000000111,345.3544000000111,345.3544000000111,345.3544000000111,347.8634868999943,347.8634868999943,347.8634868999943,347.8634868999943,347.8634868999943,50,59,60,54,50,37,6.0,2.0601096999889705,,,[],[],[],[],[],[],[],0.6,3,,[],[],[],[],[],[],[],None,None,349.9465445000096,351.8196711000055,,,,,,,,,,,,,,,,,,,,,,,,,,,,,,251,f,18,2023-03-22_17h36.20.712,RL,2022.2.4,60.151750844111255,
1,-0.3,-0.225,0,24,24,24,,,,,,,,,,None,351.8196711000055,351.8196711000055,351.8196711000055,351.8196711000055,351.8196711000055,351.8196711000055,r,1.1671927999996115,353.0168760000088,353.0168760000088,353.0168760000088,353.0168760000088,353.0168760000088,353.0168760000088,353.315926100011,353.315926100011,355.31050720001804,355.31050720001804,355.31050720001804,355.31050720001804,355.31050720001804,355.31050720001804,355.31050720001804,355.31050720001804,355.31050720001804,355.31050720001804,355.31050720001804,355.31050720001804,355.31050720001804,355.31050720001804,355.31050720001804,355.31050720001804,355.31050720001804,357.8195950000081,357.8195950000081,357.8195950000081,357.8195950000081,357.8195950000081,51,57,60,55,51,65,6.0,1.8269350999908056,,,[],[],[],[],[],[],[],0.2,3,,[],[],[],[],[],[],[],None,None,359.6729867999966,361.2440363000205,,,,,,,,,,,,,,,,,,,,,,,,,,,,,,251,f,18,2023-03-22_17h36.20.712,RL,2022.2.4,60.151750844111255,
0,0.3,0.225,0,25,25,25,,,,,,,,,,None,361.2440363000205,361.2440363000205,361.2440363000205,361.2440363000205,361.2440363000205,361.2440363000205,j,0.9619930000044405,362.2252931999974,362.2252931999974,362.2252931999974,362.2252931999974,362.2252931999974,362.2252931999974,362.5241900999972,362.5241900999972,363.37152899999637,363.37152899999637,363.37152899999637,363.37152899999637,363.37152899999637,363.37152899999637,363.37152899999637,363.37152899999637,363.37152899999637,363.37152899999637,363.37152899999637,363.37152899999637,363.37152899999637,363.37152899999637,363.37152899999637,363.37152899999637,363.37152899999637,,,,,,54,56,53,53,53,34,None,None,,,[],[],[],[],[],[],[],0.2,1,40,[0.05925925925925926],[-0.29444444444444445],[1],[0],[0],[4.5515302999992855],['tijiao_random_2'],7.8240740740740735,1.7568256000231486,372.22966320000705,373.9760215000133,,,,,,,,,,,370.4547280000115,370.4547280000115,370.4547280000115,370.4547280000115,365.890876999998,365.890876999998,365.890876999998,365.890876999998,365.890876999998,365.890876999998,365.890876999998,365.890876999998,0.006195499998284504,365.890876999998,,,,,,251,f,18,2023-03-22_17h36.20.712,RL,2022.2.4,60.151750844111255,
1,-0.3,-0.225,0,26,26,26,,,,,,,,,,None,373.9760215000133,373.9760215000133,373.9760215000133,373.9760215000133,373.9760215000133,373.9760215000133,j,0.6572030000097584,374.6581053000118,374.6581053000118,374.6581053000118,374.6581053000118,374.6581053000118,374.6581053000118,374.95694000000367,374.95694000000367,376.7516253000067,376.7516253000067,376.7516253000067,376.7516253000067,376.7516253000067,376.7516253000067,376.7516253000067,376.7516253000067,376.7516253000067,376.7516253000067,376.7516253000067,376.7516253000067,376.7516253000067,376.7516253000067,376.7516253000067,376.7516253000067,376.7516253000067,379.26104100001976,379.26104100001976,379.26104100001976,379.26104100001976,379.26104100001976,56,50,66,51,51,32,5.0,2.160092200007057,,,[],[],[],[],[],[],[],0.6,3,,[],[],[],[],[],[],[],None,None,381.4469170999946,383.184056099999,,,,,,,,,,,,,,,,,,,,,,,,,,,,,,251,f,18,2023-03-22_17h36.20.712,RL,2022.2.4,60.151750844111255,
0,0.3,0.225,0,27,27,27,,,,,,,,,,None,383.184056099999,383.184056099999,383.184056099999,383.184056099999,383.184056099999,383.184056099999,r,0.4197376000229269,383.63341470001615,383.63341470001615,383.63341470001615,383.63341470001615,383.63341470001615,383.63341470001615,383.9325876000221,383.9325876000221,385.67760850000195,385.67760850000195,385.67760850000195,385.67760850000195,385.67760850000195,385.67760850000195,385.67760850000195,385.67760850000195,385.67760850000195,385.67760850000195,385.67760850000195,385.67760850000195,385.67760850000195,385.67760850000195,385.67760850000195,385.67760850000195,385.67760850000195,,,,,,44,52,64,50,44,50,None,None,50,50,[0.0787037037037037],[-0.2759259259259259],[1],[0],[0],[4.510680599982152],['tijiao'],-0.2,0,,[],[],[],[],[],[],[],7.12962962962963,1.762540199997602,394.50215970000136,396.4146252000064,388.1886263000197,388.1886263000197,388.1886263000197,388.1886263000197,388.1886263000197,388.1886263000197,388.1886263000197,388.1886263000197,0.006447399995522574,388.1886263000197,392.7205468000029,392.7205468000029,392.7205468000029,392.7205468000029,,,,,,,,,,,,,,,,251,f,18,2023-03-22_17h36.20.712,RL,2022.2.4,60.151750844111255,
1,-0.3,-0.225,0,28,28,28,,,,,,,,,,None,396.4146252000064,396.4146252000064,396.4146252000064,396.4146252000064,396.4146252000064,396.4146252000064,r,1.0492761000059545,397.4953399000224,397.4953399000224,397.4953399000224,397.4953399000224,397.4953399000224,397.4953399000224,397.79424620000646,397.79424620000646,399.0744873000076,399.0744873000076,399.0744873000076,399.0744873000076,399.0744873000076,399.0744873000076,399.0744873000076,399.0744873000076,399.0744873000076,399.0744873000076,399.0744873000076,399.0744873000076,399.0744873000076,399.0744873000076,399.0744873000076,399.0744873000076,399.0744873000076,401.5832917000225,401.5832917000225,401.5832917000225,401.5832917000225,401.5832917000225,55,58,59,57,55,52,6.0,1.8609052000101656,,,[],[],[],[],[],[],[],0.2,2,,[],[],[],[],[],[],[],None,None,403.4686514000059,405.2405736000219,,,,,,,,,,,,,,,,,,,,,,,,,,,,,,251,f,18,2023-03-22_17h36.20.712,RL,2022.2.4,60.151750844111255,
0,0.3,0.225,0,29,29,29,,,,,,,,,,None,405.2405736000219,405.2405736000219,405.2405736000219,405.2405736000219,405.2405736000219,405.2405736000219,r,0.4880743999965489,405.7561975000135,405.7561975000135,405.7561975000135,405.7561975000135,405.7561975000135,405.7561975000135,406.05539500000305,406.05539500000305,407.08571770001436,407.08571770001436,407.08571770001436,407.08571770001436,407.08571770001436,407.08571770001436,407.08571770001436,407.08571770001436,407.08571770001436,407.08571770001436,407.08571770001436,407.08571770001436,407.08571770001436,407.08571770001436,407.08571770001436,407.08571770001436,407.08571770001436,,,,,,52,60,67,52,52,61,None,None,55,55,[0.049074074074074076],[-0.2916666666666667],[1],[0],[0],[11.30901399999857],['tijiao'],0.2,0,,[],[],[],[],[],[],[],6.7592592592592595,2.0457890999969095,422.99121510001714,424.8870479000034,409.59654640001827,409.59654640001827,409.59654640001827,409.59654640001827,409.59654640001827,409.59654640001827,409.59654640001827,409.59654640001827,0.0062710999918635935,409.59654640001827,420.9263805000228,420.9263805000228,420.9263805000228,420.9263805000228,,,,,,,,,,,,,,,,251,f,18,2023-03-22_17h36.20.712,RL,2022.2.4,60.151750844111255,
1,-0.3,-0.225,0,30,30,30,,,,,,,,,,None,424.8870479000034,424.8870479000034,424.8870479000034,424.8870479000034,424.8870479000034,424.8870479000034,None,,,,,,,,,,,,,,,,,,,,,,,,,,,,,,,,60,47,60,44,0,**,None,None,,,[],[],[],[],[],[],[],0.2,3,,[],[],[],[],[],[],[],None,None,432.4325133000093,434.07871890001115,,,,,,,,,,,,,,,,,,,,,,,,,426.41946350000217,432.4325133000093,,,,251,f,18,2023-03-22_17h36.20.712,RL,2022.2.4,60.151750844111255,
0,0.3,0.225,0,31,31,31,,,,,,,,,,None,434.07871890001115,434.07871890001115,434.07871890001115,434.07871890001115,434.07871890001115,434.07871890001115,f,0.5166985999967437,434.6274167000083,434.6274167000083,434.6274167000083,434.6274167000083,434.6274167000083,434.6274167000083,434.926246899995,434.926246899995,436.38930460001575,436.38930460001575,436.38930460001575,436.38930460001575,436.38930460001575,436.38930460001575,436.38930460001575,436.38930460001575,436.38930460001575,436.38930460001575,436.38930460001575,436.38930460001575,436.38930460001575,436.38930460001575,436.38930460001575,436.38930460001575,436.38930460001575,,,,,,64,59,63,43,59,67,None,None,,,[],[],[],[],[],[],[],-0.6,1,60,[0.05925925925925926],[-0.3074074074074074],[1],[0],[0],[3.5402220000105444],['tijiao_random_2'],7.027777777777778,1.706002399994759,444.1829120000184,446.02920879999874,,,,,,,,,,,442.4589032000222,442.4589032000222,442.4589032000222,442.4589032000222,438.9060987000121,438.9060987000121,438.9060987000121,438.9060987000121,438.9060987000121,438.9060987000121,438.9060987000121,438.9060987000121,0.005550000001676381,438.9060987000121,,,,,,251,f,18,2023-03-22_17h36.20.712,RL,2022.2.4,60.151750844111255,
1,-0.3,-0.225,0,32,32,32,,,,,,,,,,None,446.02920879999874,446.02920879999874,446.02920879999874,446.02920879999874,446.02920879999874,446.02920879999874,f,0.47985719999996945,446.53089980001096,446.53089980001096,446.53089980001096,446.53089980001096,446.53089980001096,446.53089980001096,446.82738210001844,446.82738210001844,448.3064484000206,448.3064484000206,448.3229885000037,448.3229885000037,448.3229885000037,448.3229885000037,448.3229885000037,448.3229885000037,448.3229885000037,448.3229885000037,448.3229885000037,448.3229885000037,448.3229885000037,448.3229885000037,448.3229885000037,448.3229885000037,448.3229885000037,450.83253720001085,450.83253720001085,450.83253720001085,450.83253720001085,450.83253720001085,47,49,57,45,49,41,5.0,1.644765200006077,,,[],[],[],[],[],[],[],-0.2,2,,[],[],[],[],[],[],[],None,None,452.5024721000227,454.34003380002105,,,,,,,,,,,,,,,,,,,,,,,,,,,,,,251,f,18,2023-03-22_17h36.20.712,RL,2022.2.4,60.151750844111255,
0,0.3,0.225,0,33,33,33,,,,,,,,,,None,454.34003380002105,454.34003380002105,454.34003380002105,454.34003380002105,454.34003380002105,454.34003380002105,r,0.6221538000099827,454.98861590001616,454.98861590001616,454.98861590001616,454.98861590001616,454.98861590001616,454.98861590001616,455.2876768000133,455.2876768000133,456.13540870000725,456.13540870000725,456.13540870000725,456.13540870000725,456.13540870000725,456.13540870000725,456.13540870000725,456.13540870000725,456.13540870000725,456.13540870000725,456.13540870000725,456.13540870000725,456.13540870000725,456.13540870000725,456.13540870000725,456.13540870000725,456.13540870000725,458.64406330001657,458.64406330001657,458.64406330001657,458.64406330001657,458.64406330001657,47,60,57,52,47,48,5.0,1.826947099994868,,,[],[],[],[],[],[],[],-0.6,2,,[],[],[],[],[],[],[],None,None,460.49715650000144,462.10228089999873,,,,,,,,,,,,,,,,,,,,,,,,,,,,,,251,f,18,2023-03-22_17h36.20.712,RL,2022.2.4,60.151750844111255,
1,-0.3,-0.225,0,34,34,34,,,,,,,,,,None,462.10228089999873,462.10228089999873,462.10228089999873,462.10228089999873,462.10228089999873,462.10228089999873,i,0.5997423999942839,462.73442690001684,462.73442690001684,462.73442690001684,462.73442690001684,462.73442690001684,462.73442690001684,463.03329479999957,463.03329479999957,464.3297034999996,464.3297034999996,464.3297034999996,464.3297034999996,464.3297034999996,464.3297034999996,464.3297034999996,464.3297034999996,464.3297034999996,464.3297034999996,464.3297034999996,464.3297034999996,464.3297034999996,464.3297034999996,464.3297034999996,464.3297034999996,464.3297034999996,,,,,,46,42,54,48,54,61,None,None,50,50,[0.058333333333333334],[-0.2777777777777778],[1],[0],[0],[4.643664799979888],['tijiao'],-0.2,0,,[],[],[],[],[],[],[],7.083333333333334,1.778350300010061,473.3039708000142,475.06694059999427,466.8404160000209,466.8404160000209,466.8404160000209,466.8404160000209,466.8404160000209,466.8404160000209,466.8404160000209,466.8404160000209,0.006723099999362603,466.8404160000209,471.50637180000194,471.50637180000194,471.50637180000194,471.50637180000194,,,,,,,,,,,,,,,,251,f,18,2023-03-22_17h36.20.712,RL,2022.2.4,60.151750844111255,
0,0.3,0.225,0,35,35,35,,,,,,,,,,None,475.06694059999427,475.06694059999427,475.06694059999427,475.06694059999427,475.06694059999427,475.06694059999427,j,0.37203869997756556,475.4684620000189,475.4684620000189,475.4684620000189,475.4684620000189,475.4684620000189,475.4684620000189,475.7651743000024,475.7651743000024,477.6930185999954,477.6930185999954,477.6930185999954,477.6930185999954,477.6930185999954,477.6930185999954,477.6930185999954,477.6930185999954,477.6930185999954,477.6930185999954,477.6930185999954,477.6930185999954,477.6930185999954,477.6930185999954,477.6930185999954,477.6930185999954,477.6930185999954,480.2024032000045,480.2024032000045,480.2024032000045,480.2024032000045,480.2024032000045,45,35,54,39,39,40,4.0,2.027104300010251,,,[],[],[],[],[],[],[],-0.6,2,,[],[],[],[],[],[],[],None,None,482.25577210000483,484.10877540000365,,,,,,,,,,,,,,,,,,,,,,,,,,,,,,251,f,18,2023-03-22_17h36.20.712,RL,2022.2.4,60.151750844111255,
1,-0.3,-0.225,0,36,36,36,,,,,,,,,,None,484.10877540000365,484.10877540000365,484.10877540000365,484.10877540000365,484.10877540000365,484.10877540000365,r,0.6891802999889478,484.8238937999995,484.8238937999995,484.8238937999995,484.8238937999995,484.8238937999995,484.8238937999995,485.1231524000177,485.1231524000177,486.6021534000174,486.6021534000174,486.6021534000174,486.6021534000174,486.6021534000174,486.6021534000174,486.6021534000174,486.6021534000174,486.6021534000174,486.6021534000174,486.6021534000174,486.6021534000174,486.6021534000174,486.6021534000174,486.6021534000174,486.6021534000174,486.6021534000174,489.1114143000159,489.1114143000159,489.1114143000159,489.1114143000159,489.1114143000159,49,44,57,43,49,58,4.0,1.8093804999953136,,,[],[],[],[],[],[],[],0.6,2,,[],[],[],[],[],[],[],None,None,490.943649599998,492.91822630001116,,,,,,,,,,,,,,,,,,,,,,,,,,,,,,251,f,18,2023-03-22_17h36.20.712,RL,2022.2.4,60.151750844111255,
0,0.3,0.225,0,37,37,37,,,,,,,,,,None,492.91822630001116,492.91822630001116,492.91822630001116,492.91822630001116,492.91822630001116,492.91822630001116,f,1.0347579999943264,493.98305850001634,493.98305850001634,493.98305850001634,493.98305850001634,493.98305850001634,493.98305850001634,494.28125140001066,494.28125140001066,495.760523200006,495.760523200006,495.760523200006,495.760523200006,495.760523200006,495.760523200006,495.760523200006,495.760523200006,495.760523200006,495.760523200006,495.760523200006,495.760523200006,495.760523200006,495.760523200006,495.760523200006,495.760523200006,495.760523200006,,,,,,43,43,57,41,43,38,None,None,40,40,[0.03333333333333333],[-0.31851851851851853],[1],[0],[0],[4.69492359997821],['tijiao'],-0.2,0,,[],[],[],[],[],[],[],6.972222222222222,1.6469147999887355,504.65162770001916,506.53078250002,498.2705249999999,498.2705249999999,498.2705249999999,498.2705249999999,498.2705249999999,498.2705249999999,498.2705249999999,498.2705249999999,0.005732999998144805,498.2705249999999,502.9859476000129,502.9859476000129,502.9859476000129,502.9859476000129,,,,,,,,,,,,,,,,251,f,18,2023-03-22_17h36.20.712,RL,2022.2.4,60.151750844111255,
1,-0.3,-0.225,0,38,38,38,,,,,,,,,,None,506.53078250002,506.53078250002,506.53078250002,506.53078250002,506.53078250002,506.53078250002,i,0.7136418000154663,507.2625859999971,507.2625859999971,507.2625859999971,507.2625859999971,507.2625859999971,507.2625859999971,507.56160129999625,507.56160129999625,508.4260974000208,508.4260974000208,508.4260974000208,508.4260974000208,508.4260974000208,508.4260974000208,508.4260974000208,508.4260974000208,508.4260974000208,508.4260974000208,508.4260974000208,508.4260974000208,508.4260974000208,508.4260974000208,508.4260974000208,508.4260974000208,508.4260974000208,510.93508749999455,510.93508749999455,510.93508749999455,510.93508749999455,510.93508749999455,49,48,53,44,53,47,5.0,2.624967400013702,,,[],[],[],[],[],[],[],-0.2,3,,[],[],[],[],[],[],[],None,None,513.584891800012,515.2572644000174,,,,,,,,,,,,,,,,,,,,,,,,,,,,,,251,f,18,2023-03-22_17h36.20.712,RL,2022.2.4,60.151750844111255,
0,0.3,0.225,0,39,39,39,,,,,,,,,,None,515.2572644000174,515.2572644000174,515.2572644000174,515.2572644000174,515.2572644000174,515.2572644000174,j,0.9966960999881849,516.2712448000093,516.2712448000093,516.2712448000093,516.2712448000093,516.2712448000093,516.2712448000093,516.5704259000195,516.5704259000195,517.4013564000197,517.4013564000197,517.4013564000197,517.4013564000197,517.4013564000197,517.4013564000197,517.4013564000197,517.4013564000197,517.4013564000197,517.4013564000197,517.4013564000197,517.4013564000197,517.4013564000197,517.4013564000197,517.4013564000197,517.4013564000197,517.4013564000197,,,,,,49,38,50,51,51,61,None,None,,,[],[],[],[],[],[],[],-0.2,1,43,[0.0824074074074074],[-0.2861111111111111],[1],[0],[0],[4.0030402000120375],['tijiao_random_2'],6.9907407407407405,1.840503000013996,525.7939957000199,527.6233117000083,,,,,,,,,,,523.9355748000089,523.9355748000089,523.9355748000089,523.9355748000089,519.9203181000194,519.9203181000194,519.9203181000194,519.9203181000194,519.9203181000194,519.9203181000194,519.9203181000194,519.9203181000194,0.00584639998851344,519.9203181000194,,,,,,251,f,18,2023-03-22_17h36.20.712,RL,2022.2.4,60.151750844111255,
1,-0.3,-0.225,0,40,40,40,,,,,,,,,,None,527.6233117000083,527.6233117000083,527.6233117000083,527.6233117000083,527.6233117000083,527.6233117000083,r,0.8750620999780949,528.5211183000065,528.5211183000065,528.5211183000065,528.5211183000065,528.5211183000065,528.5211183000065,528.8204710000136,528.8204710000136,530.0336615999986,530.0336615999986,530.0336615999986,530.0336615999986,530.0336615999986,530.0336615999986,530.0336615999986,530.0336615999986,530.0336615999986,530.0336615999986,530.0336615999986,530.0336615999986,530.0336615999986,530.0336615999986,530.0336615999986,530.0336615999986,530.0336615999986,532.5427278999996,532.5427278999996,532.5427278999996,532.5427278999996,532.5427278999996,46,48,47,52,46,55,5.0,1.5945699000149034,,,[],[],[],[],[],[],[],-0.2,3,,[],[],[],[],[],[],[],None,None,534.1624412999954,536.1164367000165,,,,,,,,,,,,,,,,,,,,,,,,,,,,,,251,f,18,2023-03-22_17h36.20.712,RL,2022.2.4,60.151750844111255,
0,0.3,0.225,0,41,41,41,,,,,,,,,,None,536.1164367000165,536.1164367000165,536.1164367000165,536.1164367000165,536.1164367000165,536.1164367000165,i,0.47064149999641813,536.6158890000079,536.6158890000079,536.6158890000079,536.6158890000079,536.6158890000079,536.6158890000079,536.9145244999963,536.9145244999963,537.9952637999959,537.9952637999959,537.9952637999959,537.9952637999959,537.9952637999959,537.9952637999959,537.9952637999959,537.9952637999959,537.9952637999959,537.9952637999959,537.9952637999959,537.9952637999959,537.9952637999959,537.9952637999959,537.9952637999959,537.9952637999959,537.9952637999959,,,,,,51,49,51,55,51,36,None,None,,,[],[],[],[],[],[],[],0.6,1,50,[0.07037037037037037],[-0.30925925925925923],[1],[0],[0],[4.238255400006892],['tijiao_random_2'],7.231481481481481,1.904575400025351,546.6870668000192,548.5993335999956,,,,,,,,,,,544.7642686000036,544.7642686000036,544.7642686000036,544.7642686000036,540.512644100003,540.512644100003,540.512644100003,540.512644100003,540.512644100003,540.512644100003,540.512644100003,540.512644100003,0.0061815000080969185,540.512644100003,,,,,,251,f,18,2023-03-22_17h36.20.712,RL,2022.2.4,60.151750844111255,
1,-0.3,-0.225,0,42,42,42,,,,,,,,,,None,548.5993335999956,548.5993335999956,548.5993335999956,548.5993335999956,548.5993335999956,548.5993335999956,j,1.0101286999997683,549.6302346000157,549.6302346000157,549.6302346000157,549.6302346000157,549.6302346000157,549.6302346000157,549.9293939000054,549.9293939000054,551.0930344999942,551.0930344999942,551.0930344999942,551.0930344999942,551.0930344999942,551.0930344999942,551.0930344999942,551.0930344999942,551.0930344999942,551.0930344999942,551.0930344999942,551.0930344999942,551.0930344999942,551.0930344999942,551.0930344999942,551.0930344999942,551.0930344999942,553.602114600013,553.602114600013,553.602114600013,553.602114600013,553.602114600013,45,56,62,61,61,37,5.0,1.944044199975906,,,[],[],[],[],[],[],[],0.2,3,,[],[],[],[],[],[],[],None,None,555.5698900000134,557.4421544000215,,,,,,,,,,,,,,,,,,,,,,,,,,,,,,251,f,18,2023-03-22_17h36.20.712,RL,2022.2.4,60.151750844111255,
0,0.3,0.225,0,43,43,43,,,,,,,,,,None,557.4421544000215,557.4421544000215,557.4421544000215,557.4421544000215,557.4421544000215,557.4421544000215,j,0.3525115999800619,557.8245756000106,557.8245756000106,557.8245756000106,557.8245756000106,557.8245756000106,557.8245756000106,558.1234089000209,558.1234089000209,560.051418899995,560.051418899995,560.051418899995,560.051418899995,560.051418899995,560.051418899995,560.051418899995,560.051418899995,560.051418899995,560.051418899995,560.051418899995,560.051418899995,560.051418899995,560.051418899995,560.051418899995,560.051418899995,560.051418899995,562.5605613000225,562.5605613000225,562.5605613000225,562.5605613000225,562.5605613000225,52,53,57,48,48,57,4.0,2.4424188999983016,,,[],[],[],[],[],[],[],0.2,2,,[],[],[],[],[],[],[],None,None,565.0281698000035,566.9161180999945,,,,,,,,,,,,,,,,,,,,,,,,,,,,,,251,f,18,2023-03-22_17h36.20.712,RL,2022.2.4,60.151750844111255,
1,-0.3,-0.225,0,44,44,44,,,,,,,,,,None,566.9161180999945,566.9161180999945,566.9161180999945,566.9161180999945,566.9161180999945,566.9161180999945,i,0.49853079998865724,567.4316933000227,567.4316933000227,567.4316933000227,567.4316933000227,567.4316933000227,567.4316933000227,567.730950600002,567.730950600002,568.628321199998,568.628321199998,568.628321199998,568.628321199998,568.628321199998,568.628321199998,568.628321199998,568.628321199998,568.628321199998,568.628321199998,568.628321199998,568.628321199998,568.628321199998,568.628321199998,568.628321199998,568.628321199998,568.628321199998,571.1376251000038,571.1376251000038,571.1376251000038,571.1376251000038,571.1376251000038,49,45,60,55,60,43,5.0,1.7441875000076834,,,[],[],[],[],[],[],[],0.6,3,,[],[],[],[],[],[],[],None,None,572.9060039000178,574.8778298000107,,,,,,,,,,,,,,,,,,,,,,,,,,,,,,251,f,18,2023-03-22_17h36.20.712,RL,2022.2.4,60.151750844111255,
0,0.3,0.225,0,45,45,45,,,,,,,,,,None,574.8778298000107,574.8778298000107,574.8778298000107,574.8778298000107,574.8778298000107,574.8778298000107,j,0.7010268000012729,575.6093167000217,575.6093167000217,575.6093167000217,575.6093167000217,575.6093167000217,575.6093167000217,575.9081531999982,575.9081531999982,577.9026990999992,577.9026990999992,577.9026990999992,577.9026990999992,577.9026990999992,577.9026990999992,577.9026990999992,577.9026990999992,577.9026990999992,577.9026990999992,577.9026990999992,577.9026990999992,577.9026990999992,577.9026990999992,577.9026990999992,577.9026990999992,577.9026990999992,,,,,,51,50,56,62,62,53,None,None,60,60,[0.030555555555555555],[-0.2898148148148148],[1],[0],[0],[3.7804639999812935],['tijiao'],-0.6,0,,[],[],[],[],[],[],[],7.416666666666666,2.09339560000808,586.3292090000177,588.2079959000112,580.4130100000184,580.4130100000184,580.4130100000184,580.4130100000184,580.4130100000184,580.4130100000184,580.4130100000184,580.4130100000184,0.00569829999585636,580.4130100000184,584.216259000008,584.216259000008,584.216259000008,584.216259000008,,,,,,,,,,,,,,,,251,f,18,2023-03-22_17h36.20.712,RL,2022.2.4,60.151750844111255,
1,-0.3,-0.225,0,46,46,46,,,,,,,,,,None,588.2079959000112,588.2079959000112,588.2079959000112,588.2079959000112,588.2079959000112,588.2079959000112,f,0.6036203000112437,588.8400173000118,588.8400173000118,588.8400173000118,588.8400173000118,588.8400173000118,588.8400173000118,589.1392045000102,589.1392045000102,590.5019834999985,590.5019834999985,590.5019834999985,590.5019834999985,590.5019834999985,590.5019834999985,590.5019834999985,590.5019834999985,590.5019834999985,590.5019834999985,590.5019834999985,590.5019834999985,590.5019834999985,590.5019834999985,590.5019834999985,590.5019834999985,590.5019834999985,593.0108870000113,593.0108870000113,593.0108870000113,593.0108870000113,593.0108870000113,47,46,55,56,46,33,5.0,1.8775225999997929,,,[],[],[],[],[],[],[],-0.2,2,,[],[],[],[],[],[],[],None,None,594.9129006000003,596.7512940000161,,,,,,,,,,,,,,,,,,,,,,,,,,,,,,251,f,18,2023-03-22_17h36.20.712,RL,2022.2.4,60.151750844111255,
0,0.3,0.225,0,47,47,47,,,,,,,,,,None,596.7512940000161,596.7512940000161,596.7512940000161,596.7512940000161,596.7512940000161,596.7512940000161,j,0.6455430000205524,597.4169856000226,597.4169856000226,597.4169856000226,597.4169856000226,597.4169856000226,597.4169856000226,597.7155148000165,597.7155148000165,598.5462549000222,598.5462549000222,598.5629655999946,598.5629655999946,598.5629655999946,598.5629655999946,598.5629655999946,598.5629655999946,598.5629655999946,598.5629655999946,598.5629655999946,598.5629655999946,598.5629655999946,598.5629655999946,598.5629655999946,598.5629655999946,598.5629655999946,601.0721936000045,601.0721936000045,601.0721936000045,601.0721936000045,601.0721936000045,35,48,51,55,55,64,5.0,1.5782669000036549,,,[],[],[],[],[],[],[],-0.2,2,,[],[],[],[],[],[],[],None,None,602.6759794999962,604.3971326000174,,,,,,,,,,,,,,,,,,,,,,,,,,,,,,251,f,18,2023-03-22_17h36.20.712,RL,2022.2.4,60.151750844111255,
1,-0.3,-0.225,0,48,48,48,,,,,,,,,,None,604.3971326000174,604.3971326000174,604.3971326000174,604.3971326000174,604.3971326000174,604.3971326000174,i,0.5949123000027612,605.0129028999945,605.0129028999945,605.0129028999945,605.0129028999945,605.0129028999945,605.0129028999945,605.3113217000209,605.3113217000209,607.2229486000142,607.2229486000142,607.2229486000142,607.2229486000142,607.2229486000142,607.2229486000142,607.2229486000142,607.2229486000142,607.2229486000142,607.2229486000142,607.2229486000142,607.2229486000142,607.2229486000142,607.2229486000142,607.2229486000142,607.2229486000142,607.2229486000142,,,,,,40,50,47,58,47,62,None,None,,,[],[],[],[],[],[],[],-0.6,1,40,[0.025925925925925925],[-0.2833333333333333],[1],[0],[0],[4.653852799994638],['tijiao_random_2'],6.546296296296296,2.319310899998527,616.7456756000174,618.3920351999986,,,,,,,,,,,614.4087491999962,614.4087491999962,614.4087491999962,614.4087491999962,609.7398472000204,609.7398472000204,609.7398472000204,609.7398472000204,609.7398472000204,609.7398472000204,609.7398472000204,609.7398472000204,0.005404700001236051,609.7398472000204,,,,,,251,f,18,2023-03-22_17h36.20.712,RL,2022.2.4,60.151750844111255,
0,0.3,0.225,0,49,49,49,,,,,,,,,,None,618.3920351999986,618.3920351999986,618.3920351999986,618.3920351999986,618.3920351999986,618.3920351999986,j,0.326515599997947,618.7418848999951,618.7418848999951,618.7418848999951,618.7418848999951,618.7418848999951,618.7418848999951,619.0409663000028,619.0409663000028,620.2871173000021,620.2871173000021,620.2871173000021,620.2871173000021,620.2871173000021,620.2871173000021,620.2871173000021,620.2871173000021,620.2871173000021,620.2871173000021,620.2871173000021,620.2871173000021,620.2871173000021,620.2871173000021,620.2871173000021,620.2871173000021,620.2871173000021,622.7964552000049,622.7964552000049,622.7964552000049,622.7964552000049,622.7964552000049,25,50,52,53,53,29,5.0,2.1767467000172473,,,[],[],[],[],[],[],[],-0.2,3,,[],[],[],[],[],[],[],None,None,624.9979596000048,626.7860947000154,,,,,,,,,,,,,,,,,,,,,,,,,,,,,,251,f,18,2023-03-22_17h36.20.712,RL,2022.2.4,60.151750844111255,
1,-0.3,-0.225,0,50,50,50,,,,,,,,,,None,626.7860947000154,626.7860947000154,626.7860947000154,626.7860947000154,626.7860947000154,626.7860947000154,j,0.5422608000226319,627.3513715000008,627.3513715000008,627.3513715000008,627.3513715000008,627.3513715000008,627.3513715000008,627.650722499995,627.650722499995,629.6119744000025,629.6119744000025,629.6119744000025,629.6119744000025,629.6119744000025,629.6119744000025,629.6119744000025,629.6119744000025,629.6119744000025,629.6119744000025,629.6119744000025,629.6119744000025,629.6119744000025,629.6119744000025,629.6119744000025,629.6119744000025,629.6119744000025,,,,,,40,49,50,52,52,36,None,None,,,[],[],[],[],[],[],[],0.2,1,40,[0.025],[-0.2712962962962963],[1],[0],[0],[5.269329300004756],['tijiao_random_2'],6.583333333333334,1.62232490000315,639.0515728000028,640.681604900019,,,,,,,,,,,637.4112909999967,637.4112909999967,637.4112909999967,637.4112909999967,632.1285249000066,632.1285249000066,632.1285249000066,632.1285249000066,632.1285249000066,632.1285249000066,632.1285249000066,632.1285249000066,0.005911699990974739,632.1285249000066,,,,,,251,f,18,2023-03-22_17h36.20.712,RL,2022.2.4,60.151750844111255,
0,0.3,0.225,0,51,51,51,,,,,,,,,,None,640.681604900019,640.681604900019,640.681604900019,640.681604900019,640.681604900019,640.681604900019,j,0.548588599980576,641.2652768999978,641.2652768999978,641.2652768999978,641.2652768999978,641.2652768999978,641.2652768999978,641.5625997000025,641.5625997000025,643.5405828999938,643.5405828999938,643.5405828999938,643.5405828999938,643.5405828999938,643.5405828999938,643.5405828999938,643.5405828999938,643.5405828999938,643.5405828999938,643.5405828999938,643.5405828999938,643.5405828999938,643.5405828999938,643.5405828999938,643.5405828999938,643.5405828999938,,,,,,42,46,50,45,45,70,None,None,50,50,[0.08611111111111111],[-0.30462962962962964],[1],[0],[0],[4.096970600017812],['tijiao'],-0.6,0,,[],[],[],[],[],[],[],7.148148148148148,1.049325800006045,651.2352847000002,652.8149143000192,646.050845300022,646.050845300022,646.050845300022,646.050845300022,646.050845300022,646.050845300022,646.050845300022,646.050845300022,0.005684000003384426,646.050845300022,650.1671704000037,650.1671704000037,650.1671704000037,650.1671704000037,,,,,,,,,,,,,,,,251,f,18,2023-03-22_17h36.20.712,RL,2022.2.4,60.151750844111255,
1,-0.3,-0.225,0,52,52,52,,,,,,,,,,None,652.8149143000192,652.8149143000192,652.8149143000192,652.8149143000192,652.8149143000192,652.8149143000192,j,0.5489340999920387,653.3975737000001,653.3975737000001,653.3975737000001,653.3975737000001,653.3975737000001,653.3975737000001,653.6962927000131,653.6962927000131,655.2752777000132,655.2752777000132,655.2752777000132,655.2752777000132,655.2752777000132,655.2752777000132,655.2752777000132,655.2752777000132,655.2752777000132,655.2752777000132,655.2752777000132,655.2752777000132,655.2752777000132,655.2752777000132,655.2752777000132,655.2752777000132,655.2752777000132,657.7844951000006,657.7844951000006,657.7844951000006,657.7844951000006,657.7844951000006,52,48,53,49,49,69,4.0,2.1762276999943424,,,[],[],[],[],[],[],[],-0.2,2,,[],[],[],[],[],[],[],None,None,659.9866142999963,661.8234009000007,,,,,,,,,,,,,,,,,,,,,,,,,,,,,,251,f,18,2023-03-22_17h36.20.712,RL,2022.2.4,60.151750844111255,
0,0.3,0.225,0,53,53,53,,,,,,,,,,None,661.8234009000007,661.8234009000007,661.8234009000007,661.8234009000007,661.8234009000007,661.8234009000007,r,0.33464610000373796,662.1900088000111,662.1900088000111,662.1900088000111,662.1900088000111,662.1900088000111,662.1900088000111,662.488971600018,662.488971600018,663.3695081000042,663.3695081000042,663.3695081000042,663.3695081000042,663.3695081000042,663.3695081000042,663.3695081000042,663.3695081000042,663.3695081000042,663.3695081000042,663.3695081000042,663.3695081000042,663.3695081000042,663.3695081000042,663.3695081000042,663.3695081000042,663.3695081000042,,,,,,49,37,48,52,49,64,None,None,43,43,[0.021296296296296296],[-0.2814814814814815],[1],[0],[0],[5.326174500019988],['tijiao'],0.6,0,,[],[],[],[],[],[],[],6.324074074074074,3.194172899995465,674.4387834000227,675.984903900011,665.8803335000121,665.8803335000121,665.8803335000121,665.8803335000121,665.8803335000121,665.8803335000121,665.8803335000121,665.8803335000121,0.006181100005051121,665.8803335000121,671.2257964000164,671.2257964000164,671.2257964000164,671.2257964000164,,,,,,,,,,,,,,,,251,f,18,2023-03-22_17h36.20.712,RL,2022.2.4,60.151750844111255,
1,-0.3,-0.225,0,54,54,54,,,,,,,,,,None,675.984903900011,675.984903900011,675.984903900011,675.984903900011,675.984903900011,675.984903900011,j,0.54983530001482,676.5674682999961,676.5674682999961,676.5674682999961,676.5674682999961,676.5674682999961,676.5674682999961,676.8663263000199,676.8663263000199,678.1791084000142,678.1791084000142,678.1791084000142,678.1791084000142,678.1791084000142,678.1791084000142,678.1791084000142,678.1791084000142,678.1791084000142,678.1791084000142,678.1791084000142,678.1791084000142,678.1791084000142,678.1791084000142,678.1791084000142,678.1791084000142,678.1791084000142,,,,,,43,49,43,57,57,75,None,None,60,60,"[-0.001851851851851852, 0.013888888888888888]","[-0.23981481481481481, -0.30462962962962964]","[1, 1]","[0, 0]","[0, 0]","[3.596127199998591, 4.061835300002713]",['tijiao'],-0.2,0,,[],[],[],[],[],[],[],6.722222222222221,1.2130140000081155,686.0066609000205,687.8029330999998,680.690479300014,680.690479300014,680.690479300014,680.690479300014,680.690479300014,680.690479300014,680.690479300014,680.690479300014,0.006751400011125952,680.690479300014,684.7744579999999,684.7744579999999,684.7744579999999,684.7744579999999,,,,,,,,,,,,,,,,251,f,18,2023-03-22_17h36.20.712,RL,2022.2.4,60.151750844111255,
0,0.3,0.225,0,55,55,55,,,,,,,,,,None,687.8029330999998,687.8029330999998,687.8029330999998,687.8029330999998,687.8029330999998,687.8029330999998,j,0.3107309000042733,688.1359998999978,688.1359998999978,688.1359998999978,688.1359998999978,688.1359998999978,688.1359998999978,688.4346634999965,688.4346634999965,689.3820834000071,689.3820834000071,689.3820834000071,689.3820834000071,689.3820834000071,689.3820834000071,689.3820834000071,689.3820834000071,689.3820834000071,689.3820834000071,689.3820834000071,689.3820834000071,689.3820834000071,689.3820834000071,689.3820834000071,689.3820834000071,689.3820834000071,691.8912811000191,691.8912811000191,691.8912811000191,691.8912811000191,691.8912811000191,46,45,53,54,54,65,4.0,1.8108025999972597,,,[],[],[],[],[],[],[],0.6,2,,[],[],[],[],[],[],[],None,None,693.726461800019,695.7308837000164,,,,,,,,,,,,,,,,,,,,,,,,,,,,,,251,f,18,2023-03-22_17h36.20.712,RL,2022.2.4,60.151750844111255,
1,-0.3,-0.225,0,56,56,56,,,,,,,,,,None,695.7308837000164,695.7308837000164,695.7308837000164,695.7308837000164,695.7308837000164,695.7308837000164,i,0.5876635999884456,696.3465806000168,696.3465806000168,696.3465806000168,696.3465806000168,696.3465806000168,696.3465806000168,696.645720200002,696.645720200002,697.4602288000169,697.4602288000169,697.4602288000169,697.4602288000169,697.4602288000169,697.4602288000169,697.4602288000169,697.4602288000169,697.4602288000169,697.4602288000169,697.4602288000169,697.4602288000169,697.4602288000169,697.4602288000169,697.4602288000169,697.4602288000169,697.4602288000169,699.9690782999969,699.9690782999969,699.9690782999969,699.9690782999969,699.9690782999969,36,46,61,53,61,68,4.0,2.0100496000086423,,,[],[],[],[],[],[],[],0.2,3,,[],[],[],[],[],[],[],None,None,702.0034031000105,703.9587867000082,,,,,,,,,,,,,,,,,,,,,,,,,,,,,,251,f,18,2023-03-22_17h36.20.712,RL,2022.2.4,60.151750844111255,
0,0.3,0.225,0,57,57,57,,,,,,,,,,None,703.9587867000082,703.9587867000082,703.9587867000082,703.9587867000082,703.9587867000082,703.9587867000082,j,0.5497771000082139,704.5413282999943,704.5413282999943,704.5413282999943,704.5413282999943,704.5413282999943,704.5413282999943,704.8401019000157,704.8401019000157,705.6543581000005,705.6543581000005,705.6543581000005,705.6543581000005,705.6543581000005,705.6543581000005,705.6543581000005,705.6543581000005,705.6543581000005,705.6543581000005,705.6543581000005,705.6543581000005,705.6543581000005,705.6543581000005,705.6543581000005,705.6543581000005,705.6543581000005,,,,,,37,46,55,57,57,82,None,None,,,[],[],[],[],[],[],[],-0.2,1,45,[-0.005555555555555556],[-0.2814814814814815],[1],[0],[0],[8.325165500020375],['tijiao_random_2'],7.037037037037037,2.4690427999885287,719.0003605000093,720.7298668000149,,,,,,,,,,,716.5140291000134,716.5140291000134,716.5140291000134,716.5140291000134,708.174035700009,708.174035700009,708.174035700009,708.174035700009,708.174035700009,708.174035700009,708.174035700009,708.174035700009,0.005285199993522838,708.174035700009,,,,,,251,f,18,2023-03-22_17h36.20.712,RL,2022.2.4,60.151750844111255,
1,-0.3,-0.225,0,58,58,58,,,,,,,,,,None,720.7298668000149,720.7298668000149,720.7298668000149,720.7298668000149,720.7298668000149,720.7298668000149,i,0.359972000005655,721.1130411000049,721.1130411000049,721.1130411000049,721.1130411000049,721.1130411000049,721.1130411000049,721.4113768000097,721.4113768000097,722.8243513000198,722.8243513000198,722.8243513000198,722.8243513000198,722.8243513000198,722.8243513000198,722.8243513000198,722.8243513000198,722.8243513000198,722.8243513000198,722.8243513000198,722.8243513000198,722.8243513000198,722.8243513000198,722.8243513000198,722.8243513000198,722.8243513000198,,,,,,51,48,52,51,52,49,None,None,,,[],[],[],[],[],[],[],0.2,1,54,[0.05462962962962963],[-0.2814814814814815],[1],[0],[0],[5.93298360001063],['tijiao_random_2'],7.027777777777778,1.755142700014403,733.061669799994,734.6916343000194,,,,,,,,,,,731.2879116999975,731.2879116999975,731.2879116999975,731.2879116999975,725.3426119000069,725.3426119000069,725.3426119000069,725.3426119000069,725.3426119000069,725.3426119000069,725.3426119000069,725.3426119000069,0.005682699993485585,725.3426119000069,,,,,,251,f,18,2023-03-22_17h36.20.712,RL,2022.2.4,60.151750844111255,
0,0.3,0.225,0,59,59,59,,,,,,,,,,None,734.6916343000194,734.6916343000194,734.6916343000194,734.6916343000194,734.6916343000194,734.6916343000194,i,0.4651523999928031,735.1738766000199,735.1738766000199,735.1738766000199,735.1738766000199,735.1738766000199,735.1738766000199,735.4731029999966,735.4731029999966,736.9685673000058,736.9685673000058,736.9685673000058,736.9685673000058,736.9685673000058,736.9685673000058,736.9685673000058,736.9685673000058,736.9685673000058,736.9685673000058,736.9685673000058,736.9685673000058,736.9685673000058,736.9685673000058,736.9685673000058,736.9685673000058,736.9685673000058,739.4781182000006,739.4781182000006,739.4781182000006,739.4781182000006,739.4781182000006,42,57,60,47,60,70,5.0,1.6781728999922052,,,[],[],[],[],[],[],[],-0.2,2,,[],[],[],[],[],[],[],None,None,741.1806826000102,742.8194299000024,,,,,,,,,,,,,,,,,,,,,,,,,,,,,,251,f,18,2023-03-22_17h36.20.712,RL,2022.2.4,60.151750844111255,
1,-0.3,-0.225,0,60,60,60,,,,,,,,,,None,742.8194299000024,742.8194299000024,742.8194299000024,742.8194299000024,742.8194299000024,742.8194299000024,r,0.548685799993109,743.4015434000175,743.4015434000175,743.4015434000175,743.4015434000175,743.4015434000175,743.4015434000175,743.7006954000099,743.7006954000099,745.2462744000077,745.2462744000077,745.2462744000077,745.2462744000077,745.2462744000077,745.2462744000077,745.2462744000077,745.2462744000077,745.2462744000077,745.2462744000077,745.2462744000077,745.2462744000077,745.2462744000077,745.2462744000077,745.2462744000077,745.2462744000077,745.2462744000077,747.7555178000184,747.7555178000184,747.7555178000184,747.7555178000184,747.7555178000184,43,51,49,49,43,76,4.0,1.810766100010369,,,[],[],[],[],[],[],[],0.6,2,,[],[],[],[],[],[],[],None,None,749.5903667999955,751.4958215000224,,,,,,,,,,,,,,,,,,,,,,,,,,,,,,251,f,18,2023-03-22_17h36.20.712,RL,2022.2.4,60.151750844111255,
0,0.3,0.225,0,61,61,61,,,,,,,,,,None,751.4958215000224,751.4958215000224,751.4958215000224,751.4958215000224,751.4958215000224,751.4958215000224,f,0.6910621000279207,752.2107113999955,752.2107113999955,752.2107113999955,752.2107113999955,752.2107113999955,752.2107113999955,752.5099875000014,752.5099875000014,754.3212577000086,754.3212577000086,754.338276399998,754.338276399998,754.338276399998,754.338276399998,754.338276399998,754.338276399998,754.338276399998,754.338276399998,754.338276399998,754.338276399998,754.338276399998,754.338276399998,754.338276399998,754.338276399998,754.338276399998,756.8474409000191,756.8474409000191,756.8474409000191,756.8474409000191,756.8474409000191,40,54,52,48,54,65,4.0,1.461876499990467,,,[],[],[],[],[],[],[],0.6,2,,[],[],[],[],[],[],[],None,None,758.3331984000106,760.1389072000165,,,,,,,,,,,,,,,,,,,,,,,,,,,,,,251,f,18,2023-03-22_17h36.20.712,RL,2022.2.4,60.151750844111255,
1,-0.3,-0.225,0,62,62,62,,,,,,,,,,None,760.1389072000165,760.1389072000165,760.1389072000165,760.1389072000165,760.1389072000165,760.1389072000165,r,0.6175522000121418,760.7876650000107,760.7876650000107,760.7876650000107,760.7876650000107,760.7876650000107,760.7876650000107,761.0865728000063,761.0865728000063,762.1999788999965,762.1999788999965,762.1999788999965,762.1999788999965,762.1999788999965,762.1999788999965,762.1999788999965,762.1999788999965,762.1999788999965,762.1999788999965,762.1999788999965,762.1999788999965,762.1999788999965,762.1999788999965,762.1999788999965,762.1999788999965,762.1999788999965,764.7089878999977,764.7089878999977,764.7089878999977,764.7089878999977,764.7089878999977,42,38,51,49,42,66,4.0,1.296014700026717,,,[],[],[],[],[],[],[],0.6,2,,[],[],[],[],[],[],[],None,None,766.0325450999953,768.0341097000055,,,,,,,,,,,,,,,,,,,,,,,,,,,,,,251,f,18,2023-03-22_17h36.20.712,RL,2022.2.4,60.151750844111255,
0,0.3,0.225,0,63,63,63,,,,,,,,,,None,768.0341097000055,768.0341097000055,768.0341097000055,768.0341097000055,768.0341097000055,768.0341097000055,f,0.3294017000007443,768.3833463000192,768.3833463000192,768.3833463000192,768.3833463000192,768.3833463000192,768.3833463000192,768.6825341999938,768.6825341999938,770.3445451000007,770.3445451000007,770.3445451000007,770.3445451000007,770.3445451000007,770.3445451000007,770.3445451000007,770.3445451000007,770.3445451000007,770.3445451000007,770.3445451000007,770.3445451000007,770.3445451000007,770.3445451000007,770.3445451000007,770.3445451000007,770.3445451000007,772.8536994000024,772.8536994000024,772.8536994000024,772.8536994000024,772.8536994000024,42,48,60,49,48,58,3.0,1.8111916999914683,,,[],[],[],[],[],[],[],-0.2,3,,[],[],[],[],[],[],[],None,None,774.6891644000134,776.5939509000164,,,,,,,,,,,,,,,,,,,,,,,,,,,,,,251,f,18,2023-03-22_17h36.20.712,RL,2022.2.4,60.151750844111255,
1,-0.3,-0.225,0,64,64,64,,,,,,,,,,None,776.5939509000164,776.5939509000164,776.5939509000164,776.5939509000164,776.5939509000164,776.5939509000164,i,0.43847349999123253,777.0597710000002,777.0597710000002,777.0597710000002,777.0597710000002,777.0597710000002,777.0597710000002,777.3587312000163,777.3587312000163,778.455881300004,778.455881300004,778.455881300004,778.455881300004,778.455881300004,778.455881300004,778.455881300004,778.455881300004,778.455881300004,778.455881300004,778.455881300004,778.455881300004,778.455881300004,778.455881300004,778.455881300004,778.455881300004,778.455881300004,,,,,,35,45,58,52,58,68,None,None,54,54,[-0.017592592592592594],[-0.26666666666666666],[1],[0],[0],[6.804163299995707],['tijiao'],-0.2,0,,[],[],[],[],[],[],[],6.861111111111112,2.1794158999982756,789.9895812000032,791.9353905000025,780.9662281000055,780.9662281000055,780.9662281000055,780.9662281000055,780.9662281000055,780.9662281000055,780.9662281000055,780.9662281000055,0.006748799991328269,780.9662281000055,787.7914672000043,787.7914672000043,787.7914672000043,787.7914672000043,,,,,,,,,,,,,,,,251,f,18,2023-03-22_17h36.20.712,RL,2022.2.4,60.151750844111255,
0,0.3,0.225,0,65,65,65,,,,,,,,,,None,791.9353905000025,791.9353905000025,791.9353905000025,791.9353905000025,791.9353905000025,791.9353905000025,j,0.5831114999891724,792.5525486000115,792.5525486000115,792.5525486000115,792.5525486000115,792.5525486000115,792.5525486000115,792.8499167000118,792.8499167000118,794.3459157000179,794.3459157000179,794.3459157000179,794.3459157000179,794.3459157000179,794.3459157000179,794.3459157000179,794.3459157000179,794.3459157000179,794.3459157000179,794.3459157000179,794.3459157000179,794.3459157000179,794.3459157000179,794.3459157000179,794.3459157000179,794.3459157000179,796.854892000003,796.854892000003,796.854892000003,796.854892000003,796.854892000003,27,55,56,61,61,63,5.0,1.4778472000034526,,,[],[],[],[],[],[],[],0.2,2,,[],[],[],[],[],[],[],None,None,798.3572450000211,800.013379800017,,,,,,,,,,,,,,,,,,,,,,,,,,,,,,251,f,18,2023-03-22_17h36.20.712,RL,2022.2.4,60.151750844111255,
1,-0.3,-0.225,0,66,66,66,,,,,,,,,,None,800.013379800017,800.013379800017,800.013379800017,800.013379800017,800.013379800017,800.013379800017,j,0.6626643999770749,800.6951477999974,800.6951477999974,800.6951477999974,800.6951477999974,800.6951477999974,800.6951477999974,800.9940797000017,800.9940797000017,802.9888172000065,802.9888172000065,803.005336000002,803.005336000002,803.005336000002,803.005336000002,803.005336000002,803.005336000002,803.005336000002,803.005336000002,803.005336000002,803.005336000002,803.005336000002,803.005336000002,803.005336000002,803.005336000002,803.005336000002,,,,,,35,50,59,47,47,41,None,None,,,[],[],[],[],[],[],[],0.2,1,54,[0.017592592592592594],[-0.30462962962962964],[1],[0],[0],[3.4052525000006426],['tijiao_random_2'],6.935185185185185,1.1239955999772064,810.0848321999947,811.8477569000097,,,,,,,,,,,808.9418631000153,808.9418631000153,808.9418631000153,808.9418631000153,805.5243334000115,805.5243334000115,805.5243334000115,805.5243334000115,805.5243334000115,805.5243334000115,805.5243334000115,805.5243334000115,0.005680900008883327,805.5243334000115,,,,,,251,f,18,2023-03-22_17h36.20.712,RL,2022.2.4,60.151750844111255,
0,0.3,0.225,0,67,67,67,,,,,,,,,,None,811.8477569000097,811.8477569000097,811.8477569000097,811.8477569000097,811.8477569000097,811.8477569000097,i,0.8491466999985278,812.7291205000074,812.7291205000074,812.7291205000074,812.7291205000074,812.7291205000074,812.7291205000074,813.0280777000007,813.0280777000007,814.3745720000006,814.3745720000006,814.3745720000006,814.3745720000006,814.3745720000006,814.3745720000006,814.3745720000006,814.3745720000006,814.3745720000006,814.3745720000006,814.3745720000006,814.3745720000006,814.3745720000006,814.3745720000006,814.3745720000006,814.3745720000006,814.3745720000006,816.8834476000047,816.8834476000047,816.8834476000047,816.8834476000047,816.8834476000047,28,45,57,49,57,63,4.0,1.9108674000017345,,,[],[],[],[],[],[],[],0.2,2,,[],[],[],[],[],[],[],None,None,818.8186694000033,820.424318800011,,,,,,,,,,,,,,,,,,,,,,,,,,,,,,251,f,18,2023-03-22_17h36.20.712,RL,2022.2.4,60.151750844111255,
1,-0.3,-0.225,0,68,68,68,,,,,,,,,,None,820.424318800011,820.424318800011,820.424318800011,820.424318800011,820.424318800011,820.424318800011,j,0.3938573000195902,820.8402531000029,820.8402531000029,820.8402531000029,820.8402531000029,820.8402531000029,820.8402531000029,821.1392878000042,821.1392878000042,821.9870404000103,821.9870404000103,821.9870404000103,821.9870404000103,821.9870404000103,821.9870404000103,821.9870404000103,821.9870404000103,821.9870404000103,821.9870404000103,821.9870404000103,821.9870404000103,821.9870404000103,821.9870404000103,821.9870404000103,821.9870404000103,821.9870404000103,824.4957215000177,824.4957215000177,824.4957215000177,824.4957215000177,824.4957215000177,37,49,59,51,51,61,4.0,1.5114092000003438,,,[],[],[],[],[],[],[],0.6,3,,[],[],[],[],[],[],[],None,None,826.0325459000014,828.0369152000058,,,,,,,,,,,,,,,,,,,,,,,,,,,,,,251,f,18,2023-03-22_17h36.20.712,RL,2022.2.4,60.151750844111255,
0,0.3,0.225,0,69,69,69,,,,,,,,,,None,828.0369152000058,828.0369152000058,828.0369152000058,828.0369152000058,828.0369152000058,828.0369152000058,i,0.5115826000110246,828.5703445000108,828.5703445000108,828.5703445000108,828.5703445000108,828.5703445000108,828.5703445000108,828.8683044000063,828.8683044000063,830.1812407000107,830.1812407000107,830.1812407000107,830.1812407000107,830.1812407000107,830.1812407000107,830.1812407000107,830.1812407000107,830.1812407000107,830.1812407000107,830.1812407000107,830.1812407000107,830.1812407000107,830.1812407000107,830.1812407000107,830.1812407000107,830.1812407000107,,,,,,31,52,51,41,51,64,None,None,50,50,[0.05092592592592592],[-0.262037037037037],[1],[0],[0],[4.5290834000043105],['tijiao'],0.6,0,,[],[],[],[],[],[],[],7.037037037037037,1.580696099990746,838.8397973999963,840.8349218000076,832.6913679999998,832.6913679999998,832.6913679999998,832.6913679999998,832.6913679999998,832.6913679999998,832.6913679999998,832.6913679999998,0.005832800001371652,832.6913679999998,837.2402106999943,837.2402106999943,837.2402106999943,837.2402106999943,,,,,,,,,,,,,,,,251,f,18,2023-03-22_17h36.20.712,RL,2022.2.4,60.151750844111255,
1,-0.3,-0.225,0,70,70,70,,,,,,,,,,None,840.8349218000076,840.8349218000076,840.8349218000076,840.8349218000076,840.8349218000076,840.8349218000076,j,0.36633269998128526,841.2346026000159,841.2346026000159,841.2346026000159,841.2346026000159,841.2346026000159,841.2346026000159,841.5335890999995,841.5335890999995,842.3975224000169,842.3975224000169,842.4146101000078,842.4146101000078,842.4146101000078,842.4146101000078,842.4146101000078,842.4146101000078,842.4146101000078,842.4146101000078,842.4146101000078,842.4146101000078,842.4146101000078,842.4146101000078,842.4146101000078,842.4146101000078,842.4146101000078,,,,,,34,39,49,44,44,66,None,None,,,[],[],[],[],[],[],[],0.6,1,45,[0.021296296296296296],[-0.28888888888888886],[1],[0],[0],[3.8236666999873705],['tijiao_random_2'],7.462962962962963,2.0706668000202626,850.8569474999967,852.4201311000215,,,,,,,,,,,848.7680851000187,848.7680851000187,848.7680851000187,848.7680851000187,844.9310012000205,844.9310012000205,844.9310012000205,844.9310012000205,844.9310012000205,844.9310012000205,844.9310012000205,844.9310012000205,0.005836600001202896,844.9310012000205,,,,,,251,f,18,2023-03-22_17h36.20.712,RL,2022.2.4,60.151750844111255,
0,0.3,0.225,0,71,71,71,,,,,,,,,,None,852.4201311000215,852.4201311000215,852.4201311000215,852.4201311000215,852.4201311000215,852.4201311000215,f,0.9452288000029512,853.3847886000003,853.3847886000003,853.3847886000003,853.3847886000003,853.3847886000003,853.3847886000003,853.683976100001,853.683976100001,855.6120623000024,855.6120623000024,855.6120623000024,855.6120623000024,855.6120623000024,855.6120623000024,855.6120623000024,855.6120623000024,855.6120623000024,855.6120623000024,855.6120623000024,855.6120623000024,855.6120623000024,855.6120623000024,855.6120623000024,855.6120623000024,855.6120623000024,858.1210324999993,858.1210324999993,858.1210324999993,858.1210324999993,858.1210324999993,34,53,54,42,53,59,4.0,2.459031699982006,,,[],[],[],[],[],[],[],0.2,3,,[],[],[],[],[],[],[],None,None,860.6065095000085,862.2933469999989,,,,,,,,,,,,,,,,,,,,,,,,,,,,,,251,f,18,2023-03-22_17h36.20.712,RL,2022.2.4,60.151750844111255,
1,-0.3,-0.225,0,72,72,72,,,,,,,,,,None,862.2933469999989,862.2933469999989,862.2933469999989,862.2933469999989,862.2933469999989,862.2933469999989,i,0.36238350000348873,862.6763725000201,862.6763725000201,862.6763725000201,862.6763725000201,862.6763725000201,862.6763725000201,862.9752355999954,862.9752355999954,864.8865318000026,864.8865318000026,864.8865318000026,864.8865318000026,864.8865318000026,864.8865318000026,864.8865318000026,864.8865318000026,864.8865318000026,864.8865318000026,864.8865318000026,864.8865318000026,864.8865318000026,864.8865318000026,864.8865318000026,864.8865318000026,864.8865318000026,867.3954123000149,867.3954123000149,867.3954123000149,867.3954123000149,867.3954123000149,31,52,55,37,55,59,4.0,1.3787697000079788,,,[],[],[],[],[],[],[],0.6,3,,[],[],[],[],[],[],[],None,None,868.7981879000145,870.521026900009,,,,,,,,,,,,,,,,,,,,,,,,,,,,,,251,f,18,2023-03-22_17h36.20.712,RL,2022.2.4,60.151750844111255,
0,0.3,0.225,0,73,73,73,,,,,,,,,,None,870.521026900009,870.521026900009,870.521026900009,870.521026900009,870.521026900009,870.521026900009,i,0.3895797000150196,870.9367775999999,870.9367775999999,870.9367775999999,870.9367775999999,870.9367775999999,870.9367775999999,871.2360107999993,871.2360107999993,872.8977969000116,872.8977969000116,872.8977969000116,872.8977969000116,872.8977969000116,872.8977969000116,872.8977969000116,872.8977969000116,872.8977969000116,872.8977969000116,872.8977969000116,872.8977969000116,872.8977969000116,872.8977969000116,872.8977969000116,872.8977969000116,872.8977969000116,,,,,,42,49,57,45,57,41,None,None,,,[],[],[],[],[],[],[],-0.6,1,43,[0.08888888888888889],[-0.29814814814814816],[1],[0],[0],[5.784357700002147],['tijiao_random_2'],7.101851851851851,2.037142200017115,883.2685348000086,885.0976347000105,,,,,,,,,,,881.212949800014,881.212949800014,881.212949800014,881.212949800014,875.4155104999954,875.4155104999954,875.4155104999954,875.4155104999954,875.4155104999954,875.4155104999954,875.4155104999954,875.4155104999954,0.00593680000747554,875.4155104999954,,,,,,251,f,18,2023-03-22_17h36.20.712,RL,2022.2.4,60.151750844111255,
1,-0.3,-0.225,0,74,74,74,,,,,,,,,,None,885.0976347000105,885.0976347000105,885.0976347000105,885.0976347000105,885.0976347000105,885.0976347000105,i,1.2642952000023797,886.3944653000217,886.3944653000217,886.3944653000217,886.3944653000217,886.3944653000217,886.3944653000217,886.6934446000087,886.6934446000087,887.7407851000025,887.7407851000025,887.7407851000025,887.7407851000025,887.7407851000025,887.7407851000025,887.7407851000025,887.7407851000025,887.7407851000025,887.7407851000025,887.7407851000025,887.7407851000025,887.7407851000025,887.7407851000025,887.7407851000025,887.7407851000025,887.7407851000025,890.2500437000126,890.2500437000126,890.2500437000126,890.2500437000126,890.2500437000126,41,57,46,34,46,45,5.0,2.8580800000054296,,,[],[],[],[],[],[],[],0.2,3,,[],[],[],[],[],[],[],None,None,893.1335546000046,895.053674499999,,,,,,,,,,,,,,,,,,,,,,,,,,,,,,251,f,18,2023-03-22_17h36.20.712,RL,2022.2.4,60.151750844111255,
0,0.3,0.225,0,75,75,75,,,,,,,,,,q,1215.347720699996,1215.347720699996,1215.347720699996,1215.347720699996,1215.347720699996,1215.347720699996,i,1.060564199986402,1216.427347000019,1216.427347000019,1216.427347000019,1216.427347000019,1216.427347000019,1216.427347000019,1216.726430300012,1216.726430300012,1218.0228369999968,1218.0228369999968,1218.0228369999968,1218.0228369999968,1218.0228369999968,1218.0228369999968,1218.0228369999968,1218.0228369999968,1218.0228369999968,1218.0228369999968,1218.0228369999968,1218.0228369999968,1218.0228369999968,1218.0228369999968,1218.0228369999968,1218.0228369999968,1218.0228369999968,,,,,,40,49,49,39,49,44,None,None,49,49,[0.001851851851851852],[-0.28703703703703703],[1],[0],[0],[4.13035999998101],['tijiao'],0.2,0,,[],[],[],[],[],[],[],6.62962962962963,2.6282938000222202,1227.3294649000163,1228.8592734000122,1220.53311270001,1220.53311270001,1220.53311270001,1220.53311270001,1220.53311270001,1220.53311270001,1220.53311270001,1220.53311270001,0.005510399991180748,1220.53311270001,1224.682380400016,1224.682380400016,1224.682380400016,1224.682380400016,,,,,,,,,,,,,895.053674499999,895.053674499999,320.27038609999,251,f,18,2023-03-22_17h36.20.712,RL,2022.2.4,60.151750844111255,
1,-0.3,-0.225,0,76,76,76,,,,,,,,,,None,1228.8592734000122,1228.8592734000122,1228.8592734000122,1228.8592734000122,1228.8592734000122,1228.8592734000122,j,0.4108101000019815,1229.2945799000154,1229.2945799000154,1229.2945799000154,1229.2945799000154,1229.2945799000154,1229.2945799000154,1229.5913059000159,1229.5913059000159,1230.5884620000143,1230.5884620000143,1230.6052039000206,1230.6052039000206,1230.6052039000206,1230.6052039000206,1230.6052039000206,1230.6052039000206,1230.6052039000206,1230.6052039000206,1230.6052039000206,1230.6052039000206,1230.6052039000206,1230.6052039000206,1230.6052039000206,1230.6052039000206,1230.6052039000206,,,,,,38,60,53,42,42,65,None,None,,,[],[],[],[],[],[],[],0.6,1,45,[0.044444444444444446],[-0.2861111111111111],[1],[0],[0],[4.63563289999729],['tijiao_random_2'],6.861111111111112,2.403329099994153,1240.194357100001,1241.8572476000118,,,,,,,,,,,1237.772281500016,1237.772281500016,1237.772281500016,1237.772281500016,1233.1239780000178,1233.1239780000178,1233.1239780000178,1233.1239780000178,1233.1239780000178,1233.1239780000178,1233.1239780000178,1233.1239780000178,0.005824299994856119,1233.1239780000178,,,,,,251,f,18,2023-03-22_17h36.20.712,RL,2022.2.4,60.151750844111255,
0,0.3,0.225,0,77,77,77,,,,,,,,,,None,1241.8572476000118,1241.8572476000118,1241.8572476000118,1241.8572476000118,1241.8572476000118,1241.8572476000118,r,0.38964549999218434,1242.2732921999996,1242.2732921999996,1242.2732921999996,1242.2732921999996,1242.2732921999996,1242.2732921999996,1242.572255600011,1242.572255600011,1243.7196550000226,1243.7196550000226,1243.7196550000226,1243.7196550000226,1243.7196550000226,1243.7196550000226,1243.7196550000226,1243.7196550000226,1243.7196550000226,1243.7196550000226,1243.7196550000226,1243.7196550000226,1243.7196550000226,1243.7196550000226,1243.7196550000226,1243.7196550000226,1243.7196550000226,1246.2285389000026,1246.2285389000026,1246.2285389000026,1246.2285389000026,1246.2285389000026,39,51,43,32,39,51,4.0,1.9597960000101011,,,[],[],[],[],[],[],[],0.6,2,,[],[],[],[],[],[],[],None,None,1248.2242633000133,1249.801864900015,,,,,,,,,,,,,,,,,,,,,,,,,,,,,,251,f,18,2023-03-22_17h36.20.712,RL,2022.2.4,60.151750844111255,
1,-0.3,-0.225,0,78,78,78,,,,,,,,,,None,1249.801864900015,1249.801864900015,1249.801864900015,1249.801864900015,1249.801864900015,1249.801864900015,f,0.3951496999943629,1250.21830160002,1250.21830160002,1250.21830160002,1250.21830160002,1250.21830160002,1250.21830160002,1250.5169304000156,1250.5169304000156,1251.7470496000024,1251.7470496000024,1251.7470496000024,1251.7470496000024,1251.7470496000024,1251.7470496000024,1251.7470496000024,1251.7470496000024,1251.7470496000024,1251.7470496000024,1251.7470496000024,1251.7470496000024,1251.7470496000024,1251.7470496000024,1251.7470496000024,1251.7470496000024,1251.7470496000024,1254.2562371999957,1254.2562371999957,1254.2562371999957,1254.2562371999957,1254.2562371999957,40,51,57,38,51,59,4.0,1.378493600001093,,,[],[],[],[],[],[],[],0.2,2,,[],[],[],[],[],[],[],None,None,1255.6602063000028,1257.5149040000106,,,,,,,,,,,,,,,,,,,,,,,,,,,,,,251,f,18,2023-03-22_17h36.20.712,RL,2022.2.4,60.151750844111255,
0,0.3,0.225,0,79,79,79,,,,,,,,,,None,1257.5149040000106,1257.5149040000106,1257.5149040000106,1257.5149040000106,1257.5149040000106,1257.5149040000106,f,0.35230649998993613,1257.8978070000012,1257.8978070000012,1257.8978070000012,1257.8978070000012,1257.8978070000012,1257.8978070000012,1258.196660000016,1258.196660000016,1260.1242555000063,1260.1242555000063,1260.1242555000063,1260.1242555000063,1260.1242555000063,1260.1242555000063,1260.1242555000063,1260.1242555000063,1260.1242555000063,1260.1242555000063,1260.1242555000063,1260.1242555000063,1260.1242555000063,1260.1242555000063,1260.1242555000063,1260.1242555000063,1260.1242555000063,,,,,,49,47,61,32,47,38,None,None,45,45,[0.07962962962962963],[-0.26851851851851855],[1],[0],[0],[5.9893200999940746],['tijiao'],0.6,0,,[],[],[],[],[],[],[],7.083333333333334,1.79496990001644,1270.462286199996,1272.041928200022,1262.636334300012,1262.636334300012,1262.636334300012,1262.636334300012,1262.636334300012,1262.636334300012,1262.636334300012,1262.636334300012,0.007281600002897903,1262.636334300012,1268.6480495000142,1268.6480495000142,1268.6480495000142,1268.6480495000142,,,,,,,,,,,,,,,,251,f,18,2023-03-22_17h36.20.712,RL,2022.2.4,60.151750844111255,
1,-0.3,-0.225,0,80,80,80,,,,,,,,,,None,1272.041928200022,1272.041928200022,1272.041928200022,1272.041928200022,1272.041928200022,1272.041928200022,i,0.39178140001604334,1272.4581335000112,1272.4581335000112,1272.4581335000112,1272.4581335000112,1272.4581335000112,1272.4581335000112,1272.756875799998,1272.756875799998,1274.0530380000127,1274.0530380000127,1274.0530380000127,1274.0530380000127,1274.0530380000127,1274.0530380000127,1274.0530380000127,1274.0530380000127,1274.0530380000127,1274.0530380000127,1274.0530380000127,1274.0530380000127,1274.0530380000127,1274.0530380000127,1274.0530380000127,1274.0530380000127,1274.0530380000127,,,,,,46,54,54,38,54,53,None,None,54,54,[0.10555555555555556],[-0.29814814814814816],[1],[0],[0],[4.2465495000069495],['tijiao'],0.2,0,,[],[],[],[],[],[],[],7.027777777777778,1.8963107999879867,1282.7449958000216,1284.6242377000162,1276.5637525000202,1276.5637525000202,1276.5637525000202,1276.5637525000202,1276.5637525000202,1276.5637525000202,1276.5637525000202,1276.5637525000202,0.005337899987353012,1276.5637525000202,1280.8296819000097,1280.8296819000097,1280.8296819000097,1280.8296819000097,,,,,,,,,,,,,,,,251,f,18,2023-03-22_17h36.20.712,RL,2022.2.4,60.151750844111255,
0,0.3,0.225,0,81,81,81,,,,,,,,,,None,1284.6242377000162,1284.6242377000162,1284.6242377000162,1284.6242377000162,1284.6242377000162,1284.6242377000162,f,0.37652190000517294,1285.0236010000226,1285.0236010000226,1285.0236010000226,1285.0236010000226,1285.0236010000226,1285.0236010000226,1285.3221587000007,1285.3221587000007,1287.26729410002,1287.26729410002,1287.26729410002,1287.26729410002,1287.26729410002,1287.26729410002,1287.26729410002,1287.26729410002,1287.26729410002,1287.26729410002,1287.26729410002,1287.26729410002,1287.26729410002,1287.26729410002,1287.26729410002,1287.26729410002,1287.26729410002,,,,,,43,53,51,50,53,43,None,None,54,54,[0.08611111111111111],[-0.30092592592592593],[1],[0],[0],[7.204931800020859],['tijiao'],-0.6,0,,[],[],[],[],[],[],[],6.981481481481481,1.5463955999875907,1298.56865500001,1300.1818483000097,1289.777537100017,1289.777537100017,1289.777537100017,1289.777537100017,1289.777537100017,1289.777537100017,1289.777537100017,1289.777537100017,0.005478900013258681,1289.777537100017,1297.003330800013,1297.003330800013,1297.003330800013,1297.003330800013,,,,,,,,,,,,,,,,251,f,18,2023-03-22_17h36.20.712,RL,2022.2.4,60.151750844111255,
1,-0.3,-0.225,0,82,82,82,,,,,,,,,,None,1300.1818483000097,1300.1818483000097,1300.1818483000097,1300.1818483000097,1300.1818483000097,1300.1818483000097,i,0.7539349000144284,1300.9635781999968,1300.9635781999968,1300.9635781999968,1300.9635781999968,1300.9635781999968,1300.9635781999968,1301.2621542999987,1301.2621542999987,1302.0769727000152,1302.0769727000152,1302.0769727000152,1302.0769727000152,1302.0769727000152,1302.0769727000152,1302.0769727000152,1302.0769727000152,1302.0769727000152,1302.0769727000152,1302.0769727000152,1302.0769727000152,1302.0769727000152,1302.0769727000152,1302.0769727000152,1302.0769727000152,1302.0769727000152,1304.5859485999972,1304.5859485999972,1304.5859485999972,1304.5859485999972,1304.5859485999972,49,50,57,43,57,35,4.0,1.728052899998147,,,[],[],[],[],[],[],[],0.6,3,,[],[],[],[],[],[],[],None,None,1306.3380045999947,1307.944244800019,,,,,,,,,,,,,,,,,,,,,,,,,,,,,,251,f,18,2023-03-22_17h36.20.712,RL,2022.2.4,60.151750844111255,
0,0.3,0.225,0,83,83,83,,,,,,,,,,None,1307.944244800019,1307.944244800019,1307.944244800019,1307.944244800019,1307.944244800019,1307.944244800019,f,0.6370250000036322,1308.609314900008,1308.609314900008,1308.609314900008,1308.609314900008,1308.609314900008,1308.609314900008,1308.9079128000012,1308.9079128000012,1309.7890485000098,1309.7890485000098,1309.7890485000098,1309.7890485000098,1309.7890485000098,1309.7890485000098,1309.7890485000098,1309.7890485000098,1309.7890485000098,1309.7890485000098,1309.7890485000098,1309.7890485000098,1309.7890485000098,1309.7890485000098,1309.7890485000098,1309.7890485000098,1309.7890485000098,,,,,,44,47,55,42,47,49,None,None,45,45,[0.041666666666666664],[-0.30185185185185187],[1],[0],[0],[3.3987183999852277],['tijiao'],0.2,0,,[],[],[],[],[],[],[],6.814814814814815,1.4481656999851111,1317.1842151000164,1318.913844900002,1312.2994926999963,1312.2994926999963,1312.2994926999963,1312.2994926999963,1312.2994926999963,1312.2994926999963,1312.2994926999963,1312.2994926999963,0.005405900010373443,1312.2994926999963,1315.7170807000075,1315.7170807000075,1315.7170807000075,1315.7170807000075,,,,,,,,,,,,,,,,251,f,18,2023-03-22_17h36.20.712,RL,2022.2.4,60.151750844111255,
1,-0.3,-0.225,0,84,84,84,,,,,,,,,,None,1318.913844900002,1318.913844900002,1318.913844900002,1318.913844900002,1318.913844900002,1318.913844900002,i,0.48017739999340847,1319.4129601000168,1319.4129601000168,1319.4129601000168,1319.4129601000168,1319.4129601000168,1319.4129601000168,1319.7121583000117,1319.7121583000117,1320.7426840999979,1320.7426840999979,1320.7426840999979,1320.7426840999979,1320.7426840999979,1320.7426840999979,1320.7426840999979,1320.7426840999979,1320.7426840999979,1320.7426840999979,1320.7426840999979,1320.7426840999979,1320.7426840999979,1320.7426840999979,1320.7426840999979,1320.7426840999979,1320.7426840999979,1323.2513928000117,1323.2513928000117,1323.2513928000117,1323.2513928000117,1323.2513928000117,47,41,61,37,61,43,5.0,1.4278231000062078,,,[],[],[],[],[],[],[],0.2,3,,[],[],[],[],[],[],[],None,None,1324.7043764000118,1326.6097415999975,,,,,,,,,,,,,,,,,,,,,,,,,,,,,,251,f,18,2023-03-22_17h36.20.712,RL,2022.2.4,60.151750844111255,
0,0.3,0.225,0,85,85,85,,,,,,,,,,None,1326.6097415999975,1326.6097415999975,1326.6097415999975,1326.6097415999975,1326.6097415999975,1326.6097415999975,j,0.3200951000035275,1326.9606819000037,1326.9606819000037,1326.9606819000037,1326.9606819000037,1326.9606819000037,1326.9606819000037,1327.2582068000047,1327.2582068000047,1329.1365103000135,1329.1365103000135,1329.1365103000135,1329.1365103000135,1329.1365103000135,1329.1365103000135,1329.1365103000135,1329.1365103000135,1329.1365103000135,1329.1365103000135,1329.1365103000135,1329.1365103000135,1329.1365103000135,1329.1365103000135,1329.1365103000135,1329.1365103000135,1329.1365103000135,1331.6454940999974,1331.6454940999974,1331.6454940999974,1331.6454940999974,1331.6454940999974,44,49,52,39,39,33,4.0,2.010383399989223,,,[],[],[],[],[],[],[],0.6,2,,[],[],[],[],[],[],[],None,None,1333.6827367000224,1335.502126300009,,,,,,,,,,,,,,,,,,,,,,,,,,,,,,251,f,18,2023-03-22_17h36.20.712,RL,2022.2.4,60.151750844111255,
1,-0.3,-0.225,0,86,86,86,,,,,,,,,,None,1335.502126300009,1335.502126300009,1335.502126300009,1335.502126300009,1335.502126300009,1335.502126300009,i,0.4987548000062816,1336.0345278000168,1336.0345278000168,1336.0345278000168,1336.0345278000168,1336.0345278000168,1336.0345278000168,1336.333469300007,1336.333469300007,1337.8954957000096,1337.8954957000096,1337.8954957000096,1337.8954957000096,1337.8954957000096,1337.8954957000096,1337.8954957000096,1337.8954957000096,1337.8954957000096,1337.8954957000096,1337.8954957000096,1337.8954957000096,1337.8954957000096,1337.8954957000096,1337.8954957000096,1337.8954957000096,1337.8954957000096,,,,,,39,49,48,32,48,62,None,None,50,50,[0.011111111111111112],[-0.33240740740740743],[1],[0],[0],[4.611455499980366],['tijiao'],0.2,0,,[],[],[],[],[],[],[],6.916666666666667,1.2491137000033632,1346.3047773000144,1348.1342481000174,1340.405985200021,1340.405985200021,1340.405985200021,1340.405985200021,1340.405985200021,1340.405985200021,1340.405985200021,1340.405985200021,0.005637399997795001,1340.405985200021,1345.0368081000051,1345.0368081000051,1345.0368081000051,1345.0368081000051,,,,,,,,,,,,,,,,251,f,18,2023-03-22_17h36.20.712,RL,2022.2.4,60.151750844111255,
0,0.3,0.225,0,87,87,87,,,,,,,,,,None,1348.1342481000174,1348.1342481000174,1348.1342481000174,1348.1342481000174,1348.1342481000174,1348.1342481000174,i,0.4381957000005059,1348.601498700009,1348.601498700009,1348.601498700009,1348.601498700009,1348.601498700009,1348.601498700009,1348.899302500009,1348.899302500009,1350.0128663000069,1350.0128663000069,1350.0128663000069,1350.0128663000069,1350.0128663000069,1350.0128663000069,1350.0128663000069,1350.0128663000069,1350.0128663000069,1350.0128663000069,1350.0128663000069,1350.0128663000069,1350.0128663000069,1350.0128663000069,1350.0128663000069,1350.0128663000069,1350.0128663000069,,,,,,44,42,52,29,52,59,None,None,50,50,[0.05462962962962963],[-0.29074074074074074],[1],[0],[0],[4.147420299996156],['tijiao'],-0.6,0,,[],[],[],[],[],[],[],7.064814814814815,3.790840000001481,1360.4994556000165,1362.4119901999948,1352.522752400022,1352.522752400022,1352.522752400022,1352.522752400022,1352.522752400022,1352.522752400022,1352.522752400022,1352.522752400022,0.0050626000156626105,1352.522752400022,1356.689864200016,1356.689864200016,1356.689864200016,1356.689864200016,,,,,,,,,,,,,,,,251,f,18,2023-03-22_17h36.20.712,RL,2022.2.4,60.151750844111255,
1,-0.3,-0.225,0,88,88,88,,,,,,,,,,None,1362.4119901999948,1362.4119901999948,1362.4119901999948,1362.4119901999948,1362.4119901999948,1362.4119901999948,i,0.4078546999953687,1362.844771300006,1362.844771300006,1362.844771300006,1362.844771300006,1362.844771300006,1362.844771300006,1363.143547500018,1363.143547500018,1364.2572036000201,1364.2572036000201,1364.2572036000201,1364.2572036000201,1364.2572036000201,1364.2572036000201,1364.2572036000201,1364.2572036000201,1364.2572036000201,1364.2572036000201,1364.2572036000201,1364.2572036000201,1364.2572036000201,1364.2572036000201,1364.2572036000201,1364.2572036000201,1364.2572036000201,1366.7660094000166,1366.7660094000166,1366.7660094000166,1366.7660094000166,1366.7660094000166,50,52,57,30,57,58,5.0,1.6447908999980427,,,[],[],[],[],[],[],[],0.6,3,,[],[],[],[],[],[],[],None,None,1368.435229499999,1370.174068000022,,,,,,,,,,,,,,,,,,,,,,,,,,,,,,251,f,18,2023-03-22_17h36.20.712,RL,2022.2.4,60.151750844111255,
0,0.3,0.225,0,89,89,89,,,,,,,,,,None,1370.174068000022,1370.174068000022,1370.174068000022,1370.174068000022,1370.174068000022,1370.174068000022,j,0.4507583000231534,1370.6566762000148,1370.6566762000148,1370.6566762000148,1370.6566762000148,1370.6566762000148,1370.6566762000148,1370.955805900012,1370.955805900012,1372.0359178000072,1372.0359178000072,1372.0359178000072,1372.0359178000072,1372.0359178000072,1372.0359178000072,1372.0359178000072,1372.0359178000072,1372.0359178000072,1372.0359178000072,1372.0359178000072,1372.0359178000072,1372.0359178000072,1372.0359178000072,1372.0359178000072,1372.0359178000072,1372.0359178000072,,,,,,42,52,49,32,32,45,None,None,,,[],[],[],[],[],[],[],-0.2,1,40,[0.08333333333333333],[-0.2777777777777778],[1],[0],[0],[3.590630400023656],['tijiao_random_2'],7.064814814814815,1.7546391000214498,1379.9299520000059,1381.8256715000025,,,,,,,,,,,1378.1574088000052,1378.1574088000052,1378.1574088000052,1378.1574088000052,1374.5521390000067,1374.5521390000067,1374.5521390000067,1374.5521390000067,1374.5521390000067,1374.5521390000067,1374.5521390000067,1374.5521390000067,0.005412200000137091,1374.5521390000067,,,,,,251,f,18,2023-03-22_17h36.20.712,RL,2022.2.4,60.151750844111255,
1,-0.3,-0.225,0,90,90,90,,,,,,,,,,None,1381.8256715000025,1381.8256715000025,1381.8256715000025,1381.8256715000025,1381.8256715000025,1381.8256715000025,i,0.48222929998883046,1382.3416425000178,1382.3416425000178,1382.3416425000178,1382.3416425000178,1382.3416425000178,1382.3416425000178,1382.640298000013,1382.640298000013,1383.654328100005,1383.654328100005,1383.654328100005,1383.654328100005,1383.654328100005,1383.654328100005,1383.654328100005,1383.654328100005,1383.654328100005,1383.654328100005,1383.654328100005,1383.654328100005,1383.654328100005,1383.654328100005,1383.654328100005,1383.654328100005,1383.654328100005,,,,,,49,52,52,22,52,60,None,None,50,50,[0.044444444444444446],[-0.29814814814814816],[1],[0],[0],[4.111847799998941],['tijiao'],0.6,0,,[],[],[],[],[],[],[],6.972222222222222,2.7613532000104897,1393.077520699997,1395.022835300013,1386.166054900008,1386.166054900008,1386.166054900008,1386.166054900008,1386.166054900008,1386.166054900008,1386.166054900008,1386.166054900008,0.007124900002963841,1386.166054900008,1390.296898200002,1390.296898200002,1390.296898200002,1390.296898200002,,,,,,,,,,,,,,,,251,f,18,2023-03-22_17h36.20.712,RL,2022.2.4,60.151750844111255,
