bandit0,black_x_pos_random,black_y_pos_random,trials.thisRepN,trials.thisTrialN,trials.thisN,trials.thisIndex,instru_img1.started,instru_img1.stopped,instru_resp.keys,instru_resp.rt,instru_resp.started,instru_resp.stopped,instru_img2.started,instru_img2.stopped,instru_resp2.keys,instru_resp2.rt,instru_resp2.started,instru_resp2.stopped,fixbefore_2.started,fixbefore_2.stopped,rest_image.started,rest_image.stopped,rest_response.keys,rest_response.started,rest_response.stopped,red.started,red.stopped,green.started,green.stopped,yellow.started,yellow.stopped,blue.started,blue.stopped,choose_bandit.keys,choose_bandit.rt,choose_bandit.started,choose_bandit.stopped,Fixation.started,Fixation.stopped,black.started,black.stopped,red_2.started,red_2.stopped,green_2.started,green_2.stopped,yellow_2.started,yellow_2.stopped,blue_2.started,blue_2.stopped,fixation_2.started,fixation_2.stopped,docs.started,docs.stopped,wait_playerB.started,wait_playerB.stopped,black_com.started,black_com.stopped,reward_sub.started,reward_sub.stopped,palyerb.started,palyerb.stopped,reward__sub.started,reward__sub.stopped,compare.started,compare.stopped,red_compare.started,red_compare.stopped,green_com.started,green_com.stopped,yellow_com.started,yellow_com.stopped,blue_com.started,blue_com.stopped,rewardyellow,rewardred,rewardblue,rewardgreen,subchoose,playerb,image_3.started,image_3.stopped,slider.response,slider.rt,slider.started,slider.stopped,text.started,text.stopped,image_4.started,image_4.stopped,image_5.started,image_5.stopped,expectself.text,expectself.started,expectself.stopped,value_expect_self,expect_self_black.started,expect_self_black.stopped,expect_self.started,expect_self.stopped,expect_self_red.started,expect_self_red.stopped,expect_self_green.started,expect_self_green.stopped,expect_self_yellow.started,expect_self_yellow.stopped,expect_self_blue.started,expect_self_blue.stopped,tijiao.started,tijiao.stopped,tijiao_click.started,tijiao_click.stopped,check.started,check.stopped,random_whicharm,whether_ask,jiantou_random.started,jiantou_random.stopped,expect_red.started,expect_red.stopped,expect_green.started,expect_green.stopped,expect_yellow.started,expect_yellow.stopped,expect_blue.started,expect_blue.stopped,expect_random_2.started,expect_random_2.stopped,expect_random_3.text,expect_random_3.started,expect_random_3.stopped,tijiao_random_2.started,tijiao_random_2.stopped,tijiao_random.started,tijiao_random.stopped,check_2.started,check_2.stopped,slider_2.response,slider_2.rt,slider_2.started,slider_2.stopped,image_7.started,image_7.stopped,confi.started,confi.stopped,notconfi.started,notconfi.stopped,bigx.started,bigx.stopped,intertrialfix.started,intertrialfix.stopped,tijiao_random.x,tijiao_random.y,tijiao_random.leftButton,tijiao_random.midButton,tijiao_random.rightButton,tijiao_random.time,tijiao_random.clicked_name,tijiao_click.x,tijiao_click.y,tijiao_click.leftButton,tijiao_click.midButton,tijiao_click.rightButton,tijiao_click.time,tijiao_click.clicked_name,rest_response.rt,participant,Gender,Age,date,expName,psychopyVersion,frameRate,
,,,,,,,24.62613450002391,None,space,26.993397300015204,24.62613450002391,None,,,,,,,,,,,,,,,,,,,,,,,,,,,,,,,,,,,,,,,,,,,,,,,,,,,,,,,,,,,,,,,,,,,,,,,,,,,,,,,,,,,,,,,,,,,,,,,,,,,,,,,,,,,,,,,,,,,,,,,,,,,,,,,,,,,,,,,,,,,,,,,,,,,,,,,,,,252,f,22,2023_Mar_22_1736,RL,2021.2.3,60.012446578385614,
,,,,,,,,,,,,,51.660132899996825,None,s,14.12901419994887,51.660132899996825,None,,,,,,,,,,,,,,,,,,,,,,,,,,,,,,,,,,,,,,,,,,,,,,,,,,,,,,,,,,,,,,,,,,,,,,,,,,,,,,,,,,,,,,,,,,,,,,,,,,,,,,,,,,,,,,,,,,,,,,,,,,,,,,,,,,,,,,,,,,,,,,,,,,,,252,f,22,2023_Mar_22_1736,RL,2021.2.3,60.012446578385614,
1,-0.3,-0.225,0,0,0,0,,,,,,,,,,,,,65.81673970003612,None,None,None,None,None,None,66.92563840001822,None,66.92563840001822,None,66.92563840001822,None,66.92563840001822,None,i,0.44343169999774545,66.92563840001822,None,66.92563840001822,None,67.48676210001577,None,67.48676210001577,None,67.48676210001577,None,67.48676210001577,None,67.48676210001577,None,67.48676210001577,None,67.7746988000581,69.24239800008945,67.7746988000581,69.24239800008945,69.34076230006758,None,69.34076230006758,None,69.34076230006758,None,69.34076230006758,None,69.34076230006758,None,69.34076230006758,None,69.34076230006758,None,69.34076230006758,None,69.34076230006758,None,73,40,57,48,57,71,71.95550570008345,None,3.0,3.317727499990724,71.95550570008345,None,71.95550570008345,None,71.95550570008345,None,71.95550570008345,None,,None,None,,None,None,None,None,None,None,None,None,None,None,None,None,None,None,None,None,None,None,0.6,2,None,None,None,None,None,None,None,None,None,None,None,None,,None,None,None,None,None,None,None,None,None,None,None,None,None,None,None,None,None,None,None,None,75.87419530004263,None,,,,,,,,,,,,,,,,252,f,22,2023_Mar_22_1736,RL,2021.2.3,60.012446578385614,
0,0.3,0.225,0,1,1,1,,,,,,,,,,,,,,,None,None,None,None,None,77.70823870005552,None,77.70823870005552,None,77.70823870005552,None,77.70823870005552,None,f,0.4807943000923842,77.70823870005552,None,77.70823870005552,None,78.23541289998684,None,78.23541289998684,None,78.23541289998684,None,78.23541289998684,None,78.23541289998684,None,78.23541289998684,None,78.5321495999815,None,78.5321495999815,None,80.43542019999586,None,80.43542019999586,None,80.43542019999586,None,80.43542019999586,None,80.43542019999586,None,80.43542019999586,None,80.43542019999586,None,80.43542019999586,None,80.43542019999586,None,72,30,59,48,30,50,82.95209540007636,None,3.0,2.3213467000750825,82.95209540007636,None,82.95209540007636,None,82.95209540007636,None,82.95209540007636,None,,None,None,,None,None,None,None,None,None,None,None,None,None,None,None,None,None,None,None,None,None,0.6,3,None,None,None,None,None,None,None,None,None,None,None,None,,None,None,None,None,None,None,None,None,None,None,None,None,None,None,None,None,None,None,None,None,85.34100380004384,None,,,,,,,,,,,,,,,,252,f,22,2023_Mar_22_1736,RL,2021.2.3,60.012446578385614,
1,-0.3,-0.225,0,2,2,2,,,,,,,,,,,,,,,None,None,None,None,None,87.0427812000271,None,87.0427812000271,None,87.0427812000271,None,87.0427812000271,None,f,0.43632089998573065,87.0427812000271,None,87.0427812000271,None,87.52689450001344,None,87.52689450001344,None,87.52689450001344,None,87.52689450001344,None,87.52689450001344,None,87.52689450001344,None,87.82191599998623,89.00627950008493,87.82191599998623,89.00627950008493,89.04115290008485,None,89.04115290008485,None,89.04115290008485,None,89.04115290008485,None,89.04115290008485,None,89.04115290008485,None,89.04115290008485,None,89.04115290008485,None,89.04115290008485,None,73,32,66,51,32,51,None,None,None,None,None,None,None,None,None,None,None,None,,None,None,,None,None,None,None,None,None,None,None,None,None,None,None,None,None,None,None,None,None,-0.2,1,91.63913520006463,None,91.63913520006463,None,91.63913520006463,None,91.63913520006463,None,91.63913520006463,None,91.63913520006463,None,25,91.63913520006463,None,91.63913520006463,None,0.012319689965806901,None,91.63913520006463,None,4.046875,2.753260599914938,103.47386290004943,None,103.47386290004943,None,103.47386290004943,None,103.47386290004943,None,None,None,106.24081039999146,None,-0.07942708333333333,-0.26171875,1,0,0,11.771172999986447,tijiao_random_2,,,,,,,,,252,f,22,2023_Mar_22_1736,RL,2021.2.3,60.012446578385614,
0,0.3,0.225,0,3,3,3,,,,,,,,,,,,,,,None,None,None,None,None,107.97357490006834,None,107.97357490006834,None,107.97357490006834,None,107.97357490006834,None,i,0.39573509991168976,107.97357490006834,None,107.97357490006834,None,108.40860180009622,None,108.40860180009622,None,108.40860180009622,None,108.40860180009622,None,108.40860180009622,None,108.40860180009622,None,108.70312399999239,109.85410550003871,108.70312399999239,109.85410550003871,109.8874815000454,None,109.8874815000454,None,109.8874815000454,None,109.8874815000454,None,109.8874815000454,None,109.8874815000454,None,109.8874815000454,None,109.8874815000454,None,109.8874815000454,None,72,45,52,49,52,46,112.410149000003,None,4.0,2.932737600058317,112.410149000003,None,112.410149000003,None,112.410149000003,None,112.410149000003,None,,None,None,,None,None,None,None,None,None,None,None,None,None,None,None,None,None,None,None,None,None,-0.6,2,None,None,None,None,None,None,None,None,None,None,None,None,,None,None,None,None,None,None,None,None,None,None,None,None,None,None,None,None,None,None,None,None,115.39683800004423,None,,,,,,,,,,,,,,,,252,f,22,2023_Mar_22_1736,RL,2021.2.3,60.012446578385614,
1,-0.3,-0.225,0,4,4,4,,,,,,,,,,,,,,,None,None,None,None,None,116.97991610004101,None,116.97991610004101,None,116.97991610004101,None,116.97991610004101,None,j,0.4994841000298038,116.97991610004101,None,116.97991610004101,None,117.52136290003546,None,117.52136290003546,None,117.52136290003546,None,117.52136290003546,None,117.52136290003546,None,117.52136290003546,None,117.8094962000614,118.69341429998167,117.8094962000614,118.69341429998167,118.72629640006926,None,118.72629640006926,None,118.72629640006926,None,118.72629640006926,None,118.72629640006926,None,118.72629640006926,None,118.72629640006926,None,118.72629640006926,None,118.72629640006926,None,75,43,60,46,46,65,121.24938910000492,None,3.0,1.7005369999678805,121.24938910000492,None,121.24938910000492,None,121.24938910000492,None,121.24938910000492,None,,None,None,,None,None,None,None,None,None,None,None,None,None,None,None,None,None,None,None,None,None,0.2,3,None,None,None,None,None,None,None,None,None,None,None,None,,None,None,None,None,None,None,None,None,None,None,None,None,None,None,None,None,None,None,None,None,123.00045190006495,None,,,,,,,,,,,,,,,,252,f,22,2023_Mar_22_1736,RL,2021.2.3,60.012446578385614,
0,0.3,0.225,0,5,5,5,,,,,,,,,,,,,,,None,None,None,None,None,124.86836560000665,None,124.86836560000665,None,124.86836560000665,None,124.86836560000665,None,r,0.4210745000746101,124.86836560000665,None,124.86836560000665,None,125.32503410009667,None,125.32503410009667,None,125.32503410009667,None,125.32503410009667,None,125.32503410009667,None,125.32503410009667,None,125.61475419998169,None,125.61475419998169,None,127.26360140007455,None,127.26360140007455,None,127.26360140007455,None,127.26360140007455,None,127.26360140007455,None,127.26360140007455,None,127.26360140007455,None,127.26360140007455,None,127.26360140007455,None,71,35,52,49,71,66,None,None,None,None,None,None,None,None,None,None,None,None,65,129.8031181000406,None,65,129.8031181000406,None,129.8031181000406,None,129.8031181000406,None,129.8031181000406,None,129.8031181000406,None,129.8031181000406,None,129.8031181000406,None,0.007835809956304729,None,129.8031181000406,None,0.2,0,None,None,None,None,None,None,None,None,None,None,None,None,,None,None,None,None,None,None,None,None,4.893229166666667,4.027317500091158,144.87403270008508,None,144.87403270008508,None,144.87403270008508,None,144.87403270008508,None,None,None,148.93340860004537,None,,,,,,,,-0.013020833333333334,-0.2825520833333333,1,0,0,15.002645300002769,tijiao,,252,f,22,2023_Mar_22_1736,RL,2021.2.3,60.012446578385614,
1,-0.3,-0.225,0,6,6,6,,,,,,,,,,,,,,,None,None,None,None,None,150.6365985000739,None,150.6365985000739,None,150.6365985000739,None,150.6365985000739,None,j,0.40399069990962744,150.6365985000739,None,150.6365985000739,None,151.08859120006673,None,151.08859120006673,None,151.08859120006673,None,151.08859120006673,None,151.08859120006673,None,151.08859120006673,None,151.38284079998266,152.58377000002656,151.38284079998266,152.58377000002656,152.6184136000229,None,152.6184136000229,None,152.6184136000229,None,152.6184136000229,None,152.6184136000229,None,152.6184136000229,None,152.6184136000229,None,152.6184136000229,None,152.6184136000229,None,70,31,69,41,41,46,155.1358805000782,None,4.0,1.7536205999786034,155.1358805000782,None,155.1358805000782,None,155.1358805000782,None,155.1358805000782,None,,None,None,,None,None,None,None,None,None,None,None,None,None,None,None,None,None,None,None,None,None,-0.6,3,None,None,None,None,None,None,None,None,None,None,None,None,,None,None,None,None,None,None,None,None,None,None,None,None,None,None,None,None,None,None,None,None,156.95219710003585,None,,,,,,,,,,,,,,,,252,f,22,2023_Mar_22_1736,RL,2021.2.3,60.012446578385614,
0,0.3,0.225,0,7,7,7,,,,,,,,,,,,,,,None,None,None,None,None,158.64047680003569,None,158.64047680003569,None,158.64047680003569,None,158.64047680003569,None,i,0.7203167999396101,158.64047680003569,None,158.64047680003569,None,159.40865220001433,None,159.40865220001433,None,159.40865220001433,None,159.40865220001433,None,159.40865220001433,None,159.40865220001433,None,159.70523900003172,None,159.70523900003172,None,161.07155220001005,None,161.07155220001005,None,161.07155220001005,None,161.07155220001005,None,161.07155220001005,None,161.07155220001005,None,161.07155220001005,None,161.07155220001005,None,161.07155220001005,None,66,44,59,57,59,60,None,None,None,None,None,None,None,None,None,None,None,None,40,163.59922980004922,None,40,163.59922980004922,None,163.59922980004922,None,163.59922980004922,None,163.59922980004922,None,163.59922980004922,None,163.59922980004922,None,163.59922980004922,None,0.00019474001601338387,None,163.59922980004922,None,0.6,0,None,None,None,None,None,None,None,None,None,None,None,None,,None,None,None,None,None,None,None,None,6.234375,3.15249180002138,173.65278940007556,None,173.65278940007556,None,173.65278940007556,None,173.65278940007556,None,None,None,176.83217549999245,None,,,,,,,,-0.037760416666666664,-0.28125,1,0,0,10.007970100035891,tijiao,,252,f,22,2023_Mar_22_1736,RL,2021.2.3,60.012446578385614,
1,-0.3,-0.225,0,8,8,8,,,,,,,,,,,,,,,None,None,None,None,None,178.78916919999756,None,178.78916919999756,None,178.78916919999756,None,178.78916919999756,None,r,0.3319232000503689,178.78916919999756,None,178.78916919999756,None,179.17281180003192,None,179.17281180003192,None,179.17281180003192,None,179.17281180003192,None,179.17281180003192,None,179.17281180003192,None,179.46886010002345,None,179.46886010002345,None,181.21841229998972,None,181.21841229998972,None,181.21841229998972,None,181.21841229998972,None,181.21841229998972,None,181.21841229998972,None,181.21841229998972,None,181.21841229998972,None,181.21841229998972,None,54,40,64,58,54,64,None,None,None,None,None,None,None,None,None,None,None,None,30,183.7475681999931,None,30,183.7475681999931,None,183.7475681999931,None,183.7475681999931,None,183.7475681999931,None,183.7475681999931,None,183.7475681999931,None,183.7475681999931,None,0.01630430994555354,None,183.7475681999931,None,-0.6,0,None,None,None,None,None,None,None,None,None,None,None,None,,None,None,None,None,None,None,None,None,3.8125,2.397514900076203,190.38307089998852,None,190.38307089998852,None,190.38307089998852,None,190.38307089998852,None,None,None,192.7960683000274,None,,,,,,,,0.032552083333333336,-0.25,1,0,0,6.588615800021216,tijiao,,252,f,22,2023_Mar_22_1736,RL,2021.2.3,60.012446578385614,
0,0.3,0.225,0,9,9,9,,,,,,,,,,,,,,,None,None,None,None,None,194.333650900051,None,194.333650900051,None,194.333650900051,None,194.333650900051,None,i,0.4172297000186518,194.333650900051,None,194.333650900051,None,194.80101689998992,None,194.80101689998992,None,194.80101689998992,None,194.80101689998992,None,194.80101689998992,None,194.80101689998992,None,195.09648040006869,None,195.09648040006869,None,196.0139306000201,None,196.0139306000201,None,196.0139306000201,None,196.0139306000201,None,196.0139306000201,None,196.0139306000201,None,196.0139306000201,None,196.0139306000201,None,196.0139306000201,None,65,29,60,49,60,48,None,None,None,None,None,None,None,None,None,None,None,None,35,198.53970299998764,None,35,198.53970299998764,None,198.53970299998764,None,198.53970299998764,None,198.53970299998764,None,198.53970299998764,None,198.53970299998764,None,198.53970299998764,None,0.0009083400946110487,None,198.53970299998764,None,-0.6,0,None,None,None,None,None,None,None,None,None,None,None,None,,None,None,None,None,None,None,None,None,4.020833333333334,2.3101715999655426,211.38424849999137,None,211.38424849999137,None,211.38424849999137,None,211.38424849999137,None,None,None,213.70902479998767,None,,,,,,,,-0.032552083333333336,-0.3294270833333333,1,0,0,12.794747299980372,tijiao,,252,f,22,2023_Mar_22_1736,RL,2021.2.3,60.012446578385614,
1,-0.3,-0.225,0,10,10,10,,,,,,,,,,,,,,,None,None,None,None,None,215.6971267000772,None,215.6971267000772,None,215.6971267000772,None,215.6971267000772,None,f,0.3539686999283731,215.6971267000772,None,215.6971267000772,None,216.09897100005765,None,216.09897100005765,None,216.09897100005765,None,216.09897100005765,None,216.09897100005765,None,216.09897100005765,None,216.39457010000478,None,216.39457010000478,None,217.41213950002566,None,217.41213950002566,None,217.41213950002566,None,217.41213950002566,None,217.41213950002566,None,217.41213950002566,None,217.41213950002566,None,217.41213950002566,None,217.41213950002566,None,70,44,60,49,44,54,None,None,None,None,None,None,None,None,None,None,None,None,50,219.9431251999922,None,50,219.9431251999922,None,219.9431251999922,None,219.9431251999922,None,219.9431251999922,None,219.9431251999922,None,219.9431251999922,None,219.9431251999922,None,0.011942610028199852,None,219.9431251999922,None,-0.2,0,None,None,None,None,None,None,None,None,None,None,None,None,,None,None,None,None,None,None,None,None,3.122395833333333,2.1623958999989554,236.60027230007108,None,236.60027230007108,None,236.60027230007108,None,236.60027230007108,None,None,None,238.79625420004595,None,,,,,,,,-0.12109375,-0.2825520833333333,1,0,0,16.60766059998423,tijiao,,252,f,22,2023_Mar_22_1736,RL,2021.2.3,60.012446578385614,
0,0.3,0.225,0,11,11,11,,,,,,,,,,,,,,,None,None,None,None,None,240.7490236000158,None,240.7490236000158,None,240.7490236000158,None,240.7490236000158,None,f,0.35221630008891225,240.7490236000158,None,240.7490236000158,None,241.15072190004867,None,241.15072190004867,None,241.15072190004867,None,241.15072190004867,None,241.15072190004867,None,241.15072190004867,None,241.44528009998612,None,241.44528009998612,None,242.80998550006188,None,242.80998550006188,None,242.80998550006188,None,242.80998550006188,None,242.80998550006188,None,242.80998550006188,None,242.80998550006188,None,242.80998550006188,None,242.80998550006188,None,62,39,65,52,39,64,245.3305061000865,None,2.0,2.387885499978438,245.3305061000865,None,245.3305061000865,None,245.3305061000865,None,245.3305061000865,None,,None,None,,None,None,None,None,None,None,None,None,None,None,None,None,None,None,None,None,None,None,0.2,3,None,None,None,None,None,None,None,None,None,None,None,None,,None,None,None,None,None,None,None,None,None,None,None,None,None,None,None,None,None,None,None,None,247.7790626999922,None,,,,,,,,,,,,,,,,252,f,22,2023_Mar_22_1736,RL,2021.2.3,60.012446578385614,
1,-0.3,-0.225,0,12,12,12,,,,,,,,,,,,,,,None,None,None,None,None,249.57176200009417,None,249.57176200009417,None,249.57176200009417,None,249.57176200009417,None,r,0.43957269995007664,249.57176200009417,None,249.57176200009417,None,250.05758100003004,None,250.05758100003004,None,250.05758100003004,None,250.05758100003004,None,250.05758100003004,None,250.05758100003004,None,250.35160270007327,None,250.35160270007327,None,251.71534660004545,None,251.71534660004545,None,251.71534660004545,None,251.71534660004545,None,251.71534660004545,None,251.71534660004545,None,251.71534660004545,None,251.71534660004545,None,251.71534660004545,None,61,44,61,47,61,63,254.24262820009608,None,3.0,1.785550200031139,254.24262820009608,None,254.24262820009608,None,254.24262820009608,None,254.24262820009608,None,,None,None,,None,None,None,None,None,None,None,None,None,None,None,None,None,None,None,None,None,None,0.6,3,None,None,None,None,None,None,None,None,None,None,None,None,,None,None,None,None,None,None,None,None,None,None,None,None,None,None,None,None,None,None,None,None,256.0881982999854,None,,,,,,,,,,,,,,,,252,f,22,2023_Mar_22_1736,RL,2021.2.3,60.012446578385614,
0,0.3,0.225,0,13,13,13,,,,,,,,,,,,,,,None,None,None,None,None,257.7107562000165,None,257.7107562000165,None,257.7107562000165,None,257.7107562000165,None,i,0.4905504999915138,257.7107562000165,None,257.7107562000165,None,258.25076830002945,None,258.25076830002945,None,258.25076830002945,None,258.25076830002945,None,258.25076830002945,None,258.25076830002945,None,258.54057770001236,None,258.54057770001236,None,259.67213000007905,None,259.67213000007905,None,259.67213000007905,None,259.67213000007905,None,259.67213000007905,None,259.67213000007905,None,259.67213000007905,None,259.67213000007905,None,259.67213000007905,None,68,32,54,38,54,40,262.18895340000745,None,3.0,3.3723985999822617,262.18895340000745,None,262.18895340000745,None,262.18895340000745,None,262.18895340000745,None,,None,None,,None,None,None,None,None,None,None,None,None,None,None,None,None,None,None,None,None,None,0.6,2,None,None,None,None,None,None,None,None,None,None,None,None,,None,None,None,None,None,None,None,None,None,None,None,None,None,None,None,None,None,None,None,None,265.6131327000912,None,,,,,,,,,,,,,,,,252,f,22,2023_Mar_22_1736,RL,2021.2.3,60.012446578385614,
1,-0.3,-0.225,0,14,14,14,,,,,,,,,,,,,,,None,None,None,None,None,267.3837133999914,None,267.3837133999914,None,267.3837133999914,None,267.3837133999914,None,j,0.547675299923867,267.3837133999914,None,267.3837133999914,None,267.97470030002296,None,267.97470030002296,None,267.97470030002296,None,267.97470030002296,None,267.97470030002296,None,267.97470030002296,None,268.26404510007706,None,268.26404510007706,None,270.096893500071,None,270.096893500071,None,270.096893500071,None,270.096893500071,None,270.096893500071,None,270.096893500071,None,270.096893500071,None,270.096893500071,None,270.096893500071,None,74,35,58,37,37,52,None,None,None,None,None,None,None,None,None,None,None,None,,None,None,,None,None,None,None,None,None,None,None,None,None,None,None,None,None,None,None,None,None,0.2,1,272.6390147000784,None,272.6390147000784,None,272.6390147000784,None,272.6390147000784,None,272.6390147000784,None,272.6390147000784,None,70,272.6390147000784,None,272.6390147000784,None,0.002779609989374876,None,272.6390147000784,None,4.216145833333334,2.981052799965255,282.34922560001723,None,282.34922560001723,None,282.34922560001723,None,282.34922560001723,None,None,None,285.3571236000862,None,-0.12369791666666667,-0.2838541666666667,1,0,0,9.677040899987333,tijiao_random_2,,,,,,,,,252,f,22,2023_Mar_22_1736,RL,2021.2.3,60.012446578385614,
0,0.3,0.225,0,15,15,15,,,,,,,,,,,,,,,None,None,None,None,None,286.9310958000133,None,286.9310958000133,None,286.9310958000133,None,286.9310958000133,None,i,0.4404581000562757,286.9310958000133,None,286.9310958000133,None,287.4138219000306,None,287.4138219000306,None,287.4138219000306,None,287.4138219000306,None,287.4138219000306,None,287.4138219000306,None,287.7107155000558,None,287.7107155000558,None,288.72587800002657,None,288.72587800002657,None,288.72587800002657,None,288.72587800002657,None,288.72587800002657,None,288.72587800002657,None,288.72587800002657,None,288.72587800002657,None,288.72587800002657,None,72,41,55,34,55,57,291.24222700006794,None,4.0,3.157870600000024,291.24222700006794,None,291.24222700006794,None,291.24222700006794,None,291.24222700006794,None,,None,None,,None,None,None,None,None,None,None,None,None,None,None,None,None,None,None,None,None,None,-0.6,2,None,None,None,None,None,None,None,None,None,None,None,None,,None,None,None,None,None,None,None,None,None,None,None,None,None,None,None,None,None,None,None,None,294.4553286000155,None,,,,,,,,,,,,,,,,252,f,22,2023_Mar_22_1736,RL,2021.2.3,60.012446578385614,
1,-0.3,-0.225,0,16,16,16,,,,,,,,,,,,,,,None,None,None,None,None,296.4046213000547,None,296.4046213000547,None,296.4046213000547,None,296.4046213000547,None,r,0.3080973000032827,296.4046213000547,None,296.4046213000547,None,296.756494600093,None,296.756494600093,None,296.756494600093,None,296.756494600093,None,296.756494600093,None,296.756494600093,None,297.0504343000939,298.51816320000216,297.0504343000939,298.51816320000216,298.5520566999912,None,298.5520566999912,None,298.5520566999912,None,298.5520566999912,None,298.5520566999912,None,298.5520566999912,None,298.5520566999912,None,298.5520566999912,None,298.5520566999912,None,82,30,51,39,82,66,301.06790360005107,None,5.0,2.0391658999724314,301.06790360005107,None,301.06790360005107,None,301.06790360005107,None,301.06790360005107,None,,None,None,,None,None,None,None,None,None,None,None,None,None,None,None,None,None,None,None,None,None,0.6,2,None,None,None,None,None,None,None,None,None,None,None,None,,None,None,None,None,None,None,None,None,None,None,None,None,None,None,None,None,None,None,None,None,303.17478530004155,None,,,,,,,,,,,,,,,,252,f,22,2023_Mar_22_1736,RL,2021.2.3,60.012446578385614,
0,0.3,0.225,0,17,17,17,,,,,,,,,,,,,,,None,None,None,None,None,304.82638650003355,None,304.82638650003355,None,304.82638650003355,None,304.82638650003355,None,i,0.5662163000088185,304.82638650003355,None,304.82638650003355,None,305.4508112000767,None,305.4508112000767,None,305.4508112000767,None,305.4508112000767,None,305.4508112000767,None,305.4508112000767,None,305.7399536999874,None,305.7399536999874,None,307.63657070009504,None,307.63657070009504,None,307.63657070009504,None,307.63657070009504,None,307.63657070009504,None,307.63657070009504,None,307.63657070009504,None,307.63657070009504,None,307.63657070009504,None,71,33,61,29,61,41,None,None,None,None,None,None,None,None,None,None,None,None,,None,None,,None,None,None,None,None,None,None,None,None,None,None,None,None,None,None,None,None,None,-0.6,1,310.1908425000729,None,310.1908425000729,None,310.1908425000729,None,310.1908425000729,None,310.1908425000729,None,310.1908425000729,None,40,310.1908425000729,None,310.1908425000729,None,0.010549679980613291,None,310.1908425000729,None,2.809895833333333,2.832097199978307,322.2583825000329,None,322.2583825000329,None,322.2583825000329,None,322.2583825000329,None,None,None,325.1028531000484,None,0.06770833333333333,-0.2981770833333333,1,0,0,12.036158200004138,tijiao_random_2,,,,,,,,,252,f,22,2023_Mar_22_1736,RL,2021.2.3,60.012446578385614,
1,-0.3,-0.225,0,18,18,18,,,,,,,,,,,,,,,None,None,None,None,None,326.77545210008975,None,326.77545210008975,None,326.77545210008975,None,326.77545210008975,None,f,0.3575536999851465,326.77545210008975,None,326.77545210008975,None,327.17579250002746,None,327.17579250002746,None,327.17579250002746,None,327.17579250002746,None,327.17579250002746,None,327.17579250002746,None,327.4716640000697,None,327.4716640000697,None,328.4854660000419,None,328.4854660000419,None,328.4854660000419,None,328.4854660000419,None,328.4854660000419,None,328.4854660000419,None,328.4854660000419,None,328.4854660000419,None,328.4854660000419,None,70,39,55,36,39,59,None,None,None,None,None,None,None,None,None,None,None,None,60,331.01714440004434,None,60,331.01714440004434,None,331.01714440004434,None,331.01714440004434,None,331.01714440004434,None,331.01714440004434,None,331.01714440004434,None,331.01714440004434,None,0.015572009957395494,None,331.01714440004434,None,-0.2,0,None,None,None,None,None,None,None,None,None,None,None,None,,None,None,None,None,None,None,None,None,5.765625,2.290500000002794,340.47205560002476,None,340.47205560002476,None,340.47205560002476,None,340.47205560002476,None,None,None,342.7826073000906,None,,,,,,,,-0.15625,-0.2942708333333333,1,0,0,9.406941500026733,tijiao,,252,f,22,2023_Mar_22_1736,RL,2021.2.3,60.012446578385614,
0,0.3,0.225,0,19,19,19,,,,,,,,,,,,,,,None,None,None,None,None,344.7369965000544,None,344.7369965000544,None,344.7369965000544,None,344.7369965000544,None,f,0.4260076000355184,344.7369965000544,None,344.7369965000544,None,345.21198710007593,None,345.21198710007593,None,345.21198710007593,None,345.21198710007593,None,345.21198710007593,None,345.21198710007593,None,345.5009249000577,347.0352939000586,345.5009249000577,347.0352939000586,347.0658163999906,None,347.0658163999906,None,347.0658163999906,None,347.0658163999906,None,347.0658163999906,None,347.0658163999906,None,347.0658163999906,None,347.0658163999906,None,347.0658163999906,None,62,43,53,39,43,72,349.5921716000885,None,3.0,1.884163900045678,349.5921716000885,None,349.5921716000885,None,349.5921716000885,None,349.5921716000885,None,,None,None,,None,None,None,None,None,None,None,None,None,None,None,None,None,None,None,None,None,None,-0.6,3,None,None,None,None,None,None,None,None,None,None,None,None,,None,None,None,None,None,None,None,None,None,None,None,None,None,None,None,None,None,None,None,None,351.53552350006066,None,,,,,,,,,,,,,,,,252,f,22,2023_Mar_22_1736,RL,2021.2.3,60.012446578385614,
1,-0.3,-0.225,0,20,20,20,,,,,,,,,,,,,,,None,None,None,None,None,353.47745470004156,None,353.47745470004156,None,353.47745470004156,None,353.47745470004156,None,r,0.9655580000253394,353.47745470004156,None,353.47745470004156,None,354.49560540006496,None,354.49560540006496,None,354.49560540006496,None,354.49560540006496,None,354.49560540006496,None,354.49560540006496,None,354.79068069998175,None,354.79068069998175,None,356.6452259999933,None,356.6452259999933,None,356.6452259999933,None,356.6452259999933,None,356.6452259999933,None,356.6452259999933,None,356.6452259999933,None,356.6452259999933,None,356.6452259999933,None,72,35,58,39,72,66,359.16377650003415,None,3.0,3.233292100019753,359.16377650003415,None,359.16377650003415,None,359.16377650003415,None,359.16377650003415,None,,None,None,,None,None,None,None,None,None,None,None,None,None,None,None,None,None,None,None,None,None,0.6,3,None,None,None,None,None,None,None,None,None,None,None,None,,None,None,None,None,None,None,None,None,None,None,None,None,None,None,None,None,None,None,None,None,362.4625990000786,None,,,,,,,,,,,,,,,,252,f,22,2023_Mar_22_1736,RL,2021.2.3,60.012446578385614,
0,0.3,0.225,0,21,21,21,,,,,,,,,,,,,,,None,None,None,None,None,363.9847065000795,None,363.9847065000795,None,363.9847065000795,None,363.9847065000795,None,i,0.4683802000945434,363.9847065000795,None,363.9847065000795,None,364.50478190009017,None,364.50478190009017,None,364.50478190009017,None,364.50478190009017,None,364.50478190009017,None,364.50478190009017,None,364.7977002999978,366.0984185000416,364.7977002999978,366.0984185000416,366.1328526000725,None,366.1328526000725,None,366.1328526000725,None,366.1328526000725,None,366.1328526000725,None,366.1328526000725,None,366.1328526000725,None,366.1328526000725,None,366.1328526000725,None,76,41,51,32,51,62,368.6484618000686,None,3.0,1.7052438999526203,368.6484618000686,None,368.6484618000686,None,368.6484618000686,None,368.6484618000686,None,,None,None,,None,None,None,None,None,None,None,None,None,None,None,None,None,None,None,None,None,None,-0.6,2,None,None,None,None,None,None,None,None,None,None,None,None,,None,None,None,None,None,None,None,None,None,None,None,None,None,None,None,None,None,None,None,None,370.4122044000542,None,,,,,,,,,,,,,,,,252,f,22,2023_Mar_22_1736,RL,2021.2.3,60.012446578385614,
1,-0.3,-0.225,0,22,22,22,,,,,,,,,,,,,,,None,None,None,None,None,372.3400715000462,None,372.3400715000462,None,372.3400715000462,None,372.3400715000462,None,r,0.5230427000205964,372.3400715000462,None,372.3400715000462,None,372.90806970000267,None,372.90806970000267,None,372.90806970000267,None,372.90806970000267,None,372.90806970000267,None,372.90806970000267,None,373.2033925000578,None,373.2033925000578,None,374.88513389998116,None,374.88513389998116,None,374.88513389998116,None,374.88513389998116,None,374.88513389998116,None,374.88513389998116,None,374.88513389998116,None,374.88513389998116,None,374.88513389998116,None,69,36,56,27,69,59,None,None,None,None,None,None,None,None,None,None,None,None,,None,None,,None,None,None,None,None,None,None,None,None,None,None,None,None,None,None,None,None,None,0.2,1,377.43265159998555,None,377.43265159998555,None,377.43265159998555,None,377.43265159998555,None,377.43265159998555,None,377.43265159998555,None,40,377.43265159998555,None,377.43265159998555,None,0.015482279937714338,None,377.43265159998555,None,3.0703125,4.059570600045845,385.57384860003367,None,385.57384860003367,None,385.57384860003367,None,385.57384860003367,None,None,None,389.6477247000439,None,-0.05078125,-0.3229166666666667,1,0,0,8.105159600032493,tijiao_random_2,,,,,,,,,252,f,22,2023_Mar_22_1736,RL,2021.2.3,60.012446578385614,
0,0.3,0.225,0,23,23,23,,,,,,,,,,,,,,,None,None,None,None,None,391.30383700004313,None,391.30383700004313,None,391.30383700004313,None,391.30383700004313,None,j,0.39949709991924465,391.30383700004313,None,391.30383700004313,None,391.75325780001003,None,391.75325780001003,None,391.75325780001003,None,391.75325780001003,None,391.75325780001003,None,391.75325780001003,None,392.04990430001635,392.85067060007714,392.04990430001635,392.85067060007714,392.8832508000778,None,392.8832508000778,None,392.8832508000778,None,392.8832508000778,None,392.8832508000778,None,392.8832508000778,None,392.8832508000778,None,392.8832508000778,None,392.8832508000778,None,72,35,53,32,32,74,None,None,None,None,None,None,None,None,None,None,None,None,,None,None,,None,None,None,None,None,None,None,None,None,None,None,None,None,None,None,None,None,None,0.2,1,395.42715520004276,None,395.42715520004276,None,395.42715520004276,None,395.42715520004276,None,395.42715520004276,None,395.42715520004276,None,40,395.42715520004276,None,395.42715520004276,None,0.016195880016312003,None,395.42715520004276,None,2.588541666666667,2.434997900039889,407.7167384000495,None,407.7167384000495,None,407.7167384000495,None,407.7167384000495,None,None,None,410.17682380008046,None,-0.12109375,-0.2760416666666667,1,0,0,12.258660300052725,tijiao_random_2,,,,,,,,,252,f,22,2023_Mar_22_1736,RL,2021.2.3,60.012446578385614,
1,-0.3,-0.225,0,24,24,24,,,,,,,,,,,,,,,None,None,None,None,None,412.1672886000015,None,412.1672886000015,None,412.1672886000015,None,412.1672886000015,None,r,0.3860235000029206,412.1672886000015,None,412.1672886000015,None,412.6028057000367,None,412.6028057000367,None,412.6028057000367,None,412.6028057000367,None,412.6028057000367,None,412.6028057000367,None,412.8976568999933,414.7989888000302,412.8976568999933,414.7989888000302,414.8315591000719,None,414.8315591000719,None,414.8315591000719,None,414.8315591000719,None,414.8315591000719,None,414.8315591000719,None,414.8315591000719,None,414.8315591000719,None,414.8315591000719,None,60,40,57,21,60,72,None,None,None,None,None,None,None,None,None,None,None,None,50,417.3672059000237,None,50,417.3672059000237,None,417.3672059000237,None,417.3672059000237,None,417.3672059000237,None,417.3672059000237,None,417.3672059000237,None,417.3672059000237,None,0.008902209927327931,None,417.3672059000237,None,0.2,0,None,None,None,None,None,None,None,None,None,None,None,None,,None,None,None,None,None,None,None,None,2.2890625,2.5136706000193954,430.2847012000857,None,430.2847012000857,None,430.2847012000857,None,430.2847012000857,None,None,None,432.8274467000738,None,,,,,,,,-0.08463541666666667,-0.29296875,1,0,0,12.869216099963523,tijiao,,252,f,22,2023_Mar_22_1736,RL,2021.2.3,60.012446578385614,
0,0.3,0.225,0,25,25,25,,,,,,,,,,,,,,,None,None,None,None,None,434.65004430001136,None,434.65004430001136,None,434.65004430001136,None,434.65004430001136,None,f,0.2935764999128878,434.65004430001136,None,434.65004430001136,None,434.9868762000697,None,434.9868762000697,None,434.9868762000697,None,434.9868762000697,None,434.9868762000697,None,434.9868762000697,None,435.2800032000523,None,435.2800032000523,None,437.2319564000936,None,437.2319564000936,None,437.2319564000936,None,437.2319564000936,None,437.2319564000936,None,437.2319564000936,None,437.2319564000936,None,437.2319564000936,None,437.2319564000936,None,67,30,56,35,30,83,None,None,None,None,None,None,None,None,None,None,None,None,,None,None,,None,None,None,None,None,None,None,None,None,None,None,None,None,None,None,None,None,None,0.6,1,439.7716604000889,None,439.7716604000889,None,439.7716604000889,None,439.7716604000889,None,439.7716604000889,None,439.7716604000889,None,50,439.7716604000889,None,439.7716604000889,None,0.0020983099238947034,None,439.7716604000889,None,2.2109375,3.6070581999374554,452.93931020004675,None,452.93931020004675,None,452.93931020004675,None,452.93931020004675,None,None,None,456.5789382000221,None,-0.13541666666666666,-0.2552083333333333,1,0,0,13.128765500034206,tijiao_random_2,,,,,,,,,252,f,22,2023_Mar_22_1736,RL,2021.2.3,60.012446578385614,
1,-0.3,-0.225,0,26,26,26,,,,,,,,,,,,,,,None,None,None,None,None,458.41677570005413,None,458.41677570005413,None,458.41677570005413,None,458.41677570005413,None,i,0.32728520000819117,458.41677570005413,None,458.41677570005413,None,458.7876560000004,None,458.7876560000004,None,458.7876560000004,None,458.7876560000004,None,458.7876560000004,None,458.7876560000004,None,459.0796937000705,460.69757570000365,459.0796937000705,460.69757570000365,460.72852170001715,None,460.72852170001715,None,460.72852170001715,None,460.72852170001715,None,460.72852170001715,None,460.72852170001715,None,460.72852170001715,None,460.72852170001715,None,460.72852170001715,None,66,43,54,23,54,40,463.25465850008186,None,3.0,3.4362630000105128,463.25465850008186,None,463.25465850008186,None,463.25465850008186,None,463.25465850008186,None,,None,None,,None,None,None,None,None,None,None,None,None,None,None,None,None,None,None,None,None,None,-0.2,3,None,None,None,None,None,None,None,None,None,None,None,None,,None,None,None,None,None,None,None,None,None,None,None,None,None,None,None,None,None,None,None,None,466.74337869999,None,,,,,,,,,,,,,,,,252,f,22,2023_Mar_22_1736,RL,2021.2.3,60.012446578385614,
0,0.3,0.225,0,27,27,27,,,,,,,,,,,,,,,None,None,None,None,None,468.30720460007433,None,468.30720460007433,None,468.30720460007433,None,468.30720460007433,None,r,0.5778005999745801,468.30720460007433,None,468.30720460007433,None,468.9275575000793,None,468.9275575000793,None,468.9275575000793,None,468.9275575000793,None,468.9275575000793,None,468.9275575000793,None,469.2201733000111,471.18831540003885,469.2201733000111,471.18831540003885,471.218581299996,None,471.218581299996,None,471.218581299996,None,471.218581299996,None,471.218581299996,None,471.218581299996,None,471.218581299996,None,471.218581299996,None,471.218581299996,None,63,41,60,31,63,72,473.7448136000894,None,3.0,1.8987575999926776,473.7448136000894,None,473.7448136000894,None,473.7448136000894,None,473.7448136000894,None,,None,None,,None,None,None,None,None,None,None,None,None,None,None,None,None,None,None,None,None,None,-0.6,3,None,None,None,None,None,None,None,None,None,None,None,None,,None,None,None,None,None,None,None,None,None,None,None,None,None,None,None,None,None,None,None,None,475.69931639998686,None,,,,,,,,,,,,,,,,252,f,22,2023_Mar_22_1736,RL,2021.2.3,60.012446578385614,
1,-0.3,-0.225,0,28,28,28,,,,,,,,,,,,,,,None,None,None,None,None,477.51304170000367,None,477.51304170000367,None,477.51304170000367,None,477.51304170000367,None,i,0.37190280004870147,477.51304170000367,None,477.51304170000367,None,477.9303025000263,None,477.9303025000263,None,477.9303025000263,None,477.9303025000263,None,477.9303025000263,None,477.9303025000263,None,478.2263944000006,None,478.2263944000006,None,479.7748757000081,None,479.7748757000081,None,479.7748757000081,None,479.7748757000081,None,479.7748757000081,None,479.7748757000081,None,479.7748757000081,None,479.7748757000081,None,479.7748757000081,None,63,36,62,32,62,57,482.30121659999713,None,3.0,1.9664696999825537,482.30121659999713,None,482.30121659999713,None,482.30121659999713,None,482.30121659999713,None,,None,None,,None,None,None,None,None,None,None,None,None,None,None,None,None,None,None,None,None,None,-0.2,3,None,None,None,None,None,None,None,None,None,None,None,None,,None,None,None,None,None,None,None,None,None,None,None,None,None,None,None,None,None,None,None,None,484.3423738999991,None,,,,,,,,,,,,,,,,252,f,22,2023_Mar_22_1736,RL,2021.2.3,60.012446578385614,
0,0.3,0.225,0,29,29,29,,,,,,,,,,,,,,,None,None,None,None,None,486.1024825000204,None,486.1024825000204,None,486.1024825000204,None,486.1024825000204,None,r,0.6824136000359431,486.1024825000204,None,486.1024825000204,None,486.83840690006036,None,486.83840690006036,None,486.83840690006036,None,486.83840690006036,None,486.83840690006036,None,486.83840690006036,None,487.1325331000844,None,487.1325331000844,None,489.1141540000681,None,489.1141540000681,None,489.1141540000681,None,489.1141540000681,None,489.1141540000681,None,489.1141540000681,None,489.1141540000681,None,489.1141540000681,None,489.1141540000681,None,64,43,65,38,64,53,None,None,None,None,None,None,None,None,None,None,None,None,,None,None,,None,None,None,None,None,None,None,None,None,None,None,None,None,None,None,None,None,None,0.6,1,491.6733779000351,None,491.6733779000351,None,491.6733779000351,None,491.6733779000351,None,491.6733779000351,None,491.6733779000351,None,80,491.6733779000351,None,491.6733779000351,None,0.0037965801311656833,None,491.6733779000351,None,1.078125,1.7995526000158861,497.89788499998394,None,497.89788499998394,None,497.89788499998394,None,497.89788499998394,None,None,None,499.7244970999891,None,-0.013020833333333334,-0.26953125,1,0,0,6.193345100036822,tijiao_random_2,,,,,,,,,252,f,22,2023_Mar_22_1736,RL,2021.2.3,60.012446578385614,
1,-0.3,-0.225,0,30,30,30,,,,,,,,,,,,,,,None,None,None,None,None,501.2631961000152,None,501.2631961000152,None,501.2631961000152,None,501.2631961000152,None,j,0.3317912999773398,501.2631961000152,None,501.2631961000152,None,501.6466753000859,None,501.6466753000859,None,501.6466753000859,None,501.6466753000859,None,501.6466753000859,None,501.6466753000859,None,501.9428103000391,None,501.9428103000391,None,502.9608796000248,None,502.9608796000248,None,502.9608796000248,None,502.9608796000248,None,502.9608796000248,None,502.9608796000248,None,502.9608796000248,None,502.9608796000248,None,502.9608796000248,None,62,42,60,40,40,55,None,None,None,None,None,None,None,None,None,None,None,None,,None,None,,None,None,None,None,None,None,None,None,None,None,None,None,None,None,None,None,None,None,-0.2,1,505.5055901000742,None,505.5055901000742,None,505.5055901000742,None,505.5055901000742,None,505.5055901000742,None,505.5055901000742,None,40,505.5055901000742,None,505.5055901000742,None,0.01429848000407219,None,505.5055901000742,None,1,4.610602800035849,512.7739595000166,None,512.7739595000166,None,512.7739595000166,None,512.7739595000166,None,None,None,517.4031143999891,None,-0.08984375,-0.30078125,1,0,0,7.236826800042763,tijiao_random_2,,,,,,,,,252,f,22,2023_Mar_22_1736,RL,2021.2.3,60.012446578385614,
0,0.3,0.225,0,31,31,31,,,,,,,,,,,,,,,None,None,None,None,None,518.975009500049,None,518.975009500049,None,518.975009500049,None,518.975009500049,None,i,0.38047610002104193,518.975009500049,None,518.975009500049,None,519.3919893000275,None,519.3919893000275,None,519.3919893000275,None,519.3919893000275,None,519.3919893000275,None,519.3919893000275,None,519.6884437000845,None,519.6884437000845,None,520.6206954000518,None,520.6206954000518,None,520.6206954000518,None,520.6206954000518,None,520.6206954000518,None,520.6206954000518,None,520.6206954000518,None,520.6206954000518,None,520.6206954000518,None,69,38,54,48,54,51,523.1456188000739,None,3.0,2.7512538000009954,523.1456188000739,None,523.1456188000739,None,523.1456188000739,None,523.1456188000739,None,,None,None,,None,None,None,None,None,None,None,None,None,None,None,None,None,None,None,None,None,None,0.2,3,None,None,None,None,None,None,None,None,None,None,None,None,,None,None,None,None,None,None,None,None,None,None,None,None,None,None,None,None,None,None,None,None,525.970003800001,None,,,,,,,,,,,,,,,,252,f,22,2023_Mar_22_1736,RL,2021.2.3,60.012446578385614,
1,-0.3,-0.225,0,32,32,32,,,,,,,,,,,,,,,None,None,None,None,None,527.5312982000178,None,527.5312982000178,None,527.5312982000178,None,527.5312982000178,None,r,0.29427439998835325,527.5312982000178,None,527.5312982000178,None,527.8665942000225,None,527.8665942000225,None,527.8665942000225,None,527.8665942000225,None,527.8665942000225,None,527.8665942000225,None,528.1610447000712,None,528.1610447000712,None,529.5434139000718,None,529.5434139000718,None,529.5434139000718,None,529.5434139000718,None,529.5434139000718,None,529.5434139000718,None,529.5434139000718,None,529.5434139000718,None,529.5434139000718,None,63,35,63,41,63,96,532.0600393000059,None,3.0,1.6569433000404388,532.0600393000059,None,532.0600393000059,None,532.0600393000059,None,532.0600393000059,None,,None,None,,None,None,None,None,None,None,None,None,None,None,None,None,None,None,None,None,None,None,-0.2,2,None,None,None,None,None,None,None,None,None,None,None,None,,None,None,None,None,None,None,None,None,None,None,None,None,None,None,None,None,None,None,None,None,533.7687554000877,None,,,,,,,,,,,,,,,,252,f,22,2023_Mar_22_1736,RL,2021.2.3,60.012446578385614,
0,0.3,0.225,0,33,33,33,,,,,,,,,,,,,,,None,None,None,None,None,535.3538383999839,None,535.3538383999839,None,535.3538383999839,None,535.3538383999839,None,r,0.5414186000125483,535.3538383999839,None,535.3538383999839,None,535.9385055000894,None,535.9385055000894,None,535.9385055000894,None,535.9385055000894,None,535.9385055000894,None,535.9385055000894,None,536.2332368000643,None,536.2332368000643,None,537.5662234000629,None,537.5662234000629,None,537.5662234000629,None,537.5662234000629,None,537.5662234000629,None,537.5662234000629,None,537.5662234000629,None,537.5662234000629,None,537.5662234000629,None,65,36,55,37,65,46,None,None,None,None,None,None,None,None,None,None,None,None,30,540.094791600015,None,30,540.094791600015,None,540.094791600015,None,540.094791600015,None,540.094791600015,None,540.094791600015,None,540.094791600015,None,540.094791600015,None,0.0007884399965405464,None,540.094791600015,None,0.6,0,None,None,None,None,None,None,None,None,None,None,None,None,,None,None,None,None,None,None,None,None,1.989583333333333,6.467447999981232,545.8805270000594,None,545.8805270000594,None,545.8805270000594,None,545.8805270000594,None,None,None,552.3606877999846,None,,,,,,,,-0.0078125,-0.2877604166666667,1,0,0,5.74001889990177,tijiao,,252,f,22,2023_Mar_22_1736,RL,2021.2.3,60.012446578385614,
1,-0.3,-0.225,0,34,34,34,,,,,,,,,,,,,,,None,None,None,None,None,554.2661277999869,None,554.2661277999869,None,554.2661277999869,None,554.2661277999869,None,i,0.5491797000868246,554.2661277999869,None,554.2661277999869,None,554.8724927000003,None,554.8724927000003,None,554.8724927000003,None,554.8724927000003,None,554.8724927000003,None,554.8724927000003,None,555.1630033000838,556.9144535000669,555.1630033000838,556.9144535000669,556.9486457000021,None,556.9486457000021,None,556.9486457000021,None,556.9486457000021,None,556.9486457000021,None,556.9486457000021,None,556.9486457000021,None,556.9486457000021,None,556.9486457000021,None,56,50,59,41,59,52,None,None,None,None,None,None,None,None,None,None,None,None,35,559.4754111000802,None,35,559.4754111000802,None,559.4754111000802,None,559.4754111000802,None,559.4754111000802,None,559.4754111000802,None,559.4754111000802,None,559.4754111000802,None,0.015121609787456691,None,559.4754111000802,None,-0.6,0,None,None,None,None,None,None,None,None,None,None,None,None,,None,None,None,None,None,None,None,None,1.104166666666667,3.7382869999855757,570.4798290000763,None,570.4798290000763,None,570.4798290000763,None,570.4798290000763,None,None,None,574.2409310000949,None,,,,,,,,-0.1484375,-0.2942708333333333,1,0,0,10.956481599947438,tijiao,,252,f,22,2023_Mar_22_1736,RL,2021.2.3,60.012446578385614,
0,0.3,0.225,0,35,35,35,,,,,,,,,,,,,,,None,None,None,None,None,576.031736300094,None,576.031736300094,None,576.031736300094,None,576.031736300094,None,f,0.31371490005403757,576.031736300094,None,576.031736300094,None,576.3853202000028,None,576.3853202000028,None,576.3853202000028,None,576.3853202000028,None,576.3853202000028,None,576.3853202000028,None,576.6784077000339,None,576.6784077000339,None,578.3758252999978,None,578.3758252999978,None,578.3758252999978,None,578.3758252999978,None,578.3758252999978,None,578.3758252999978,None,578.3758252999978,None,578.3758252999978,None,578.3758252999978,None,59,40,57,45,40,100,None,None,None,None,None,None,None,None,None,None,None,None,,None,None,,None,None,None,None,None,None,None,None,None,None,None,None,None,None,None,None,None,None,-0.2,1,580.9214281000895,None,580.9214281000895,None,580.9214281000895,None,580.9214281000895,None,580.9214281000895,None,580.9214281000895,None,50,580.9214281000895,None,580.9214281000895,None,0.0007492100121453404,None,580.9214281000895,None,1,3.461085299961269,589.7307008000789,None,589.7307008000789,None,589.7307008000789,None,589.7307008000789,None,None,None,593.2208949000342,None,-0.15625,-0.2630208333333333,1,0,0,8.774559700046666,tijiao_random_2,,,,,,,,,252,f,22,2023_Mar_22_1736,RL,2021.2.3,60.012446578385614,
1,-0.3,-0.225,0,36,36,36,,,,,,,,,,,,,,,None,None,None,None,None,594.7450378000503,None,594.7450378000503,None,594.7450378000503,None,594.7450378000503,None,r,0.8905870999442413,594.7450378000503,None,594.7450378000503,None,595.6789991999976,None,595.6789991999976,None,595.6789991999976,None,595.6789991999976,None,595.6789991999976,None,595.6789991999976,None,595.9747895000037,None,595.9747895000037,None,596.8059300000314,None,596.8059300000314,None,596.8059300000314,None,596.8059300000314,None,596.8059300000314,None,596.8059300000314,None,596.8059300000314,None,596.8059300000314,None,596.8059300000314,None,70,39,61,38,70,91,None,None,None,None,None,None,None,None,None,None,None,None,,None,None,,None,None,None,None,None,None,None,None,None,None,None,None,None,None,None,None,None,None,0.6,1,599.3506178000243,None,599.3506178000243,None,599.3506178000243,None,599.3506178000243,None,599.3506178000243,None,599.3506178000243,None,50,599.3506178000243,None,599.3506178000243,None,0.0015229100827127695,None,599.3506178000243,None,1.104166666666667,3.6353582000592723,606.7554157000268,None,606.7554157000268,None,606.7554157000268,None,606.7554157000268,None,None,None,610.4178664000938,None,-0.10026041666666667,-0.3255208333333333,1,0,0,7.374053300009109,tijiao_random_2,,,,,,,,,252,f,22,2023_Mar_22_1736,RL,2021.2.3,60.012446578385614,
0,0.3,0.225,0,37,37,37,,,,,,,,,,,,,,,None,None,None,None,None,612.1563997000922,None,612.1563997000922,None,612.1563997000922,None,612.1563997000922,None,r,0.4203047000337392,612.1563997000922,None,612.1563997000922,None,612.6228218000615,None,612.6228218000615,None,612.6228218000615,None,612.6228218000615,None,612.6228218000615,None,612.6228218000615,None,612.9198976000771,None,612.9198976000771,None,614.6016122000292,None,614.6016122000292,None,614.6016122000292,None,614.6016122000292,None,614.6016122000292,None,614.6016122000292,None,614.6016122000292,None,614.6016122000292,None,614.6016122000292,None,49,40,55,34,49,93,None,None,None,None,None,None,None,None,None,None,None,None,50,617.1519060999854,None,50,617.1519060999854,None,617.1519060999854,None,617.1519060999854,None,617.1519060999854,None,617.1519060999854,None,617.1519060999854,None,617.1519060999854,None,0.0015007100300863385,None,617.1519060999854,None,0.2,0,None,None,None,None,None,None,None,None,None,None,None,None,,None,None,None,None,None,None,None,None,1,2.8593576999846846,624.0338267000625,None,624.0338267000625,None,624.0338267000625,None,624.0338267000625,None,None,None,626.9124674000777,None,,,,,,,,-0.014322916666666666,-0.2760416666666667,1,0,0,6.839793300023302,tijiao,,252,f,22,2023_Mar_22_1736,RL,2021.2.3,60.012446578385614,
1,-0.3,-0.225,0,38,38,38,,,,,,,,,,,,,,,None,None,None,None,None,628.5184542000061,None,628.5184542000061,None,628.5184542000061,None,628.5184542000061,None,r,0.37849459995049983,628.5184542000061,None,628.5184542000061,None,628.9383538999828,None,628.9383538999828,None,628.9383538999828,None,628.9383538999828,None,628.9383538999828,None,628.9383538999828,None,629.214603700093,631.1492080000462,629.214603700093,631.1492080000462,631.1977242000867,None,631.1977242000867,None,631.1977242000867,None,631.1977242000867,None,631.1977242000867,None,631.1977242000867,None,631.1977242000867,None,631.1977242000867,None,631.1977242000867,None,60,42,51,50,60,79,633.7166331000626,None,2.0,3.238963000010699,633.7166331000626,None,633.7166331000626,None,633.7166331000626,None,633.7166331000626,None,,None,None,,None,None,None,None,None,None,None,None,None,None,None,None,None,None,None,None,None,None,-0.2,3,None,None,None,None,None,None,None,None,None,None,None,None,,None,None,None,None,None,None,None,None,None,None,None,None,None,None,None,None,None,None,None,None,637.0145019000629,None,,,,,,,,,,,,,,,,252,f,22,2023_Mar_22_1736,RL,2021.2.3,60.012446578385614,
0,0.3,0.225,0,39,39,39,,,,,,,,,,,,,,,None,None,None,None,None,638.5580244000303,None,638.5580244000303,None,638.5580244000303,None,638.5580244000303,None,j,1.2389737999765202,638.5580244000303,None,638.5580244000303,None,639.8446850000182,None,639.8446850000182,None,639.8446850000182,None,639.8446850000182,None,639.8446850000182,None,639.8446850000182,None,640.138779400033,642.1235290000914,640.138779400033,642.1235290000914,642.1546939000254,None,642.1546939000254,None,642.1546939000254,None,642.1546939000254,None,642.1546939000254,None,642.1546939000254,None,642.1546939000254,None,642.1546939000254,None,642.1546939000254,None,54,42,54,43,43,78,None,None,None,None,None,None,None,None,None,None,None,None,,None,None,,None,None,None,None,None,None,None,None,None,None,None,None,None,None,None,None,None,None,-0.6,1,644.7028318000957,None,644.7028318000957,None,644.7028318000957,None,644.7028318000957,None,644.7028318000957,None,644.7028318000957,None,45,644.7028318000957,None,644.7028318000957,None,0.013995280140079558,None,644.7028318000957,None,1.208333333333333,3.031693199998699,652.7238213000819,None,652.7238213000819,None,652.7238213000819,None,652.7238213000819,None,None,None,655.7808369999984,None,-0.09375,-0.2643229166666667,1,0,0,7.987026399932802,tijiao_random_2,,,,,,,,,252,f,22,2023_Mar_22_1736,RL,2021.2.3,60.012446578385614,
1,-0.3,-0.225,0,40,40,40,,,,,,,,,,,,,,,None,None,None,None,None,657.7886867000489,None,657.7886867000489,None,657.7886867000489,None,657.7886867000489,None,j,0.3084220999153331,657.7886867000489,None,657.7886867000489,None,658.1399308000691,None,658.1399308000691,None,658.1399308000691,None,658.1399308000691,None,658.1399308000691,None,658.1399308000691,None,658.4348187000724,None,658.4348187000724,None,659.4663015999831,None,659.4663015999831,None,659.4663015999831,None,659.4663015999831,None,659.4663015999831,None,659.4663015999831,None,659.4663015999831,None,659.4663015999831,None,659.4663015999831,None,57,44,60,39,39,79,661.9832119999919,None,2.0,1.8416634000604972,661.9832119999919,None,661.9832119999919,None,661.9832119999919,None,661.9832119999919,None,,None,None,,None,None,None,None,None,None,None,None,None,None,None,None,None,None,None,None,None,None,0.6,2,None,None,None,None,None,None,None,None,None,None,None,None,,None,None,None,None,None,None,None,None,None,None,None,None,None,None,None,None,None,None,None,None,663.884980999981,None,,,,,,,,,,,,,,,,252,f,22,2023_Mar_22_1736,RL,2021.2.3,60.012446578385614,
0,0.3,0.225,0,41,41,41,,,,,,,,,,,,,,,None,None,None,None,None,665.8603871000232,None,665.8603871000232,None,665.8603871000232,None,665.8603871000232,None,f,0.26678720000199974,665.8603871000232,None,665.8603871000232,None,666.1765409000218,None,666.1765409000218,None,666.1765409000218,None,666.1765409000218,None,666.1765409000218,None,666.1765409000218,None,666.4738181000575,None,666.4738181000575,None,667.8749078999972,None,667.8749078999972,None,667.8749078999972,None,667.8749078999972,None,667.8749078999972,None,667.8749078999972,None,667.8749078999972,None,667.8749078999972,None,667.8749078999972,None,60,50,47,40,50,55,None,None,None,None,None,None,None,None,None,None,None,None,59,670.4101253000554,None,59,670.4101253000554,None,670.4101253000554,None,670.4101253000554,None,670.4101253000554,None,670.4101253000554,None,670.4101253000554,None,670.4101253000554,None,0.008821210009045899,None,670.4101253000554,None,0.2,0,None,None,None,None,None,None,None,None,None,None,None,None,,None,None,None,None,None,None,None,None,1,2.678595699951984,685.347566200071,None,685.347566200071,None,685.347566200071,None,685.347566200071,None,None,None,688.0534307000926,None,,,,,,,,-0.14973958333333334,-0.2669270833333333,1,0,0,14.887214899994433,tijiao,,252,f,22,2023_Mar_22_1736,RL,2021.2.3,60.012446578385614,
1,-0.3,-0.225,0,42,42,42,,,,,,,,,,,,,,,None,None,None,None,None,689.8939414999913,None,689.8939414999913,None,689.8939414999913,None,689.8939414999913,None,f,0.3333250000141561,689.8939414999913,None,689.8939414999913,None,690.2785522000631,None,690.2785522000631,None,690.2785522000631,None,690.2785522000631,None,690.2785522000631,None,690.2785522000631,None,690.5738697000779,692.0916283000261,690.5738697000779,692.0916283000261,692.1246204000199,None,692.1246204000199,None,692.1246204000199,None,692.1246204000199,None,692.1246204000199,None,692.1246204000199,None,692.1246204000199,None,692.1246204000199,None,692.1246204000199,None,57,31,48,49,31,84,694.6415553999832,None,2.0,2.471054399968125,694.6415553999832,None,694.6415553999832,None,694.6415553999832,None,694.6415553999832,None,,None,None,,None,None,None,None,None,None,None,None,None,None,None,None,None,None,None,None,None,None,-0.2,3,None,None,None,None,None,None,None,None,None,None,None,None,,None,None,None,None,None,None,None,None,None,None,None,None,None,None,None,None,None,None,None,None,697.1666756999912,None,,,,,,,,,,,,,,,,252,f,22,2023_Mar_22_1736,RL,2021.2.3,60.012446578385614,
0,0.3,0.225,0,43,43,43,,,,,,,,,,,,,,,None,None,None,None,None,698.7837251999881,None,698.7837251999881,None,698.7837251999881,None,698.7837251999881,None,i,0.3537522000260651,698.7837251999881,None,698.7837251999881,None,699.1842987000709,None,699.1842987000709,None,699.1842987000709,None,699.1842987000709,None,699.1842987000709,None,699.1842987000709,None,699.4799428000115,None,699.4799428000115,None,701.2618544000434,None,701.2618544000434,None,701.2618544000434,None,701.2618544000434,None,701.2618544000434,None,701.2618544000434,None,701.2618544000434,None,701.2618544000434,None,701.2618544000434,None,57,39,45,52,45,86,703.7794244000688,None,2.0,1.6884904999751598,703.7794244000688,None,703.7794244000688,None,703.7794244000688,None,703.7794244000688,None,,None,None,,None,None,None,None,None,None,None,None,None,None,None,None,None,None,None,None,None,None,0.6,3,None,None,None,None,None,None,None,None,None,None,None,None,,None,None,None,None,None,None,None,None,None,None,None,None,None,None,None,None,None,None,None,None,705.5264042000053,None,,,,,,,,,,,,,,,,252,f,22,2023_Mar_22_1736,RL,2021.2.3,60.012446578385614,
1,-0.3,-0.225,0,44,44,44,,,,,,,,,,,,,,,None,None,None,None,None,707.3898180000251,None,707.3898180000251,None,707.3898180000251,None,707.3898180000251,None,f,0.33793639997020364,707.3898180000251,None,707.3898180000251,None,707.7742222000379,None,707.7742222000379,None,707.7742222000379,None,707.7742222000379,None,707.7742222000379,None,707.7742222000379,None,708.069263500045,None,708.069263500045,None,709.2995511000045,None,709.2995511000045,None,709.2995511000045,None,709.2995511000045,None,709.2995511000045,None,709.2995511000045,None,709.2995511000045,None,709.2995511000045,None,709.2995511000045,None,61,46,43,48,46,88,None,None,None,None,None,None,None,None,None,None,None,None,,None,None,,None,None,None,None,None,None,None,None,None,None,None,None,None,None,None,None,None,None,0.2,1,711.8530996000627,None,711.8530996000627,None,711.8530996000627,None,711.8530996000627,None,711.8530996000627,None,711.8530996000627,None,30,711.8530996000627,None,711.8530996000627,None,0.010521380114369094,None,711.8530996000627,None,2.302083333333333,2.9636308000190184,718.8168870999943,None,718.8168870999943,None,718.8168870999943,None,718.8168870999943,None,None,None,721.7946633000392,None,-0.07161458333333333,-0.3033854166666667,1,0,0,6.932729899999686,tijiao_random_2,,,,,,,,,252,f,22,2023_Mar_22_1736,RL,2021.2.3,60.012446578385614,
0,0.3,0.225,0,45,45,45,,,,,,,,,,,,,,,None,None,None,None,None,723.4843532000668,None,723.4843532000668,None,723.4843532000668,None,723.4843532000668,None,r,0.293177800020203,723.4843532000668,None,723.4843532000668,None,723.816378400079,None,723.816378400079,None,723.816378400079,None,723.816378400079,None,723.816378400079,None,723.816378400079,None,724.1139436000958,None,724.1139436000958,None,725.6787317000562,None,725.6787317000562,None,725.6787317000562,None,725.6787317000562,None,725.6787317000562,None,725.6787317000562,None,725.6787317000562,None,725.6787317000562,None,725.6787317000562,None,52,50,46,54,52,89,728.2052907000761,None,2.0,1.4824107999447733,728.2052907000761,None,728.2052907000761,None,728.2052907000761,None,728.2052907000761,None,,None,None,,None,None,None,None,None,None,None,None,None,None,None,None,None,None,None,None,None,None,-0.6,2,None,None,None,None,None,None,None,None,None,None,None,None,,None,None,None,None,None,None,None,None,None,None,None,None,None,None,None,None,None,None,None,None,729.7397378000896,None,,,,,,,,,,,,,,,,252,f,22,2023_Mar_22_1736,RL,2021.2.3,60.012446578385614,
1,-0.3,-0.225,0,46,46,46,,,,,,,,,,,,,,,None,None,None,None,None,731.6899772000033,None,731.6899772000033,None,731.6899772000033,None,731.6899772000033,None,i,0.34759260003920645,731.6899772000033,None,731.6899772000033,None,732.0754099000478,None,732.0754099000478,None,732.0754099000478,None,732.0754099000478,None,732.0754099000478,None,732.0754099000478,None,732.369536900078,None,732.369536900078,None,733.9673803000478,None,733.9673803000478,None,733.9673803000478,None,733.9673803000478,None,733.9673803000478,None,733.9673803000478,None,733.9673803000478,None,733.9673803000478,None,733.9673803000478,None,53,43,41,55,41,70,None,None,None,None,None,None,None,None,None,None,None,None,39,736.4976633000188,None,39,736.4976633000188,None,736.4976633000188,None,736.4976633000188,None,736.4976633000188,None,736.4976633000188,None,736.4976633000188,None,736.4976633000188,None,0.0002911400515586138,None,736.4976633000188,None,-0.6,0,None,None,None,None,None,None,None,None,None,None,None,None,,None,None,None,None,None,None,None,None,1,2.0807691999943927,747.7540370000061,None,747.7540370000061,None,747.7540370000061,None,747.7540370000061,None,None,None,749.865200500004,None,,,,,,,,0.12109375,-0.2955729166666667,1,0,0,11.209880000096746,tijiao,,252,f,22,2023_Mar_22_1736,RL,2021.2.3,60.012446578385614,
0,0.3,0.225,0,47,47,47,,,,,,,,,,,,,,,None,None,None,None,None,751.7365549000679,None,751.7365549000679,None,751.7365549000679,None,751.7365549000679,None,r,0.30117150000296533,751.7365549000679,None,751.7365549000679,None,752.0989162999904,None,752.0989162999904,None,752.0989162999904,None,752.0989162999904,None,752.0989162999904,None,752.0989162999904,None,752.4000881999964,None,752.4000881999964,None,753.2985858999891,None,753.2985858999891,None,753.2985858999891,None,753.2985858999891,None,753.2985858999891,None,753.2985858999891,None,753.2985858999891,None,753.2985858999891,None,753.2985858999891,None,55,46,28,53,55,90,755.8206561000552,None,1.0,2.151506599970162,755.8206561000552,None,755.8206561000552,None,755.8206561000552,None,755.8206561000552,None,,None,None,,None,None,None,None,None,None,None,None,None,None,None,None,None,None,None,None,None,None,0.6,2,None,None,None,None,None,None,None,None,None,None,None,None,,None,None,None,None,None,None,None,None,None,None,None,None,None,None,None,None,None,None,None,None,758.0257267000852,None,,,,,,,,,,,,,,,,252,f,22,2023_Mar_22_1736,RL,2021.2.3,60.012446578385614,
1,-0.3,-0.225,0,48,48,48,,,,,,,,,,,,,,,None,None,None,None,None,759.609339900082,None,759.609339900082,None,759.609339900082,None,759.609339900082,None,r,0.8585582999512553,759.609339900082,None,759.609339900082,None,760.5135465000058,None,760.5135465000058,None,760.5135465000058,None,760.5135465000058,None,760.5135465000058,None,760.5135465000058,None,760.7892844000598,762.707215600065,760.7892844000598,762.707215600065,762.7561834000517,None,762.7561834000517,None,762.7561834000517,None,762.7561834000517,None,762.7561834000517,None,762.7561834000517,None,762.7561834000517,None,762.7561834000517,None,762.7561834000517,None,52,50,42,55,52,38,765.2770064000506,None,1.0,2.1841982000041753,765.2770064000506,None,765.2770064000506,None,765.2770064000506,None,765.2770064000506,None,,None,None,,None,None,None,None,None,None,None,None,None,None,None,None,None,None,None,None,None,None,-0.6,3,None,None,None,None,None,None,None,None,None,None,None,None,,None,None,None,None,None,None,None,None,None,None,None,None,None,None,None,None,None,None,None,None,767.516318500042,None,,,,,,,,,,,,,,,,252,f,22,2023_Mar_22_1736,RL,2021.2.3,60.012446578385614,
0,0.3,0.225,0,49,49,49,,,,,,,,,,,,,,,None,None,None,None,None,769.3325170000317,None,769.3325170000317,None,769.3325170000317,None,769.3325170000317,None,i,0.31550470006186515,769.3325170000317,None,769.3325170000317,None,769.7007088999962,None,769.7007088999962,None,769.7007088999962,None,769.7007088999962,None,769.7007088999962,None,769.7007088999962,None,769.9955793999834,None,769.9955793999834,None,771.2766781999962,None,771.2766781999962,None,771.2766781999962,None,771.2766781999962,None,771.2766781999962,None,771.2766781999962,None,771.2766781999962,None,771.2766781999962,None,771.2766781999962,None,54,49,32,55,32,41,773.7983941000421,None,1.0,2.9864791999571025,773.7983941000421,None,773.7983941000421,None,773.7983941000421,None,773.7983941000421,None,,None,None,,None,None,None,None,None,None,None,None,None,None,None,None,None,None,None,None,None,None,-0.6,2,None,None,None,None,None,None,None,None,None,None,None,None,,None,None,None,None,None,None,None,None,None,None,None,None,None,None,None,None,None,None,None,None,776.8594799999846,None,,,,,,,,,,,,,,,,252,f,22,2023_Mar_22_1736,RL,2021.2.3,60.012446578385614,
1,-0.3,-0.225,0,50,50,50,,,,,,,,,,,,,,,None,None,None,None,None,778.8394267000258,None,778.8394267000258,None,778.8394267000258,None,778.8394267000258,None,f,0.4194399999687448,778.8394267000258,None,778.8394267000258,None,779.3113865000196,None,779.3113865000196,None,779.3113865000196,None,779.3113865000196,None,779.3113865000196,None,779.3113865000196,None,779.6022795999888,None,779.6022795999888,None,780.5177437000675,None,780.5177437000675,None,780.5177437000675,None,780.5177437000675,None,780.5177437000675,None,780.5177437000675,None,780.5177437000675,None,780.5177437000675,None,780.5177437000675,None,49,53,36,52,53,42,783.0372220000718,None,2.0,3.1725409999489784,783.0372220000718,None,783.0372220000718,None,783.0372220000718,None,783.0372220000718,None,,None,None,,None,None,None,None,None,None,None,None,None,None,None,None,None,None,None,None,None,None,-0.6,3,None,None,None,None,None,None,None,None,None,None,None,None,,None,None,None,None,None,None,None,None,None,None,None,None,None,None,None,None,None,None,None,None,786.2609013000038,None,,,,,,,,,,,,,,,,252,f,22,2023_Mar_22_1736,RL,2021.2.3,60.012446578385614,
0,0.3,0.225,0,51,51,51,,,,,,,,,,,,,,,None,None,None,None,None,788.0783642000752,None,788.0783642000752,None,788.0783642000752,None,788.0783642000752,None,j,0.31061939999926835,788.0783642000752,None,788.0783642000752,None,788.4307912000222,None,788.4307912000222,None,788.4307912000222,None,788.4307912000222,None,788.4307912000222,None,788.4307912000222,None,788.7253459000494,None,788.7253459000494,None,790.0257378000533,None,790.0257378000533,None,790.0257378000533,None,790.0257378000533,None,790.0257378000533,None,790.0257378000533,None,790.0257378000533,None,790.0257378000533,None,790.0257378000533,None,57,50,38,46,46,86,None,None,None,None,None,None,None,None,None,None,None,None,50,792.5615624000784,None,50,792.5615624000784,None,792.5615624000784,None,792.5615624000784,None,792.5615624000784,None,792.5615624000784,None,792.5615624000784,None,792.5615624000784,None,0.008950109942816198,None,792.5615624000784,None,0.2,0,None,None,None,None,None,None,None,None,None,None,None,None,,None,None,None,None,None,None,None,None,1.078125,4.495217700023204,797.4922848000424,None,797.4922848000424,None,797.4922848000424,None,797.4922848000424,None,None,None,802.0003778000828,None,,,,,,,,-0.13411458333333334,-0.2877604166666667,1,0,0,4.879916200065054,tijiao,,252,f,22,2023_Mar_22_1736,RL,2021.2.3,60.012446578385614,
1,-0.3,-0.225,0,52,52,52,,,,,,,,,,,,,,,None,None,None,None,None,803.6055933000753,None,803.6055933000753,None,803.6055933000753,None,803.6055933000753,None,r,0.283679399988614,803.6055933000753,None,803.6055933000753,None,803.945895300014,None,803.945895300014,None,803.945895300014,None,803.945895300014,None,803.945895300014,None,803.945895300014,None,804.2359353000065,None,804.2359353000065,None,806.1333648000145,None,806.1333648000145,None,806.1333648000145,None,806.1333648000145,None,806.1333648000145,None,806.1333648000145,None,806.1333648000145,None,806.1333648000145,None,806.1333648000145,None,46,47,45,50,46,79,None,None,None,None,None,None,None,None,None,None,None,None,45,808.6724072000943,None,45,808.6724072000943,None,808.6724072000943,None,808.6724072000943,None,808.6724072000943,None,808.6724072000943,None,808.6724072000943,None,808.6724072000943,None,0.009344909922219813,None,808.6724072000943,None,-0.2,0,None,None,None,None,None,None,None,None,None,None,None,None,,None,None,None,None,None,None,None,None,1.091145833333333,2.0635575000196695,818.0606178999878,None,818.0606178999878,None,818.0606178999878,None,818.0606178999878,None,None,None,820.1620160000166,None,,,,,,,,-0.08723958333333333,-0.3515625,1,0,0,8.300098399980925,tijiao,,252,f,22,2023_Mar_22_1736,RL,2021.2.3,60.012446578385614,
0,0.3,0.225,0,53,53,53,,,,,,,,,,,,,,,None,None,None,None,None,821.7855126000941,None,821.7855126000941,None,821.7855126000941,None,821.7855126000941,None,i,0.2740781999891624,821.7855126000941,None,821.7855126000941,None,822.1104786000215,None,822.1104786000215,None,822.1104786000215,None,822.1104786000215,None,822.1104786000215,None,822.1104786000215,None,822.3987259999849,824.3999362000031,822.3987259999849,824.3999362000031,824.4321582000703,None,824.4321582000703,None,824.4321582000703,None,824.4321582000703,None,824.4321582000703,None,824.4321582000703,None,824.4321582000703,None,824.4321582000703,None,824.4321582000703,None,60,40,53,48,53,75,826.9491698000347,None,1.0,1.3382443999871612,826.9491698000347,None,826.9491698000347,None,826.9491698000347,None,826.9491698000347,None,,None,None,,None,None,None,None,None,None,None,None,None,None,None,None,None,None,None,None,None,None,-0.6,2,None,None,None,None,None,None,None,None,None,None,None,None,,None,None,None,None,None,None,None,None,None,None,None,None,None,None,None,None,None,None,None,None,828.3666891000466,None,,,,,,,,,,,,,,,,252,f,22,2023_Mar_22_1736,RL,2021.2.3,60.012446578385614,
1,-0.3,-0.225,0,54,54,54,,,,,,,,,,,,,,,None,None,None,None,None,830.3751668999903,None,830.3751668999903,None,830.3751668999903,None,830.3751668999903,None,i,0.35404460004065186,830.3751668999903,None,830.3751668999903,None,830.7759381000651,None,830.7759381000651,None,830.7759381000651,None,830.7759381000651,None,830.7759381000651,None,830.7759381000651,None,831.0714795000385,None,831.0714795000385,None,832.0526108000195,None,832.0526108000195,None,832.0526108000195,None,832.0526108000195,None,832.0526108000195,None,832.0526108000195,None,832.0526108000195,None,832.0526108000195,None,832.0526108000195,None,50,43,40,55,40,73,834.5698128000367,None,1.0,1.0548303999239579,834.5698128000367,None,834.5698128000367,None,834.5698128000367,None,834.5698128000367,None,,None,None,,None,None,None,None,None,None,None,None,None,None,None,None,None,None,None,None,None,None,-0.6,3,None,None,None,None,None,None,None,None,None,None,None,None,,None,None,None,None,None,None,None,None,None,None,None,None,None,None,None,None,None,None,None,None,835.6921602000948,None,,,,,,,,,,,,,,,,252,f,22,2023_Mar_22_1736,RL,2021.2.3,60.012446578385614,
0,0.3,0.225,0,55,55,55,,,,,,,,,,,,,,,None,None,None,None,None,837.363442700007,None,837.363442700007,None,837.363442700007,None,837.363442700007,None,r,0.3160055000334978,837.363442700007,None,837.363442700007,None,837.7309999000281,None,837.7309999000281,None,837.7309999000281,None,837.7309999000281,None,837.7309999000281,None,837.7309999000281,None,838.026093200082,838.910099800094,838.026093200082,838.910099800094,838.9418300000252,None,838.9418300000252,None,838.9418300000252,None,838.9418300000252,None,838.9418300000252,None,838.9418300000252,None,838.9418300000252,None,838.9418300000252,None,838.9418300000252,None,58,47,44,57,58,72,841.4583500000881,None,1.0,3.5592541999649256,841.4583500000881,None,841.4583500000881,None,841.4583500000881,None,841.4583500000881,None,,None,None,,None,None,None,None,None,None,None,None,None,None,None,None,None,None,None,None,None,None,-0.2,3,None,None,None,None,None,None,None,None,None,None,None,None,,None,None,None,None,None,None,None,None,None,None,None,None,None,None,None,None,None,None,None,None,845.0774497000966,None,,,,,,,,,,,,,,,,252,f,22,2023_Mar_22_1736,RL,2021.2.3,60.012446578385614,
1,-0.3,-0.225,0,56,56,56,,,,,,,,,,,,,,,None,None,None,None,None,847.0034704999998,None,847.0034704999998,None,847.0034704999998,None,847.0034704999998,None,j,0.38588169997092336,847.0034704999998,None,847.0034704999998,None,847.4438251000829,None,847.4438251000829,None,847.4438251000829,None,847.4438251000829,None,847.4438251000829,None,847.4438251000829,None,847.7329457000596,849.3509109000443,847.7329457000596,849.3509109000443,849.38401290006,None,849.38401290006,None,849.38401290006,None,849.38401290006,None,849.38401290006,None,849.38401290006,None,849.38401290006,None,849.38401290006,None,849.38401290006,None,45,36,49,48,48,70,None,None,None,None,None,None,None,None,None,None,None,None,,None,None,,None,None,None,None,None,None,None,None,None,None,None,None,None,None,None,None,None,None,-0.2,1,851.929908900056,None,851.929908900056,None,851.929908900056,None,851.929908900056,None,851.929908900056,None,851.929908900056,None,35,851.929908900056,None,851.929908900056,None,0.013333979994058609,None,851.929908900056,None,1.390625,2.872436400037259,859.979891300085,None,859.979891300085,None,859.979891300085,None,859.979891300085,None,None,None,862.8748510000296,None,-0.078125,-0.27734375,1,0,0,8.003292900044471,tijiao_random_2,,,,,,,,,252,f,22,2023_Mar_22_1736,RL,2021.2.3,60.012446578385614,
0,0.3,0.225,0,57,57,57,,,,,,,,,,,,,,,None,None,None,None,None,864.3936053999932,None,864.3936053999932,None,864.3936053999932,None,864.3936053999932,None,r,0.3959463000064716,864.3936053999932,None,864.3936053999932,None,864.837233300088,None,864.837233300088,None,864.837233300088,None,864.837233300088,None,864.837233300088,None,864.837233300088,None,865.1283683000365,866.8629477000795,865.1283683000365,866.8629477000795,866.8933266000822,None,866.8933266000822,None,866.8933266000822,None,866.8933266000822,None,866.8933266000822,None,866.8933266000822,None,866.8933266000822,None,866.8933266000822,None,866.8933266000822,None,59,47,47,41,59,70,869.4129499000264,None,2.0,1.6889034999767318,869.4129499000264,None,869.4129499000264,None,869.4129499000264,None,869.4129499000264,None,,None,None,,None,None,None,None,None,None,None,None,None,None,None,None,None,None,None,None,None,None,0.2,2,None,None,None,None,None,None,None,None,None,None,None,None,,None,None,None,None,None,None,None,None,None,None,None,None,None,None,None,None,None,None,None,None,871.1608759000665,None,,,,,,,,,,,,,,,,252,f,22,2023_Mar_22_1736,RL,2021.2.3,60.012446578385614,
1,-0.3,-0.225,0,58,58,58,,,,,,,,,,,,,,,None,None,None,None,None,873.1046806999948,None,873.1046806999948,None,873.1046806999948,None,873.1046806999948,None,i,0.6748791999416426,873.1046806999948,None,873.1046806999948,None,873.8228571000509,None,873.8228571000509,None,873.8228571000509,None,873.8228571000509,None,873.8228571000509,None,873.8228571000509,None,874.1178928000154,None,874.1178928000154,None,875.9495942000067,None,875.9495942000067,None,875.9495942000067,None,875.9495942000067,None,875.9495942000067,None,875.9495942000067,None,875.9495942000067,None,875.9495942000067,None,875.9495942000067,None,44,45,41,43,41,69,878.4751769000432,None,3.0,3.535746300010942,878.4751769000432,None,878.4751769000432,None,878.4751769000432,None,878.4751769000432,None,,None,None,,None,None,None,None,None,None,None,None,None,None,None,None,None,None,None,None,None,None,0.6,3,None,None,None,None,None,None,None,None,None,None,None,None,,None,None,None,None,None,None,None,None,None,None,None,None,None,None,None,None,None,None,None,None,882.0732668000273,None,,,,,,,,,,,,,,,,252,f,22,2023_Mar_22_1736,RL,2021.2.3,60.012446578385614,
0,0.3,0.225,0,59,59,59,,,,,,,,,,,,,,,None,None,None,None,None,883.6953275999986,None,883.6953275999986,None,883.6953275999986,None,883.6953275999986,None,r,0.45480230008251965,883.6953275999986,None,883.6953275999986,None,884.2034263000824,None,884.2034263000824,None,884.2034263000824,None,884.2034263000824,None,884.2034263000824,None,884.2034263000824,None,884.4918467000825,885.6594086000696,884.4918467000825,885.6594086000696,885.6951621000189,None,885.6951621000189,None,885.6951621000189,None,885.6951621000189,None,885.6951621000189,None,885.6951621000189,None,885.6951621000189,None,885.6951621000189,None,885.6951621000189,None,44,41,52,43,44,71,None,None,None,None,None,None,None,None,None,None,None,None,40,888.2214043000713,None,40,888.2214043000713,None,888.2214043000713,None,888.2214043000713,None,888.2214043000713,None,888.2214043000713,None,888.2214043000713,None,888.2214043000713,None,0.014034109888598323,None,888.2214043000713,None,-0.2,0,None,None,None,None,None,None,None,None,None,None,None,None,,None,None,None,None,None,None,None,None,1.325520833333333,2.8497911000158638,897.654419700033,None,897.654419700033,None,897.654419700033,None,897.654419700033,None,None,None,900.5190478999866,None,,,,,,,,-0.018229166666666668,-0.29296875,1,0,0,9.38793089997489,tijiao,,252,f,22,2023_Mar_22_1736,RL,2021.2.3,60.012446578385614,
1,-0.3,-0.225,0,60,60,60,,,,,,,,,,,,,,,None,None,None,None,None,902.1420034000184,None,902.1420034000184,None,902.1420034000184,None,902.1420034000184,None,i,0.3277627000352368,902.1420034000184,None,902.1420034000184,None,902.5166757000843,None,902.5166757000843,None,902.5166757000843,None,902.5166757000843,None,902.5166757000843,None,902.5166757000843,None,902.8044516000664,904.2721230000025,902.8044516000664,904.2721230000025,904.3039511999814,None,904.3039511999814,None,904.3039511999814,None,904.3039511999814,None,904.3039511999814,None,904.3039511999814,None,904.3039511999814,None,904.3039511999814,None,904.3039511999814,None,51,51,58,45,58,52,906.8273703000741,None,3.0,2.0833488000789657,906.8273703000741,None,906.8273703000741,None,906.8273703000741,None,906.8273703000741,None,,None,None,,None,None,None,None,None,None,None,None,None,None,None,None,None,None,None,None,None,None,-0.2,2,None,None,None,None,None,None,None,None,None,None,None,None,,None,None,None,None,None,None,None,None,None,None,None,None,None,None,None,None,None,None,None,None,908.9658305000048,None,,,,,,,,,,,,,,,,252,f,22,2023_Mar_22_1736,RL,2021.2.3,60.012446578385614,
0,0.3,0.225,0,61,61,61,,,,,,,,,,,,,,,None,None,None,None,None,910.8313302000752,None,910.8313302000752,None,910.8313302000752,None,910.8313302000752,None,r,0.3285347999772057,910.8313302000752,None,910.8313302000752,None,911.1999667000491,None,911.1999667000491,None,911.1999667000491,None,911.1999667000491,None,911.1999667000491,None,911.1999667000491,None,911.493891500053,None,911.493891500053,None,912.5570346000604,None,912.5570346000604,None,912.5570346000604,None,912.5570346000604,None,912.5570346000604,None,912.5570346000604,None,912.5570346000604,None,912.5570346000604,None,912.5570346000604,None,40,45,61,51,40,77,None,None,None,None,None,None,None,None,None,None,None,None,40,915.0863513000077,None,40,915.0863513000077,None,915.0863513000077,None,915.0863513000077,None,915.0863513000077,None,915.0863513000077,None,915.0863513000077,None,915.0863513000077,None,0.0010564400581642985,None,915.0863513000077,None,-0.6,0,None,None,None,None,None,None,None,None,None,None,None,None,,None,None,None,None,None,None,None,None,3.1484375,2.400783699937165,925.3584111999953,None,925.3584111999953,None,925.3584111999953,None,925.3584111999953,None,None,None,927.7710647000931,None,,,,,,,,-0.1015625,-0.2877604166666667,1,0,0,10.225862100021914,tijiao,,252,f,22,2023_Mar_22_1736,RL,2021.2.3,60.012446578385614,
1,-0.3,-0.225,0,62,62,62,,,,,,,,,,,,,,,None,None,None,None,None,929.4106249000179,None,929.4106249000179,None,929.4106249000179,None,929.4106249000179,None,j,0.3392998999916017,929.4106249000179,None,929.4106249000179,None,929.8029067000607,None,929.8029067000607,None,929.8029067000607,None,929.8029067000607,None,929.8029067000607,None,929.8029067000607,None,930.090045100078,931.0573774999939,930.090045100078,931.0573774999939,931.0892500000773,None,931.0892500000773,None,931.0892500000773,None,931.0892500000773,None,931.0892500000773,None,931.0892500000773,None,931.0892500000773,None,931.0892500000773,None,931.0892500000773,None,51,48,51,43,43,46,None,None,None,None,None,None,None,None,None,None,None,None,,None,None,,None,None,None,None,None,None,None,None,None,None,None,None,None,None,None,None,None,None,-0.6,1,933.6414181999862,None,933.6414181999862,None,933.6414181999862,None,933.6414181999862,None,933.6414181999862,None,933.6414181999862,None,70,933.6414181999862,None,933.6414181999862,None,0.009357080096378922,None,933.6414181999862,None,3.252604166666667,2.2935014999238774,939.6907151000341,None,939.6907151000341,None,939.6907151000341,None,939.6907151000341,None,None,None,941.9979050999973,None,-0.06510416666666667,-0.25,1,0,0,6.014834600035101,tijiao_random_2,,,,,,,,,252,f,22,2023_Mar_22_1736,RL,2021.2.3,60.012446578385614,
0,0.3,0.225,0,63,63,63,,,,,,,,,,,,,,,None,None,None,None,None,943.5539871000219,None,943.5539871000219,None,943.5539871000219,None,943.5539871000219,None,r,0.317167800036259,943.5539871000219,None,943.5539871000219,None,943.9260978000239,None,943.9260978000239,None,943.9260978000239,None,943.9260978000239,None,943.9260978000239,None,943.9260978000239,None,944.2165706000524,945.9011946000392,944.2165706000524,945.9011946000392,945.9335604000371,None,945.9335604000371,None,945.9335604000371,None,945.9335604000371,None,945.9335604000371,None,945.9335604000371,None,945.9335604000371,None,945.9335604000371,None,945.9335604000371,None,56,47,63,45,56,44,None,None,None,None,None,None,None,None,None,None,None,None,,None,None,,None,None,None,None,None,None,None,None,None,None,None,None,None,None,None,None,None,None,0.6,1,948.4766098000109,None,948.4766098000109,None,948.4766098000109,None,948.4766098000109,None,948.4766098000109,None,948.4766098000109,None,36,948.4766098000109,None,948.4766098000109,None,0.001301510026678443,None,948.4766098000109,None,2.744791666666667,3.542271599988453,955.9189230999909,None,955.9189230999909,None,955.9189230999909,None,955.9189230999909,None,None,None,959.4914740000386,None,-0.18619791666666666,-0.2669270833333333,1,0,0,7.407533399993554,tijiao_random_2,,,,,,,,,252,f,22,2023_Mar_22_1736,RL,2021.2.3,60.012446578385614,
1,-0.3,-0.225,0,64,64,64,,,,,,,,,,,,,,,None,None,None,None,None,961.2993425000459,None,961.2993425000459,None,961.2993425000459,None,961.2993425000459,None,i,0.34186249994672835,961.2993425000459,None,961.2993425000459,None,961.6887078,None,961.6887078,None,961.6887078,None,961.6887078,None,961.6887078,None,961.6887078,None,961.9789691000478,962.8129186000442,961.9789691000478,962.8129186000442,962.8452951000072,None,962.8452951000072,None,962.8452951000072,None,962.8452951000072,None,962.8452951000072,None,962.8452951000072,None,962.8452951000072,None,962.8452951000072,None,962.8452951000072,None,50,45,60,40,60,84,None,None,None,None,None,None,None,None,None,None,None,None,,None,None,,None,None,None,None,None,None,None,None,None,None,None,None,None,None,None,None,None,None,0.6,1,965.3944731000811,None,965.3944731000811,None,965.3944731000811,None,965.3944731000811,None,965.3944731000811,None,965.3944731000811,None,30,965.3944731000811,None,965.3944731000811,None,0.011908979970030487,None,965.3944731000811,None,1.026041666666667,2.6581768000032753,974.899504100089,None,974.899504100089,None,974.899504100089,None,974.899504100089,None,None,None,977.5726131000556,None,0.005208333333333333,-0.2578125,1,0,0,9.469204799970612,tijiao_random_2,,,,,,,,,252,f,22,2023_Mar_22_1736,RL,2021.2.3,60.012446578385614,
0,0.3,0.225,0,65,65,65,,,,,,,,,,,,,,,None,None,None,None,None,979.1784716000548,None,979.1784716000548,None,979.1784716000548,None,979.1784716000548,None,r,0.26319169998168945,979.1784716000548,None,979.1784716000548,None,979.4853671999881,None,979.4853671999881,None,979.4853671999881,None,979.4853671999881,None,979.4853671999881,None,979.4853671999881,None,979.7742766999872,981.1753308000043,979.7742766999872,981.1753308000043,981.2071752999909,None,981.2071752999909,None,981.2071752999909,None,981.2071752999909,None,981.2071752999909,None,981.2071752999909,None,981.2071752999909,None,981.2071752999909,None,981.2071752999909,None,51,46,52,36,51,75,983.731298900093,None,3.0,2.6543403998948634,983.731298900093,None,983.731298900093,None,983.731298900093,None,983.731298900093,None,,None,None,,None,None,None,None,None,None,None,None,None,None,None,None,None,None,None,None,None,None,-0.2,2,None,None,None,None,None,None,None,None,None,None,None,None,,None,None,None,None,None,None,None,None,None,None,None,None,None,None,None,None,None,None,None,None,986.4497421000851,None,,,,,,,,,,,,,,,,252,f,22,2023_Mar_22_1736,RL,2021.2.3,60.012446578385614,
1,-0.3,-0.225,0,66,66,66,,,,,,,,,,,,,,,None,None,None,None,None,988.0342030000174,None,988.0342030000174,None,988.0342030000174,None,988.0342030000174,None,j,0.3673780000535771,988.0342030000174,None,988.0342030000174,None,988.4526290000649,None,988.4526290000649,None,988.4526290000649,None,988.4526290000649,None,988.4526290000649,None,988.4526290000649,None,988.7475818000967,None,988.7475818000967,None,990.717450199998,None,990.717450199998,None,990.717450199998,None,990.717450199998,None,990.717450199998,None,990.717450199998,None,990.717450199998,None,990.717450199998,None,990.717450199998,None,55,34,56,33,33,67,None,None,None,None,None,None,None,None,None,None,None,None,,None,None,,None,None,None,None,None,None,None,None,None,None,None,None,None,None,None,None,None,None,0.2,1,993.2605783999898,None,993.2605783999898,None,993.2605783999898,None,993.2605783999898,None,993.2605783999898,None,993.2605783999898,None,80,993.2605783999898,None,993.2605783999898,None,0.01458298007491976,None,993.2605783999898,None,4.893229166666667,5.387904100003652,998.2056074000429,None,998.2056074000429,None,998.2056074000429,None,998.2056074000429,None,None,None,1003.6223187000724,None,-0.15364583333333334,-0.2643229166666667,1,0,0,4.902316099964082,tijiao_random_2,,,,,,,,,252,f,22,2023_Mar_22_1736,RL,2021.2.3,60.012446578385614,
0,0.3,0.225,0,67,67,67,,,,,,,,,,,,,,,None,None,None,None,None,1005.5637207999825,None,1005.5637207999825,None,1005.5637207999825,None,1005.5637207999825,None,i,0.33799999998882413,1005.5637207999825,None,1005.5637207999825,None,1005.9501728999894,None,1005.9501728999894,None,1005.9501728999894,None,1005.9501728999894,None,1005.9501728999894,None,1005.9501728999894,None,1006.2430113999872,None,1006.2430113999872,None,1008.0920135000488,None,1008.0920135000488,None,1008.0920135000488,None,1008.0920135000488,None,1008.0920135000488,None,1008.0920135000488,None,1008.0920135000488,None,1008.0920135000488,None,1008.0920135000488,None,50,42,64,44,64,69,None,None,None,None,None,None,None,None,None,None,None,None,30,1010.6221492000623,None,30,1010.6221492000623,None,1010.6221492000623,None,1010.6221492000623,None,1010.6221492000623,None,1010.6221492000623,None,1010.6221492000623,None,1010.6221492000623,None,0.016102209803648293,None,1010.6221492000623,None,-0.6,0,None,None,None,None,None,None,None,None,None,None,None,None,,None,None,None,None,None,None,None,None,3.057291666666667,2.3899753000587225,1021.7188028000528,None,1021.7188028000528,None,1021.7188028000528,None,1021.7188028000528,None,None,None,1024.1322447999846,None,,,,,,,,-0.0234375,-0.2942708333333333,1,0,0,11.041439200052992,tijiao,,252,f,22,2023_Mar_22_1736,RL,2021.2.3,60.012446578385614,
1,-0.3,-0.225,0,68,68,68,,,,,,,,,,,,,,,None,None,None,None,None,1026.0777457000222,None,1026.0777457000222,None,1026.0777457000222,None,1026.0777457000222,None,r,0.3440746000269428,1026.0777457000222,None,1026.0777457000222,None,1026.4693840000546,None,1026.4693840000546,None,1026.4693840000546,None,1026.4693840000546,None,1026.4693840000546,None,1026.4693840000546,None,1026.7571764000459,1028.0916202000808,1026.7571764000459,1028.0916202000808,1028.127750899992,None,1028.127750899992,None,1028.127750899992,None,1028.127750899992,None,1028.127750899992,None,1028.127750899992,None,1028.127750899992,None,1028.127750899992,None,1028.127750899992,None,68,38,56,35,68,68,1030.646395000047,None,3.0,3.034765899996273,1030.646395000047,None,1030.646395000047,None,1030.646395000047,None,1030.646395000047,None,,None,None,,None,None,None,None,None,None,None,None,None,None,None,None,None,None,None,None,None,None,0.6,2,None,None,None,None,None,None,None,None,None,None,None,None,,None,None,None,None,None,None,None,None,None,None,None,None,None,None,None,None,None,None,None,None,1033.735066800029,None,,,,,,,,,,,,,,,,252,f,22,2023_Mar_22_1736,RL,2021.2.3,60.012446578385614,
0,0.3,0.225,0,69,69,69,,,,,,,,,,,,,,,None,None,None,None,None,1035.3008523000171,None,1035.3008523000171,None,1035.3008523000171,None,1035.3008523000171,None,j,0.33082190004643053,1035.3008523000171,None,1035.3008523000171,None,1035.6699975000229,None,1035.6699975000229,None,1035.6699975000229,None,1035.6699975000229,None,1035.6699975000229,None,1035.6699975000229,None,1035.963609800092,1037.5980575000867,1035.963609800092,1037.5980575000867,1037.6324134999886,None,1037.6324134999886,None,1037.6324134999886,None,1037.6324134999886,None,1037.6324134999886,None,1037.6324134999886,None,1037.6324134999886,None,1037.6324134999886,None,1037.6324134999886,None,57,43,52,41,41,66,None,None,None,None,None,None,None,None,None,None,None,None,,None,None,,None,None,None,None,None,None,None,None,None,None,None,None,None,None,None,None,None,None,-0.2,1,1040.1723284000764,None,1040.1723284000764,None,1040.1723284000764,None,1040.1723284000764,None,1040.1723284000764,None,1040.1723284000764,None,35,1040.1723284000764,None,1040.1723284000764,None,0.0034070099936798215,None,1040.1723284000764,None,2.119791666666667,2.823062000097707,1052.5386115000583,None,1052.5386115000583,None,1052.5386115000583,None,1052.5386115000583,None,None,None,1055.3764411000302,None,-0.014322916666666666,-0.30859375,1,0,0,12.329314999980852,tijiao_random_2,,,,,,,,,252,f,22,2023_Mar_22_1736,RL,2021.2.3,60.012446578385614,
1,-0.3,-0.225,0,70,70,70,,,,,,,,,,,,,,,None,None,None,None,None,1057.1988342000404,None,1057.1988342000404,None,1057.1988342000404,None,1057.1988342000404,None,r,0.3029641000321135,1057.1988342000404,None,1057.1988342000404,None,1057.5533773000352,None,1057.5533773000352,None,1057.5533773000352,None,1057.5533773000352,None,1057.5533773000352,None,1057.5533773000352,None,1057.845397300087,None,1057.845397300087,None,1059.2968269999838,None,1059.2968269999838,None,1059.2968269999838,None,1059.2968269999838,None,1059.2968269999838,None,1059.2968269999838,None,1059.2968269999838,None,1059.2968269999838,None,1059.2968269999838,None,54,38,50,32,54,59,1061.8160711000673,None,3.0,3.5216078000376,1061.8160711000673,None,1061.8160711000673,None,1061.8160711000673,None,1061.8160711000673,None,,None,None,,None,None,None,None,None,None,None,None,None,None,None,None,None,None,None,None,None,None,-0.6,2,None,None,None,None,None,None,None,None,None,None,None,None,,None,None,None,None,None,None,None,None,None,None,None,None,None,None,None,None,None,None,None,None,1065.4007381000556,None,,,,,,,,,,,,,,,,252,f,22,2023_Mar_22_1736,RL,2021.2.3,60.012446578385614,
0,0.3,0.225,0,71,71,71,,,,,,,,,,,,,,,None,None,None,None,None,1066.9892513999948,None,1066.9892513999948,None,1066.9892513999948,None,1066.9892513999948,None,r,0.4026124000083655,1066.9892513999948,None,1066.9892513999948,None,1067.4461651000893,None,1067.4461651000893,None,1067.4461651000893,None,1067.4461651000893,None,1067.4461651000893,None,1067.4461651000893,None,1067.7357283000601,1069.4201831000391,1067.7357283000601,1069.4201831000391,1069.4567528000334,None,1069.4567528000334,None,1069.4567528000334,None,1069.4567528000334,None,1069.4567528000334,None,1069.4567528000334,None,1069.4567528000334,None,1069.4567528000334,None,1069.4567528000334,None,56,40,47,26,56,51,None,None,None,None,None,None,None,None,None,None,None,None,,None,None,,None,None,None,None,None,None,None,None,None,None,None,None,None,None,None,None,None,None,-0.6,1,1071.992013500072,None,1071.992013500072,None,1071.992013500072,None,1071.992013500072,None,1071.992013500072,None,1071.992013500072,None,40,1071.992013500072,None,1071.992013500072,None,0.004889309988357127,None,1071.992013500072,None,2.9921875,3.5507685999618843,1079.367519200081,None,1079.367519200081,None,1079.367519200081,None,1079.367519200081,None,None,None,1082.9458201000234,None,0.052083333333333336,-0.21223958333333334,1,0,0,5.926898199948482,tijiao_random_2,,,,,,,,,252,f,22,2023_Mar_22_1736,RL,2021.2.3,60.012446578385614,
1,-0.3,-0.225,0,72,72,72,,,,,,,,,,,,,,,None,None,None,None,None,1084.7347549999831,None,1084.7347549999831,None,1084.7347549999831,None,1084.7347549999831,None,f,0.28846499999053776,1084.7347549999831,None,1084.7347549999831,None,1085.0763695000205,None,1085.0763695000205,None,1085.0763695000205,None,1085.0763695000205,None,1085.0763695000205,None,1085.0763695000205,None,1085.3646139000775,1086.7655337000033,1085.3646139000775,1086.7655337000033,1086.7979546000715,None,1086.7979546000715,None,1086.7979546000715,None,1086.7979546000715,None,1086.7979546000715,None,1086.7979546000715,None,1086.7979546000715,None,1086.7979546000715,None,1086.7979546000715,None,50,26,58,30,26,55,None,None,None,None,None,None,None,None,None,None,None,None,25,1089.3342997999862,None,25,1089.3342997999862,None,1089.3342997999862,None,1089.3342997999862,None,1089.3342997999862,None,1089.3342997999862,None,1089.3342997999862,None,1089.3342997999862,None,0.00929930992424488,None,1089.3342997999862,None,-0.6,0,None,None,None,None,None,None,None,None,None,None,None,None,,None,None,None,None,None,None,None,None,1,1.8763922000071034,1106.5545203000074,None,1106.5545203000074,None,1106.5545203000074,None,1106.5545203000074,None,None,None,1108.446699900087,None,,,,,,,,-0.044270833333333336,-0.2955729166666667,1,0,0,17.17180939996615,tijiao,,252,f,22,2023_Mar_22_1736,RL,2021.2.3,60.012446578385614,
0,0.3,0.225,0,73,73,73,,,,,,,,,,,,,,,None,None,None,None,None,1110.4030648000771,None,1110.4030648000771,None,1110.4030648000771,None,1110.4030648000771,None,r,0.31038829998578876,1110.4030648000771,None,1110.4030648000771,None,1110.7591985000763,None,1110.7591985000763,None,1110.7591985000763,None,1110.7591985000763,None,1110.7591985000763,None,1110.7591985000763,None,1111.0491361999884,1111.9830830000574,1111.0491361999884,1111.9830830000574,1112.0131969000213,None,1112.0131969000213,None,1112.0131969000213,None,1112.0131969000213,None,1112.0131969000213,None,1112.0131969000213,None,1112.0131969000213,None,1112.0131969000213,None,1112.0131969000213,None,46,35,54,38,46,42,None,None,None,None,None,None,None,None,None,None,None,None,70,1114.5515200000955,None,70,1114.5515200000955,None,1114.5515200000955,None,1114.5515200000955,None,1114.5515200000955,None,1114.5515200000955,None,1114.5515200000955,None,1114.5515200000955,None,0.00965960999019444,None,1114.5515200000955,None,-0.2,0,None,None,None,None,None,None,None,None,None,None,None,None,,None,None,None,None,None,None,None,None,2.184895833333333,1.8326418000506237,1120.5780862000538,None,1120.5780862000538,None,1120.5780862000538,None,1120.5780862000538,None,None,None,1122.4382888000691,None,,,,,,,,-0.0703125,-0.2669270833333333,1,0,0,5.98174379998818,tijiao,,252,f,22,2023_Mar_22_1736,RL,2021.2.3,60.012446578385614,
1,-0.3,-0.225,0,74,74,74,,,,,,,,,,,,,,,None,None,None,None,None,1124.3796694000484,None,1124.3796694000484,None,1124.3796694000484,None,1124.3796694000484,None,r,0.293697000015527,1124.3796694000484,None,1124.3796694000484,None,1124.7198228000198,None,1124.7198228000198,None,1124.7198228000198,None,1124.7198228000198,None,1124.7198228000198,None,1124.7198228000198,None,1125.0088798000943,1126.2763413999928,1125.0088798000943,1126.2763413999928,1126.3080587000586,None,1126.3080587000586,None,1126.3080587000586,None,1126.3080587000586,None,1126.3080587000586,None,1126.3080587000586,None,1126.3080587000586,None,1126.3080587000586,None,1126.3080587000586,None,46,30,43,36,46,74,None,None,None,None,None,None,None,None,None,None,None,None,50,1128.8432886000955,None,50,1128.8432886000955,None,1128.8432886000955,None,1128.8432886000955,None,1128.8432886000955,None,1128.8432886000955,None,1128.8432886000955,None,1128.8432886000955,None,0.010129809961654246,None,1128.8432886000955,None,-0.6,0,None,None,None,None,None,None,None,None,None,None,None,None,,None,None,None,None,None,None,None,None,1.338541666666667,1.9256044999929145,1135.8926418999908,None,1135.8926418999908,None,1135.8926418999908,None,1135.8926418999908,None,None,None,1137.8486116999993,None,,,,,,,,0.020833333333333332,-0.2981770833333333,1,0,0,6.999805400031619,tijiao,,252,f,22,2023_Mar_22_1736,RL,2021.2.3,60.012446578385614,
0,0.3,0.225,0,75,75,75,,,,,,,,,,,,,,,1139.835799499997,None,q,1139.835799499997,None,1189.637981100008,None,1189.637981100008,None,1189.637981100008,None,1189.637981100008,None,r,1.2227484999457374,1189.637981100008,None,1189.637981100008,None,1190.9144903999986,None,1190.9144903999986,None,1190.9144903999986,None,1190.9144903999986,None,1190.9144903999986,None,1190.9144903999986,None,1191.2047342000296,1192.2223350000568,1191.2047342000296,1192.2223350000568,1192.2575646000914,None,1192.2575646000914,None,1192.2575646000914,None,1192.2575646000914,None,1192.2575646000914,None,1192.2575646000914,None,1192.2575646000914,None,1192.2575646000914,None,1192.2575646000914,None,43,34,50,37,43,41,None,None,None,None,None,None,None,None,None,None,None,None,,None,None,,None,None,None,None,None,None,None,None,None,None,None,None,None,None,None,None,None,None,-0.2,1,1194.7977174000116,None,1194.7977174000116,None,1194.7977174000116,None,1194.7977174000116,None,1194.7977174000116,None,1194.7977174000116,None,70,1194.7977174000116,None,1194.7977174000116,None,0.00019841000903397799,None,1194.7977174000116,None,1.065104166666667,3.2294143000617623,1200.2519482000498,None,1200.2519482000498,None,1200.2519482000498,None,1200.2519482000498,None,None,None,1203.5109425000846,None,-0.07682291666666667,-0.2838541666666667,1,0,0,5.421054799924605,tijiao_random_2,,,,,,,,49.72693000000436,252,f,22,2023_Mar_22_1736,RL,2021.2.3,60.012446578385614,
