bandit0,black_x_pos_random,black_y_pos_random,trials.thisRepN,trials.thisTrialN,trials.thisN,trials.thisIndex,instru_img1.started,instru_img1.stopped,instru_resp.keys,instru_resp.rt,instru_resp.started,instru_resp.stopped,instru_img2.started,instru_img2.stopped,instru_resp2.keys,instru_resp2.rt,instru_resp2.started,instru_resp2.stopped,fixbefore_2.started,fixbefore_2.stopped,rest_image.started,rest_image.stopped,rest_response.keys,rest_response.started,rest_response.stopped,red.started,red.stopped,green.started,green.stopped,yellow.started,yellow.stopped,blue.started,blue.stopped,choose_bandit.keys,choose_bandit.rt,choose_bandit.started,choose_bandit.stopped,Fixation.started,Fixation.stopped,black.started,black.stopped,red_2.started,red_2.stopped,green_2.started,green_2.stopped,yellow_2.started,yellow_2.stopped,blue_2.started,blue_2.stopped,fixation_2.started,fixation_2.stopped,docs.started,docs.stopped,wait_playerB.started,wait_playerB.stopped,black_com.started,black_com.stopped,reward_sub.started,reward_sub.stopped,palyerb.started,palyerb.stopped,reward__sub.started,reward__sub.stopped,compare.started,compare.stopped,red_compare.started,red_compare.stopped,green_com.started,green_com.stopped,yellow_com.started,yellow_com.stopped,blue_com.started,blue_com.stopped,rewardyellow,rewardred,rewardblue,rewardgreen,subchoose,playerb,image_3.started,image_3.stopped,slider.response,slider.rt,slider.started,slider.stopped,text.started,text.stopped,image_4.started,image_4.stopped,image_5.started,image_5.stopped,expectself.text,expectself.started,expectself.stopped,value_expect_self,expect_self_black.started,expect_self_black.stopped,expect_self.started,expect_self.stopped,expect_self_red.started,expect_self_red.stopped,expect_self_green.started,expect_self_green.stopped,expect_self_yellow.started,expect_self_yellow.stopped,expect_self_blue.started,expect_self_blue.stopped,tijiao.started,tijiao.stopped,tijiao_click.x,tijiao_click.y,tijiao_click.leftButton,tijiao_click.midButton,tijiao_click.rightButton,tijiao_click.time,tijiao_click.clicked_name,tijiao_click.started,tijiao_click.stopped,check.started,check.stopped,random_whicharm,whether_ask,jiantou_random.started,jiantou_random.stopped,expect_red.started,expect_red.stopped,expect_green.started,expect_green.stopped,expect_yellow.started,expect_yellow.stopped,expect_blue.started,expect_blue.stopped,expect_random_2.started,expect_random_2.stopped,expect_random_3.text,expect_random_3.started,expect_random_3.stopped,tijiao_random_2.started,tijiao_random_2.stopped,tijiao_random.started,tijiao_random.stopped,check_2.started,check_2.stopped,slider_2.response,slider_2.rt,slider_2.started,slider_2.stopped,image_7.started,image_7.stopped,confi.started,confi.stopped,notconfi.started,notconfi.stopped,bigx.started,bigx.stopped,intertrialfix.started,intertrialfix.stopped,tijiao_random.x,tijiao_random.y,tijiao_random.leftButton,tijiao_random.midButton,tijiao_random.rightButton,tijiao_random.time,tijiao_random.clicked_name,rest_response.rt,participant,Gender,Age,date,expName,psychopyVersion,frameRate,
,,,,,,,23.925171799957752,None,space,2.087770999991335,23.925171799957752,None,,,,,,,,,,,,,,,,,,,,,,,,,,,,,,,,,,,,,,,,,,,,,,,,,,,,,,,,,,,,,,,,,,,,,,,,,,,,,,,,,,,,,,,,,,,,,,,,,,,,,,,,,,,,,,,,,,,,,,,,,,,,,,,,,,,,,,,,,,,,,,,,,,,,,,,,,,253,m,21,2023_Mar_23_1002,RL,2021.2.3,59.95419500916961,
,,,,,,,,,,,,,26.12050720001571,None,s,42.668809499940835,26.12050720001571,None,,,,,,,,,,,,,,,,,,,,,,,,,,,,,,,,,,,,,,,,,,,,,,,,,,,,,,,,,,,,,,,,,,,,,,,,,,,,,,,,,,,,,,,,,,,,,,,,,,,,,,,,,,,,,,,,,,,,,,,,,,,,,,,,,,,,,,,,,,,,,,,,,,,,253,m,21,2023_Mar_23_1002,RL,2021.2.3,59.95419500916961,
1,-0.3,-0.225,0,0,0,0,,,,,,,,,,,,,68.83385860000271,None,None,None,None,None,None,69.91074780002236,None,69.91074780002236,None,69.91074780002236,None,69.91074780002236,None,r,0.6964512000558898,69.91074780002236,None,69.91074780002236,None,70.72535680001602,None,70.72535680001602,None,70.72535680001602,None,70.72535680001602,None,70.72535680001602,None,70.72535680001602,None,71.01919679995626,72.98720450000837,71.01919679995626,72.98720450000837,73.07546740001999,None,73.07546740001999,None,73.07546740001999,None,73.07546740001999,None,73.07546740001999,None,73.07546740001999,None,73.07546740001999,None,73.07546740001999,None,73.07546740001999,None,64,40,25,55,64,44,None,None,None,None,None,None,None,None,None,None,None,None,50,75.81912140001077,None,50,75.81912140001077,None,75.81912140001077,None,75.81912140001077,None,75.81912140001077,None,75.81912140001077,None,75.81912140001077,None,75.81912140001077,None,-0.0625,-0.3216145833333333,1,0,0,6.619020699989051,tijiao,0.01432269997894764,None,75.81912140001077,None,-0.6,0,None,None,None,None,None,None,None,None,None,None,None,None,,None,None,None,None,None,None,None,None,4.997395833333333,2.006964399944991,82.82750499993563,None,82.82750499993563,None,82.82750499993563,None,82.82750499993563,None,None,None,84.93708279996645,None,,,,,,,,,253,m,21,2023_Mar_23_1002,RL,2021.2.3,59.95419500916961,
0,0.3,0.225,0,1,1,1,,,,,,,,,,,,,,,None,None,None,None,None,86.61683169996832,None,86.61683169996832,None,86.61683169996832,None,86.61683169996832,None,i,1.19045770005323,86.61683169996832,None,86.61683169996832,None,87.86998349998612,None,87.86998349998612,None,87.86998349998612,None,87.86998349998612,None,87.86998349998612,None,87.86998349998612,None,88.14778579992708,89.19873459998053,88.14778579992708,89.19873459998053,89.23478419997264,None,89.23478419997264,None,89.23478419997264,None,89.23478419997264,None,89.23478419997264,None,89.23478419997264,None,89.23478419997264,None,89.23478419997264,None,89.23478419997264,None,56,39,25,48,25,46,91.75018309999723,None,3.0,1.9232240000274032,91.75018309999723,None,91.75018309999723,None,91.75018309999723,None,91.75018309999723,None,,None,None,,None,None,None,None,None,None,None,None,None,None,None,None,None,None,,,,,,,,None,None,None,None,-0.6,3,None,None,None,None,None,None,None,None,None,None,None,None,,None,None,None,None,None,None,None,None,None,None,None,None,None,None,None,None,None,None,None,None,93.8681770999683,None,,,,,,,,,253,m,21,2023_Mar_23_1002,RL,2021.2.3,59.95419500916961,
1,-0.3,-0.225,0,2,2,2,,,,,,,,,,,,,,,None,None,None,None,None,95.4909869999392,None,95.4909869999392,None,95.4909869999392,None,95.4909869999392,None,f,1.2362784000579268,95.4909869999392,None,95.4909869999392,None,96.76641859998927,None,96.76641859998927,None,96.76641859998927,None,96.76641859998927,None,96.76641859998927,None,96.76641859998927,None,97.05380929994863,98.38820499996655,97.05380929994863,98.38820499996655,98.42259969993029,None,98.42259969993029,None,98.42259969993029,None,98.42259969993029,None,98.42259969993029,None,98.42259969993029,None,98.42259969993029,None,98.42259969993029,None,98.42259969993029,None,72,30,26,46,30,66,100.94335069996305,None,2.0,2.485514499945566,100.94335069996305,None,100.94335069996305,None,100.94335069996305,None,100.94335069996305,None,,None,None,,None,None,None,None,None,None,None,None,None,None,None,None,None,None,,,,,,,,None,None,None,None,-0.2,2,None,None,None,None,None,None,None,None,None,None,None,None,,None,None,None,None,None,None,None,None,None,None,None,None,None,None,None,None,None,None,None,None,103.4875893999124,None,,,,,,,,,253,m,21,2023_Mar_23_1002,RL,2021.2.3,59.95419500916961,
0,0.3,0.225,0,3,3,3,,,,,,,,,,,,,,,None,None,None,None,None,105.36453619995154,None,105.36453619995154,None,105.36453619995154,None,105.36453619995154,None,j,0.5529674999415874,105.36453619995154,None,105.36453619995154,None,105.95438369992189,None,105.95438369992189,None,105.95438369992189,None,105.95438369992189,None,105.95438369992189,None,105.95438369992189,None,106.24370380002074,107.87841339991428,106.24370380002074,107.87841339991428,107.91466519993264,None,107.91466519993264,None,107.91466519993264,None,107.91466519993264,None,107.91466519993264,None,107.91466519993264,None,107.91466519993264,None,107.91466519993264,None,107.91466519993264,None,69,34,36,58,58,27,None,None,None,None,None,None,None,None,None,None,None,None,50,110.45542589994147,None,50,110.45542589994147,None,110.45542589994147,None,110.45542589994147,None,110.45542589994147,None,110.45542589994147,None,110.45542589994147,None,110.45542589994147,None,-0.0026041666666666665,-0.28125,1,0,0,3.919870699988678,tijiao,0.01665024005342275,None,110.45542589994147,None,-0.2,0,None,None,None,None,None,None,None,None,None,None,None,None,,None,None,None,None,None,None,None,None,5.947916666666667,4.31696850003209,114.4236772999866,None,114.4236772999866,None,114.4236772999866,None,114.4236772999866,None,None,None,118.76774959999602,None,,,,,,,,,253,m,21,2023_Mar_23_1002,RL,2021.2.3,59.95419500916961,
1,-0.3,-0.225,0,4,4,4,,,,,,,,,,,,,,,None,None,None,None,None,120.34107219998259,None,120.34107219998259,None,120.34107219998259,None,120.34107219998259,None,f,0.8265113999368623,120.34107219998259,None,120.34107219998259,None,121.20924869994633,None,121.20924869994633,None,121.20924869994633,None,121.20924869994633,None,121.20924869994633,None,121.20924869994633,None,121.504444399965,None,121.504444399965,None,123.26074980001431,None,123.26074980001431,None,123.26074980001431,None,123.26074980001431,None,123.26074980001431,None,123.26074980001431,None,123.26074980001431,None,123.26074980001431,None,123.26074980001431,None,75,21,23,50,21,75,125.79011249996256,None,2.0,2.351762200007215,125.79011249996256,None,125.79011249996256,None,125.79011249996256,None,125.79011249996256,None,,None,None,,None,None,None,None,None,None,None,None,None,None,None,None,None,None,,,,,,,,None,None,None,None,0.2,2,None,None,None,None,None,None,None,None,None,None,None,None,,None,None,None,None,None,None,None,None,None,None,None,None,None,None,None,None,None,None,None,None,128.19893720000982,None,,,,,,,,,253,m,21,2023_Mar_23_1002,RL,2021.2.3,59.95419500916961,
0,0.3,0.225,0,5,5,5,,,,,,,,,,,,,,,None,None,None,None,None,129.81478050001897,None,129.81478050001897,None,129.81478050001897,None,129.81478050001897,None,r,0.5129928999813274,129.81478050001897,None,129.81478050001897,None,130.3749000999378,None,130.3749000999378,None,130.3749000999378,None,130.3749000999378,None,130.3749000999378,None,130.3749000999378,None,130.66088849992957,132.51212999993004,130.66088849992957,132.51212999993004,132.5417058999883,None,132.5417058999883,None,132.5417058999883,None,132.5417058999883,None,132.5417058999883,None,132.5417058999883,None,132.5417058999883,None,132.5417058999883,None,132.5417058999883,None,64,21,25,60,64,80,135.05956640001386,None,1.0,2.073100799927488,135.05956640001386,None,135.05956640001386,None,135.05956640001386,None,135.05956640001386,None,,None,None,,None,None,None,None,None,None,None,None,None,None,None,None,None,None,,,,,,,,None,None,None,None,0.2,2,None,None,None,None,None,None,None,None,None,None,None,None,,None,None,None,None,None,None,None,None,None,None,None,None,None,None,None,None,None,None,None,None,137.18721449992154,None,,,,,,,,,253,m,21,2023_Mar_23_1002,RL,2021.2.3,59.95419500916961,
1,-0.3,-0.225,0,6,6,6,,,,,,,,,,,,,,,None,None,None,None,None,138.93734199996106,None,138.93734199996106,None,138.93734199996106,None,138.93734199996106,None,j,0.8803069000132382,138.93734199996106,None,138.93734199996106,None,139.85696529992856,None,139.85696529992856,None,139.85696529992856,None,139.85696529992856,None,139.85696529992856,None,139.85696529992856,None,140.15063549997285,None,140.15063549997285,None,141.3317998999264,None,141.3317998999264,None,141.3317998999264,None,141.3317998999264,None,141.3317998999264,None,141.3317998999264,None,141.3317998999264,None,141.3317998999264,None,141.3317998999264,None,67,23,24,53,53,80,143.85632129991427,None,1.0,2.1367850999813527,143.85632129991427,None,143.85632129991427,None,143.85632129991427,None,143.85632129991427,None,,None,None,,None,None,None,None,None,None,None,None,None,None,None,None,None,None,,,,,,,,None,None,None,None,-0.2,3,None,None,None,None,None,None,None,None,None,None,None,None,,None,None,None,None,None,None,None,None,None,None,None,None,None,None,None,None,None,None,None,None,146.04259680001996,None,,,,,,,,,253,m,21,2023_Mar_23_1002,RL,2021.2.3,59.95419500916961,
0,0.3,0.225,0,7,7,7,,,,,,,,,,,,,,,None,None,None,None,None,147.57628589996602,None,147.57628589996602,None,147.57628589996602,None,147.57628589996602,None,f,0.9415771999629214,147.57628589996602,None,147.57628589996602,None,148.5649210999254,None,148.5649210999254,None,148.5649210999254,None,148.5649210999254,None,148.5649210999254,None,148.5649210999254,None,148.83988139999565,149.74063239991665,148.83988139999565,149.74063239991665,149.78957409993745,None,149.78957409993745,None,149.78957409993745,None,149.78957409993745,None,149.78957409993745,None,149.78957409993745,None,149.78957409993745,None,149.78957409993745,None,149.78957409993745,None,65,27,25,47,27,73,152.30468579998706,None,1.0,2.290317500010133,152.30468579998706,None,152.30468579998706,None,152.30468579998706,None,152.30468579998706,None,,None,None,,None,None,None,None,None,None,None,None,None,None,None,None,None,None,,,,,,,,None,None,None,None,0.6,2,None,None,None,None,None,None,None,None,None,None,None,None,,None,None,None,None,None,None,None,None,None,None,None,None,None,None,None,None,None,None,None,None,154.64679859997705,None,,,,,,,,,253,m,21,2023_Mar_23_1002,RL,2021.2.3,59.95419500916961,
1,-0.3,-0.225,0,8,8,8,,,,,,,,,,,,,,,None,None,None,None,None,156.4335781999398,None,156.4335781999398,None,156.4335781999398,None,156.4335781999398,None,r,0.45527570007834584,156.4335781999398,None,156.4335781999398,None,156.9332935999846,None,156.9332935999846,None,156.9332935999846,None,156.9332935999846,None,156.9332935999846,None,156.9332935999846,None,157.22919230000116,None,157.22919230000116,None,158.7129314999329,None,158.7129314999329,None,158.7129314999329,None,158.7129314999329,None,158.7129314999329,None,158.7129314999329,None,158.7129314999329,None,158.7129314999329,None,158.7129314999329,None,69,25,37,51,69,76,None,None,None,None,None,None,None,None,None,None,None,None,,None,None,,None,None,None,None,None,None,None,None,None,None,None,None,None,None,,,,,,,,None,None,None,None,0.6,1,161.26155169995036,None,161.26155169995036,None,161.26155169995036,None,161.26155169995036,None,161.26155169995036,None,161.26155169995036,None,70,161.26155169995036,None,161.26155169995036,None,0.01378971990197897,None,161.26155169995036,None,4.072916666666666,2.0119436000240967,166.69393069995567,None,166.69393069995567,None,166.69393069995567,None,166.69393069995567,None,None,None,168.72001869999804,None,-0.03515625,-0.2916666666666667,1,0,0,5.368630100041628,tijiao_random_2,,253,m,21,2023_Mar_23_1002,RL,2021.2.3,59.95419500916961,
0,0.3,0.225,0,9,9,9,,,,,,,,,,,,,,,None,None,None,None,None,170.35883429995738,None,170.35883429995738,None,170.35883429995738,None,170.35883429995738,None,j,0.38032370002474636,170.35883429995738,None,170.35883429995738,None,170.78018809994683,None,170.78018809994683,None,170.78018809994683,None,170.78018809994683,None,170.78018809994683,None,170.78018809994683,None,171.0719936999958,None,171.0719936999958,None,172.16983809997328,None,172.16983809997328,None,172.16983809997328,None,172.16983809997328,None,172.16983809997328,None,172.16983809997328,None,172.16983809997328,None,172.16983809997328,None,172.16983809997328,None,61,33,27,56,56,81,174.68803590000607,None,1.0,2.091079100035131,174.68803590000607,None,174.68803590000607,None,174.68803590000607,None,174.68803590000607,None,,None,None,,None,None,None,None,None,None,None,None,None,None,None,None,None,None,,,,,,,,None,None,None,None,-0.2,2,None,None,None,None,None,None,None,None,None,None,None,None,,None,None,None,None,None,None,None,None,None,None,None,None,None,None,None,None,None,None,None,None,176.84360269992612,None,,,,,,,,,253,m,21,2023_Mar_23_1002,RL,2021.2.3,59.95419500916961,
1,-0.3,-0.225,0,10,10,10,,,,,,,,,,,,,,,None,None,None,None,None,178.8148239000002,None,178.8148239000002,None,178.8148239000002,None,178.8148239000002,None,r,0.6541753999190405,178.8148239000002,None,178.8148239000002,None,179.51565469999332,None,179.51565469999332,None,179.51565469999332,None,179.51565469999332,None,179.51565469999332,None,179.51565469999332,None,179.81134829996154,181.67952929995954,179.81134829996154,181.67952929995954,181.71451909991447,None,181.71451909991447,None,181.71451909991447,None,181.71451909991447,None,181.71451909991447,None,181.71451909991447,None,181.71451909991447,None,181.71451909991447,None,181.71451909991447,None,50,25,34,49,50,85,184.2367999999551,None,2.0,2.7020466999383643,184.2367999999551,None,184.2367999999551,None,184.2367999999551,None,184.2367999999551,None,,None,None,,None,None,None,None,None,None,None,None,None,None,None,None,None,None,,,,,,,,None,None,None,None,0.6,2,None,None,None,None,None,None,None,None,None,None,None,None,,None,None,None,None,None,None,None,None,None,None,None,None,None,None,None,None,None,None,None,None,186.9998069999274,None,,,,,,,,,253,m,21,2023_Mar_23_1002,RL,2021.2.3,59.95419500916961,
0,0.3,0.225,0,11,11,11,,,,,,,,,,,,,,,None,None,None,None,None,188.8222197999712,None,188.8222197999712,None,188.8222197999712,None,188.8222197999712,None,f,1.0069289000239223,188.8222197999712,None,188.8222197999712,None,189.87593590002507,None,189.87593590002507,None,189.87593590002507,None,189.87593590002507,None,189.87593590002507,None,189.87593590002507,None,190.1687929999316,191.16946819995064,190.1687929999316,191.16946819995064,191.2013875999255,None,191.2013875999255,None,191.2013875999255,None,191.2013875999255,None,191.2013875999255,None,191.2013875999255,None,191.2013875999255,None,191.2013875999255,None,191.2013875999255,None,65,31,42,57,31,86,193.725462900009,None,2.0,2.383307799929753,193.725462900009,None,193.725462900009,None,193.725462900009,None,193.725462900009,None,,None,None,,None,None,None,None,None,None,None,None,None,None,None,None,None,None,,,,,,,,None,None,None,None,-0.6,3,None,None,None,None,None,None,None,None,None,None,None,None,,None,None,None,None,None,None,None,None,None,None,None,None,None,None,None,None,None,None,None,None,196.1619994000066,None,,,,,,,,,253,m,21,2023_Mar_23_1002,RL,2021.2.3,59.95419500916961,
1,-0.3,-0.225,0,12,12,12,,,,,,,,,,,,,,,None,None,None,None,None,198.04494389996398,None,198.04494389996398,None,198.04494389996398,None,198.04494389996398,None,i,1.1542059000348672,198.04494389996398,None,198.04494389996398,None,199.24639629991725,None,199.24639629991725,None,199.24639629991725,None,199.24639629991725,None,199.24639629991725,None,199.24639629991725,None,199.54183329991065,201.02629179996438,199.54183329991065,201.02629179996438,201.05871539993677,None,201.05871539993677,None,201.05871539993677,None,201.05871539993677,None,201.05871539993677,None,201.05871539993677,None,201.05871539993677,None,201.05871539993677,None,201.05871539993677,None,67,27,39,57,39,86,203.58253869996406,None,2.0,1.5993750999914482,203.58253869996406,None,203.58253869996406,None,203.58253869996406,None,203.58253869996406,None,,None,None,,None,None,None,None,None,None,None,None,None,None,None,None,None,None,,,,,,,,None,None,None,None,0.2,3,None,None,None,None,None,None,None,None,None,None,None,None,,None,None,None,None,None,None,None,None,None,None,None,None,None,None,None,None,None,None,None,None,205.24661729997024,None,,,,,,,,,253,m,21,2023_Mar_23_1002,RL,2021.2.3,59.95419500916961,
0,0.3,0.225,0,13,13,13,,,,,,,,,,,,,,,None,None,None,None,None,207.21815590001643,None,207.21815590001643,None,207.21815590001643,None,207.21815590001643,None,f,1.0709997999947518,207.21815590001643,None,207.21815590001643,None,208.33622089994606,None,208.33622089994606,None,208.33622089994606,None,208.33622089994606,None,208.33622089994606,None,208.33622089994606,None,208.63137279998045,None,208.63137279998045,None,210.41336040000897,None,210.41336040000897,None,210.41336040000897,None,210.41336040000897,None,210.41336040000897,None,210.41336040000897,None,210.41336040000897,None,210.41336040000897,None,210.41336040000897,None,73,37,34,48,37,84,None,None,None,None,None,None,None,None,None,None,None,None,,None,None,,None,None,None,None,None,None,None,None,None,None,None,None,None,None,,,,,,,,None,None,None,None,0.2,1,212.95555299997795,None,212.95555299997795,None,212.95555299997795,None,212.95555299997795,None,212.95555299997795,None,212.95555299997795,None,35,212.95555299997795,None,212.95555299997795,None,0.003544940031133592,None,212.95555299997795,None,3.096354166666667,2.579935999936424,218.79790409991983,None,218.79790409991983,None,218.79790409991983,None,218.79790409991983,None,None,None,221.40493379998952,None,-0.06901041666666667,-0.2994791666666667,1,0,0,5.809101399965584,tijiao_random_2,,253,m,21,2023_Mar_23_1002,RL,2021.2.3,59.95419500916961,
1,-0.3,-0.225,0,14,14,14,,,,,,,,,,,,,,,None,None,None,None,None,223.04536129999906,None,223.04536129999906,None,223.04536129999906,None,223.04536129999906,None,j,0.60390109999571,223.04536129999906,None,223.04536129999906,None,223.69701729994267,None,223.69701729994267,None,223.69701729994267,None,223.69701729994267,None,223.69701729994267,None,223.69701729994267,None,223.99212369997986,None,223.99212369997986,None,225.9921778999269,None,225.9921778999269,None,225.9921778999269,None,225.9921778999269,None,225.9921778999269,None,225.9921778999269,None,225.9921778999269,None,225.9921778999269,None,225.9921778999269,None,70,33,30,50,50,79,228.5169604999246,None,2.0,1.8312985999509692,228.5169604999246,None,228.5169604999246,None,228.5169604999246,None,228.5169604999246,None,,None,None,,None,None,None,None,None,None,None,None,None,None,None,None,None,None,,,,,,,,None,None,None,None,-0.6,2,None,None,None,None,None,None,None,None,None,None,None,None,,None,None,None,None,None,None,None,None,None,None,None,None,None,None,None,None,None,None,None,None,230.40199479996227,None,,,,,,,,,253,m,21,2023_Mar_23_1002,RL,2021.2.3,59.95419500916961,
0,0.3,0.225,0,15,15,15,,,,,,,,,,,,,,,None,None,None,None,None,232.0690182999242,None,232.0690182999242,None,232.0690182999242,None,232.0690182999242,None,f,1.1801121000899002,232.0690182999242,None,232.0690182999242,None,233.28992030001245,None,233.28992030001245,None,233.28992030001245,None,233.28992030001245,None,233.28992030001245,None,233.28992030001245,None,233.56545939994976,234.9999700000044,233.56545939994976,234.9999700000044,235.05143849994056,None,235.05143849994056,None,235.05143849994056,None,235.05143849994056,None,235.05143849994056,None,235.05143849994056,None,235.05143849994056,None,235.05143849994056,None,235.05143849994056,None,70,36,30,37,36,76,None,None,None,None,None,None,None,None,None,None,None,None,,None,None,,None,None,None,None,None,None,None,None,None,None,None,None,None,None,,,,,,,,None,None,None,None,0.6,1,237.5981938999612,None,237.5981938999612,None,237.5981938999612,None,237.5981938999612,None,237.5981938999612,None,237.5981938999612,None,37,237.5981938999612,None,237.5981938999612,None,0.012055419967509806,None,237.5981938999612,None,3.0703125,3.3169240000424907,243.43555819999892,None,243.43555819999892,None,243.43555819999892,None,243.43555819999892,None,None,None,246.77245669998229,None,0.014322916666666666,-0.2799479166666667,1,0,0,5.799940500059165,tijiao_random_2,,253,m,21,2023_Mar_23_1002,RL,2021.2.3,59.95419500916961,
1,-0.3,-0.225,0,16,16,16,,,,,,,,,,,,,,,None,None,None,None,None,248.7140706999926,None,248.7140706999926,None,248.7140706999926,None,248.7140706999926,None,r,0.9352746999356896,248.7140706999926,None,248.7140706999926,None,249.69856219994836,None,249.69856219994836,None,249.69856219994836,None,249.69856219994836,None,249.69856219994836,None,249.69856219994836,None,249.99348830000963,None,249.99348830000963,None,251.3448153999634,None,251.3448153999634,None,251.3448153999634,None,251.3448153999634,None,251.3448153999634,None,251.3448153999634,None,251.3448153999634,None,251.3448153999634,None,251.3448153999634,None,70,32,34,37,70,29,253.86701329995412,None,5.0,1.5008793999440968,253.86701329995412,None,253.86701329995412,None,253.86701329995412,None,253.86701329995412,None,,None,None,,None,None,None,None,None,None,None,None,None,None,None,None,None,None,,,,,,,,None,None,None,None,0.2,2,None,None,None,None,None,None,None,None,None,None,None,None,,None,None,None,None,None,None,None,None,None,None,None,None,None,None,None,None,None,None,None,None,255.4193717999151,None,,,,,,,,,253,m,21,2023_Mar_23_1002,RL,2021.2.3,59.95419500916961,
0,0.3,0.225,0,17,17,17,,,,,,,,,,,,,,,None,None,None,None,None,257.1693446999416,None,257.1693446999416,None,257.1693446999416,None,257.1693446999416,None,None,,257.1693446999416,None,257.1693446999416,None,None,None,None,None,None,None,None,None,None,None,None,None,None,None,None,None,None,None,None,None,None,None,None,None,None,None,None,None,None,None,None,None,None,None,72,32,36,36,0,**,None,None,None,None,None,None,None,None,None,None,None,None,,None,None,,None,None,None,None,None,None,None,None,None,None,None,None,None,None,,,,,,,,None,None,None,None,0.2,2,None,None,None,None,None,None,None,None,None,None,None,None,,None,None,None,None,None,None,None,None,None,None,None,None,None,None,None,None,None,None,258.91241629992146,None,264.92054189997725,None,,,,,,,,,253,m,21,2023_Mar_23_1002,RL,2021.2.3,59.95419500916961,
1,-0.3,-0.225,0,18,18,18,,,,,,,,,,,,,,,None,None,None,None,None,266.4760767999105,None,266.4760767999105,None,266.4760767999105,None,266.4760767999105,None,r,0.6534119000425562,266.4760767999105,None,266.4760767999105,None,267.176235599909,None,267.176235599909,None,267.176235599909,None,267.176235599909,None,267.176235599909,None,267.176235599909,None,267.47221989999525,269.373678999953,267.47221989999525,269.373678999953,269.4061599000124,None,269.4061599000124,None,269.4061599000124,None,269.4061599000124,None,269.4061599000124,None,269.4061599000124,None,269.4061599000124,None,269.4061599000124,None,269.4061599000124,None,70,30,39,46,70,74,271.92853839998133,None,5.0,1.7515235000755638,271.92853839998133,None,271.92853839998133,None,271.92853839998133,None,271.92853839998133,None,,None,None,,None,None,None,None,None,None,None,None,None,None,None,None,None,None,,,,,,,,None,None,None,None,0.2,2,None,None,None,None,None,None,None,None,None,None,None,None,,None,None,None,None,None,None,None,None,None,None,None,None,None,None,None,None,None,None,None,None,273.7319614000153,None,,,,,,,,,253,m,21,2023_Mar_23_1002,RL,2021.2.3,59.95419500916961,
0,0.3,0.225,0,19,19,19,,,,,,,,,,,,,,,None,None,None,None,None,275.34863559994847,None,275.34863559994847,None,275.34863559994847,None,275.34863559994847,None,r,0.580853300052695,275.34863559994847,None,275.34863559994847,None,275.9677479999373,None,275.9677479999373,None,275.9677479999373,None,275.9677479999373,None,275.9677479999373,None,275.9677479999373,None,276.2616998999147,None,276.2616998999147,None,277.25897819991224,None,277.25897819991224,None,277.25897819991224,None,277.25897819991224,None,277.25897819991224,None,277.25897819991224,None,277.25897819991224,None,277.25897819991224,None,277.25897819991224,None,67,31,43,47,67,81,None,None,None,None,None,None,None,None,None,None,None,None,,None,None,,None,None,None,None,None,None,None,None,None,None,None,None,None,None,,,,,,,,None,None,None,None,0.2,1,279.8019065000117,None,279.8019065000117,None,279.8019065000117,None,279.8019065000117,None,279.8019065000117,None,279.8019065000117,None,40,279.8019065000117,None,279.8019065000117,None,0.004337640013545752,None,279.8019065000117,None,5.0234375,2.1265501000452787,284.4115059999749,None,284.4115059999749,None,284.4115059999749,None,284.4115059999749,None,None,None,286.55166719993576,None,0.07291666666666667,-0.3046875,1,0,0,4.574869100004435,tijiao_random_2,,253,m,21,2023_Mar_23_1002,RL,2021.2.3,59.95419500916961,
1,-0.3,-0.225,0,20,20,20,,,,,,,,,,,,,,,None,None,None,None,None,288.19083689991385,None,288.19083689991385,None,288.19083689991385,None,288.19083689991385,None,j,0.7889446000335738,288.19083689991385,None,288.19083689991385,None,289.0280200999696,None,289.0280200999696,None,289.0280200999696,None,289.0280200999696,None,289.0280200999696,None,289.0280200999696,None,289.3207418000093,None,289.3207418000093,None,290.4248818999622,None,290.4248818999622,None,290.4248818999622,None,290.4248818999622,None,290.4248818999622,None,290.4248818999622,None,290.4248818999622,None,290.4248818999622,None,290.4248818999622,None,68,29,31,53,53,78,292.9382064000238,None,3.0,2.5887256999267265,292.9382064000238,None,292.9382064000238,None,292.9382064000238,None,292.9382064000238,None,,None,None,,None,None,None,None,None,None,None,None,None,None,None,None,None,None,,,,,,,,None,None,None,None,0.2,3,None,None,None,None,None,None,None,None,None,None,None,None,,None,None,None,None,None,None,None,None,None,None,None,None,None,None,None,None,None,None,None,None,295.60487589996774,None,,,,,,,,,253,m,21,2023_Mar_23_1002,RL,2021.2.3,59.95419500916961,
0,0.3,0.225,0,21,21,21,,,,,,,,,,,,,,,None,None,None,None,None,297.1973618000047,None,297.1973618000047,None,297.1973618000047,None,297.1973618000047,None,r,0.7022889000363648,297.1973618000047,None,297.1973618000047,None,297.9467202000087,None,297.9467202000087,None,297.9467202000087,None,297.9467202000087,None,297.9467202000087,None,297.9467202000087,None,298.24320129991975,None,298.24320129991975,None,299.13733769999817,None,299.13733769999817,None,299.13733769999817,None,299.13733769999817,None,299.13733769999817,None,299.13733769999817,None,299.13733769999817,None,299.13733769999817,None,299.13733769999817,None,81,32,29,63,81,85,None,None,None,None,None,None,None,None,None,None,None,None,,None,None,,None,None,None,None,None,None,None,None,None,None,None,None,None,None,,,,,,,,None,None,None,None,0.6,1,301.6922409000108,None,301.6922409000108,None,301.6922409000108,None,301.6922409000108,None,301.6922409000108,None,301.6922409000108,None,80,301.6922409000108,None,301.6922409000108,None,0.012195119983516634,None,301.6922409000108,None,6.1171875,2.3946708999574184,306.3926765000215,None,306.3926765000215,None,306.3926765000215,None,306.3926765000215,None,None,None,308.8132091999287,None,-0.0078125,-0.2903645833333333,1,0,0,4.666853400063701,tijiao_random_2,,253,m,21,2023_Mar_23_1002,RL,2021.2.3,59.95419500916961,
1,-0.3,-0.225,0,22,22,22,,,,,,,,,,,,,,,None,None,None,None,None,310.5397383000236,None,310.5397383000236,None,310.5397383000236,None,310.5397383000236,None,r,0.6400339000392705,310.5397383000236,None,310.5397383000236,None,311.22487419995014,None,311.22487419995014,None,311.22487419995014,None,311.22487419995014,None,311.22487419995014,None,311.22487419995014,None,311.5197819999885,313.4541427999502,311.5197819999885,313.4541427999502,313.4865689999424,None,313.4865689999424,None,313.4865689999424,None,313.4865689999424,None,313.4865689999424,None,313.4865689999424,None,313.4865689999424,None,313.4865689999424,None,313.4865689999424,None,73,35,39,52,73,78,None,None,None,None,None,None,None,None,None,None,None,None,73,316.0159768000012,None,73,316.0159768000012,None,316.0159768000012,None,316.0159768000012,None,316.0159768000012,None,316.0159768000012,None,316.0159768000012,None,316.0159768000012,None,0.03125,-0.3020833333333333,1,0,0,4.721438499982469,tijiao,9.67599917203188e-05,None,316.0159768000012,None,0.2,0,None,None,None,None,None,None,None,None,None,None,None,None,,None,None,None,None,None,None,None,None,7.028645833333334,3.0589720000280067,320.7832286999328,None,320.7832286999328,None,320.7832286999328,None,320.7832286999328,None,None,None,323.87639849993866,None,,,,,,,,,253,m,21,2023_Mar_23_1002,RL,2021.2.3,59.95419500916961,
0,0.3,0.225,0,23,23,23,,,,,,,,,,,,,,,None,None,None,None,None,325.7508791999426,None,325.7508791999426,None,325.7508791999426,None,325.7508791999426,None,r,0.5999880000017583,325.7508791999426,None,325.7508791999426,None,326.4075862999307,None,326.4075862999307,None,326.4075862999307,None,326.4075862999307,None,326.4075862999307,None,326.4075862999307,None,326.6969524999149,328.5147571999114,326.6969524999149,328.5147571999114,328.5479014000157,None,328.5479014000157,None,328.5479014000157,None,328.5479014000157,None,328.5479014000157,None,328.5479014000157,None,328.5479014000157,None,328.5479014000157,None,328.5479014000157,None,80,46,23,52,80,83,331.06783039995935,None,6.0,1.501862599980086,331.06783039995935,None,331.06783039995935,None,331.06783039995935,None,331.06783039995935,None,,None,None,,None,None,None,None,None,None,None,None,None,None,None,None,None,None,,,,,,,,None,None,None,None,0.6,3,None,None,None,None,None,None,None,None,None,None,None,None,,None,None,None,None,None,None,None,None,None,None,None,None,None,None,None,None,None,None,None,None,332.6244477999862,None,,,,,,,,,253,m,21,2023_Mar_23_1002,RL,2021.2.3,59.95419500916961,
1,-0.3,-0.225,0,24,24,24,,,,,,,,,,,,,,,None,None,None,None,None,334.2904176999582,None,334.2904176999582,None,334.2904176999582,None,334.2904176999582,None,r,1.0405244000721723,334.2904176999582,None,334.2904176999582,None,335.375576499966,None,335.375576499966,None,335.375576499966,None,335.375576499966,None,335.375576499966,None,335.375576499966,None,335.6695287999464,None,335.6695287999464,None,336.9352311999537,None,336.9352311999537,None,336.9352311999537,None,336.9352311999537,None,336.9352311999537,None,336.9352311999537,None,336.9352311999537,None,336.9352311999537,None,336.9352311999537,None,74,44,30,51,74,50,None,None,None,None,None,None,None,None,None,None,None,None,,None,None,,None,None,None,None,None,None,None,None,None,None,None,None,None,None,,,,,,,,None,None,None,None,-0.6,1,339.4843623000197,None,339.4843623000197,None,339.4843623000197,None,339.4843623000197,None,339.4843623000197,None,339.4843623000197,None,75,339.4843623000197,None,339.4843623000197,None,0.01202061993535608,None,339.4843623000197,None,7.953125,1.6068649999797344,343.5490936000133,None,343.5490936000133,None,343.5490936000133,None,343.5490936000133,None,None,None,345.17585379991215,None,0.08072916666666667,-0.2669270833333333,1,0,0,4.032829999923706,tijiao_random_2,,253,m,21,2023_Mar_23_1002,RL,2021.2.3,59.95419500916961,
0,0.3,0.225,0,25,25,25,,,,,,,,,,,,,,,None,None,None,None,None,347.13195750000887,None,347.13195750000887,None,347.13195750000887,None,347.13195750000887,None,r,0.5091959999408573,347.13195750000887,None,347.13195750000887,None,347.6847510000225,None,347.6847510000225,None,347.6847510000225,None,347.6847510000225,None,347.6847510000225,None,347.6847510000225,None,347.97820110002067,349.5292559999507,347.97820110002067,349.5292559999507,349.5618176999269,None,349.5618176999269,None,349.5618176999269,None,349.5618176999269,None,349.5618176999269,None,349.5618176999269,None,349.5618176999269,None,349.5618176999269,None,349.5618176999269,None,83,42,35,52,83,79,352.0810878999764,None,6.0,2.005778399994597,352.0810878999764,None,352.0810878999764,None,352.0810878999764,None,352.0810878999764,None,,None,None,,None,None,None,None,None,None,None,None,None,None,None,None,None,None,,,,,,,,None,None,None,None,0.2,3,None,None,None,None,None,None,None,None,None,None,None,None,,None,None,None,None,None,None,None,None,None,None,None,None,None,None,None,None,None,None,None,None,354.13834189996123,None,,,,,,,,,253,m,21,2023_Mar_23_1002,RL,2021.2.3,59.95419500916961,
1,-0.3,-0.225,0,26,26,26,,,,,,,,,,,,,,,None,None,None,None,None,355.78818369994406,None,355.78818369994406,None,355.78818369994406,None,355.78818369994406,None,r,0.9232283999444917,355.78818369994406,None,355.78818369994406,None,356.75804240000434,None,356.75804240000434,None,356.75804240000434,None,356.75804240000434,None,356.75804240000434,None,356.75804240000434,None,357.0510733999545,358.00187999999616,357.0510733999545,358.00187999999616,358.03387179994024,None,358.03387179994024,None,358.03387179994024,None,358.03387179994024,None,358.03387179994024,None,358.03387179994024,None,358.03387179994024,None,358.03387179994024,None,358.03387179994024,None,69,35,37,50,69,85,None,None,None,None,None,None,None,None,None,None,None,None,70,360.56977449997794,None,70,360.56977449997794,None,360.56977449997794,None,360.56977449997794,None,360.56977449997794,None,360.56977449997794,None,360.56977449997794,None,360.56977449997794,None,0.0078125,-0.3046875,1,0,0,3.8795286000240594,tijiao,0.009288939996622503,None,360.56977449997794,None,0.2,0,None,None,None,None,None,None,None,None,None,None,None,None,,None,None,None,None,None,None,None,None,8.03125,1.3879626999842003,364.49292829993647,None,364.49292829993647,None,364.49292829993647,None,364.49292829993647,None,None,None,365.9067340999609,None,,,,,,,,,253,m,21,2023_Mar_23_1002,RL,2021.2.3,59.95419500916961,
0,0.3,0.225,0,27,27,27,,,,,,,,,,,,,,,None,None,None,None,None,367.72970799996983,None,367.72970799996983,None,367.72970799996983,None,367.72970799996983,None,r,0.5616757000098005,367.72970799996983,None,367.72970799996983,None,368.3322616999503,None,368.3322616999503,None,368.3322616999503,None,368.3322616999503,None,368.3322616999503,None,368.3322616999503,None,368.62591029994655,370.3606546999654,368.62591029994655,370.3606546999654,370.39165999996476,None,370.39165999996476,None,370.39165999996476,None,370.39165999996476,None,370.39165999996476,None,370.39165999996476,None,370.39165999996476,None,370.39165999996476,None,370.39165999996476,None,71,39,37,64,71,83,None,None,None,None,None,None,None,None,None,None,None,None,,None,None,,None,None,None,None,None,None,None,None,None,None,None,None,None,None,,,,,,,,None,None,None,None,-0.2,1,372.93831979995593,None,372.93831979995593,None,372.93831979995593,None,372.93831979995593,None,372.93831979995593,None,372.93831979995593,None,30,372.93831979995593,None,372.93831979995593,None,0.014717419864609838,None,372.93831979995593,None,7.979166666666666,2.155125300050713,377.3925896999426,None,377.3925896999426,None,377.3925896999426,None,377.3925896999426,None,None,None,379.5651400999632,None,0.032552083333333336,-0.2890625,1,0,0,4.418975900043733,tijiao_random_2,,253,m,21,2023_Mar_23_1002,RL,2021.2.3,59.95419500916961,
1,-0.3,-0.225,0,28,28,28,,,,,,,,,,,,,,,None,None,None,None,None,381.5057716999436,None,381.5057716999436,None,381.5057716999436,None,381.5057716999436,None,r,0.4655738000292331,381.5057716999436,None,381.5057716999436,None,382.02456749998964,None,382.02456749998964,None,382.02456749998964,None,382.02456749998964,None,382.02456749998964,None,382.02456749998964,None,382.31877419992816,383.11922360002063,382.31877419992816,383.11922360002063,383.1526492999401,None,383.1526492999401,None,383.1526492999401,None,383.1526492999401,None,383.1526492999401,None,383.1526492999401,None,383.1526492999401,None,383.1526492999401,None,383.1526492999401,None,67,32,43,59,67,42,385.6758593999548,None,7.0,1.3698967000236735,385.6758593999548,None,385.6758593999548,None,385.6758593999548,None,385.6758593999548,None,,None,None,,None,None,None,None,None,None,None,None,None,None,None,None,None,None,,,,,,,,None,None,None,None,-0.2,2,None,None,None,None,None,None,None,None,None,None,None,None,,None,None,None,None,None,None,None,None,None,None,None,None,None,None,None,None,None,None,None,None,387.1129516999936,None,,,,,,,,,253,m,21,2023_Mar_23_1002,RL,2021.2.3,59.95419500916961,
0,0.3,0.225,0,29,29,29,,,,,,,,,,,,,,,None,None,None,None,None,388.6271189999534,None,388.6271189999534,None,388.6271189999534,None,388.6271189999534,None,r,0.874488600064069,388.6271189999534,None,388.6271189999534,None,389.54708569997456,None,389.54708569997456,None,389.54708569997456,None,389.54708569997456,None,389.54708569997456,None,389.54708569997456,None,389.84060809994116,None,389.84060809994116,None,390.84205049998127,None,390.84205049998127,None,390.84205049998127,None,390.84205049998127,None,390.84205049998127,None,390.84205049998127,None,390.84205049998127,None,390.84205049998127,None,390.84205049998127,None,65,33,45,57,65,79,None,None,None,None,None,None,None,None,None,None,None,None,70,393.3754500999348,None,70,393.3754500999348,None,393.3754500999348,None,393.3754500999348,None,393.3754500999348,None,393.3754500999348,None,393.3754500999348,None,393.3754500999348,None,0.1171875,-0.2799479166666667,1,0,0,5.782248199917376,tijiao,0.010206239996477962,None,393.3754500999348,None,-0.2,0,None,None,None,None,None,None,None,None,None,None,None,None,,None,None,None,None,None,None,None,None,9.046875,1.6554143000394106,399.20186559995636,None,399.20186559995636,None,399.20186559995636,None,399.20186559995636,None,None,None,400.88085919991136,None,,,,,,,,,253,m,21,2023_Mar_23_1002,RL,2021.2.3,59.95419500916961,
1,-0.3,-0.225,0,30,30,30,,,,,,,,,,,,,,,None,None,None,None,None,402.85425440000836,None,402.85425440000836,None,402.85425440000836,None,402.85425440000836,None,r,0.3372707999078557,402.85425440000836,None,402.85425440000836,None,403.23906769999303,None,403.23906769999303,None,403.23906769999303,None,403.23906769999303,None,403.23906769999303,None,403.23906769999303,None,403.5336778999772,None,403.5336778999772,None,404.51868739991914,None,404.51868739991914,None,404.51868739991914,None,404.51868739991914,None,404.51868739991914,None,404.51868739991914,None,404.51868739991914,None,404.51868739991914,None,404.51868739991914,None,82,33,28,63,82,81,None,None,None,None,None,None,None,None,None,None,None,None,75,407.05210500000976,None,75,407.05210500000976,None,407.05210500000976,None,407.05210500000976,None,407.05210500000976,None,407.05210500000976,None,407.05210500000976,None,407.05210500000976,None,0.1328125,-0.30859375,1,0,0,3.445452200016007,tijiao,0.009159339941106737,None,407.05210500000976,None,0.2,0,None,None,None,None,None,None,None,None,None,None,None,None,,None,None,None,None,None,None,None,None,9.971354166666668,1.8859694000566378,410.5406176999677,None,410.5406176999677,None,410.5406176999677,None,410.5406176999677,None,None,None,412.45412869995926,None,,,,,,,,,253,m,21,2023_Mar_23_1002,RL,2021.2.3,59.95419500916961,
0,0.3,0.225,0,31,31,31,,,,,,,,,,,,,,,None,None,None,None,None,414.39017519995105,None,414.39017519995105,None,414.39017519995105,None,414.39017519995105,None,r,0.5913452999666333,414.39017519995105,None,414.39017519995105,None,415.0320240999572,None,415.0320240999572,None,415.0320240999572,None,415.0320240999572,None,415.0320240999572,None,415.0320240999572,None,415.32488229998853,None,415.32488229998853,None,416.6228370999452,None,416.6228370999452,None,416.6228370999452,None,416.6228370999452,None,416.6228370999452,None,416.6228370999452,None,416.6228370999452,None,416.6228370999452,None,416.6228370999452,None,70,37,36,62,70,83,None,None,None,None,None,None,None,None,None,None,None,None,,None,None,,None,None,None,None,None,None,None,None,None,None,None,None,None,None,,,,,,,,None,None,None,None,0.2,1,419.16991139994934,None,419.16991139994934,None,419.16991139994934,None,419.16991139994934,None,419.16991139994934,None,419.16991139994934,None,40,419.16991139994934,None,419.16991139994934,None,0.016100819921121,None,419.16991139994934,None,8.916666666666668,2.3289296999573708,423.2722398999613,None,423.2722398999613,None,423.2722398999613,None,423.2722398999613,None,None,None,425.6300401999615,None,0.08984375,-0.2890625,1,0,0,4.069996999925934,tijiao_random_2,,253,m,21,2023_Mar_23_1002,RL,2021.2.3,59.95419500916961,
1,-0.3,-0.225,0,32,32,32,,,,,,,,,,,,,,,None,None,None,None,None,427.2720623000059,None,427.2720623000059,None,427.2720623000059,None,427.2720623000059,None,r,0.44945720001123846,427.2720623000059,None,427.2720623000059,None,427.772006199928,None,427.772006199928,None,427.772006199928,None,427.772006199928,None,427.772006199928,None,427.772006199928,None,428.06722139997873,None,428.06722139997873,None,429.06882519996725,None,429.06882519996725,None,429.06882519996725,None,429.06882519996725,None,429.06882519996725,None,429.06882519996725,None,429.06882519996725,None,429.06882519996725,None,429.06882519996725,None,82,27,36,66,82,70,None,None,None,None,None,None,None,None,None,None,None,None,70,431.5940769999288,None,70,431.5940769999288,None,431.5940769999288,None,431.5940769999288,None,431.5940769999288,None,431.5940769999288,None,431.5940769999288,None,431.5940769999288,None,-0.009114583333333334,-0.2903645833333333,1,0,0,4.771865500020795,tijiao,0.0011980598792433739,None,431.5940769999288,None,-0.2,0,None,None,None,None,None,None,None,None,None,None,None,None,,None,None,None,None,None,None,None,None,10.114583333333332,1.6809292000252753,436.41279819991905,None,436.41279819991905,None,436.41279819991905,None,436.41279819991905,None,None,None,438.12864939996507,None,,,,,,,,,253,m,21,2023_Mar_23_1002,RL,2021.2.3,59.95419500916961,
0,0.3,0.225,0,33,33,33,,,,,,,,,,,,,,,None,None,None,None,None,439.7296467999695,None,439.7296467999695,None,439.7296467999695,None,439.7296467999695,None,r,0.31231269997078925,439.7296467999695,None,439.7296467999695,None,440.08261299994774,None,440.08261299994774,None,440.08261299994774,None,440.08261299994774,None,440.08261299994774,None,440.08261299994774,None,440.3756827999605,None,440.3756827999605,None,441.32307189994026,None,441.32307189994026,None,441.32307189994026,None,441.32307189994026,None,441.32307189994026,None,441.32307189994026,None,441.32307189994026,None,441.32307189994026,None,441.32307189994026,None,79,39,28,65,79,43,443.8403914999217,None,7.0,1.5233488999074325,443.8403914999217,None,443.8403914999217,None,443.8403914999217,None,443.8403914999217,None,,None,None,,None,None,None,None,None,None,None,None,None,None,None,None,None,None,,,,,,,,None,None,None,None,-0.2,3,None,None,None,None,None,None,None,None,None,None,None,None,,None,None,None,None,None,None,None,None,None,None,None,None,None,None,None,None,None,None,None,None,445.42193519999273,None,,,,,,,,,253,m,21,2023_Mar_23_1002,RL,2021.2.3,59.95419500916961,
1,-0.3,-0.225,0,34,34,34,,,,,,,,,,,,,,,None,None,None,None,None,447.1014077999862,None,447.1014077999862,None,447.1014077999862,None,447.1014077999862,None,r,0.5503157000057399,447.1014077999862,None,447.1014077999862,None,447.70106360001955,None,447.70106360001955,None,447.70106360001955,None,447.70106360001955,None,447.70106360001955,None,447.70106360001955,None,447.997644499992,449.4819595000008,447.997644499992,449.4819595000008,449.5144254999468,None,449.5144254999468,None,449.5144254999468,None,449.5144254999468,None,449.5144254999468,None,449.5144254999468,None,449.5144254999468,None,449.5144254999468,None,449.5144254999468,None,78,39,32,67,78,45,None,None,None,None,None,None,None,None,None,None,None,None,,None,None,,None,None,None,None,None,None,None,None,None,None,None,None,None,None,,,,,,,,None,None,None,None,0.6,1,452.05477659997996,None,452.05477659997996,None,452.05477659997996,None,452.05477659997996,None,452.05477659997996,None,452.05477659997996,None,50,452.05477659997996,None,452.05477659997996,None,0.003919940092600882,None,452.05477659997996,None,10.140625,1.9166633998975158,456.91511750000063,None,456.91511750000063,None,456.91511750000063,None,456.91511750000063,None,None,None,458.852982899989,None,0.02734375,-0.2721354166666667,1,0,0,4.825052799889818,tijiao_random_2,,253,m,21,2023_Mar_23_1002,RL,2021.2.3,59.95419500916961,
0,0.3,0.225,0,35,35,35,,,,,,,,,,,,,,,None,None,None,None,None,460.74417279998306,None,460.74417279998306,None,460.74417279998306,None,460.74417279998306,None,r,0.2879329000134021,460.74417279998306,None,460.74417279998306,None,461.08135069999844,None,461.08135069999844,None,461.08135069999844,None,461.08135069999844,None,461.08135069999844,None,461.08135069999844,None,461.3569759000093,462.47434969991446,461.3569759000093,462.47434969991446,462.50918799999636,None,462.50918799999636,None,462.50918799999636,None,462.50918799999636,None,462.50918799999636,None,462.50918799999636,None,462.50918799999636,None,462.50918799999636,None,462.50918799999636,None,80,38,22,61,80,81,465.02855189994443,None,6.0,1.302149900002405,465.02855189994443,None,465.02855189994443,None,465.02855189994443,None,465.02855189994443,None,,None,None,,None,None,None,None,None,None,None,None,None,None,None,None,None,None,,,,,,,,None,None,None,None,-0.6,3,None,None,None,None,None,None,None,None,None,None,None,None,,None,None,None,None,None,None,None,None,None,None,None,None,None,None,None,None,None,None,None,None,466.4092723999638,None,,,,,,,,,253,m,21,2023_Mar_23_1002,RL,2021.2.3,59.95419500916961,
1,-0.3,-0.225,0,36,36,36,,,,,,,,,,,,,,,None,None,None,None,None,468.36625049996655,None,468.36625049996655,None,468.36625049996655,None,468.36625049996655,None,r,0.685587500105612,468.36625049996655,None,468.36625049996655,None,469.09933190001175,None,469.09933190001175,None,469.09933190001175,None,469.09933190001175,None,469.09933190001175,None,469.09933190001175,None,469.39573939994443,None,469.39573939994443,None,470.6170517000137,None,470.6170517000137,None,470.6170517000137,None,470.6170517000137,None,470.6170517000137,None,470.6170517000137,None,470.6170517000137,None,470.6170517000137,None,470.6170517000137,None,82,38,28,63,82,34,None,None,None,None,None,None,None,None,None,None,None,None,,None,None,,None,None,None,None,None,None,None,None,None,None,None,None,None,None,,,,,,,,None,None,None,None,-0.2,1,473.1622537999647,None,473.1622537999647,None,473.1622537999647,None,473.1622537999647,None,473.1622537999647,None,473.1622537999647,None,35,473.1622537999647,None,473.1622537999647,None,0.011134419939480722,None,473.1622537999647,None,10.817708333333332,2.078571100020781,477.7929286999861,None,477.7929286999861,None,477.7929286999861,None,477.7929286999861,None,None,None,479.8859548999462,None,0.022135416666666668,-0.3020833333333333,1,0,0,4.598555599921383,tijiao_random_2,,253,m,21,2023_Mar_23_1002,RL,2021.2.3,59.95419500916961,
0,0.3,0.225,0,37,37,37,,,,,,,,,,,,,,,None,None,None,None,None,481.6746039999416,None,481.6746039999416,None,481.6746039999416,None,481.6746039999416,None,r,0.5183306999970227,481.6746039999416,None,481.6746039999416,None,482.24574739998206,None,482.24574739998206,None,482.24574739998206,None,482.24574739998206,None,482.24574739998206,None,482.24574739998206,None,482.53842509991955,484.2729822999099,482.53842509991955,484.2729822999099,484.3047965000151,None,484.3047965000151,None,484.3047965000151,None,484.3047965000151,None,484.3047965000151,None,484.3047965000151,None,484.3047965000151,None,484.3047965000151,None,484.3047965000151,None,88,42,21,61,88,80,486.8260893999832,None,7.0,1.0701984000625089,486.8260893999832,None,486.8260893999832,None,486.8260893999832,None,486.8260893999832,None,,None,None,,None,None,None,None,None,None,None,None,None,None,None,None,None,None,,,,,,,,None,None,None,None,0.6,3,None,None,None,None,None,None,None,None,None,None,None,None,,None,None,None,None,None,None,None,None,None,None,None,None,None,None,None,None,None,None,None,None,487.9609521999955,None,,,,,,,,,253,m,21,2023_Mar_23_1002,RL,2021.2.3,59.95419500916961,
1,-0.3,-0.225,0,38,38,38,,,,,,,,,,,,,,,None,None,None,None,None,489.8144549999852,None,489.8144549999852,None,489.8144549999852,None,489.8144549999852,None,r,1.0685424000257626,489.8144549999852,None,489.8144549999852,None,490.93063969991636,None,490.93063969991636,None,490.93063969991636,None,490.93063969991636,None,490.93063969991636,None,490.93063969991636,None,491.2279028999619,None,491.2279028999619,None,492.242087099934,None,492.242087099934,None,492.242087099934,None,492.242087099934,None,492.242087099934,None,492.242087099934,None,492.242087099934,None,492.242087099934,None,492.242087099934,None,91,40,27,63,91,39,None,None,None,None,None,None,None,None,None,None,None,None,80,494.77885120001156,None,80,494.77885120001156,None,494.77885120001156,None,494.77885120001156,None,494.77885120001156,None,494.77885120001156,None,494.77885120001156,None,494.77885120001156,None,-0.016927083333333332,-0.2838541666666667,1,0,0,3.629051600000821,tijiao,0.00922703999094665,None,494.77885120001156,None,0.2,0,None,None,None,None,None,None,None,None,None,None,None,None,,None,None,None,None,None,None,None,None,10.9609375,1.2830758000491187,498.4523704999592,None,498.4523704999592,None,498.4523704999592,None,498.4523704999592,None,None,None,499.7675299999537,None,,,,,,,,,253,m,21,2023_Mar_23_1002,RL,2021.2.3,59.95419500916961,
0,0.3,0.225,0,39,39,39,,,,,,,,,,,,,,,None,None,None,None,None,501.6892496999353,None,501.6892496999353,None,501.6892496999353,None,501.6892496999353,None,r,0.39448140002787113,501.6892496999353,None,501.6892496999353,None,502.12567490001675,None,502.12567490001675,None,502.12567490001675,None,502.12567490001675,None,502.12567490001675,None,502.12567490001675,None,502.41877689992543,503.2361967000179,502.41877689992543,503.2361967000179,503.2715210999595,None,503.2715210999595,None,503.2715210999595,None,503.2715210999595,None,503.2715210999595,None,503.2715210999595,None,503.2715210999595,None,503.2715210999595,None,503.2715210999595,None,93,43,29,65,93,77,505.7923862999305,None,7.0,1.150837799999863,505.7923862999305,None,505.7923862999305,None,505.7923862999305,None,505.7923862999305,None,,None,None,,None,None,None,None,None,None,None,None,None,None,None,None,None,None,,,,,,,,None,None,None,None,-0.2,2,None,None,None,None,None,None,None,None,None,None,None,None,,None,None,None,None,None,None,None,None,None,None,None,None,None,None,None,None,None,None,None,None,506.9928878999781,None,,,,,,,,,253,m,21,2023_Mar_23_1002,RL,2021.2.3,59.95419500916961,
1,-0.3,-0.225,0,40,40,40,,,,,,,,,,,,,,,None,None,None,None,None,508.52688199991826,None,508.52688199991826,None,508.52688199991826,None,508.52688199991826,None,r,0.6461932000238448,508.52688199991826,None,508.52688199991826,None,509.21159379999153,None,509.21159379999153,None,509.21159379999153,None,509.21159379999153,None,509.21159379999153,None,509.21159379999153,None,509.5069534999784,None,509.5069534999784,None,511.49273509997874,None,511.49273509997874,None,511.49273509997874,None,511.49273509997874,None,511.49273509997874,None,511.49273509997874,None,511.49273509997874,None,511.49273509997874,None,511.49273509997874,None,89,43,27,53,89,87,None,None,None,None,None,None,None,None,None,None,None,None,,None,None,,None,None,None,None,None,None,None,None,None,None,None,None,None,None,,,,,,,,None,None,None,None,-0.6,1,514.0384530000156,None,514.0384530000156,None,514.0384530000156,None,514.0384530000156,None,514.0384530000156,None,514.0384530000156,None,86,514.0384530000156,None,514.0384530000156,None,0.012673320015892386,None,514.0384530000156,None,10.1796875,1.6185700000496581,518.8526873999508,None,518.8526873999508,None,518.8526873999508,None,518.8526873999508,None,None,None,520.5037586999824,None,0.09114583333333333,-0.2786458333333333,1,0,0,4.783506500069052,tijiao_random_2,,253,m,21,2023_Mar_23_1002,RL,2021.2.3,59.95419500916961,
0,0.3,0.225,0,41,41,41,,,,,,,,,,,,,,,None,None,None,None,None,522.4866966999834,None,522.4866966999834,None,522.4866966999834,None,522.4866966999834,None,r,0.27653549995739013,522.4866966999834,None,522.4866966999834,None,522.8059012999292,None,522.8059012999292,None,522.8059012999292,None,522.8059012999292,None,522.8059012999292,None,522.8059012999292,None,523.1000065999106,524.8510530999629,523.1000065999106,524.8510530999629,524.8832319999347,None,524.8832319999347,None,524.8832319999347,None,524.8832319999347,None,524.8832319999347,None,524.8832319999347,None,524.8832319999347,None,524.8832319999347,None,524.8832319999347,None,78,40,12,56,78,87,None,None,None,None,None,None,None,None,None,None,None,None,80,527.4180335999699,None,80,527.4180335999699,None,527.4180335999699,None,527.4180335999699,None,527.4180335999699,None,527.4180335999699,None,527.4180335999699,None,527.4180335999699,None,0.05078125,-0.2799479166666667,1,0,0,3.465313100023195,tijiao,0.011333439964801073,None,527.4180335999699,None,0.6,0,None,None,None,None,None,None,None,None,None,None,None,None,,None,None,None,None,None,None,None,None,9.997395833333332,1.9626965000061318,530.9282089999178,None,530.9282089999178,None,530.9282089999178,None,530.9282089999178,None,None,None,532.9059728999855,None,,,,,,,,,253,m,21,2023_Mar_23_1002,RL,2021.2.3,59.95419500916961,
1,-0.3,-0.225,0,42,42,42,,,,,,,,,,,,,,,None,None,None,None,None,534.5786508999299,None,534.5786508999299,None,534.5786508999299,None,534.5786508999299,None,r,0.2749435999430716,534.5786508999299,None,534.5786508999299,None,534.9034885999281,None,534.9034885999281,None,534.9034885999281,None,534.9034885999281,None,534.9034885999281,None,534.9034885999281,None,535.1916002000216,None,535.1916002000216,None,536.4902404999593,None,536.4902404999593,None,536.4902404999593,None,536.4902404999593,None,536.4902404999593,None,536.4902404999593,None,536.4902404999593,None,536.4902404999593,None,536.4902404999593,None,78,41,15,61,78,94,None,None,None,None,None,None,None,None,None,None,None,None,80,539.0187995999586,None,80,539.0187995999586,None,539.0187995999586,None,539.0187995999586,None,539.0187995999586,None,539.0187995999586,None,539.0187995999586,None,539.0187995999586,None,0.12630208333333334,-0.2942708333333333,1,0,0,3.3213502999860793,tijiao,0.0006911599775776267,None,539.0187995999586,None,-0.2,0,None,None,None,None,None,None,None,None,None,None,None,None,,None,None,None,None,None,None,None,None,9.971354166666668,1.2654779000440612,542.3877040999942,None,542.3877040999942,None,542.3877040999942,None,542.3877040999942,None,None,None,543.6786916999845,None,,,,,,,,,253,m,21,2023_Mar_23_1002,RL,2021.2.3,59.95419500916961,
0,0.3,0.225,0,43,43,43,,,,,,,,,,,,,,,None,None,None,None,None,545.4532308999915,None,545.4532308999915,None,545.4532308999915,None,545.4532308999915,None,r,0.3201339999213815,545.4532308999915,None,545.4532308999915,None,545.8203468999127,None,545.8203468999127,None,545.8203468999127,None,545.8203468999127,None,545.8203468999127,None,545.8203468999127,None,546.1158215999603,None,546.1158215999603,None,547.8480333000189,None,547.8480333000189,None,547.8480333000189,None,547.8480333000189,None,547.8480333000189,None,547.8480333000189,None,547.8480333000189,None,547.8480333000189,None,547.8480333000189,None,76,35,13,57,76,94,None,None,None,None,None,None,None,None,None,None,None,None,80,550.3892621999839,None,80,550.3892621999839,None,550.3892621999839,None,550.3892621999839,None,550.3892621999839,None,550.3892621999839,None,550.3892621999839,None,550.3892621999839,None,0.048177083333333336,-0.2955729166666667,1,0,0,5.959450499969535,tijiao,0.004691440030001104,None,550.3892621999839,None,0.6,0,None,None,None,None,None,None,None,None,None,None,None,None,,None,None,None,None,None,None,None,None,9.020833333333332,1.6310422000242397,556.3964206000092,None,556.3964206000092,None,556.3964206000092,None,556.3964206000092,None,None,None,558.0406284999335,None,,,,,,,,,253,m,21,2023_Mar_23_1002,RL,2021.2.3,59.95419500916961,
1,-0.3,-0.225,0,44,44,44,,,,,,,,,,,,,,,None,None,None,None,None,559.6459537999472,None,559.6459537999472,None,559.6459537999472,None,559.6459537999472,None,r,0.34773699997458607,559.6459537999472,None,559.6459537999472,None,560.0332590999315,None,560.0332590999315,None,560.0332590999315,None,560.0332590999315,None,560.0332590999315,None,560.0332590999315,None,560.3089234000072,561.1428256999934,560.3089234000072,561.1428256999934,561.1734028999927,None,561.1734028999927,None,561.1734028999927,None,561.1734028999927,None,561.1734028999927,None,561.1734028999927,None,561.1734028999927,None,561.1734028999927,None,561.1734028999927,None,80,45,20,51,80,57,None,None,None,None,None,None,None,None,None,None,None,None,80,563.7029660999542,None,80,563.7029660999542,None,563.7029660999542,None,563.7029660999542,None,563.7029660999542,None,563.7029660999542,None,563.7029660999542,None,563.7029660999542,None,0.13671875,-0.2877604166666667,1,0,0,3.287371899932623,tijiao,0.0010876599699258804,None,563.7029660999542,None,0.6,0,None,None,None,None,None,None,None,None,None,None,None,None,,None,None,None,None,None,None,None,None,9.9453125,1.9937076000496745,567.0349747999571,None,567.0349747999571,None,567.0349747999571,None,567.0349747999571,None,None,None,569.046104399953,None,,,,,,,,,253,m,21,2023_Mar_23_1002,RL,2021.2.3,59.95419500916961,
0,0.3,0.225,0,45,45,45,,,,,,,,,,,,,,,None,None,None,None,None,570.9539336999878,None,570.9539336999878,None,570.9539336999878,None,570.9539336999878,None,r,0.39965259993914515,570.9539336999878,None,570.9539336999878,None,571.4046829999425,None,571.4046829999425,None,571.4046829999425,None,571.4046829999425,None,571.4046829999425,None,571.4046829999425,None,571.7003755000187,None,571.7003755000187,None,572.8305396999931,None,572.8305396999931,None,572.8305396999931,None,572.8305396999931,None,572.8305396999931,None,572.8305396999931,None,572.8305396999931,None,572.8305396999931,None,572.8305396999931,None,80,44,22,61,80,89,None,None,None,None,None,None,None,None,None,None,None,None,,None,None,,None,None,None,None,None,None,None,None,None,None,None,None,None,None,,,,,,,,None,None,None,None,-0.6,1,575.3840762999607,None,575.3840762999607,None,575.3840762999607,None,575.3840762999607,None,575.3840762999607,None,575.3840762999607,None,80,575.3840762999607,None,575.3840762999607,None,0.009987219935283065,None,575.3840762999607,None,9.177083333333332,1.3367050999077037,578.3959471000126,None,578.3959471000126,None,578.3959471000126,None,578.3959471000126,None,None,None,579.7534954999574,None,0.037760416666666664,-0.3059895833333333,1,0,0,2.979527899995446,tijiao_random_2,,253,m,21,2023_Mar_23_1002,RL,2021.2.3,59.95419500916961,
1,-0.3,-0.225,0,46,46,46,,,,,,,,,,,,,,,None,None,None,None,None,581.39471709996,None,581.39471709996,None,581.39471709996,None,581.39471709996,None,j,1.148899200023152,581.39471709996,None,581.39471709996,None,582.5969432999846,None,582.5969432999846,None,582.5969432999846,None,582.5969432999846,None,582.5969432999846,None,582.5969432999846,None,582.8912055999972,None,582.8912055999972,None,584.559144299943,None,584.559144299943,None,584.559144299943,None,584.559144299943,None,584.559144299943,None,584.559144299943,None,584.559144299943,None,584.559144299943,None,584.559144299943,None,76,45,16,53,53,85,None,None,None,None,None,None,None,None,None,None,None,None,,None,None,,None,None,None,None,None,None,None,None,None,None,None,None,None,None,,,,,,,,None,None,None,None,0.2,1,587.0994987000013,None,587.0994987000013,None,587.0994987000013,None,587.0994987000013,None,587.0994987000013,None,587.0994987000013,None,40,587.0994987000013,None,587.0994987000013,None,0.002682540100067854,None,587.0994987000013,None,9.046875,1.2250499000074342,590.8919311999343,None,590.8919311999343,None,590.8919311999343,None,590.8919311999343,None,None,None,592.1429191000061,None,0.10286458333333333,-0.30078125,1,0,0,3.756652000010945,tijiao_random_2,,253,m,21,2023_Mar_23_1002,RL,2021.2.3,59.95419500916961,
0,0.3,0.225,0,47,47,47,,,,,,,,,,,,,,,None,None,None,None,None,593.8363150999648,None,593.8363150999648,None,593.8363150999648,None,593.8363150999648,None,j,0.4777598000364378,593.8363150999648,None,593.8363150999648,None,594.3573046999518,None,594.3573046999518,None,594.3573046999518,None,594.3573046999518,None,594.3573046999518,None,594.3573046999518,None,594.6496918000048,596.534294800018,594.6496918000048,596.534294800018,596.564780500019,None,596.564780500019,None,596.564780500019,None,596.564780500019,None,596.564780500019,None,596.564780500019,None,596.564780500019,None,596.564780500019,None,596.564780500019,None,78,47,27,62,62,39,599.0831656999653,None,5.0,1.3255315000424162,599.0831656999653,None,599.0831656999653,None,599.0831656999653,None,599.0831656999653,None,,None,None,,None,None,None,None,None,None,None,None,None,None,None,None,None,None,,,,,,,,None,None,None,None,0.6,2,None,None,None,None,None,None,None,None,None,None,None,None,,None,None,None,None,None,None,None,None,None,None,None,None,None,None,None,None,None,None,None,None,600.4614802999422,None,,,,,,,,,253,m,21,2023_Mar_23_1002,RL,2021.2.3,59.95419500916961,
1,-0.3,-0.225,0,48,48,48,,,,,,,,,,,,,,,None,None,None,None,None,602.3087328999536,None,602.3087328999536,None,602.3087328999536,None,602.3087328999536,None,r,0.9950157999992371,602.3087328999536,None,602.3087328999536,None,603.3462040999439,None,603.3462040999439,None,603.3462040999439,None,603.3462040999439,None,603.3462040999439,None,603.3462040999439,None,603.6389896000037,None,603.6389896000037,None,605.5893113999628,None,605.5893113999628,None,605.5893113999628,None,605.5893113999628,None,605.5893113999628,None,605.5893113999628,None,605.5893113999628,None,605.5893113999628,None,605.5893113999628,None,73,46,23,50,73,84,608.1142711999128,None,6.0,1.2524423999711871,608.1142711999128,None,608.1142711999128,None,608.1142711999128,None,608.1142711999128,None,,None,None,,None,None,None,None,None,None,None,None,None,None,None,None,None,None,,,,,,,,None,None,None,None,-0.6,3,None,None,None,None,None,None,None,None,None,None,None,None,,None,None,None,None,None,None,None,None,None,None,None,None,None,None,None,None,None,None,None,None,609.4327742999885,None,,,,,,,,,253,m,21,2023_Mar_23_1002,RL,2021.2.3,59.95419500916961,
0,0.3,0.225,0,49,49,49,,,,,,,,,,,,,,,None,None,None,None,None,611.3326279999455,None,611.3326279999455,None,611.3326279999455,None,611.3326279999455,None,r,0.7811555999796838,611.3326279999455,None,611.3326279999455,None,612.1726819999749,None,612.1726819999749,None,612.1726819999749,None,612.1726819999749,None,612.1726819999749,None,612.1726819999749,None,612.4619087999454,613.9796541000251,612.4619087999454,613.9796541000251,614.0099317999557,None,614.0099317999557,None,614.0099317999557,None,614.0099317999557,None,614.0099317999557,None,614.0099317999557,None,614.0099317999557,None,614.0099317999557,None,614.0099317999557,None,65,49,21,53,65,77,616.5283481000224,None,5.0,1.0367749000433832,616.5283481000224,None,616.5283481000224,None,616.5283481000224,None,616.5283481000224,None,,None,None,,None,None,None,None,None,None,None,None,None,None,None,None,None,None,,,,,,,,None,None,None,None,0.2,2,None,None,None,None,None,None,None,None,None,None,None,None,,None,None,None,None,None,None,None,None,None,None,None,None,None,None,None,None,None,None,None,None,617.6193777999142,None,,,,,,,,,253,m,21,2023_Mar_23_1002,RL,2021.2.3,59.95419500916961,
1,-0.3,-0.225,0,50,50,50,,,,,,,,,,,,,,,None,None,None,None,None,619.4882371999556,None,619.4882371999556,None,619.4882371999556,None,619.4882371999556,None,i,0.30585740006063133,619.4882371999556,None,619.4882371999556,None,619.843614900019,None,619.843614900019,None,619.843614900019,None,619.843614900019,None,619.843614900019,None,619.843614900019,None,620.1337000000058,621.184627700015,620.1337000000058,621.184627700015,621.2225068999687,None,621.2225068999687,None,621.2225068999687,None,621.2225068999687,None,621.2225068999687,None,621.2225068999687,None,621.2225068999687,None,621.2225068999687,None,621.2225068999687,None,61,32,22,50,22,72,623.7375826999778,None,4.0,2.083420699927956,623.7375826999778,None,623.7375826999778,None,623.7375826999778,None,623.7375826999778,None,,None,None,,None,None,None,None,None,None,None,None,None,None,None,None,None,None,,,,,,,,None,None,None,None,0.6,3,None,None,None,None,None,None,None,None,None,None,None,None,,None,None,None,None,None,None,None,None,None,None,None,None,None,None,None,None,None,None,None,None,625.8751739999279,None,,,,,,,,,253,m,21,2023_Mar_23_1002,RL,2021.2.3,59.95419500916961,
0,0.3,0.225,0,51,51,51,,,,,,,,,,,,,,,None,None,None,None,None,627.4095631999662,None,627.4095631999662,None,627.4095631999662,None,627.4095631999662,None,f,0.7844089000718668,627.4095631999662,None,627.4095631999662,None,628.2481492999941,None,628.2481492999941,None,628.2481492999941,None,628.2481492999941,None,628.2481492999941,None,628.2481492999941,None,628.5396673999494,None,628.5396673999494,None,630.0401871999493,None,630.0401871999493,None,630.0401871999493,None,630.0401871999493,None,630.0401871999493,None,630.0401871999493,None,630.0401871999493,None,630.0401871999493,None,630.0401871999493,None,60,40,19,46,40,35,632.5561162999365,None,4.0,1.5561597000341862,632.5561162999365,None,632.5561162999365,None,632.5561162999365,None,632.5561162999365,None,,None,None,,None,None,None,None,None,None,None,None,None,None,None,None,None,None,,,,,,,,None,None,None,None,-0.6,3,None,None,None,None,None,None,None,None,None,None,None,None,,None,None,None,None,None,None,None,None,None,None,None,None,None,None,None,None,None,None,None,None,634.1702560000122,None,,,,,,,,,253,m,21,2023_Mar_23_1002,RL,2021.2.3,59.95419500916961,
1,-0.3,-0.225,0,52,52,52,,,,,,,,,,,,,,,None,None,None,None,None,635.8489015999949,None,635.8489015999949,None,635.8489015999949,None,635.8489015999949,None,r,0.3151983000570908,635.8489015999949,None,635.8489015999949,None,636.216354599921,None,636.216354599921,None,636.216354599921,None,636.216354599921,None,636.216354599921,None,636.216354599921,None,636.5118034000043,None,636.5118034000043,None,637.7107667999808,None,637.7107667999808,None,637.7107667999808,None,637.7107667999808,None,637.7107667999808,None,637.7107667999808,None,637.7107667999808,None,637.7107667999808,None,637.7107667999808,None,58,39,27,47,58,76,640.2298817000119,None,4.0,1.2050297999521717,640.2298817000119,None,640.2298817000119,None,640.2298817000119,None,640.2298817000119,None,,None,None,,None,None,None,None,None,None,None,None,None,None,None,None,None,None,,,,,,,,None,None,None,None,-0.6,3,None,None,None,None,None,None,None,None,None,None,None,None,,None,None,None,None,None,None,None,None,None,None,None,None,None,None,None,None,None,None,None,None,641.5043473999249,None,,,,,,,,,253,m,21,2023_Mar_23_1002,RL,2021.2.3,59.95419500916961,
0,0.3,0.225,0,53,53,53,,,,,,,,,,,,,,,None,None,None,None,None,643.1872570000123,None,643.1872570000123,None,643.1872570000123,None,643.1872570000123,None,r,0.4479375999653712,643.1872570000123,None,643.1872570000123,None,643.6874490999617,None,643.6874490999617,None,643.6874490999617,None,643.6874490999617,None,643.6874490999617,None,643.6874490999617,None,643.9838971999707,None,643.9838971999707,None,645.832138299942,None,645.832138299942,None,645.832138299942,None,645.832138299942,None,645.832138299942,None,645.832138299942,None,645.832138299942,None,645.832138299942,None,645.832138299942,None,63,41,38,52,63,48,648.3504616999999,None,5.0,0.9874180000042543,648.3504616999999,None,648.3504616999999,None,648.3504616999999,None,648.3504616999999,None,,None,None,,None,None,None,None,None,None,None,None,None,None,None,None,None,None,,,,,,,,None,None,None,None,-0.2,3,None,None,None,None,None,None,None,None,None,None,None,None,,None,None,None,None,None,None,None,None,None,None,None,None,None,None,None,None,None,None,None,None,649.3906198999612,None,,,,,,,,,253,m,21,2023_Mar_23_1002,RL,2021.2.3,59.95419500916961,
1,-0.3,-0.225,0,54,54,54,,,,,,,,,,,,,,,None,None,None,None,None,651.0098101999611,None,651.0098101999611,None,651.0098101999611,None,651.0098101999611,None,r,0.6053773000603542,651.0098101999611,None,651.0098101999611,None,651.6616633000085,None,651.6616633000085,None,651.6616633000085,None,651.6616633000085,None,651.6616633000085,None,651.6616633000085,None,651.9559171999572,653.890577299986,651.9559171999572,653.890577299986,653.9272908999119,None,653.9272908999119,None,653.9272908999119,None,653.9272908999119,None,653.9272908999119,None,653.9272908999119,None,653.9272908999119,None,653.9272908999119,None,653.9272908999119,None,66,41,26,59,66,70,656.4376342999749,None,5.0,1.8745620999252424,656.4376342999749,None,656.4376342999749,None,656.4376342999749,None,656.4376342999749,None,,None,None,,None,None,None,None,None,None,None,None,None,None,None,None,None,None,,,,,,,,None,None,None,None,0.6,2,None,None,None,None,None,None,None,None,None,None,None,None,,None,None,None,None,None,None,None,None,None,None,None,None,None,None,None,None,None,None,None,None,658.3635511000175,None,,,,,,,,,253,m,21,2023_Mar_23_1002,RL,2021.2.3,59.95419500916961,
0,0.3,0.225,0,55,55,55,,,,,,,,,,,,,,,None,None,None,None,None,660.3494760999456,None,660.3494760999456,None,660.3494760999456,None,660.3494760999456,None,j,0.30565580003894866,660.3494760999456,None,660.3494760999456,None,660.7073194999248,None,660.7073194999248,None,660.7073194999248,None,660.7073194999248,None,660.7073194999248,None,660.7073194999248,None,660.9956094999798,None,660.9956094999798,None,662.9605765999295,None,662.9605765999295,None,662.9605765999295,None,662.9605765999295,None,662.9605765999295,None,662.9605765999295,None,662.9605765999295,None,662.9605765999295,None,662.9605765999295,None,70,43,25,58,58,13,None,None,None,None,None,None,None,None,None,None,None,None,50,665.5001076000044,None,50,665.5001076000044,None,665.5001076000044,None,665.5001076000044,None,665.5001076000044,None,665.5001076000044,None,665.5001076000044,None,665.5001076000044,None,0.140625,-0.28515625,1,0,0,3.6941436999477446,tijiao,0.008019340108148754,None,665.5001076000044,None,0.6,0,None,None,None,None,None,None,None,None,None,None,None,None,,None,None,None,None,None,None,None,None,8.018229166666666,1.6841558000305668,669.2392449999461,None,669.2392449999461,None,669.2392449999461,None,669.2392449999461,None,None,None,670.9503222999629,None,,,,,,,,,253,m,21,2023_Mar_23_1002,RL,2021.2.3,59.95419500916961,
1,-0.3,-0.225,0,56,56,56,,,,,,,,,,,,,,,None,None,None,None,None,672.5077090999112,None,672.5077090999112,None,672.5077090999112,None,672.5077090999112,None,r,0.5175797000993043,672.5077090999112,None,672.5077090999112,None,673.075019299984,None,673.075019299984,None,673.075019299984,None,673.075019299984,None,673.075019299984,None,673.075019299984,None,673.3707399999257,None,673.3707399999257,None,675.302685600007,None,675.302685600007,None,675.302685600007,None,675.302685600007,None,675.302685600007,None,675.302685600007,None,675.302685600007,None,675.302685600007,None,675.302685600007,None,63,41,27,61,63,63,677.824332499993,None,5.0,1.6010244000935927,677.824332499993,None,677.824332499993,None,677.824332499993,None,677.824332499993,None,,None,None,,None,None,None,None,None,None,None,None,None,None,None,None,None,None,,,,,,,,None,None,None,None,0.6,3,None,None,None,None,None,None,None,None,None,None,None,None,,None,None,None,None,None,None,None,None,None,None,None,None,None,None,None,None,None,None,None,None,679.4799450999126,None,,,,,,,,,253,m,21,2023_Mar_23_1002,RL,2021.2.3,59.95419500916961,
0,0.3,0.225,0,57,57,57,,,,,,,,,,,,,,,None,None,None,None,None,681.196518199984,None,681.196518199984,None,681.196518199984,None,681.196518199984,None,r,0.3488599000265822,681.196518199984,None,681.196518199984,None,681.5974862999283,None,681.5974862999283,None,681.5974862999283,None,681.5974862999283,None,681.5974862999283,None,681.5974862999283,None,681.8933305999963,None,681.8933305999963,None,683.6910186000168,None,683.6910186000168,None,683.6910186000168,None,683.6910186000168,None,683.6910186000168,None,683.6910186000168,None,683.6910186000168,None,683.6910186000168,None,683.6910186000168,None,54,45,33,57,54,68,None,None,None,None,None,None,None,None,None,None,None,None,60,686.2299525999697,None,60,686.2299525999697,None,686.2299525999697,None,686.2299525999697,None,686.2299525999697,None,686.2299525999697,None,686.2299525999697,None,686.2299525999697,None,0.0390625,-0.2760416666666667,1,0,0,3.278431700076908,tijiao,0.008279540110379457,None,686.2299525999697,None,-0.6,0,None,None,None,None,None,None,None,None,None,None,None,None,,None,None,None,None,None,None,None,None,7.940104166666666,1.3655701000243425,689.551867299946,None,689.551867299946,None,689.551867299946,None,689.551867299946,None,None,None,690.9322908999166,None,,,,,,,,,253,m,21,2023_Mar_23_1002,RL,2021.2.3,59.95419500916961,
1,-0.3,-0.225,0,58,58,58,,,,,,,,,,,,,,,None,None,None,None,None,692.4885302999755,None,692.4885302999755,None,692.4885302999755,None,692.4885302999755,None,r,0.8972271999809891,692.4885302999755,None,692.4885302999755,None,693.423732599942,None,693.423732599942,None,693.423732599942,None,693.423732599942,None,693.423732599942,None,693.423732599942,None,693.7182683999417,None,693.7182683999417,None,695.1814105999656,None,695.1814105999656,None,695.1814105999656,None,695.1814105999656,None,695.1814105999656,None,695.1814105999656,None,695.1814105999656,None,695.1814105999656,None,695.1814105999656,None,66,32,20,60,66,52,None,None,None,None,None,None,None,None,None,None,None,None,,None,None,,None,None,None,None,None,None,None,None,None,None,None,None,None,None,,,,,,,,None,None,None,None,0.6,1,697.7269859999651,None,697.7269859999651,None,697.7269859999651,None,697.7269859999651,None,697.7269859999651,None,697.7269859999651,None,55,697.7269859999651,None,697.7269859999651,None,0.002334240125492215,None,697.7269859999651,None,7.888020833333334,1.397321500000544,702.6148155999836,None,702.6148155999836,None,702.6148155999836,None,702.6148155999836,None,None,None,704.0249590999447,None,0.125,-0.2734375,1,0,0,4.856839000014588,tijiao_random_2,,253,m,21,2023_Mar_23_1002,RL,2021.2.3,59.95419500916961,
0,0.3,0.225,0,59,59,59,,,,,,,,,,,,,,,None,None,None,None,None,705.6309347000206,None,705.6309347000206,None,705.6309347000206,None,705.6309347000206,None,r,0.4345081999199465,705.6309347000206,None,705.6309347000206,None,706.1158597000176,None,706.1158597000176,None,706.1158597000176,None,706.1158597000176,None,706.1158597000176,None,706.1158597000176,None,706.4105075999396,None,706.4105075999396,None,707.7115546999266,None,707.7115546999266,None,707.7115546999266,None,707.7115546999266,None,707.7115546999266,None,707.7115546999266,None,707.7115546999266,None,707.7115546999266,None,707.7115546999266,None,72,50,16,53,72,37,None,None,None,None,None,None,None,None,None,None,None,None,60,710.2385261999443,None,60,710.2385261999443,None,710.2385261999443,None,710.2385261999443,None,710.2385261999443,None,710.2385261999443,None,710.2385261999443,None,710.2385261999443,None,0.13151041666666666,-0.27734375,1,0,0,3.9377146000042558,tijiao,0.0005220599705353379,None,710.2385261999443,None,0.6,0,None,None,None,None,None,None,None,None,None,None,None,None,,None,None,None,None,None,None,None,None,8.018229166666666,1.257179900072515,714.2207481999649,None,714.2207481999649,None,714.2207481999649,None,714.2207481999649,None,None,None,715.5070360999089,None,,,,,,,,,253,m,21,2023_Mar_23_1002,RL,2021.2.3,59.95419500916961,
1,-0.3,-0.225,0,60,60,60,,,,,,,,,,,,,,,None,None,None,None,None,717.354969899985,None,717.354969899985,None,717.354969899985,None,717.354969899985,None,r,0.39053159998729825,717.354969899985,None,717.354969899985,None,717.7919162999606,None,717.7919162999606,None,717.7919162999606,None,717.7919162999606,None,717.7919162999606,None,717.7919162999606,None,718.0851598000154,None,718.0851598000154,None,719.9497518999269,None,719.9497518999269,None,719.9497518999269,None,719.9497518999269,None,719.9497518999269,None,719.9497518999269,None,719.9497518999269,None,719.9497518999269,None,719.9497518999269,None,70,40,23,41,70,54,722.4753103000112,None,5.0,1.0003236000193283,722.4753103000112,None,722.4753103000112,None,722.4753103000112,None,722.4753103000112,None,,None,None,,None,None,None,None,None,None,None,None,None,None,None,None,None,None,,,,,,,,None,None,None,None,-0.2,3,None,None,None,None,None,None,None,None,None,None,None,None,,None,None,None,None,None,None,None,None,None,None,None,None,None,None,None,None,None,None,None,None,723.5264985999092,None,,,,,,,,,253,m,21,2023_Mar_23_1002,RL,2021.2.3,59.95419500916961,
0,0.3,0.225,0,61,61,61,,,,,,,,,,,,,,,None,None,None,None,None,725.3609293999616,None,725.3609293999616,None,725.3609293999616,None,725.3609293999616,None,r,0.63502879999578,725.3609293999616,None,725.3609293999616,None,726.0455809999257,None,726.0455809999257,None,726.0455809999257,None,726.0455809999257,None,726.0455809999257,None,726.0455809999257,None,726.3408968999283,727.7252529999241,726.3408968999283,727.7252529999241,727.7548554999521,None,727.7548554999521,None,727.7548554999521,None,727.7548554999521,None,727.7548554999521,None,727.7548554999521,None,727.7548554999521,None,727.7548554999521,None,727.7548554999521,None,65,38,24,49,65,73,None,None,None,None,None,None,None,None,None,None,None,None,65,730.2885265999939,None,65,730.2885265999939,None,730.2885265999939,None,730.2885265999939,None,730.2885265999939,None,730.2885265999939,None,730.2885265999939,None,730.2885265999939,None,0.109375,-0.3020833333333333,1,0,0,4.333528400049545,tijiao,0.013582039973698556,None,730.2885265999939,None,0.2,0,None,None,None,None,None,None,None,None,None,None,None,None,,None,None,None,None,None,None,None,None,8.942708333333332,2.5779379999730736,734.6694182999199,None,734.6694182999199,None,734.6694182999199,None,734.6694182999199,None,None,None,737.2797780999681,None,,,,,,,,,253,m,21,2023_Mar_23_1002,RL,2021.2.3,59.95419500916961,
1,-0.3,-0.225,0,62,62,62,,,,,,,,,,,,,,,None,None,None,None,None,739.2373990999768,None,739.2373990999768,None,739.2373990999768,None,739.2373990999768,None,r,0.4483022999484092,739.2373990999768,None,739.2373990999768,None,739.7396567999385,None,739.7396567999385,None,739.7396567999385,None,739.7396567999385,None,739.7396567999385,None,739.7396567999385,None,740.0337992999703,741.9520252000075,740.0337992999703,741.9520252000075,741.985570400022,None,741.985570400022,None,741.985570400022,None,741.985570400022,None,741.985570400022,None,741.985570400022,None,741.985570400022,None,741.985570400022,None,741.985570400022,None,73,24,28,47,73,60,None,None,None,None,None,None,None,None,None,None,None,None,66,744.5124765000073,None,66,744.5124765000073,None,744.5124765000073,None,744.5124765000073,None,744.5124765000073,None,744.5124765000073,None,744.5124765000073,None,744.5124765000073,None,0.08723958333333333,-0.3072916666666667,1,0,0,4.270296400063671,tijiao,0.016628240002319217,None,744.5124765000073,None,0.6,0,None,None,None,None,None,None,None,None,None,None,None,None,,None,None,None,None,None,None,None,None,8.903645833333332,1.741934600053355,748.8265637999866,None,748.8265637999866,None,748.8265637999866,None,748.8265637999866,None,None,None,750.5905387999956,None,,,,,,,,,253,m,21,2023_Mar_23_1002,RL,2021.2.3,59.95419500916961,
0,0.3,0.225,0,63,63,63,,,,,,,,,,,,,,,None,None,None,None,None,752.5640354999341,None,752.5640354999341,None,752.5640354999341,None,752.5640354999341,None,r,0.5218094999436289,752.5640354999341,None,752.5640354999341,None,753.1343568000011,None,753.1343568000011,None,753.1343568000011,None,753.1343568000011,None,753.1343568000011,None,753.1343568000011,None,753.4258184999926,None,753.4258184999926,None,754.5258865000214,None,754.5258865000214,None,754.5258865000214,None,754.5258865000214,None,754.5258865000214,None,754.5258865000214,None,754.5258865000214,None,754.5258865000214,None,754.5258865000214,None,69,35,16,47,69,47,None,None,None,None,None,None,None,None,None,None,None,None,,None,None,,None,None,None,None,None,None,None,None,None,None,None,None,None,None,,,,,,,,None,None,None,None,-0.2,1,757.0763015999692,None,757.0763015999692,None,757.0763015999692,None,757.0763015999692,None,757.0763015999692,None,757.0763015999692,None,30,757.0763015999692,None,757.0763015999692,None,0.010516720009036362,None,757.0763015999692,None,10.010416666666668,1.9126265000086278,761.9724131999537,None,761.9724131999537,None,761.9724131999537,None,761.9724131999537,None,None,None,763.8997037999798,None,0.015625,-0.2916666666666667,1,0,0,4.8653167999582365,tijiao_random_2,,253,m,21,2023_Mar_23_1002,RL,2021.2.3,59.95419500916961,
1,-0.3,-0.225,0,64,64,64,,,,,,,,,,,,,,,None,None,None,None,None,765.7229536999948,None,765.7229536999948,None,765.7229536999948,None,765.7229536999948,None,r,0.3929943999974057,765.7229536999948,None,765.7229536999948,None,766.1578834999818,None,766.1578834999818,None,766.1578834999818,None,766.1578834999818,None,766.1578834999818,None,766.1578834999818,None,766.4522480999585,None,766.4522480999585,None,767.7844870999688,None,767.7844870999688,None,767.7844870999688,None,767.7844870999688,None,767.7844870999688,None,767.7844870999688,None,767.7844870999688,None,767.7844870999688,None,767.7844870999688,None,68,50,23,46,68,45,None,None,None,None,None,None,None,None,None,None,None,None,60,770.3223548999522,None,60,770.3223548999522,None,770.3223548999522,None,770.3223548999522,None,770.3223548999522,None,770.3223548999522,None,770.3223548999522,None,770.3223548999522,None,0.0234375,-0.28125,1,0,0,5.646110399975441,tijiao,0.008380539948120713,None,770.3223548999522,None,-0.6,0,None,None,None,None,None,None,None,None,None,None,None,None,,None,None,None,None,None,None,None,None,9.0078125,1.8512126000132412,776.0160903999349,None,776.0160903999349,None,776.0160903999349,None,776.0160903999349,None,None,None,777.8909626000095,None,,,,,,,,,253,m,21,2023_Mar_23_1002,RL,2021.2.3,59.95419500916961,
0,0.3,0.225,0,65,65,65,,,,,,,,,,,,,,,None,None,None,None,None,779.665582299931,None,779.665582299931,None,779.665582299931,None,779.665582299931,None,r,1.350413199979812,779.665582299931,None,779.665582299931,None,781.0686628000112,None,781.0686628000112,None,781.0686628000112,None,781.0686628000112,None,781.0686628000112,None,781.0686628000112,None,781.3624001999851,782.9635839000111,781.3624001999851,782.9635839000111,782.994095299975,None,782.994095299975,None,782.994095299975,None,782.994095299975,None,782.994095299975,None,782.994095299975,None,782.994095299975,None,782.994095299975,None,782.994095299975,None,64,44,29,42,64,54,None,None,None,None,None,None,None,None,None,None,None,None,60,785.523597399937,None,60,785.523597399937,None,785.523597399937,None,785.523597399937,None,785.523597399937,None,785.523597399937,None,785.523597399937,None,785.523597399937,None,0.033854166666666664,-0.2890625,1,0,0,4.371633299975656,tijiao,0.00036946008913218975,None,785.523597399937,None,0.2,0,None,None,None,None,None,None,None,None,None,None,None,None,,None,None,None,None,None,None,None,None,8.057291666666666,1.5204514000797644,789.9411881999113,None,789.9411881999113,None,789.9411881999113,None,789.9411881999113,None,None,None,791.5007900999626,None,,,,,,,,,253,m,21,2023_Mar_23_1002,RL,2021.2.3,59.95419500916961,
1,-0.3,-0.225,0,66,66,66,,,,,,,,,,,,,,,None,None,None,None,None,793.2416133999359,None,793.2416133999359,None,793.2416133999359,None,793.2416133999359,None,r,0.23449150007218122,793.2416133999359,None,793.2416133999359,None,793.5258822999895,None,793.5258822999895,None,793.5258822999895,None,793.5258822999895,None,793.5258822999895,None,793.5258822999895,None,793.8211220999947,795.338985899929,793.8211220999947,795.338985899929,795.3740487999748,None,795.3740487999748,None,795.3740487999748,None,795.3740487999748,None,795.3740487999748,None,795.3740487999748,None,795.3740487999748,None,795.3740487999748,None,795.3740487999748,None,63,46,19,50,63,57,None,None,None,None,None,None,None,None,None,None,None,None,,None,None,,None,None,None,None,None,None,None,None,None,None,None,None,None,None,,,,,,,,None,None,None,None,0.6,1,797.9141174999531,None,797.9141174999531,None,797.9141174999531,None,797.9141174999531,None,797.9141174999531,None,797.9141174999531,None,50,797.9141174999531,None,797.9141174999531,None,0.0012456401018425822,None,797.9141174999531,None,5.986979166666667,1.1336622000671923,802.0864741000114,None,802.0864741000114,None,802.0864741000114,None,802.0864741000114,None,None,None,803.2436443999177,None,0.1015625,-0.2994791666666667,1,0,0,4.138756499974988,tijiao_random_2,,253,m,21,2023_Mar_23_1002,RL,2021.2.3,59.95419500916961,
0,0.3,0.225,0,67,67,67,,,,,,,,,,,,,,,None,None,None,None,None,804.9833549999166,None,804.9833549999166,None,804.9833549999166,None,804.9833549999166,None,r,0.8740932000800967,804.9833549999166,None,804.9833549999166,None,805.90277159994,None,805.90277159994,None,805.90277159994,None,805.90277159994,None,805.90277159994,None,805.90277159994,None,806.196294699912,None,806.196294699912,None,807.7786029999843,None,807.7786029999843,None,807.7786029999843,None,807.7786029999843,None,807.7786029999843,None,807.7786029999843,None,807.7786029999843,None,807.7786029999843,None,807.7786029999843,None,65,49,22,40,65,56,None,None,None,None,None,None,None,None,None,None,None,None,,None,None,,None,None,None,None,None,None,None,None,None,None,None,None,None,None,,,,,,,,None,None,None,None,-0.2,1,810.329243300017,None,810.329243300017,None,810.329243300017,None,810.329243300017,None,810.329243300017,None,810.329243300017,None,30,810.329243300017,None,810.329243300017,None,0.011018019984476268,None,810.329243300017,None,6.026041666666666,1.1806269999360666,815.2259218000108,None,815.2259218000108,None,815.2259218000108,None,815.2259218000108,None,None,None,816.4370296999114,None,-0.00390625,-0.296875,1,0,0,4.865108900004998,tijiao_random_2,,253,m,21,2023_Mar_23_1002,RL,2021.2.3,59.95419500916961,
1,-0.3,-0.225,0,68,68,68,,,,,,,,,,,,,,,None,None,None,None,None,818.0758783000056,None,818.0758783000056,None,818.0758783000056,None,818.0758783000056,None,r,0.33133710001129657,818.0758783000056,None,818.0758783000056,None,818.4612881999929,None,818.4612881999929,None,818.4612881999929,None,818.4612881999929,None,818.4612881999929,None,818.4612881999929,None,818.7549083000049,None,818.7549083000049,None,820.7537703999551,None,820.7537703999551,None,820.7537703999551,None,820.7537703999551,None,820.7537703999551,None,820.7537703999551,None,820.7537703999551,None,820.7537703999551,None,820.7537703999551,None,69,48,28,38,69,54,823.2801346000051,None,5.0,1.4170570999849588,823.2801346000051,None,823.2801346000051,None,823.2801346000051,None,823.2801346000051,None,,None,None,,None,None,None,None,None,None,None,None,None,None,None,None,None,None,,,,,,,,None,None,None,None,-0.6,3,None,None,None,None,None,None,None,None,None,None,None,None,,None,None,None,None,None,None,None,None,None,None,None,None,None,None,None,None,None,None,None,None,824.7640714999288,None,,,,,,,,,253,m,21,2023_Mar_23_1002,RL,2021.2.3,59.95419500916961,
0,0.3,0.225,0,69,69,69,,,,,,,,,,,,,,,None,None,None,None,None,826.6648130000103,None,826.6648130000103,None,826.6648130000103,None,826.6648130000103,None,r,0.5927600999129936,826.6648130000103,None,826.6648130000103,None,827.3008902999572,None,827.3008902999572,None,827.3008902999572,None,827.3008902999572,None,827.3008902999572,None,827.3008902999572,None,827.5946017999668,None,827.5946017999668,None,828.5931532999966,None,828.5931532999966,None,828.5931532999966,None,828.5931532999966,None,828.5931532999966,None,828.5931532999966,None,828.5931532999966,None,828.5931532999966,None,828.5931532999966,None,73,54,30,42,73,56,831.112042899942,None,5.0,1.7893770999507979,831.112042899942,None,831.112042899942,None,831.112042899942,None,831.112042899942,None,,None,None,,None,None,None,None,None,None,None,None,None,None,None,None,None,None,,,,,,,,None,None,None,None,-0.6,2,None,None,None,None,None,None,None,None,None,None,None,None,,None,None,None,None,None,None,None,None,None,None,None,None,None,None,None,None,None,None,None,None,832.963492800016,None,,,,,,,,,253,m,21,2023_Mar_23_1002,RL,2021.2.3,59.95419500916961,
1,-0.3,-0.225,0,70,70,70,,,,,,,,,,,,,,,None,None,None,None,None,834.487230299972,None,834.487230299972,None,834.487230299972,None,834.487230299972,None,r,0.3102970999898389,834.487230299972,None,834.487230299972,None,834.8378539999248,None,834.8378539999248,None,834.8378539999248,None,834.8378539999248,None,834.8378539999248,None,834.8378539999248,None,835.1330585000105,None,835.1330585000105,None,836.2795124999247,None,836.2795124999247,None,836.2795124999247,None,836.2795124999247,None,836.2795124999247,None,836.2795124999247,None,836.2795124999247,None,836.2795124999247,None,836.2795124999247,None,79,57,31,44,79,50,None,None,None,None,None,None,None,None,None,None,None,None,,None,None,,None,None,None,None,None,None,None,None,None,None,None,None,None,None,,,,,,,,None,None,None,None,0.6,1,838.8383726999164,None,838.8383726999164,None,838.8383726999164,None,838.8383726999164,None,838.8383726999164,None,838.8383726999164,None,60,838.8383726999164,None,838.8383726999164,None,0.005159619962796569,None,838.8383726999164,None,9.138020833333332,1.399454899947159,844.2301779999398,None,844.2301779999398,None,844.2301779999398,None,844.2301779999398,None,None,None,845.6564829999115,None,0.028645833333333332,-0.2955729166666667,1,0,0,5.359468000009656,tijiao_random_2,,253,m,21,2023_Mar_23_1002,RL,2021.2.3,59.95419500916961,
0,0.3,0.225,0,71,71,71,,,,,,,,,,,,,,,None,None,None,None,None,847.4803203999763,None,847.4803203999763,None,847.4803203999763,None,847.4803203999763,None,r,0.34708969993516803,847.4803203999763,None,847.4803203999763,None,847.8805662000086,None,847.8805662000086,None,847.8805662000086,None,847.8805662000086,None,847.8805662000086,None,847.8805662000086,None,848.1758415999357,849.6763558000093,848.1758415999357,849.6763558000093,849.7094902999233,None,849.7094902999233,None,849.7094902999233,None,849.7094902999233,None,849.7094902999233,None,849.7094902999233,None,849.7094902999233,None,849.7094902999233,None,849.7094902999233,None,71,46,27,38,71,46,None,None,None,None,None,None,None,None,None,None,None,None,65,852.2342695000116,None,65,852.2342695000116,None,852.2342695000116,None,852.2342695000116,None,852.2342695000116,None,852.2342695000116,None,852.2342695000116,None,852.2342695000116,None,0.013020833333333334,-0.28125,1,0,0,4.022427200106904,tijiao,0.002727459999732673,None,852.2342695000116,None,-0.6,0,None,None,None,None,None,None,None,None,None,None,None,None,,None,None,None,None,None,None,None,None,9.9453125,1.2529697000281885,856.301848199917,None,856.301848199917,None,856.301848199917,None,856.301848199917,None,None,None,857.5798289999366,None,,,,,,,,,253,m,21,2023_Mar_23_1002,RL,2021.2.3,59.95419500916961,
1,-0.3,-0.225,0,72,72,72,,,,,,,,,,,,,,,None,None,None,None,None,859.3045693999156,None,859.3045693999156,None,859.3045693999156,None,859.3045693999156,None,r,0.40312690008431673,859.3045693999156,None,859.3045693999156,None,859.7560240000021,None,859.7560240000021,None,859.7560240000021,None,859.7560240000021,None,859.7560240000021,None,859.7560240000021,None,860.0503507999238,860.984686599928,860.0503507999238,860.984686599928,861.0177168999799,None,861.0177168999799,None,861.0177168999799,None,861.0177168999799,None,861.0177168999799,None,861.0177168999799,None,861.0177168999799,None,861.0177168999799,None,861.0177168999799,None,76,49,23,33,76,35,863.5321480999701,None,7.0,1.32268149999436,863.5321480999701,None,863.5321480999701,None,863.5321480999701,None,863.5321480999701,None,,None,None,,None,None,None,None,None,None,None,None,None,None,None,None,None,None,,,,,,,,None,None,None,None,0.6,2,None,None,None,None,None,None,None,None,None,None,None,None,,None,None,None,None,None,None,None,None,None,None,None,None,None,None,None,None,None,None,None,None,864.9182191999862,None,,,,,,,,,253,m,21,2023_Mar_23_1002,RL,2021.2.3,59.95419500916961,
0,0.3,0.225,0,73,73,73,,,,,,,,,,,,,,,None,None,None,None,None,866.4592764999252,None,866.4592764999252,None,866.4592764999252,None,866.4592764999252,None,r,0.7887824999634176,866.4592764999252,None,866.4592764999252,None,867.29400419991,None,867.29400419991,None,867.29400419991,None,867.29400419991,None,867.29400419991,None,867.29400419991,None,867.5890325999353,None,867.5890325999353,None,869.3266254999908,None,869.3266254999908,None,869.3266254999908,None,869.3266254999908,None,869.3266254999908,None,869.3266254999908,None,869.3266254999908,None,869.3266254999908,None,869.3266254999908,None,70,56,29,34,70,38,None,None,None,None,None,None,None,None,None,None,None,None,,None,None,,None,None,None,None,None,None,None,None,None,None,None,None,None,None,,,,,,,,None,None,None,None,-0.6,1,871.8853312999709,None,871.8853312999709,None,871.8853312999709,None,871.8853312999709,None,871.8853312999709,None,871.8853312999709,None,70,871.8853312999709,None,871.8853312999709,None,0.013890219968743622,None,871.8853312999709,None,9.854166666666668,1.9799686999758705,876.8198749999283,None,876.8198749999283,None,876.8198749999283,None,876.8198749999283,None,None,None,878.8279952999437,None,0.09635416666666667,-0.2552083333333333,1,0,0,4.902154200011864,tijiao_random_2,,253,m,21,2023_Mar_23_1002,RL,2021.2.3,59.95419500916961,
1,-0.3,-0.225,0,74,74,74,,,,,,,,,,,,,,,None,None,None,None,None,880.4355159999104,None,880.4355159999104,None,880.4355159999104,None,880.4355159999104,None,r,0.33231930003967136,880.4355159999104,None,880.4355159999104,None,880.8187090000138,None,880.8187090000138,None,880.8187090000138,None,880.8187090000138,None,880.8187090000138,None,880.8187090000138,None,881.1152151999995,None,881.1152151999995,None,882.6302572999848,None,882.6302572999848,None,882.6302572999848,None,882.6302572999848,None,882.6302572999848,None,882.6302572999848,None,882.6302572999848,None,882.6302572999848,None,882.6302572999848,None,68,52,39,32,68,52,None,None,None,None,None,None,None,None,None,None,None,None,,None,None,,None,None,None,None,None,None,None,None,None,None,None,None,None,None,,,,,,,,None,None,None,None,0.2,1,885.1737887000199,None,885.1737887000199,None,885.1737887000199,None,885.1737887000199,None,885.1737887000199,None,885.1737887000199,None,40,885.1737887000199,None,885.1737887000199,None,0.002330939983949065,None,885.1737887000199,None,9.059895833333332,1.636375300004147,888.7614576999331,None,888.7614576999331,None,888.7614576999331,None,888.7614576999331,None,None,None,890.419358599931,None,-0.01171875,-0.2747395833333333,1,0,0,3.5556106000440195,tijiao_random_2,,253,m,21,2023_Mar_23_1002,RL,2021.2.3,59.95419500916961,
0,0.3,0.225,0,75,75,75,,,,,,,,,,,,,,,892.0891660000198,None,q,892.0891660000198,None,988.473109100014,None,988.473109100014,None,988.473109100014,None,988.473109100014,None,r,0.755348699982278,988.473109100014,None,988.473109100014,None,989.2787593000103,None,989.2787593000103,None,989.2787593000103,None,989.2787593000103,None,989.2787593000103,None,989.2787593000103,None,989.5736493999138,None,989.5736493999138,None,991.0224872999825,None,991.0224872999825,None,991.0224872999825,None,991.0224872999825,None,991.0224872999825,None,991.0224872999825,None,991.0224872999825,None,991.0224872999825,None,991.0224872999825,None,75,52,45,32,75,49,993.5447322999826,None,5.0,1.137462200014852,993.5447322999826,None,993.5447322999826,None,993.5447322999826,None,993.5447322999826,None,,None,None,,None,None,None,None,None,None,None,None,None,None,None,None,None,None,,,,,,,,None,None,None,None,0.2,3,None,None,None,None,None,None,None,None,None,None,None,None,,None,None,None,None,None,None,None,None,None,None,None,None,None,None,None,None,None,None,None,None,994.7460600999184,None,,,,,,,,96.35249219997786,253,m,21,2023_Mar_23_1002,RL,2021.2.3,59.95419500916961,
1,-0.3,-0.225,0,76,76,76,,,,,,,,,,,,,,,None,None,None,None,None,996.6994745999109,None,996.6994745999109,None,996.6994745999109,None,996.6994745999109,None,r,0.6292355998884887,996.6994745999109,None,996.6994745999109,None,997.3672365000239,None,997.3672365000239,None,997.3672365000239,None,997.3672365000239,None,997.3672365000239,None,997.3672365000239,None,997.6627405999461,None,997.6627405999461,None,998.7596753999824,None,998.7596753999824,None,998.7596753999824,None,998.7596753999824,None,998.7596753999824,None,998.7596753999824,None,998.7596753999824,None,998.7596753999824,None,998.7596753999824,None,74,45,47,28,74,39,1001.2786426999373,None,5.0,1.2224458999698982,1001.2786426999373,None,1001.2786426999373,None,1001.2786426999373,None,1001.2786426999373,None,,None,None,,None,None,None,None,None,None,None,None,None,None,None,None,None,None,,,,,,,,None,None,None,None,0.2,3,None,None,None,None,None,None,None,None,None,None,None,None,,None,None,None,None,None,None,None,None,None,None,None,None,None,None,None,None,None,None,None,None,1002.5664183999179,None,,,,,,,,,253,m,21,2023_Mar_23_1002,RL,2021.2.3,59.95419500916961,
