bandit0,black_x_pos_random,black_y_pos_random,trials.thisRepN,trials.thisTrialN,trials.thisN,trials.thisIndex,instru_img1.started,instru_resp.started,instru_resp.keys,instru_resp.rt,instru_img2.started,instru_resp2.started,instru_resp2.keys,instru_resp2.rt,fixbefore_2.started,rest_response.keys,red.started,green.started,yellow.started,blue.started,choose_bandit.started,Fixation.started,choose_bandit.keys,choose_bandit.rt,black.started,red_2.started,green_2.started,yellow_2.started,blue_2.started,fixation_2.started,docs.started,wait_playerB.started,docs.stopped,wait_playerB.stopped,black.stopped,red_2.stopped,green_2.stopped,yellow_2.stopped,blue_2.stopped,fixation_2.stopped,black_com.started,reward_sub.started,palyerb.started,reward__sub.started,compare.started,red_compare.started,green_com.started,yellow_com.started,blue_com.started,image_3.started,slider.started,text.started,image_4.started,image_5.started,rewardyellow,rewardred,rewardblue,rewardgreen,subchoose,playerb,slider.response,slider.rt,expectself.text,value_expect_self,tijiao_click.x,tijiao_click.y,tijiao_click.leftButton,tijiao_click.midButton,tijiao_click.rightButton,tijiao_click.time,tijiao_click.clicked_name,random_whicharm,whether_ask,expect_random_3.text,tijiao_random.x,tijiao_random.y,tijiao_random.leftButton,tijiao_random.midButton,tijiao_random.rightButton,tijiao_random.time,tijiao_random.clicked_name,slider_2.response,slider_2.rt,intertrialfix.started,intertrialfix.stopped,jiantou_random.started,expect_red.started,expect_green.started,expect_yellow.started,expect_blue.started,expect_random_2.started,expect_random_3.started,tijiao_random_2.started,tijiao_random.started,check_2.started,slider_2.started,image_7.started,confi.started,notconfi.started,expectself.started,expect_self_black.started,expect_self.started,expect_self_red.started,expect_self_green.started,expect_self_yellow.started,expect_self_blue.started,tijiao.started,tijiao_click.started,check.started,rest_image.started,rest_response.started,rest_response.rt,participant,Gender,Age,date,expName,psychopyVersion,frameRate,
,,,,,,,40.93259290000424,40.93259290000424,space,2.247995499987155,,,,,,,,,,,,,,,,,,,,,,,,,,,,,,,,,,,,,,,,,,,,,,,,,,,,,,,,,,,,,,,,,,,,,,,,,,,,,,,,,,,,,,,,,,,,,,,,,,,,,,,254,f,23,2023-03-23_10h02.02.229,RL,2022.2.4,60.1956358204529,
,,,,,,,,,,,43.21165280000423,43.21165280000423,s,46.58871449998696,,,,,,,,,,,,,,,,,,,,,,,,,,,,,,,,,,,,,,,,,,,,,,,,,,,,,,,,,,,,,,,,,,,,,,,,,,,,,,,,,,,,,,,,,,,,,,,,,,,254,f,23,2023-03-23_10h02.02.229,RL,2022.2.4,60.1956358204529,
1,-0.3,-0.225,0,0,0,0,,,,,,,,,89.82136520001222,None,90.85602720000315,90.85602720000315,90.85602720000315,90.85602720000315,90.85602720000315,90.85602720000315,f,0.7779459999874234,91.68672520000837,91.68672520000837,91.68672520000837,91.68672520000837,91.68672520000837,91.68672520000837,91.96593100001337,91.96593100001337,93.46147619999829,93.46147619999829,93.4831938999996,93.4831938999996,93.4831938999996,93.4831938999996,93.4831938999996,93.4831938999996,93.4831938999996,93.4831938999996,93.4831938999996,93.4831938999996,93.4831938999996,93.4831938999996,93.4831938999996,93.4831938999996,93.4831938999996,95.98749310002313,95.98749310002313,95.98749310002313,95.98749310002313,95.98749310002313,46,53,57,34,53,56,5.0,2.425917100015795,,,[],[],[],[],[],[],[],-0.2,3,,[],[],[],[],[],[],[],None,None,98.62635930001852,100.55856070001028,,,,,,,,,,,,,,,,,,,,,,,,,,,,254,f,23,2023-03-23_10h02.02.229,RL,2022.2.4,60.1956358204529,
0,0.3,0.225,0,1,1,1,,,,,,,,,,None,100.55856070001028,100.55856070001028,100.55856070001028,100.55856070001028,100.55856070001028,100.55856070001028,j,0.7358019000093918,101.33093850000296,101.33093850000296,101.33093850000296,101.33093850000296,101.33093850000296,101.33093850000296,101.62278080001124,101.62278080001124,103.23453810001956,103.23453810001956,103.23453810001956,103.23453810001956,103.23453810001956,103.23453810001956,103.23453810001956,103.23453810001956,103.23453810001956,103.23453810001956,103.23453810001956,103.23453810001956,103.23453810001956,103.23453810001956,103.23453810001956,103.23453810001956,103.23453810001956,,,,,,30,65,64,41,41,28,None,None,,,[],[],[],[],[],[],[],-0.2,1,56,[-0.001851851851851852],[-0.2759259259259259],[1],[0],[0],[4.009119399997871],['tijiao_random_2'],5.0,2.121739299996989,111.92680590000236,113.73921250001877,105.76848009999958,105.76848009999958,105.76848009999958,105.76848009999958,105.76848009999958,105.76848009999958,105.76848009999958,105.76848009999958,0.006022999994456768,105.76848009999958,109.79206470001373,109.79206470001373,109.79206470001373,109.79206470001373,,,,,,,,,,,,,,254,f,23,2023-03-23_10h02.02.229,RL,2022.2.4,60.1956358204529,
1,-0.3,-0.225,0,2,2,2,,,,,,,,,,None,113.73921250001877,113.73921250001877,113.73921250001877,113.73921250001877,113.73921250001877,113.73921250001877,f,1.0122952999954578,114.77002970001195,114.77002970001195,114.77002970001195,114.77002970001195,114.77002970001195,114.77002970001195,115.06925520001096,115.06925520001096,116.76452470000368,116.76452470000368,116.76452470000368,116.76452470000368,116.76452470000368,116.76452470000368,116.76452470000368,116.76452470000368,116.76452470000368,116.76452470000368,116.76452470000368,116.76452470000368,116.76452470000368,116.76452470000368,116.76452470000368,116.76452470000368,116.76452470000368,,,,,,34,70,69,30,70,62,None,None,,,[],[],[],[],[],[],[],-0.2,1,76,[0.000925925925925926],[-0.3111111111111111],[1],[0],[0],[5.567466699983925],['tijiao_random_2'],4.953703703703704,3.267441699979827,128.1487909000134,129.87832950000302,119.28261690001818,119.28261690001818,119.28261690001818,119.28261690001818,119.28261690001818,119.28261690001818,119.28261690001818,119.28261690001818,0.00617669997154735,119.28261690001818,124.86503450002056,124.86503450002056,124.86503450002056,124.86503450002056,,,,,,,,,,,,,,254,f,23,2023-03-23_10h02.02.229,RL,2022.2.4,60.1956358204529,
0,0.3,0.225,0,3,3,3,,,,,,,,,,None,129.87832950000302,129.87832950000302,129.87832950000302,129.87832950000302,129.87832950000302,129.87832950000302,f,0.43981159999384545,130.34654030000092,130.34654030000092,130.34654030000092,130.34654030000092,130.34654030000092,130.34654030000092,130.6432265000185,130.6432265000185,132.27791210002033,132.27791210002033,132.27791210002033,132.27791210002033,132.27791210002033,132.27791210002033,132.27791210002033,132.27791210002033,132.27791210002033,132.27791210002033,132.27791210002033,132.27791210002033,132.27791210002033,132.27791210002033,132.27791210002033,132.27791210002033,132.27791210002033,,,,,,44,70,61,37,70,49,None,None,,,[],[],[],[],[],[],[],0.6,1,70,[0.004629629629629629],[-0.27685185185185185],[1],[0],[0],[5.302048099983949],['tijiao_random_2'],6.083333333333333,2.6530023000086658,142.77607180000632,144.322624500026,134.78925050000544,134.78925050000544,134.78925050000544,134.78925050000544,134.78925050000544,134.78925050000544,134.78925050000544,134.78925050000544,0.005793000018456951,134.78925050000544,140.10422440001275,140.10422440001275,140.10422440001275,140.10422440001275,,,,,,,,,,,,,,254,f,23,2023-03-23_10h02.02.229,RL,2022.2.4,60.1956358204529,
1,-0.3,-0.225,0,4,4,4,,,,,,,,,,None,144.322624500026,144.322624500026,144.322624500026,144.322624500026,144.322624500026,144.322624500026,r,0.7959301000228152,145.14348690002225,145.14348690002225,145.14348690002225,145.14348690002225,145.14348690002225,145.14348690002225,145.43637210002635,145.43637210002635,147.03216760000214,147.03216760000214,147.03216760000214,147.03216760000214,147.03216760000214,147.03216760000214,147.03216760000214,147.03216760000214,147.03216760000214,147.03216760000214,147.03216760000214,147.03216760000214,147.03216760000214,147.03216760000214,147.03216760000214,147.03216760000214,147.03216760000214,,,,,,42,67,68,40,42,52,None,None,77,77,[0.03888888888888889],[-0.28703703703703703],[1],[0],[0],[6.639572200016119],['tijiao'],0.2,0,,[],[],[],[],[],[],[],4.083333333333334,3.210470699996222,159.430199800001,161.17632680002134,,,,,,,,,,,156.20154400001047,156.20154400001047,156.20154400001047,156.20154400001047,149.54808230002527,149.54808230002527,149.54808230002527,149.54808230002527,149.54808230002527,149.54808230002527,149.54808230002527,149.54808230002527,0.005528200010303408,149.54808230002527,,,,254,f,23,2023-03-23_10h02.02.229,RL,2022.2.4,60.1956358204529,
0,0.3,0.225,0,5,5,5,,,,,,,,,,None,161.17632680002134,161.17632680002134,161.17632680002134,161.17632680002134,161.17632680002134,161.17632680002134,i,0.8809190000174567,162.07914660000824,162.07914660000824,162.07914660000824,162.07914660000824,162.07914660000824,162.07914660000824,162.37363560000085,162.37363560000085,163.4036234000232,163.4036234000232,163.42075770001975,163.42075770001975,163.42075770001975,163.42075770001975,163.42075770001975,163.42075770001975,163.42075770001975,163.42075770001975,163.42075770001975,163.42075770001975,163.42075770001975,163.42075770001975,163.42075770001975,163.42075770001975,163.42075770001975,165.929589700012,165.929589700012,165.929589700012,165.929589700012,165.929589700012,43,69,63,38,63,32,7.0,2.2427280000119936,,,[],[],[],[],[],[],[],0.2,2,,[],[],[],[],[],[],[],None,None,168.19629910000367,169.7365359000105,,,,,,,,,,,,,,,,,,,,,,,,,,,,254,f,23,2023-03-23_10h02.02.229,RL,2022.2.4,60.1956358204529,
1,-0.3,-0.225,0,6,6,6,,,,,,,,,,None,169.7365359000105,169.7365359000105,169.7365359000105,169.7365359000105,169.7365359000105,169.7365359000105,r,0.997320900001796,170.76839150002343,170.76839150002343,170.76839150002343,170.76839150002343,170.76839150002343,170.76839150002343,171.06649000002653,171.06649000002653,172.59504460002063,172.59504460002063,172.59504460002063,172.59504460002063,172.59504460002063,172.59504460002063,172.59504460002063,172.59504460002063,172.59504460002063,172.59504460002063,172.59504460002063,172.59504460002063,172.59504460002063,172.59504460002063,172.59504460002063,172.59504460002063,172.59504460002063,,,,,,44,66,68,29,44,53,None,None,22,22,[0.10833333333333334],[-0.2675925925925926],[1],[0],[0],[5.310369500017259],['tijiao'],-0.6,0,,[],[],[],[],[],[],[],3.166666666666667,2.47708209999837,182.93280520002008,184.54619360002107,,,,,,,,,,,180.43671820001327,180.43671820001327,180.43671820001327,180.43671820001327,175.10571770000388,175.10571770000388,175.10571770000388,175.10571770000388,175.10571770000388,175.10571770000388,175.10571770000388,175.10571770000388,0.005258399993181229,175.10571770000388,,,,254,f,23,2023-03-23_10h02.02.229,RL,2022.2.4,60.1956358204529,
0,0.3,0.225,0,7,7,7,,,,,,,,,,None,184.54619360002107,184.54619360002107,184.54619360002107,184.54619360002107,184.54619360002107,184.54619360002107,f,0.7636378000024706,185.32938740000827,185.32938740000827,185.32938740000827,185.32938740000827,185.32938740000827,185.32938740000827,185.62676800001645,185.62676800001645,187.3052901000192,187.3052901000192,187.32182120002108,187.32182120002108,187.32182120002108,187.32182120002108,187.32182120002108,187.32182120002108,187.32182120002108,187.32182120002108,187.32182120002108,187.32182120002108,187.32182120002108,187.32182120002108,187.32182120002108,187.32182120002108,187.32182120002108,189.83077690002392,189.83077690002392,189.83077690002392,189.83077690002392,189.83077690002392,40,64,70,28,64,62,5.0,2.6087715000030585,,,[],[],[],[],[],[],[],0.2,2,,[],[],[],[],[],[],[],None,None,192.4658608000027,194.11984740002663,,,,,,,,,,,,,,,,,,,,,,,,,,,,254,f,23,2023-03-23_10h02.02.229,RL,2022.2.4,60.1956358204529,
1,-0.3,-0.225,0,8,8,8,,,,,,,,,,None,194.11984740002663,194.11984740002663,194.11984740002663,194.11984740002663,194.11984740002663,194.11984740002663,i,0.6311951999960002,194.76862550000078,194.76862550000078,194.76862550000078,194.76862550000078,194.76862550000078,194.76862550000078,195.0677555000002,195.0677555000002,196.69651500001783,196.69651500001783,196.69651500001783,196.69651500001783,196.69651500001783,196.69651500001783,196.69651500001783,196.69651500001783,196.69651500001783,196.69651500001783,196.69651500001783,196.69651500001783,196.69651500001783,196.69651500001783,196.69651500001783,196.69651500001783,196.69651500001783,199.20553340000333,199.20553340000333,199.20553340000333,199.20553340000333,199.20553340000333,50,58,54,25,54,54,4.0,2.7081965999968816,,,[],[],[],[],[],[],[],-0.2,2,,[],[],[],[],[],[],[],None,None,201.93911480001407,203.66050130000804,,,,,,,,,,,,,,,,,,,,,,,,,,,,254,f,23,2023-03-23_10h02.02.229,RL,2022.2.4,60.1956358204529,
0,0.3,0.225,0,9,9,9,,,,,,,,,,None,203.66050130000804,203.66050130000804,203.66050130000804,203.66050130000804,203.66050130000804,203.66050130000804,r,1.1163330000126734,204.80766070002574,204.80766070002574,204.80766070002574,204.80766070002574,204.80766070002574,204.80766070002574,205.10686930001248,205.10686930001248,206.00455160002457,206.00455160002457,206.00455160002457,206.00455160002457,206.00455160002457,206.00455160002457,206.00455160002457,206.00455160002457,206.00455160002457,206.00455160002457,206.00455160002457,206.00455160002457,206.00455160002457,206.00455160002457,206.00455160002457,206.00455160002457,206.00455160002457,,,,,,36,55,59,22,36,48,None,None,58,58,[-0.013888888888888888],[-0.2953703703703704],[1],[0],[0],[5.723844199994346],['tijiao'],-0.2,0,,[],[],[],[],[],[],[],3.148148148148148,2.044664899993222,216.32523200000287,217.95483760000207,,,,,,,,,,,214.26150860000052,214.26150860000052,214.26150860000052,214.26150860000052,208.51593350002076,208.51593350002076,208.51593350002076,208.51593350002076,208.51593350002076,208.51593350002076,208.51593350002076,208.51593350002076,0.006573600025149062,208.51593350002076,,,,254,f,23,2023-03-23_10h02.02.229,RL,2022.2.4,60.1956358204529,
1,-0.3,-0.225,0,10,10,10,,,,,,,,,,None,217.95483760000207,217.95483760000207,217.95483760000207,217.95483760000207,217.95483760000207,217.95483760000207,i,0.6893666000105441,218.67051470000297,218.67051470000297,218.67051470000297,218.67051470000297,218.67051470000297,218.67051470000297,218.96902750001755,218.96902750001755,220.84696770002483,220.84696770002483,220.84696770002483,220.84696770002483,220.84696770002483,220.84696770002483,220.84696770002483,220.84696770002483,220.84696770002483,220.84696770002483,220.84696770002483,220.84696770002483,220.84696770002483,220.84696770002483,220.84696770002483,220.84696770002483,220.84696770002483,223.3561078000057,223.3561078000057,223.3561078000057,223.3561078000057,223.3561078000057,46,60,53,28,53,38,5.0,1.9768599000235554,,,[],[],[],[],[],[],[],-0.2,2,,[],[],[],[],[],[],[],None,None,225.35803600001964,227.3624818000244,,,,,,,,,,,,,,,,,,,,,,,,,,,,254,f,23,2023-03-23_10h02.02.229,RL,2022.2.4,60.1956358204529,
0,0.3,0.225,0,11,11,11,,,,,,,,,,None,227.3624818000244,227.3624818000244,227.3624818000244,227.3624818000244,227.3624818000244,227.3624818000244,f,0.6177708999894094,228.01098330001696,228.01098330001696,228.01098330001696,228.01098330001696,228.01098330001696,228.01098330001696,228.31032650000998,228.31032650000998,229.42360270000063,229.42360270000063,229.42360270000063,229.42360270000063,229.42360270000063,229.42360270000063,229.42360270000063,229.42360270000063,229.42360270000063,229.42360270000063,229.42360270000063,229.42360270000063,229.42360270000063,229.42360270000063,229.42360270000063,229.42360270000063,229.42360270000063,231.93297120000352,231.93297120000352,231.93297120000352,231.93297120000352,231.93297120000352,31,60,67,18,60,45,6.0,2.1104870999988634,,,[],[],[],[],[],[],[],0.6,2,,[],[],[],[],[],[],[],None,None,234.06695670000045,236.02216550000594,,,,,,,,,,,,,,,,,,,,,,,,,,,,254,f,23,2023-03-23_10h02.02.229,RL,2022.2.4,60.1956358204529,
1,-0.3,-0.225,0,12,12,12,,,,,,,,,,None,236.02216550000594,236.02216550000594,236.02216550000594,236.02216550000594,236.02216550000594,236.02216550000594,i,0.7299517000210471,236.7704660000163,236.7704660000163,236.7704660000163,236.7704660000163,236.7704660000163,236.7704660000163,237.0698173000128,237.0698173000128,239.06430970001384,239.06430970001384,239.06430970001384,239.06430970001384,239.06430970001384,239.06430970001384,239.06430970001384,239.06430970001384,239.06430970001384,239.06430970001384,239.06430970001384,239.06430970001384,239.06430970001384,239.06430970001384,239.06430970001384,239.06430970001384,239.06430970001384,,,,,,38,63,59,12,59,37,None,None,,,[],[],[],[],[],[],[],-0.6,1,67,[-0.012037037037037037],[-0.30277777777777776],[1],[0],[0],[4.869524600013392],['tijiao_random_2'],2.8981481481481484,1.837653099995805,248.32112790000974,250.21656010000152,241.58255810002447,241.58255810002447,241.58255810002447,241.58255810002447,241.58255810002447,241.58255810002447,241.58255810002447,241.58255810002447,0.005926699988776818,241.58255810002447,246.46488740001223,246.46488740001223,246.46488740001223,246.46488740001223,,,,,,,,,,,,,,254,f,23,2023-03-23_10h02.02.229,RL,2022.2.4,60.1956358204529,
0,0.3,0.225,0,13,13,13,,,,,,,,,,None,250.21656010000152,250.21656010000152,250.21656010000152,250.21656010000152,250.21656010000152,250.21656010000152,i,0.5472949999966659,250.7846564000065,250.7846564000065,250.7846564000065,250.7846564000065,250.7846564000065,250.7846564000065,251.08164330001455,251.08164330001455,252.8097984000051,252.8097984000051,252.8265318000049,252.8265318000049,252.8265318000049,252.8265318000049,252.8265318000049,252.8265318000049,252.8265318000049,252.8265318000049,252.8265318000049,252.8265318000049,252.8265318000049,252.8265318000049,252.8265318000049,252.8265318000049,252.8265318000049,,,,,,35,65,51,24,51,54,None,None,,,[],[],[],[],[],[],[],-0.6,1,56,[-0.03888888888888889],[-0.27314814814814814],[1],[0],[0],[4.236438399995677],['tijiao_random_2'],2.0462962962962963,2.836159400001634,262.4493103999994,264.42820260001463,255.34544350000215,255.34544350000215,255.34544350000215,255.34544350000215,255.34544350000215,255.34544350000215,255.34544350000215,255.34544350000215,0.005628800019621849,255.34544350000215,259.5948116000218,259.5948116000218,259.5948116000218,259.5948116000218,,,,,,,,,,,,,,254,f,23,2023-03-23_10h02.02.229,RL,2022.2.4,60.1956358204529,
1,-0.3,-0.225,0,14,14,14,,,,,,,,,,None,264.42820260001463,264.42820260001463,264.42820260001463,264.42820260001463,264.42820260001463,264.42820260001463,j,0.42375330001232214,264.87707740001497,264.87707740001497,264.87707740001497,264.87707740001497,264.87707740001497,264.87707740001497,265.17643620001036,265.17643620001036,266.1569623000105,266.1569623000105,266.1569623000105,266.1569623000105,266.1569623000105,266.1569623000105,266.1569623000105,266.1569623000105,266.1569623000105,266.1569623000105,266.1569623000105,266.1569623000105,266.1569623000105,266.1569623000105,266.1569623000105,266.1569623000105,266.1569623000105,,,,,,35,57,52,25,25,47,None,None,21,21,[0.06851851851851852],[-0.2759259259259259],[1],[0],[0],[7.4193807000119705],['tijiao'],0.6,0,,[],[],[],[],[],[],[],5.888888888888888,2.82715910000843,278.95412870001746,280.5343467000057,,,,,,,,,,,276.10820780001814,276.10820780001814,276.10820780001814,276.10820780001814,268.66827370002284,268.66827370002284,268.66827370002284,268.66827370002284,268.66827370002284,268.66827370002284,268.66827370002284,268.66827370002284,0.007114400010323152,268.66827370002284,,,,254,f,23,2023-03-23_10h02.02.229,RL,2022.2.4,60.1956358204529,
0,0.3,0.225,0,15,15,15,,,,,,,,,,None,280.5343467000057,280.5343467000057,280.5343467000057,280.5343467000057,280.5343467000057,280.5343467000057,f,0.897769299976062,281.4654903000046,281.4654903000046,281.4654903000046,281.4654903000046,281.4654903000046,281.4654903000046,281.7640507000033,281.7640507000033,283.4430005000031,283.4430005000031,283.4430005000031,283.4430005000031,283.4430005000031,283.4430005000031,283.4430005000031,283.4430005000031,283.4430005000031,283.4430005000031,283.4430005000031,283.4430005000031,283.4430005000031,283.4430005000031,283.4430005000031,283.4430005000031,283.4430005000031,285.9519043000182,285.9519043000182,285.9519043000182,285.9519043000182,285.9519043000182,36,58,48,17,58,43,5.0,1.9268424999900162,,,[],[],[],[],[],[],[],-0.6,2,,[],[],[],[],[],[],[],None,None,287.9031952000223,289.75889980001375,,,,,,,,,,,,,,,,,,,,,,,,,,,,254,f,23,2023-03-23_10h02.02.229,RL,2022.2.4,60.1956358204529,
1,-0.3,-0.225,0,16,16,16,,,,,,,,,,None,289.75889980001375,289.75889980001375,289.75889980001375,289.75889980001375,289.75889980001375,289.75889980001375,f,0.7680515999963973,290.55706950000604,290.55706950000604,290.55706950000604,290.55706950000604,290.55706950000604,290.55706950000604,290.85634260001825,290.85634260001825,292.8506635000231,292.8506635000231,292.8506635000231,292.8506635000231,292.8506635000231,292.8506635000231,292.8506635000231,292.8506635000231,292.8506635000231,292.8506635000231,292.8506635000231,292.8506635000231,292.8506635000231,292.8506635000231,292.8506635000231,292.8506635000231,292.8506635000231,,,,,,38,66,54,23,66,54,None,None,66,66,[-0.006481481481481481],[-0.28055555555555556],[1],[0],[0],[4.377414699993096],['tijiao'],0.2,0,,[],[],[],[],[],[],[],5.898148148148148,1.5814382999960799,301.3598723000032,303.23871970002074,,,,,,,,,,,299.759263200016,299.759263200016,299.759263200016,299.759263200016,295.36238570002024,295.36238570002024,295.36238570002024,295.36238570002024,295.36238570002024,295.36238570002024,295.36238570002024,295.36238570002024,0.006959699996514246,295.36238570002024,,,,254,f,23,2023-03-23_10h02.02.229,RL,2022.2.4,60.1956358204529,
0,0.3,0.225,0,17,17,17,,,,,,,,,,None,303.23871970002074,303.23871970002074,303.23871970002074,303.23871970002074,303.23871970002074,303.23871970002074,f,1.2562436999869533,304.5213594000088,304.5213594000088,304.5213594000088,304.5213594000088,304.5213594000088,304.5213594000088,304.81777590001,304.81777590001,306.2142754000088,306.2142754000088,306.2142754000088,306.2142754000088,306.2142754000088,306.2142754000088,306.2142754000088,306.2142754000088,306.2142754000088,306.2142754000088,306.2142754000088,306.2142754000088,306.2142754000088,306.2142754000088,306.2142754000088,306.2142754000088,306.2142754000088,,,,,,44,62,56,18,62,62,None,None,54,54,[0.07314814814814814],[-0.2824074074074074],[1],[0],[0],[5.06133850000333],['tijiao'],-0.2,0,,[],[],[],[],[],[],[],2.2222222222222223,2.841547799995169,316.66777430000366,318.5303926000197,,,,,,,,,,,313.8077904000238,313.8077904000238,313.8077904000238,313.8077904000238,308.7247250000073,308.7247250000073,308.7247250000073,308.7247250000073,308.7247250000073,308.7247250000073,308.7247250000073,308.7247250000073,0.005113799998071045,308.7247250000073,,,,254,f,23,2023-03-23_10h02.02.229,RL,2022.2.4,60.1956358204529,
1,-0.3,-0.225,0,18,18,18,,,,,,,,,,None,318.5303926000197,318.5303926000197,318.5303926000197,318.5303926000197,318.5303926000197,318.5303926000197,r,0.4346910000022035,318.99608820001595,318.99608820001595,318.99608820001595,318.99608820001595,318.99608820001595,318.99608820001595,319.295037200005,319.295037200005,320.2760312000173,320.2760312000173,320.2760312000173,320.2760312000173,320.2760312000173,320.2760312000173,320.2760312000173,320.2760312000173,320.2760312000173,320.2760312000173,320.2760312000173,320.2760312000173,320.2760312000173,320.2760312000173,320.2760312000173,320.2760312000173,320.2760312000173,,,,,,37,66,61,26,37,71,None,None,,,[],[],[],[],[],[],[],-0.2,1,34,[0.011111111111111112],[-0.2518518518518518],[1],[0],[0],[4.904127500019968],['tijiao_random_2'],1.9999999999999998,2.3534260999877006,330.0814409000159,331.79411500002607,322.7920955000154,322.7920955000154,322.7920955000154,322.7920955000154,322.7920955000154,322.7920955000154,322.7920955000154,322.7920955000154,0.00575899999239482,322.7920955000154,327.70926319999853,327.70926319999853,327.70926319999853,327.70926319999853,,,,,,,,,,,,,,254,f,23,2023-03-23_10h02.02.229,RL,2022.2.4,60.1956358204529,
0,0.3,0.225,0,19,19,19,,,,,,,,,,None,331.79411500002607,331.79411500002607,331.79411500002607,331.79411500002607,331.79411500002607,331.79411500002607,j,0.9842786000226624,332.81049140001414,332.81049140001414,332.81049140001414,332.81049140001414,332.81049140001414,332.81049140001414,333.1077165000024,333.1077165000024,334.0879486000049,334.0879486000049,334.0879486000049,334.0879486000049,334.0879486000049,334.0879486000049,334.0879486000049,334.0879486000049,334.0879486000049,334.0879486000049,334.0879486000049,334.0879486000049,334.0879486000049,334.0879486000049,334.0879486000049,334.0879486000049,334.0879486000049,,,,,,46,49,55,23,23,68,None,None,77,77,[0.019444444444444445],[-0.2722222222222222],[1],[0],[0],[4.413340400002198],['tijiao'],0.2,0,,[],[],[],[],[],[],[],3.2037037037037037,1.92985739998403,342.97956770000746,344.89160490001086,,,,,,,,,,,341.03080430001137,341.03080430001137,341.03080430001137,341.03080430001137,336.5983211999992,336.5983211999992,336.5983211999992,336.5983211999992,336.5983211999992,336.5983211999992,336.5983211999992,336.5983211999992,0.004709100001491606,336.5983211999992,,,,254,f,23,2023-03-23_10h02.02.229,RL,2022.2.4,60.1956358204529,
1,-0.3,-0.225,0,20,20,20,,,,,,,,,,None,344.89160490001086,344.89160490001086,344.89160490001086,344.89160490001086,344.89160490001086,344.89160490001086,f,0.6884468000207562,345.60681300002034,345.60681300002034,345.60681300002034,345.60681300002034,345.60681300002034,345.60681300002034,345.90609280002536,345.90609280002536,347.1859086000186,347.1859086000186,347.1859086000186,347.1859086000186,347.1859086000186,347.1859086000186,347.1859086000186,347.1859086000186,347.1859086000186,347.1859086000186,347.1859086000186,347.1859086000186,347.1859086000186,347.1859086000186,347.1859086000186,347.1859086000186,347.1859086000186,349.69505750000826,349.69505750000826,349.69505750000826,349.69505750000826,349.69505750000826,44,60,53,26,60,68,3.0,1.8772122999944258,,,[],[],[],[],[],[],[],-0.2,3,,[],[],[],[],[],[],[],None,None,351.59654440000304,353.4185284000123,,,,,,,,,,,,,,,,,,,,,,,,,,,,254,f,23,2023-03-23_10h02.02.229,RL,2022.2.4,60.1956358204529,
0,0.3,0.225,0,21,21,21,,,,,,,,,,None,353.4185284000123,353.4185284000123,353.4185284000123,353.4185284000123,353.4185284000123,353.4185284000123,i,0.6234108999778982,354.0670824999979,354.0670824999979,354.0670824999979,354.0670824999979,354.0670824999979,354.0670824999979,354.3659829000244,354.3659829000244,355.9784709000087,355.9784709000087,355.9784709000087,355.9784709000087,355.9784709000087,355.9784709000087,355.9784709000087,355.9784709000087,355.9784709000087,355.9784709000087,355.9784709000087,355.9784709000087,355.9784709000087,355.9784709000087,355.9784709000087,355.9784709000087,355.9784709000087,,,,,,46,53,56,10,56,26,None,None,63,63,[0.09907407407407408],[-0.2861111111111111],[1],[0],[0],[5.991261999995913],['tijiao'],-0.6,0,,[],[],[],[],[],[],[],3.9444444444444446,1.681587800005218,366.19933740000124,368.19494680000935,,,,,,,,,,,364.4992962000251,364.4992962000251,364.4992962000251,364.4992962000251,358.48862650000956,358.48862650000956,358.48862650000956,358.48862650000956,358.48862650000956,358.48862650000956,358.48862650000956,358.48862650000956,0.005356500012567267,358.48862650000956,,,,254,f,23,2023-03-23_10h02.02.229,RL,2022.2.4,60.1956358204529,
1,-0.3,-0.225,0,22,22,22,,,,,,,,,,None,368.19494680000935,368.19494680000935,368.19494680000935,368.19494680000935,368.19494680000935,368.19494680000935,i,0.6095497000205796,368.8267625000153,368.8267625000153,368.8267625000153,368.8267625000153,368.8267625000153,368.8267625000153,369.1260496000177,369.1260496000177,370.18971279999823,370.18971279999823,370.18971279999823,370.18971279999823,370.18971279999823,370.18971279999823,370.18971279999823,370.18971279999823,370.18971279999823,370.18971279999823,370.18971279999823,370.18971279999823,370.18971279999823,370.18971279999823,370.18971279999823,370.18971279999823,370.18971279999823,372.6988381000119,372.6988381000119,372.6988381000119,372.6988381000119,372.6988381000119,49,61,54,24,54,67,3.0,2.658502200007206,,,[],[],[],[],[],[],[],0.6,2,,[],[],[],[],[],[],[],None,None,375.38165510000545,377.22004190000007,,,,,,,,,,,,,,,,,,,,,,,,,,,,254,f,23,2023-03-23_10h02.02.229,RL,2022.2.4,60.1956358204529,
0,0.3,0.225,0,23,23,23,,,,,,,,,,None,377.22004190000007,377.22004190000007,377.22004190000007,377.22004190000007,377.22004190000007,377.22004190000007,r,0.9152064999798313,378.16821210001945,378.16821210001945,378.16821210001945,378.16821210001945,378.16821210001945,378.16821210001945,378.4668029000168,378.4668029000168,379.8297757000255,379.8297757000255,379.8297757000255,379.8297757000255,379.8297757000255,379.8297757000255,379.8297757000255,379.8297757000255,379.8297757000255,379.8297757000255,379.8297757000255,379.8297757000255,379.8297757000255,379.8297757000255,379.8297757000255,379.8297757000255,379.8297757000255,,,,,,47,59,47,23,47,66,None,None,,,[],[],[],[],[],[],[],-0.6,1,44,[0.06481481481481481],[-0.30925925925925923],[1],[0],[0],[5.684885099995881],['tijiao_random_2'],3.7314814814814814,2.1215667000215035,390.18379410001216,392.02987450000364,382.3464816000196,382.3464816000196,382.3464816000196,382.3464816000196,382.3464816000196,382.3464816000196,382.3464816000196,382.3464816000196,0.005627600010484457,382.3464816000196,388.0439750000078,388.0439750000078,388.0439750000078,388.0439750000078,,,,,,,,,,,,,,254,f,23,2023-03-23_10h02.02.229,RL,2022.2.4,60.1956358204529,
1,-0.3,-0.225,0,24,24,24,,,,,,,,,,None,392.02987450000364,392.02987450000364,392.02987450000364,392.02987450000364,392.02987450000364,392.02987450000364,i,0.4328764000092633,392.49586100000306,392.49586100000306,392.49586100000306,392.49586100000306,392.49586100000306,392.49586100000306,392.7946940000111,392.7946940000111,393.974781900004,393.974781900004,393.9915536000044,393.9915536000044,393.9915536000044,393.9915536000044,393.9915536000044,393.9915536000044,393.9915536000044,393.9915536000044,393.9915536000044,393.9915536000044,393.9915536000044,393.9915536000044,393.9915536000044,393.9915536000044,393.9915536000044,,,,,,44,55,38,20,38,64,None,None,,,[],[],[],[],[],[],[],-0.2,1,65,[0.10740740740740741],[-0.3212962962962963],[1],[0],[0],[5.833042400015984],['tijiao_random_2'],5.027777777777778,2.0723975999862887,404.4450243000174,406.34069410001393,396.5096710000071,396.5096710000071,396.5096710000071,396.5096710000071,396.5096710000071,396.5096710000071,396.5096710000071,396.5096710000071,0.0055247999844141304,396.5096710000071,402.35488800000167,402.35488800000167,402.35488800000167,402.35488800000167,,,,,,,,,,,,,,254,f,23,2023-03-23_10h02.02.229,RL,2022.2.4,60.1956358204529,
0,0.3,0.225,0,25,25,25,,,,,,,,,,None,406.34069410001393,406.34069410001393,406.34069410001393,406.34069410001393,406.34069410001393,406.34069410001393,f,0.371743299998343,406.73996600002283,406.73996600002283,406.73996600002283,406.73996600002283,406.73996600002283,406.73996600002283,407.03890120002325,407.03890120002325,407.91986870000255,407.91986870000255,407.91986870000255,407.91986870000255,407.91986870000255,407.91986870000255,407.91986870000255,407.91986870000255,407.91986870000255,407.91986870000255,407.91986870000255,407.91986870000255,407.91986870000255,407.91986870000255,407.91986870000255,407.91986870000255,407.91986870000255,410.42923750000773,410.42923750000773,410.42923750000773,410.42923750000773,410.42923750000773,44,58,57,13,58,36,4.0,2.409099599986803,,,[],[],[],[],[],[],[],-0.6,3,,[],[],[],[],[],[],[],None,None,412.86594410002,414.7509705000266,,,,,,,,,,,,,,,,,,,,,,,,,,,,254,f,23,2023-03-23_10h02.02.229,RL,2022.2.4,60.1956358204529,
1,-0.3,-0.225,0,26,26,26,,,,,,,,,,None,414.7509705000266,414.7509705000266,414.7509705000266,414.7509705000266,414.7509705000266,414.7509705000266,j,1.1465873999986798,415.91484010001295,415.91484010001295,415.91484010001295,415.91484010001295,415.91484010001295,415.91484010001295,416.213856700022,416.213856700022,417.8265211000107,417.8265211000107,417.8265211000107,417.8265211000107,417.8265211000107,417.8265211000107,417.8265211000107,417.8265211000107,417.8265211000107,417.8265211000107,417.8265211000107,417.8265211000107,417.8265211000107,417.8265211000107,417.8265211000107,417.8265211000107,417.8265211000107,,,,,,42,46,53,27,27,44,None,None,,,[],[],[],[],[],[],[],-0.6,1,66,[-0.018518518518518517],[-0.30462962962962964],[1],[0],[0],[3.837572500022361],['tijiao_random_2'],3.962962962962963,1.8886755999992602,426.10262240000884,428.0148059000203,420.34525900002336,420.34525900002336,420.34525900002336,420.34525900002336,420.34525900002336,420.34525900002336,420.34525900002336,420.34525900002336,0.0052097000007051975,420.34525900002336,424.1956890000147,424.1956890000147,424.1956890000147,424.1956890000147,,,,,,,,,,,,,,254,f,23,2023-03-23_10h02.02.229,RL,2022.2.4,60.1956358204529,
0,0.3,0.225,0,27,27,27,,,,,,,,,,None,428.0148059000203,428.0148059000203,428.0148059000203,428.0148059000203,428.0148059000203,428.0148059000203,f,0.6316398000053596,428.66370400000596,428.66370400000596,428.66370400000596,428.66370400000596,428.66370400000596,428.66370400000596,428.96277050001663,428.96277050001663,430.1427893000073,430.1427893000073,430.1427893000073,430.1427893000073,430.1427893000073,430.1427893000073,430.1427893000073,430.1427893000073,430.1427893000073,430.1427893000073,430.1427893000073,430.1427893000073,430.1427893000073,430.1427893000073,430.1427893000073,430.1427893000073,430.1427893000073,,,,,,40,56,56,19,56,36,None,None,,,[],[],[],[],[],[],[],-0.6,1,57,[-0.025925925925925925],[-0.2824074074074074],[1],[0],[0],[4.801832500001183],['tijiao_random_2'],1,2.569899499998428,440.06463980002445,441.87715020001633,432.6615739999979,432.6615739999979,432.6615739999979,432.6615739999979,432.6615739999979,432.6615739999979,432.6615739999979,432.6615739999979,0.00556640001013875,432.6615739999979,437.47650160000194,437.47650160000194,437.47650160000194,437.47650160000194,,,,,,,,,,,,,,254,f,23,2023-03-23_10h02.02.229,RL,2022.2.4,60.1956358204529,
1,-0.3,-0.225,0,28,28,28,,,,,,,,,,None,441.87715020001633,441.87715020001633,441.87715020001633,441.87715020001633,441.87715020001633,441.87715020001633,r,0.8083506000111811,442.70852920002653,442.70852920002653,442.70852920002653,442.70852920002653,442.70852920002653,442.70852920002653,443.00774920001277,443.00774920001277,443.93848040001467,443.93848040001467,443.93848040001467,443.93848040001467,443.93848040001467,443.93848040001467,443.93848040001467,443.93848040001467,443.93848040001467,443.93848040001467,443.93848040001467,443.93848040001467,443.93848040001467,443.93848040001467,443.93848040001467,443.93848040001467,443.93848040001467,,,,,,40,49,54,23,40,34,None,None,26,26,[0.07592592592592592],[-0.2861111111111111],[1],[0],[0],[5.991222700016806],['tijiao'],0.6,0,,[],[],[],[],[],[],[],4.981481481481481,3.191817400016589,455.6717523000261,457.3349926000228,,,,,,,,,,,452.46132860000944,452.46132860000944,452.46132860000944,452.46132860000944,446.44890820002183,446.44890820002183,446.44890820002183,446.44890820002183,446.44890820002183,446.44890820002183,446.44890820002183,446.44890820002183,0.005340800009435043,446.44890820002183,,,,254,f,23,2023-03-23_10h02.02.229,RL,2022.2.4,60.1956358204529,
0,0.3,0.225,0,29,29,29,,,,,,,,,,None,457.3349926000228,457.3349926000228,457.3349926000228,457.3349926000228,457.3349926000228,457.3349926000228,j,0.8118688999966253,458.1663755000045,458.1663755000045,458.1663755000045,458.1663755000045,458.1663755000045,458.1663755000045,458.4655391999986,458.4655391999986,459.34638860000996,459.34638860000996,459.34638860000996,459.34638860000996,459.34638860000996,459.34638860000996,459.34638860000996,459.34638860000996,459.34638860000996,459.34638860000996,459.34638860000996,459.34638860000996,459.34638860000996,459.34638860000996,459.34638860000996,459.34638860000996,459.34638860000996,,,,,,34,63,61,31,31,40,None,None,,,[],[],[],[],[],[],[],0.2,1,66,[-0.037037037037037035],[-0.3],[1],[0],[0],[5.0683037000126205],['tijiao_random_2'],4.787037037037037,2.22028120001778,469.1848879000172,471.1305914000259,461.8643571000139,461.8643571000139,461.8643571000139,461.8643571000139,461.8643571000139,461.8643571000139,461.8643571000139,461.8643571000139,0.005890400003409013,461.8643571000139,466.9458351000212,466.9458351000212,466.9458351000212,466.9458351000212,,,,,,,,,,,,,,254,f,23,2023-03-23_10h02.02.229,RL,2022.2.4,60.1956358204529,
1,-0.3,-0.225,0,30,30,30,,,,,,,,,,None,471.1305914000259,471.1305914000259,471.1305914000259,471.1305914000259,471.1305914000259,471.1305914000259,f,1.1553920999867842,472.31124870001804,472.31124870001804,472.31124870001804,472.31124870001804,472.31124870001804,472.31124870001804,472.6099863999989,472.6099863999989,474.0729376000236,474.0729376000236,474.0729376000236,474.0729376000236,474.0729376000236,474.0729376000236,474.0729376000236,474.0729376000236,474.0729376000236,474.0729376000236,474.0729376000236,474.0729376000236,474.0729376000236,474.0729376000236,474.0729376000236,474.0729376000236,474.0729376000236,476.5817474000214,476.5817474000214,476.5817474000214,476.5817474000214,476.5817474000214,33,55,51,32,55,60,4.0,2.143391200021142,,,[],[],[],[],[],[],[],0.2,3,,[],[],[],[],[],[],[],None,None,478.74933210000745,480.42202260001795,,,,,,,,,,,,,,,,,,,,,,,,,,,,254,f,23,2023-03-23_10h02.02.229,RL,2022.2.4,60.1956358204529,
0,0.3,0.225,0,31,31,31,,,,,,,,,,None,480.42202260001795,480.42202260001795,480.42202260001795,480.42202260001795,480.42202260001795,480.42202260001795,i,0.6410914000007324,481.08740200000466,481.08740200000466,481.08740200000466,481.08740200000466,481.08740200000466,481.08740200000466,481.3864399000013,481.3864399000013,482.4997006000194,482.4997006000194,482.4997006000194,482.4997006000194,482.4997006000194,482.4997006000194,482.4997006000194,482.4997006000194,482.4997006000194,482.4997006000194,482.4997006000194,482.4997006000194,482.4997006000194,482.4997006000194,482.4997006000194,482.4997006000194,482.4997006000194,485.00911559999804,485.00911559999804,485.00911559999804,485.00911559999804,485.00911559999804,38,51,62,28,62,42,5.0,2.126855100010289,,,[],[],[],[],[],[],[],-0.2,3,,[],[],[],[],[],[],[],None,None,487.1595891000179,489.16485820000526,,,,,,,,,,,,,,,,,,,,,,,,,,,,254,f,23,2023-03-23_10h02.02.229,RL,2022.2.4,60.1956358204529,
1,-0.3,-0.225,0,32,32,32,,,,,,,,,,None,489.16485820000526,489.16485820000526,489.16485820000526,489.16485820000526,489.16485820000526,489.16485820000526,j,1.1263273999793455,490.31194410001626,490.31194410001626,490.31194410001626,490.31194410001626,490.31194410001626,490.31194410001626,490.61109620000934,490.61109620000934,492.605650100013,492.605650100013,492.605650100013,492.605650100013,492.605650100013,492.605650100013,492.605650100013,492.605650100013,492.605650100013,492.605650100013,492.605650100013,492.605650100013,492.605650100013,492.605650100013,492.605650100013,492.605650100013,492.605650100013,495.1147236000106,495.1147236000106,495.1147236000106,495.1147236000106,495.1147236000106,48,36,63,46,46,59,4.0,2.758645499998238,,,[],[],[],[],[],[],[],-0.6,3,,[],[],[],[],[],[],[],None,None,497.89920680000796,499.63618950001546,,,,,,,,,,,,,,,,,,,,,,,,,,,,254,f,23,2023-03-23_10h02.02.229,RL,2022.2.4,60.1956358204529,
0,0.3,0.225,0,33,33,33,,,,,,,,,,None,499.63618950001546,499.63618950001546,499.63618950001546,499.63618950001546,499.63618950001546,499.63618950001546,r,0.7494540000043344,500.41801570000825,500.41801570000825,500.41801570000825,500.41801570000825,500.41801570000825,500.41801570000825,500.71654660001514,500.71654660001514,501.7806852000067,501.7806852000067,501.7806852000067,501.7806852000067,501.7806852000067,501.7806852000067,501.7806852000067,501.7806852000067,501.7806852000067,501.7806852000067,501.7806852000067,501.7806852000067,501.7806852000067,501.7806852000067,501.7806852000067,501.7806852000067,501.7806852000067,504.28975470000296,504.28975470000296,504.28975470000296,504.28975470000296,504.28975470000296,45,46,54,40,45,51,3.0,2.2429277999908663,,,[],[],[],[],[],[],[],0.2,2,,[],[],[],[],[],[],[],None,None,506.55671480001183,508.09643160001724,,,,,,,,,,,,,,,,,,,,,,,,,,,,254,f,23,2023-03-23_10h02.02.229,RL,2022.2.4,60.1956358204529,
1,-0.3,-0.225,0,34,34,34,,,,,,,,,,None,508.09643160001724,508.09643160001724,508.09643160001724,508.09643160001724,508.09643160001724,508.09643160001724,i,0.8922584999818355,509.0110049000068,509.0110049000068,509.0110049000068,509.0110049000068,509.0110049000068,509.0110049000068,509.31013769999845,509.31013769999845,510.8888651000161,510.8888651000161,510.8888651000161,510.8888651000161,510.8888651000161,510.8888651000161,510.8888651000161,510.8888651000161,510.8888651000161,510.8888651000161,510.8888651000161,510.8888651000161,510.8888651000161,510.8888651000161,510.8888651000161,510.8888651000161,510.8888651000161,513.3981619999977,513.3981619999977,513.3981619999977,513.3981619999977,513.3981619999977,45,44,56,39,56,50,3.0,1.7111325000005309,,,[],[],[],[],[],[],[],-0.2,3,,[],[],[],[],[],[],[],None,None,515.136341400008,516.9225135000015,,,,,,,,,,,,,,,,,,,,,,,,,,,,254,f,23,2023-03-23_10h02.02.229,RL,2022.2.4,60.1956358204529,
0,0.3,0.225,0,35,35,35,,,,,,,,,,None,516.9225135000015,516.9225135000015,516.9225135000015,516.9225135000015,516.9225135000015,516.9225135000015,f,0.8637088999967091,517.8036676000047,517.8036676000047,517.8036676000047,517.8036676000047,517.8036676000047,517.8036676000047,518.1027261000127,518.1027261000127,518.9831454000087,518.9831454000087,518.9831454000087,518.9831454000087,518.9831454000087,518.9831454000087,518.9831454000087,518.9831454000087,518.9831454000087,518.9831454000087,518.9831454000087,518.9831454000087,518.9831454000087,518.9831454000087,518.9831454000087,518.9831454000087,518.9831454000087,,,,,,48,42,62,37,42,49,None,None,,,[],[],[],[],[],[],[],0.2,1,45,[0.11851851851851852],[-0.34444444444444444],[1],[0],[0],[4.802517300006002],['tijiao_random_2'],4.944444444444445,2.1884842000145,528.5231378000171,530.2027647000214,521.5017884999979,521.5017884999979,521.5017884999979,521.5017884999979,521.5017884999979,521.5017884999979,521.5017884999979,521.5017884999979,0.005384899995988235,521.5017884999979,526.3164727000112,526.3164727000112,526.3164727000112,526.3164727000112,,,,,,,,,,,,,,254,f,23,2023-03-23_10h02.02.229,RL,2022.2.4,60.1956358204529,
1,-0.3,-0.225,0,36,36,36,,,,,,,,,,None,530.2027647000214,530.2027647000214,530.2027647000214,530.2027647000214,530.2027647000214,530.2027647000214,f,0.6423053999897093,530.8680923000211,530.8680923000211,530.8680923000211,530.8680923000211,530.8680923000211,530.8680923000211,531.1671589000034,531.1671589000034,532.5298775000265,532.5298775000265,532.5298775000265,532.5298775000265,532.5298775000265,532.5298775000265,532.5298775000265,532.5298775000265,532.5298775000265,532.5298775000265,532.5298775000265,532.5298775000265,532.5298775000265,532.5298775000265,532.5298775000265,532.5298775000265,532.5298775000265,,,,,,43,40,56,42,40,27,None,None,,,[],[],[],[],[],[],[],0.6,1,40,[0.000925925925925926],[-0.26481481481481484],[1],[0],[0],[5.153462999995099],['tijiao_random_2'],4.962962962962964,1.8377187000005506,542.0695178000024,543.8322425000079,535.046599000023,535.046599000023,535.046599000023,535.046599000023,535.046599000023,535.046599000023,535.046599000023,535.046599000023,0.005518000019947067,535.046599000023,540.2137533000205,540.2137533000205,540.2137533000205,540.2137533000205,,,,,,,,,,,,,,254,f,23,2023-03-23_10h02.02.229,RL,2022.2.4,60.1956358204529,
0,0.3,0.225,0,37,37,37,,,,,,,,,,None,543.8322425000079,543.8322425000079,543.8322425000079,543.8322425000079,543.8322425000079,543.8322425000079,r,1.0756567000062205,544.929591400025,544.929591400025,544.929591400025,544.929591400025,544.929591400025,544.929591400025,545.2284205000033,545.2284205000033,546.2258624000242,546.2258624000242,546.2258624000242,546.2258624000242,546.2258624000242,546.2258624000242,546.2258624000242,546.2258624000242,546.2258624000242,546.2258624000242,546.2258624000242,546.2258624000242,546.2258624000242,546.2258624000242,546.2258624000242,546.2258624000242,546.2258624000242,,,,,,36,25,52,41,36,27,None,None,23,23,[0.020370370370370372],[-0.29444444444444445],[1],[0],[0],[5.47340119999717],['tijiao'],-0.2,0,,[],[],[],[],[],[],[],4.064814814814815,2.0311088000016753,556.2805890000018,557.8773552000057,,,,,,,,,,,554.230919100024,554.230919100024,554.230919100024,554.230919100024,548.7372697000101,548.7372697000101,548.7372697000101,548.7372697000101,548.7372697000101,548.7372697000101,548.7372697000101,548.7372697000101,0.007164300011936575,548.7372697000101,,,,254,f,23,2023-03-23_10h02.02.229,RL,2022.2.4,60.1956358204529,
1,-0.3,-0.225,0,38,38,38,,,,,,,,,,None,557.8773552000057,557.8773552000057,557.8773552000057,557.8773552000057,557.8773552000057,557.8773552000057,i,0.49806620000163093,558.3943294000055,558.3943294000055,558.3943294000055,558.3943294000055,558.3943294000055,558.3943294000055,558.6916360000032,558.6916360000032,560.6696089000034,560.6696089000034,560.6696089000034,560.6696089000034,560.6696089000034,560.6696089000034,560.6696089000034,560.6696089000034,560.6696089000034,560.6696089000034,560.6696089000034,560.6696089000034,560.6696089000034,560.6696089000034,560.6696089000034,560.6696089000034,560.6696089000034,563.1791423000104,563.1791423000104,563.1791423000104,563.1791423000104,563.1791423000104,36,32,59,37,59,29,4.0,2.076784899982158,,,[],[],[],[],[],[],[],0.2,3,,[],[],[],[],[],[],[],None,None,565.2808891000168,567.1183129000128,,,,,,,,,,,,,,,,,,,,,,,,,,,,254,f,23,2023-03-23_10h02.02.229,RL,2022.2.4,60.1956358204529,
0,0.3,0.225,0,39,39,39,,,,,,,,,,None,567.1183129000128,567.1183129000128,567.1183129000128,567.1183129000128,567.1183129000128,567.1183129000128,f,0.503596299997298,567.6518991000194,567.6518991000194,567.6518991000194,567.6518991000194,567.6518991000194,567.6518991000194,567.9501278000243,567.9501278000243,569.6951075000106,569.6951075000106,569.6951075000106,569.6951075000106,569.6951075000106,569.6951075000106,569.6951075000106,569.6951075000106,569.6951075000106,569.6951075000106,569.6951075000106,569.6951075000106,569.6951075000106,569.6951075000106,569.6951075000106,569.6951075000106,569.6951075000106,,,,,,27,49,54,38,49,52,None,None,,,[],[],[],[],[],[],[],0.2,1,63,[0.03888888888888889],[-0.3138888888888889],[1],[0],[0],[6.514233299996704],['tijiao_random_2'],5.138888888888888,1.988099999987753,580.7476753000228,582.7261113999994,572.2135006000171,572.2135006000171,572.2135006000171,572.2135006000171,572.2135006000171,572.2135006000171,572.2135006000171,572.2135006000171,0.00550259998999536,572.2135006000171,578.7409425000078,578.7409425000078,578.7409425000078,578.7409425000078,,,,,,,,,,,,,,254,f,23,2023-03-23_10h02.02.229,RL,2022.2.4,60.1956358204529,
1,-0.3,-0.225,0,40,40,40,,,,,,,,,,None,582.7261113999994,582.7261113999994,582.7261113999994,582.7261113999994,582.7261113999994,582.7261113999994,i,0.3719085000047926,583.1266396999999,583.1266396999999,583.1266396999999,583.1266396999999,583.1266396999999,583.1266396999999,583.4244351000234,583.4244351000234,585.0035560000106,585.0035560000106,585.0035560000106,585.0035560000106,585.0035560000106,585.0035560000106,585.0035560000106,585.0035560000106,585.0035560000106,585.0035560000106,585.0035560000106,585.0035560000106,585.0035560000106,585.0035560000106,585.0035560000106,585.0035560000106,585.0035560000106,587.5127735999995,587.5127735999995,587.5127735999995,587.5127735999995,587.5127735999995,29,42,66,52,66,53,4.0,1.9273421000107192,,,[],[],[],[],[],[],[],-0.6,2,,[],[],[],[],[],[],[],None,None,589.4669692000025,591.1698469000112,,,,,,,,,,,,,,,,,,,,,,,,,,,,254,f,23,2023-03-23_10h02.02.229,RL,2022.2.4,60.1956358204529,
0,0.3,0.225,0,41,41,41,,,,,,,,,,None,591.1698469000112,591.1698469000112,591.1698469000112,591.1698469000112,591.1698469000112,591.1698469000112,f,0.5904902000038419,591.7851619000139,591.7851619000139,591.7851619000139,591.7851619000139,591.7851619000139,591.7851619000139,592.0842980000016,592.0842980000016,593.8956154000189,593.8956154000189,593.8956154000189,593.8956154000189,593.8956154000189,593.8956154000189,593.8956154000189,593.8956154000189,593.8956154000189,593.8956154000189,593.8956154000189,593.8956154000189,593.8956154000189,593.8956154000189,593.8956154000189,593.8956154000189,593.8956154000189,,,,,,39,41,64,44,41,53,None,None,,,[],[],[],[],[],[],[],0.2,1,67,[0.03425925925925926],[-0.2740740740740741],[1],[0],[0],[4.637131099996623],['tijiao_random_2'],4.0092592592592595,2.2712402000033762,603.3524620000098,605.164797400008,596.4124803000013,596.4124803000013,596.4124803000013,596.4124803000013,596.4124803000013,596.4124803000013,596.4124803000013,596.4124803000013,0.005446700000902638,596.4124803000013,601.0625572999998,601.0625572999998,601.0625572999998,601.0625572999998,,,,,,,,,,,,,,254,f,23,2023-03-23_10h02.02.229,RL,2022.2.4,60.1956358204529,
1,-0.3,-0.225,0,42,42,42,,,,,,,,,,None,605.164797400008,605.164797400008,605.164797400008,605.164797400008,605.164797400008,605.164797400008,i,0.3138405999925453,605.4998456000176,605.4998456000176,605.4998456000176,605.4998456000176,605.4998456000176,605.4998456000176,605.7964309000236,605.7964309000236,606.8103429000184,606.8103429000184,606.8103429000184,606.8103429000184,606.8103429000184,606.8103429000184,606.8103429000184,606.8103429000184,606.8103429000184,606.8103429000184,606.8103429000184,606.8103429000184,606.8103429000184,606.8103429000184,606.8103429000184,606.8103429000184,606.8103429000184,,,,,,44,45,66,39,66,37,None,None,,,[],[],[],[],[],[],[],0.6,1,45,[0.023148148148148147],[-0.2833333333333333],[1],[0],[0],[5.518010200001299],['tijiao_random_2'],4.842592592592593,1.3881284999952186,616.2668698000198,618.029842900025,609.3281767000153,609.3281767000153,609.3281767000153,609.3281767000153,609.3281767000153,609.3281767000153,609.3281767000153,609.3281767000153,0.005865400016773492,609.3281767000153,614.8609576000017,614.8609576000017,614.8609576000017,614.8609576000017,,,,,,,,,,,,,,254,f,23,2023-03-23_10h02.02.229,RL,2022.2.4,60.1956358204529,
0,0.3,0.225,0,43,43,43,,,,,,,,,,None,618.029842900025,618.029842900025,618.029842900025,618.029842900025,618.029842900025,618.029842900025,f,0.6626778999925591,618.7118601000111,618.7118601000111,618.7118601000111,618.7118601000111,618.7118601000111,618.7118601000111,619.0107105000061,619.0107105000061,620.1244294000207,620.1244294000207,620.1244294000207,620.1244294000207,620.1244294000207,620.1244294000207,620.1244294000207,620.1244294000207,620.1244294000207,620.1244294000207,620.1244294000207,620.1244294000207,620.1244294000207,620.1244294000207,620.1244294000207,620.1244294000207,620.1244294000207,,,,,,33,48,64,43,48,52,None,None,34,34,[0.06018518518518518],[-0.2814814814814815],[1],[0],[0],[5.208637600007933],['tijiao'],-0.2,0,,[],[],[],[],[],[],[],2.824074074074074,1.813199900003383,629.6969398000219,631.559642200009,,,,,,,,,,,627.8646038000006,627.8646038000006,627.8646038000006,627.8646038000006,622.6358940000064,622.6358940000064,622.6358940000064,622.6358940000064,622.6358940000064,622.6358940000064,622.6358940000064,622.6358940000064,0.007000299985520542,622.6358940000064,,,,254,f,23,2023-03-23_10h02.02.229,RL,2022.2.4,60.1956358204529,
1,-0.3,-0.225,0,44,44,44,,,,,,,,,,None,631.559642200009,631.559642200009,631.559642200009,631.559642200009,631.559642200009,631.559642200009,i,0.3161969000066165,631.9092683000199,631.9092683000199,631.9092683000199,631.9092683000199,631.9092683000199,631.9092683000199,632.2080932000245,632.2080932000245,633.8369357000047,633.8369357000047,633.8369357000047,633.8369357000047,633.8369357000047,633.8369357000047,633.8369357000047,633.8369357000047,633.8369357000047,633.8369357000047,633.8369357000047,633.8369357000047,633.8369357000047,633.8369357000047,633.8369357000047,633.8369357000047,633.8369357000047,,,,,,32,41,65,37,65,53,None,None,,,[],[],[],[],[],[],[],-0.2,1,53,[0.007407407407407408],[-0.2962962962962963],[1],[0],[0],[5.168267200002447],['tijiao_random_2'],3.9907407407407405,2.801358500000788,644.3572776000074,646.302388400014,636.3558795000135,636.3558795000135,636.3558795000135,636.3558795000135,636.3558795000135,636.3558795000135,636.3558795000135,636.3558795000135,0.0052998999890405685,636.3558795000135,641.5370631999976,641.5370631999976,641.5370631999976,641.5370631999976,,,,,,,,,,,,,,254,f,23,2023-03-23_10h02.02.229,RL,2022.2.4,60.1956358204529,
0,0.3,0.225,0,45,45,45,,,,,,,,,,None,646.302388400014,646.302388400014,646.302388400014,646.302388400014,646.302388400014,646.302388400014,i,0.44542050000745803,646.7707442000101,646.7707442000101,646.7707442000101,646.7707442000101,646.7707442000101,646.7707442000101,647.0676175000262,647.0676175000262,648.7625610000105,648.7625610000105,648.7793498000246,648.7793498000246,648.7793498000246,648.7793498000246,648.7793498000246,648.7793498000246,648.7793498000246,648.7793498000246,648.7793498000246,648.7793498000246,648.7793498000246,648.7793498000246,648.7793498000246,648.7793498000246,648.7793498000246,651.2887330000231,651.2887330000231,651.2887330000231,651.2887330000231,651.2887330000231,38,33,69,35,69,35,5.0,1.8442598000110593,,,[],[],[],[],[],[],[],-0.6,3,,[],[],[],[],[],[],[],None,None,653.1581807000039,654.8124899000104,,,,,,,,,,,,,,,,,,,,,,,,,,,,254,f,23,2023-03-23_10h02.02.229,RL,2022.2.4,60.1956358204529,
1,-0.3,-0.225,0,46,46,46,,,,,,,,,,None,654.8124899000104,654.8124899000104,654.8124899000104,654.8124899000104,654.8124899000104,654.8124899000104,i,0.2628045000019483,655.0971420000133,655.0971420000133,655.0971420000133,655.0971420000133,655.0971420000133,655.0971420000133,655.3947999000084,655.3947999000084,656.9072859000007,656.9072859000007,656.9072859000007,656.9072859000007,656.9072859000007,656.9072859000007,656.9072859000007,656.9072859000007,656.9072859000007,656.9072859000007,656.9072859000007,656.9072859000007,656.9072859000007,656.9072859000007,656.9072859000007,656.9072859000007,656.9072859000007,659.4162690000085,659.4162690000085,659.4162690000085,659.4162690000085,659.4162690000085,31,36,63,34,63,49,6.0,2.974602699978277,,,[],[],[],[],[],[],[],-0.2,3,,[],[],[],[],[],[],[],None,None,662.4149514000164,664.3200574000075,,,,,,,,,,,,,,,,,,,,,,,,,,,,254,f,23,2023-03-23_10h02.02.229,RL,2022.2.4,60.1956358204529,
0,0.3,0.225,0,47,47,47,,,,,,,,,,None,664.3200574000075,664.3200574000075,664.3200574000075,664.3200574000075,664.3200574000075,664.3200574000075,i,0.2868925000075251,664.6366917999985,664.6366917999985,664.6366917999985,664.6366917999985,664.6366917999985,664.6366917999985,664.9354312000214,664.9354312000214,666.2483730000095,666.2483730000095,666.2483730000095,666.2483730000095,666.2483730000095,666.2483730000095,666.2483730000095,666.2483730000095,666.2483730000095,666.2483730000095,666.2483730000095,666.2483730000095,666.2483730000095,666.2483730000095,666.2483730000095,666.2483730000095,666.2483730000095,668.757463100017,668.757463100017,668.757463100017,668.757463100017,668.757463100017,38,46,74,51,74,45,7.0,2.1264306000084616,,,[],[],[],[],[],[],[],0.2,2,,[],[],[],[],[],[],[],None,None,670.9090099000023,672.5642536000232,,,,,,,,,,,,,,,,,,,,,,,,,,,,254,f,23,2023-03-23_10h02.02.229,RL,2022.2.4,60.1956358204529,
1,-0.3,-0.225,0,48,48,48,,,,,,,,,,None,672.5642536000232,672.5642536000232,672.5642536000232,672.5642536000232,672.5642536000232,672.5642536000232,i,0.30488229999900796,672.8987089000002,672.8987089000002,672.8987089000002,672.8987089000002,672.8987089000002,672.8987089000002,673.1962325000204,673.1962325000204,674.6755751000019,674.6755751000019,674.6755751000019,674.6755751000019,674.6755751000019,674.6755751000019,674.6755751000019,674.6755751000019,674.6755751000019,674.6755751000019,674.6755751000019,674.6755751000019,674.6755751000019,674.6755751000019,674.6755751000019,674.6755751000019,674.6755751000019,677.1842737999978,677.1842737999978,677.1842737999978,677.1842737999978,677.1842737999978,35,45,74,46,74,51,7.0,1.6444432999996934,,,[],[],[],[],[],[],[],-0.2,3,,[],[],[],[],[],[],[],None,None,678.8543257999991,680.4926577000006,,,,,,,,,,,,,,,,,,,,,,,,,,,,254,f,23,2023-03-23_10h02.02.229,RL,2022.2.4,60.1956358204529,
0,0.3,0.225,0,49,49,49,,,,,,,,,,None,680.4926577000006,680.4926577000006,680.4926577000006,680.4926577000006,680.4926577000006,680.4926577000006,j,0.36496039998019114,680.8758791,680.8758791,680.8758791,680.8758791,680.8758791,680.8758791,681.1744252000062,681.1744252000062,682.1882094000175,682.1882094000175,682.1882094000175,682.1882094000175,682.1882094000175,682.1882094000175,682.1882094000175,682.1882094000175,682.1882094000175,682.1882094000175,682.1882094000175,682.1882094000175,682.1882094000175,682.1882094000175,682.1882094000175,682.1882094000175,682.1882094000175,,,,,,39,38,76,51,51,41,None,None,54,54,[0.08888888888888889],[-0.2935185185185185],[1],[0],[0],[7.271614999976009],['tijiao'],-0.2,0,,[],[],[],[],[],[],[],4.796296296296297,1.6954524999891873,693.7056969999976,695.4352557000238,,,,,,,,,,,691.9915324000176,691.9915324000176,691.9915324000176,691.9915324000176,684.6986457000021,684.6986457000021,684.6986457000021,684.6986457000021,684.6986457000021,684.6986457000021,684.6986457000021,684.6986457000021,0.00475890000234358,684.6986457000021,,,,254,f,23,2023-03-23_10h02.02.229,RL,2022.2.4,60.1956358204529,
1,-0.3,-0.225,0,50,50,50,,,,,,,,,,None,695.4352557000238,695.4352557000238,695.4352557000238,695.4352557000238,695.4352557000238,695.4352557000238,j,0.6097046000068076,696.0674370000197,696.0674370000197,696.0674370000197,696.0674370000197,696.0674370000197,696.0674370000197,696.3661802000133,696.3661802000133,697.6295095000241,697.6295095000241,697.6295095000241,697.6295095000241,697.6295095000241,697.6295095000241,697.6295095000241,697.6295095000241,697.6295095000241,697.6295095000241,697.6295095000241,697.6295095000241,697.6295095000241,697.6295095000241,697.6295095000241,697.6295095000241,697.6295095000241,700.1385761999991,700.1385761999991,700.1385761999991,700.1385761999991,700.1385761999991,30,39,79,41,41,50,5.0,1.6948171999829356,,,[],[],[],[],[],[],[],-0.2,2,,[],[],[],[],[],[],[],None,None,701.8594275000214,703.6959003000229,,,,,,,,,,,,,,,,,,,,,,,,,,,,254,f,23,2023-03-23_10h02.02.229,RL,2022.2.4,60.1956358204529,
0,0.3,0.225,0,51,51,51,,,,,,,,,,None,703.6959003000229,703.6959003000229,703.6959003000229,703.6959003000229,703.6959003000229,703.6959003000229,i,0.4079153999919072,704.1285515000054,704.1285515000054,704.1285515000054,704.1285515000054,704.1285515000054,704.1285515000054,704.4276920999982,704.4276920999982,706.0894879999978,706.0894879999978,706.0894879999978,706.0894879999978,706.0894879999978,706.0894879999978,706.0894879999978,706.0894879999978,706.0894879999978,706.0894879999978,706.0894879999978,706.0894879999978,706.0894879999978,706.0894879999978,706.0894879999978,706.0894879999978,706.0894879999978,,,,,,33,44,77,46,77,38,None,None,,,[],[],[],[],[],[],[],-0.6,1,23,[0.08333333333333333],[-0.2953703703703704],[1],[0],[0],[3.640351499983808],['tijiao_random_2'],6.12037037037037,2.5033244999940507,714.7813285000157,716.7270088000223,708.606508900004,708.606508900004,708.606508900004,708.606508900004,708.606508900004,708.606508900004,708.606508900004,708.606508900004,0.005457199993543327,708.606508900004,712.2594043000136,712.2594043000136,712.2594043000136,712.2594043000136,,,,,,,,,,,,,,254,f,23,2023-03-23_10h02.02.229,RL,2022.2.4,60.1956358204529,
1,-0.3,-0.225,0,52,52,52,,,,,,,,,,None,716.7270088000223,716.7270088000223,716.7270088000223,716.7270088000223,716.7270088000223,716.7270088000223,i,0.32073370000580326,717.0765258000174,717.0765258000174,717.0765258000174,717.0765258000174,717.0765258000174,717.0765258000174,717.3752822000242,717.3752822000242,718.5060219000152,718.5060219000152,718.5060219000152,718.5060219000152,718.5060219000152,718.5060219000152,718.5060219000152,718.5060219000152,718.5060219000152,718.5060219000152,718.5060219000152,718.5060219000152,718.5060219000152,718.5060219000152,718.5060219000152,718.5060219000152,718.5060219000152,721.01495110002,721.01495110002,721.01495110002,721.01495110002,721.01495110002,33,42,74,42,74,55,6.0,1.9603120999818202,,,[],[],[],[],[],[],[],-0.2,2,,[],[],[],[],[],[],[],None,None,722.9997754000069,724.938179800025,,,,,,,,,,,,,,,,,,,,,,,,,,,,254,f,23,2023-03-23_10h02.02.229,RL,2022.2.4,60.1956358204529,
0,0.3,0.225,0,53,53,53,,,,,,,,,,None,724.938179800025,724.938179800025,724.938179800025,724.938179800025,724.938179800025,724.938179800025,i,0.3115292000002228,725.2707923999988,725.2707923999988,725.2707923999988,725.2707923999988,725.2707923999988,725.2707923999988,725.5698799000238,725.5698799000238,726.8664722000249,726.8664722000249,726.8664722000249,726.8664722000249,726.8664722000249,726.8664722000249,726.8664722000249,726.8664722000249,726.8664722000249,726.8664722000249,726.8664722000249,726.8664722000249,726.8664722000249,726.8664722000249,726.8664722000249,726.8664722000249,726.8664722000249,,,,,,48,47,78,39,78,56,None,None,78,78,[-0.03981481481481482],[-0.2861111111111111],[1],[0],[0],[5.641288899991196],['tijiao'],0.2,0,,[],[],[],[],[],[],[],7.148148148148148,1.6126153000222985,736.671652900026,738.234764599998,,,,,,,,,,,735.0403118000249,735.0403118000249,735.0403118000249,735.0403118000249,729.3775370000221,729.3775370000221,729.3775370000221,729.3775370000221,729.3775370000221,729.3775370000221,729.3775370000221,729.3775370000221,0.006931600015377626,729.3775370000221,,,,254,f,23,2023-03-23_10h02.02.229,RL,2022.2.4,60.1956358204529,
1,-0.3,-0.225,0,54,54,54,,,,,,,,,,None,738.234764599998,738.234764599998,738.234764599998,738.234764599998,738.234764599998,738.234764599998,i,0.24293499998748302,738.5017406000115,738.5017406000115,738.5017406000115,738.5017406000115,738.5017406000115,738.5017406000115,738.8005258000048,738.8005258000048,740.5622960000183,740.5622960000183,740.5622960000183,740.5622960000183,740.5622960000183,740.5622960000183,740.5622960000183,740.5622960000183,740.5622960000183,740.5622960000183,740.5622960000183,740.5622960000183,740.5622960000183,740.5622960000183,740.5622960000183,740.5622960000183,740.5622960000183,,,,,,40,44,68,46,68,36,None,None,,,[],[],[],[],[],[],[],0.2,1,66,[0.009259259259259259],[-0.262037037037037],[1],[0],[0],[5.38390580000123],['tijiao_random_2'],7.166666666666667,1.2735164999903645,749.7693175000022,751.7317448000249,743.0809061000182,743.0809061000182,743.0809061000182,743.0809061000182,743.0809061000182,743.0809061000182,743.0809061000182,743.0809061000182,0.005435900005977601,743.0809061000182,748.4771207000013,748.4771207000013,748.4771207000013,748.4771207000013,,,,,,,,,,,,,,254,f,23,2023-03-23_10h02.02.229,RL,2022.2.4,60.1956358204529,
0,0.3,0.225,0,55,55,55,,,,,,,,,,None,751.7317448000249,751.7317448000249,751.7317448000249,751.7317448000249,751.7317448000249,751.7317448000249,i,0.30001399997854605,752.0643051000079,752.0643051000079,752.0643051000079,752.0643051000079,752.0643051000079,752.0643051000079,752.3635457000055,752.3635457000055,754.2582717000041,754.2582717000041,754.2582717000041,754.2582717000041,754.2582717000041,754.2582717000041,754.2582717000041,754.2582717000041,754.2582717000041,754.2582717000041,754.2582717000041,754.2582717000041,754.2582717000041,754.2582717000041,754.2582717000041,754.2582717000041,754.2582717000041,756.7674120000156,756.7674120000156,756.7674120000156,756.7674120000156,756.7674120000156,41,29,73,56,73,47,7.0,2.0440402000094764,,,[],[],[],[],[],[],[],0.6,2,,[],[],[],[],[],[],[],None,None,758.8352414000256,760.5575680000184,,,,,,,,,,,,,,,,,,,,,,,,,,,,254,f,23,2023-03-23_10h02.02.229,RL,2022.2.4,60.1956358204529,
1,-0.3,-0.225,0,56,56,56,,,,,,,,,,None,760.5575680000184,760.5575680000184,760.5575680000184,760.5575680000184,760.5575680000184,760.5575680000184,i,0.4114440999983344,760.9904651000106,760.9904651000106,760.9904651000106,760.9904651000106,760.9904651000106,760.9904651000106,761.2892042000021,761.2892042000021,762.5688813000161,762.5688813000161,762.5688813000161,762.5688813000161,762.5688813000161,762.5688813000161,762.5688813000161,762.5688813000161,762.5688813000161,762.5688813000161,762.5688813000161,762.5688813000161,762.5688813000161,762.5688813000161,762.5688813000161,762.5688813000161,762.5688813000161,765.0781090000237,765.0781090000237,765.0781090000237,765.0781090000237,765.0781090000237,43,34,71,61,71,41,7.0,1.3791877999901772,,,[],[],[],[],[],[],[],-0.6,3,,[],[],[],[],[],[],[],None,None,766.481538699998,768.3361760000116,,,,,,,,,,,,,,,,,,,,,,,,,,,,254,f,23,2023-03-23_10h02.02.229,RL,2022.2.4,60.1956358204529,
0,0.3,0.225,0,57,57,57,,,,,,,,,,None,768.3361760000116,768.3361760000116,768.3361760000116,768.3361760000116,768.3361760000116,768.3361760000116,j,0.5554150999814738,768.9183181000117,768.9183181000117,768.9183181000117,768.9183181000117,768.9183181000117,768.9183181000117,769.2176447000238,769.2176447000238,771.0789982000133,771.0789982000133,771.0956191000005,771.0956191000005,771.0956191000005,771.0956191000005,771.0956191000005,771.0956191000005,771.0956191000005,771.0956191000005,771.0956191000005,771.0956191000005,771.0956191000005,771.0956191000005,771.0956191000005,771.0956191000005,771.0956191000005,,,,,,40,31,68,58,58,48,None,None,,,[],[],[],[],[],[],[],-0.2,1,56,[0.07222222222222222],[-0.3287037037037037],[1],[0],[0],[4.802009300008649],['tijiao_random_2'],5.814814814814815,1.7224396000092383,780.1698519000201,781.8659409000247,773.6144310000236,773.6144310000236,773.6144310000236,773.6144310000236,773.6144310000236,773.6144310000236,773.6144310000236,773.6144310000236,0.005649700004141778,773.6144310000236,778.4285604000033,778.4285604000033,778.4285604000033,778.4285604000033,,,,,,,,,,,,,,254,f,23,2023-03-23_10h02.02.229,RL,2022.2.4,60.1956358204529,
1,-0.3,-0.225,0,58,58,58,,,,,,,,,,None,781.8659409000247,781.8659409000247,781.8659409000247,781.8659409000247,781.8659409000247,781.8659409000247,i,0.25855800000135787,782.1489269000012,782.1489269000012,782.1489269000012,782.1489269000012,782.1489269000012,782.1489269000012,782.4479466000048,782.4479466000048,783.727767400007,783.727767400007,783.727767400007,783.727767400007,783.727767400007,783.727767400007,783.727767400007,783.727767400007,783.727767400007,783.727767400007,783.727767400007,783.727767400007,783.727767400007,783.727767400007,783.727767400007,783.727767400007,783.727767400007,786.2371385000006,786.2371385000006,786.2371385000006,786.2371385000006,786.2371385000006,46,34,67,49,67,36,7.0,1.9275218999828212,,,[],[],[],[],[],[],[],0.6,3,,[],[],[],[],[],[],[],None,None,788.188741800026,790.1600123000098,,,,,,,,,,,,,,,,,,,,,,,,,,,,254,f,23,2023-03-23_10h02.02.229,RL,2022.2.4,60.1956358204529,
0,0.3,0.225,0,59,59,59,,,,,,,,,,None,790.1600123000098,790.1600123000098,790.1600123000098,790.1600123000098,790.1600123000098,790.1600123000098,i,0.25764100000378676,790.4431061000214,790.4431061000214,790.4431061000214,790.4431061000214,790.4431061000214,790.4431061000214,790.7421678000246,790.7421678000246,791.9055631000083,791.9055631000083,791.9055631000083,791.9055631000083,791.9055631000083,791.9055631000083,791.9055631000083,791.9055631000083,791.9055631000083,791.9055631000083,791.9055631000083,791.9055631000083,791.9055631000083,791.9055631000083,791.9055631000083,791.9055631000083,791.9055631000083,,,,,,48,29,63,53,63,33,None,None,85,85,[-0.000925925925925926],[-0.2935185185185185],[1],[0],[0],[4.745676199992886],['tijiao'],-0.6,0,,[],[],[],[],[],[],[],7.861111111111111,1.8801857999933418,801.0792208000203,802.7757848000037,,,,,,,,,,,799.1802447000227,799.1802447000227,799.1802447000227,799.1802447000227,794.4158920000191,794.4158920000191,794.4158920000191,794.4158920000191,794.4158920000191,794.4158920000191,794.4158920000191,794.4158920000191,0.005016099981730804,794.4158920000191,,,,254,f,23,2023-03-23_10h02.02.229,RL,2022.2.4,60.1956358204529,
1,-0.3,-0.225,0,60,60,60,,,,,,,,,,None,802.7757848000037,802.7757848000037,802.7757848000037,802.7757848000037,802.7757848000037,802.7757848000037,i,0.39566420001210645,803.1918669000152,803.1918669000152,803.1918669000152,803.1918669000152,803.1918669000152,803.1918669000152,803.490534600016,803.490534600016,804.338162,804.338162,804.338162,804.338162,804.338162,804.338162,804.338162,804.338162,804.338162,804.338162,804.338162,804.338162,804.338162,804.338162,804.338162,804.338162,804.338162,806.8472849000245,806.8472849000245,806.8472849000245,806.8472849000245,806.8472849000245,51,25,65,60,65,41,6.0,1.927104899979895,,,[],[],[],[],[],[],[],0.6,3,,[],[],[],[],[],[],[],None,None,808.7988567000139,810.4048328000063,,,,,,,,,,,,,,,,,,,,,,,,,,,,254,f,23,2023-03-23_10h02.02.229,RL,2022.2.4,60.1956358204529,
0,0.3,0.225,0,61,61,61,,,,,,,,,,None,810.4048328000063,810.4048328000063,810.4048328000063,810.4048328000063,810.4048328000063,810.4048328000063,i,0.2743559000082314,810.7060180999979,810.7060180999979,810.7060180999979,810.7060180999979,810.7060180999979,810.7060180999979,811.0034286000009,811.0034286000009,812.7484767000133,812.7484767000133,812.7484767000133,812.7484767000133,812.7484767000133,812.7484767000133,812.7484767000133,812.7484767000133,812.7484767000133,812.7484767000133,812.7484767000133,812.7484767000133,812.7484767000133,812.7484767000133,812.7484767000133,812.7484767000133,812.7484767000133,815.2578095000063,815.2578095000063,815.2578095000063,815.2578095000063,815.2578095000063,45,20,68,58,68,41,6.0,1.378547799977241,,,[],[],[],[],[],[],[],0.2,3,,[],[],[],[],[],[],[],None,None,816.6612171000161,818.2169265000266,,,,,,,,,,,,,,,,,,,,,,,,,,,,254,f,23,2023-03-23_10h02.02.229,RL,2022.2.4,60.1956358204529,
1,-0.3,-0.225,0,62,62,62,,,,,,,,,,None,818.2169265000266,818.2169265000266,818.2169265000266,818.2169265000266,818.2169265000266,818.2169265000266,i,0.4092712999845389,818.6503348000115,818.6503348000115,818.6503348000115,818.6503348000115,818.6503348000115,818.6503348000115,818.9485454000242,818.9485454000242,820.9264357000066,820.9264357000066,820.9264357000066,820.9264357000066,820.9264357000066,820.9264357000066,820.9264357000066,820.9264357000066,820.9264357000066,820.9264357000066,820.9264357000066,820.9264357000066,820.9264357000066,820.9264357000066,820.9264357000066,820.9264357000066,820.9264357000066,823.4353574000124,823.4353574000124,823.4353574000124,823.4353574000124,823.4353574000124,44,27,57,62,57,33,6.0,3.10696609999286,,,[],[],[],[],[],[],[],-0.2,3,,[],[],[],[],[],[],[],None,None,826.5674006000045,828.4387340000249,,,,,,,,,,,,,,,,,,,,,,,,,,,,254,f,23,2023-03-23_10h02.02.229,RL,2022.2.4,60.1956358204529,
0,0.3,0.225,0,63,63,63,,,,,,,,,,None,828.4387340000249,828.4387340000249,828.4387340000249,828.4387340000249,828.4387340000249,828.4387340000249,j,0.5592703000002075,829.0211644000083,829.0211644000083,829.0211644000083,829.0211644000083,829.0211644000083,829.0211644000083,829.3201711000002,829.3201711000002,830.5832423000247,830.5832423000247,830.5832423000247,830.5832423000247,830.5832423000247,830.5832423000247,830.5832423000247,830.5832423000247,830.5832423000247,830.5832423000247,830.5832423000247,830.5832423000247,830.5832423000247,830.5832423000247,830.5832423000247,830.5832423000247,830.5832423000247,833.0924300000188,833.0924300000188,833.0924300000188,833.0924300000188,833.0924300000188,50,29,65,68,68,40,6.0,2.2762883999967016,,,[],[],[],[],[],[],[],-0.2,3,,[],[],[],[],[],[],[],None,None,835.3931462000182,837.0987015000137,,,,,,,,,,,,,,,,,,,,,,,,,,,,254,f,23,2023-03-23_10h02.02.229,RL,2022.2.4,60.1956358204529,
1,-0.3,-0.225,0,64,64,64,,,,,,,,,,None,837.0987015000137,837.0987015000137,837.0987015000137,837.0987015000137,837.0987015000137,837.0987015000137,j,0.5052310999890324,837.6311834000226,837.6311834000226,837.6311834000226,837.6311834000226,837.6311834000226,837.6311834000226,837.9301001999993,837.9301001999993,838.7440552000189,838.7440552000189,838.7440552000189,838.7440552000189,838.7440552000189,838.7440552000189,838.7440552000189,838.7440552000189,838.7440552000189,838.7440552000189,838.7440552000189,838.7440552000189,838.7440552000189,838.7440552000189,838.7440552000189,838.7440552000189,838.7440552000189,,,,,,36,30,61,62,62,43,None,None,57,57,[0.010185185185185186],[-0.30462962962962964],[1],[0],[0],[5.0116943000175525],['tijiao'],-0.2,0,,[],[],[],[],[],[],[],6.027777777777778,1.5482765999913681,847.8514770000183,849.747571600019,,,,,,,,,,,846.2847404000058,846.2847404000058,846.2847404000058,846.2847404000058,841.2546700000239,841.2546700000239,841.2546700000239,841.2546700000239,841.2546700000239,841.2546700000239,841.2546700000239,841.2546700000239,0.004979499994078651,841.2546700000239,,,,254,f,23,2023-03-23_10h02.02.229,RL,2022.2.4,60.1956358204529,
0,0.3,0.225,0,65,65,65,,,,,,,,,,None,849.747571600019,849.747571600019,849.747571600019,849.747571600019,849.747571600019,849.747571600019,i,0.31995619999361224,850.0982444000256,850.0982444000256,850.0982444000256,850.0982444000256,850.0982444000256,850.0982444000256,850.3960822000226,850.3960822000226,851.9251106000156,851.9251106000156,851.9251106000156,851.9251106000156,851.9251106000156,851.9251106000156,851.9251106000156,851.9251106000156,851.9251106000156,851.9251106000156,851.9251106000156,851.9251106000156,851.9251106000156,851.9251106000156,851.9251106000156,851.9251106000156,851.9251106000156,854.4342557000055,854.4342557000055,854.4342557000055,854.4342557000055,854.4342557000055,43,32,66,57,66,34,7.0,1.7445253000187222,,,[],[],[],[],[],[],[],-0.6,3,,[],[],[],[],[],[],[],None,None,856.2047123000084,857.958337500022,,,,,,,,,,,,,,,,,,,,,,,,,,,,254,f,23,2023-03-23_10h02.02.229,RL,2022.2.4,60.1956358204529,
1,-0.3,-0.225,0,66,66,66,,,,,,,,,,None,857.958337500022,857.958337500022,857.958337500022,857.958337500022,857.958337500022,857.958337500022,j,0.5269323000102304,858.5075091000181,858.5075091000181,858.5075091000181,858.5075091000181,858.5075091000181,858.5075091000181,858.8063282000076,858.8063282000076,860.401563100022,860.401563100022,860.401563100022,860.401563100022,860.401563100022,860.401563100022,860.401563100022,860.401563100022,860.401563100022,860.401563100022,860.401563100022,860.401563100022,860.401563100022,860.401563100022,860.401563100022,860.401563100022,860.401563100022,862.9110983000137,862.9110983000137,862.9110983000137,862.9110983000137,862.9110983000137,39,27,63,60,60,55,6.0,1.8942595999978948,,,[],[],[],[],[],[],[],-0.2,3,,[],[],[],[],[],[],[],None,None,864.8319980000088,866.6347588000062,,,,,,,,,,,,,,,,,,,,,,,,,,,,254,f,23,2023-03-23_10h02.02.229,RL,2022.2.4,60.1956358204529,
0,0.3,0.225,0,67,67,67,,,,,,,,,,None,866.6347588000062,866.6347588000062,866.6347588000062,866.6347588000062,866.6347588000062,866.6347588000062,i,0.26320859999395907,866.9186739000143,866.9186739000143,866.9186739000143,866.9186739000143,866.9186739000143,866.9186739000143,867.2168818000064,867.2168818000064,868.9122093000042,868.9122093000042,868.9122093000042,868.9122093000042,868.9122093000042,868.9122093000042,868.9122093000042,868.9122093000042,868.9122093000042,868.9122093000042,868.9122093000042,868.9122093000042,868.9122093000042,868.9122093000042,868.9122093000042,868.9122093000042,868.9122093000042,,,,,,31,26,65,61,65,55,None,None,,,[],[],[],[],[],[],[],0.6,1,65,[-0.07962962962962963],[-0.31574074074074077],[1],[0],[0],[4.7881472000153735],['tijiao_random_2'],6.9907407407407405,1.5726092999975663,877.8197700000019,879.8154365000082,871.4278410999977,871.4278410999977,871.4278410999977,871.4278410999977,871.4278410999977,871.4278410999977,871.4278410999977,871.4278410999977,0.005492600001161918,871.4278410999977,876.2286277000094,876.2286277000094,876.2286277000094,876.2286277000094,,,,,,,,,,,,,,254,f,23,2023-03-23_10h02.02.229,RL,2022.2.4,60.1956358204529,
1,-0.3,-0.225,0,68,68,68,,,,,,,,,,None,879.8154365000082,879.8154365000082,879.8154365000082,879.8154365000082,879.8154365000082,879.8154365000082,i,0.3100640999909956,880.14834840002,880.14834840002,880.14834840002,880.14834840002,880.14834840002,880.14834840002,880.4474151000031,880.4474151000031,882.4418996000022,882.4418996000022,882.4418996000022,882.4418996000022,882.4418996000022,882.4418996000022,882.4418996000022,882.4418996000022,882.4418996000022,882.4418996000022,882.4418996000022,882.4418996000022,882.4418996000022,882.4418996000022,882.4418996000022,882.4418996000022,882.4418996000022,,,,,,43,27,64,66,64,61,None,None,56,56,"[0.13703703703703704, 0.12407407407407407]","[-0.2462962962962963, -0.2851851851851852]","[1, 1]","[0, 0]","[0, 0]","[4.179198100027861, 4.628605100006098]",['tijiao'],0.2,0,,[],[],[],[],[],[],[],5.824074074074074,1.598286399996141,891.2167442000064,892.7967016000184,,,,,,,,,,,889.5994351000118,889.5994351000118,889.5994351000118,889.5994351000118,884.9517978000222,884.9517978000222,884.9517978000222,884.9517978000222,884.9517978000222,884.9517978000222,884.9517978000222,884.9517978000222,0.005547000007936731,884.9517978000222,,,,254,f,23,2023-03-23_10h02.02.229,RL,2022.2.4,60.1956358204529,
0,0.3,0.225,0,69,69,69,,,,,,,,,,None,892.7967016000184,892.7967016000184,892.7967016000184,892.7967016000184,892.7967016000184,892.7967016000184,j,0.6168495999881998,893.4454221000196,893.4454221000196,893.4454221000196,893.4454221000196,893.4454221000196,893.4454221000196,893.7444562000164,893.7444562000164,895.3894385000167,895.3894385000167,895.3894385000167,895.3894385000167,895.3894385000167,895.3894385000167,895.3894385000167,895.3894385000167,895.3894385000167,895.3894385000167,895.3894385000167,895.3894385000167,895.3894385000167,895.3894385000167,895.3894385000167,895.3894385000167,895.3894385000167,897.8989373000222,897.8989373000222,897.8989373000222,897.8989373000222,897.8989373000222,36,27,60,56,56,58,4.0,3.090618700021878,,,[],[],[],[],[],[],[],0.6,2,,[],[],[],[],[],[],[],None,None,901.0159946000203,903.0022300000128,,,,,,,,,,,,,,,,,,,,,,,,,,,,254,f,23,2023-03-23_10h02.02.229,RL,2022.2.4,60.1956358204529,
1,-0.3,-0.225,0,70,70,70,,,,,,,,,,None,903.0022300000128,903.0022300000128,903.0022300000128,903.0022300000128,903.0022300000128,903.0022300000128,i,0.5268525000137743,903.5511765000119,903.5511765000119,903.5511765000119,903.5511765000119,903.5511765000119,903.5511765000119,903.8500979000237,903.8500979000237,905.3954900000244,905.3954900000244,905.3954900000244,905.3954900000244,905.3954900000244,905.3954900000244,905.3954900000244,905.3954900000244,905.3954900000244,905.3954900000244,905.3954900000244,905.3954900000244,905.3954900000244,905.3954900000244,905.3954900000244,905.3954900000244,905.3954900000244,907.9050242000085,907.9050242000085,907.9050242000085,907.9050242000085,907.9050242000085,42,31,69,63,69,52,5.0,1.7442447999783326,,,[],[],[],[],[],[],[],-0.2,3,,[],[],[],[],[],[],[],None,None,909.675060700014,911.4291793000011,,,,,,,,,,,,,,,,,,,,,,,,,,,,254,f,23,2023-03-23_10h02.02.229,RL,2022.2.4,60.1956358204529,
0,0.3,0.225,0,71,71,71,,,,,,,,,,None,911.4291793000011,911.4291793000011,911.4291793000011,911.4291793000011,911.4291793000011,911.4291793000011,i,0.24764109999523498,911.695746500016,911.695746500016,911.695746500016,911.695746500016,911.695746500016,911.695746500016,911.9942542000208,911.9942542000208,913.456768700009,913.456768700009,913.4738141999987,913.4738141999987,913.4738141999987,913.4738141999987,913.4738141999987,913.4738141999987,913.4738141999987,913.4738141999987,913.4738141999987,913.4738141999987,913.4738141999987,913.4738141999987,913.4738141999987,913.4738141999987,913.4738141999987,,,,,,29,33,58,61,58,54,None,None,,,[],[],[],[],[],[],[],-0.6,1,23,[0.062037037037037036],[-0.3175925925925926],[1],[0],[0],[6.116947399976198],['tijiao_random_2'],7.027777777777778,1.638147099991329,923.7779969000258,925.4240886000043,915.9904705000226,915.9904705000226,915.9904705000226,915.9904705000226,915.9904705000226,915.9904705000226,915.9904705000226,915.9904705000226,0.0055148999963421375,915.9904705000226,922.1215487000009,922.1215487000009,922.1215487000009,922.1215487000009,,,,,,,,,,,,,,254,f,23,2023-03-23_10h02.02.229,RL,2022.2.4,60.1956358204529,
1,-0.3,-0.225,0,72,72,72,,,,,,,,,,None,925.4240886000043,925.4240886000043,925.4240886000043,925.4240886000043,925.4240886000043,925.4240886000043,i,0.48673730000155047,925.9400495000009,925.9400495000009,925.9400495000009,925.9400495000009,925.9400495000009,925.9400495000009,926.2390059000172,926.2390059000172,927.5855086000229,927.5855086000229,927.5855086000229,927.5855086000229,927.5855086000229,927.5855086000229,927.5855086000229,927.5855086000229,927.5855086000229,927.5855086000229,927.5855086000229,927.5855086000229,927.5855086000229,927.5855086000229,927.5855086000229,927.5855086000229,927.5855086000229,,,,,,30,29,51,55,51,52,None,None,,,[],[],[],[],[],[],[],0.2,1,52,"[0.14629629629629629, 0.15]","[-0.23796296296296296, -0.2638888888888889]","[1, 1]","[0, 0]","[0, 0]","[4.970121699996525, 5.369608200009679]",['tijiao_random_2'],5.972222222222222,2.304501700011315,937.8064722999989,939.4527111000207,930.1022138000117,930.1022138000117,930.1022138000117,930.1022138000117,930.1022138000117,930.1022138000117,930.1022138000117,930.1022138000117,0.005690099991625175,930.1022138000117,935.4838941000053,935.4838941000053,935.4838941000053,935.4838941000053,,,,,,,,,,,,,,254,f,23,2023-03-23_10h02.02.229,RL,2022.2.4,60.1956358204529,
0,0.3,0.225,0,73,73,73,,,,,,,,,,None,939.4527111000207,939.4527111000207,939.4527111000207,939.4527111000207,939.4527111000207,939.4527111000207,f,1.0829422999813687,940.5666428000259,940.5666428000259,940.5666428000259,940.5666428000259,940.5666428000259,940.5666428000259,940.8658862000157,940.8658862000157,941.8463663000148,941.8463663000148,941.8463663000148,941.8463663000148,941.8463663000148,941.8463663000148,941.8463663000148,941.8463663000148,941.8463663000148,941.8463663000148,941.8463663000148,941.8463663000148,941.8463663000148,941.8463663000148,941.8463663000148,941.8463663000148,941.8463663000148,,,,,,30,24,55,62,24,51,None,None,,,[],[],[],[],[],[],[],0.6,1,67,[0.03425925925925926],[-0.32592592592592595],[1],[0],[0],[4.088908199977595],['tijiao_random_2'],6.9907407407407405,1.5892433999979403,950.0725865999993,951.9852063000144,944.3631445000065,944.3631445000065,944.3631445000065,944.3631445000065,944.3631445000065,944.3631445000065,944.3631445000065,944.3631445000065,0.005816899996716529,944.3631445000065,948.4649470000004,948.4649470000004,948.4649470000004,948.4649470000004,,,,,,,,,,,,,,254,f,23,2023-03-23_10h02.02.229,RL,2022.2.4,60.1956358204529,
1,-0.3,-0.225,0,74,74,74,,,,,,,,,,None,951.9852063000144,951.9852063000144,951.9852063000144,951.9852063000144,951.9852063000144,951.9852063000144,i,0.27521140000317246,952.2859727000177,952.2859727000177,952.2859727000177,952.2859727000177,952.2859727000177,952.2859727000177,952.5834253000212,952.5834253000212,954.461919000023,954.461919000023,954.461919000023,954.461919000023,954.461919000023,954.461919000023,954.461919000023,954.461919000023,954.461919000023,954.461919000023,954.461919000023,954.461919000023,954.461919000023,954.461919000023,954.461919000023,954.461919000023,954.461919000023,,,,,,35,32,59,57,59,33,None,None,,,[],[],[],[],[],[],[],0.2,1,52,[0.08611111111111111],[-0.25555555555555554],[1],[0],[0],[7.413382400001865],['tijiao_random_2'],7.064814814814815,2.053765700024087,966.4778527000162,968.340331400017,956.9783385000192,956.9783385000192,956.9783385000192,956.9783385000192,956.9783385000192,956.9783385000192,956.9783385000192,956.9783385000192,0.005454099999042228,956.9783385000192,964.4060509000265,964.4060509000265,964.4060509000265,964.4060509000265,,,,,,,,,,,,,,254,f,23,2023-03-23_10h02.02.229,RL,2022.2.4,60.1956358204529,
0,0.3,0.225,0,75,75,75,,,,,,,,,,q,1009.2630143999995,1009.2630143999995,1009.2630143999995,1009.2630143999995,1009.2630143999995,1009.2630143999995,i,1.0659291000047233,1010.359898900002,1010.359898900002,1010.359898900002,1010.359898900002,1010.359898900002,1010.359898900002,1010.6586753000156,1010.6586753000156,1012.204310000001,1012.204310000001,1012.204310000001,1012.204310000001,1012.204310000001,1012.204310000001,1012.204310000001,1012.204310000001,1012.204310000001,1012.204310000001,1012.204310000001,1012.204310000001,1012.204310000001,1012.204310000001,1012.204310000001,1012.204310000001,1012.204310000001,,,,,,39,28,52,69,52,55,None,None,56,56,[0.014814814814814815],[-0.28425925925925927],[1],[0],[0],[4.161907699977746],['tijiao'],0.6,0,,[],[],[],[],[],[],[],5.0092592592592595,2.1628815999720246,1021.0788388000219,1023.0578858000226,,,,,,,,,,,1018.8974706000008,1018.8974706000008,1018.8974706000008,1018.8974706000008,1014.7154610000143,1014.7154610000143,1014.7154610000143,1014.7154610000143,1014.7154610000143,1014.7154610000143,1014.7154610000143,1014.7154610000143,0.006902699999045581,1014.7154610000143,968.340331400017,968.340331400017,40.89507699999376,254,f,23,2023-03-23_10h02.02.229,RL,2022.2.4,60.1956358204529,
1,-0.3,-0.225,0,76,76,76,,,,,,,,,,None,1023.0578858000226,1023.0578858000226,1023.0578858000226,1023.0578858000226,1023.0578858000226,1023.0578858000226,i,0.30964220000896603,1023.3905119000119,1023.3905119000119,1023.3905119000119,1023.3905119000119,1023.3905119000119,1023.3905119000119,1023.6898003000242,1023.6898003000242,1024.5540358000144,1024.5540358000144,1024.5540358000144,1024.5540358000144,1024.5540358000144,1024.5540358000144,1024.5540358000144,1024.5540358000144,1024.5540358000144,1024.5540358000144,1024.5540358000144,1024.5540358000144,1024.5540358000144,1024.5540358000144,1024.5540358000144,1024.5540358000144,1024.5540358000144,,,,,,39,29,58,63,58,58,None,None,56,56,[0.12962962962962962],[-0.3277777777777778],[1],[0],[0],[3.1977824000059627],['tijiao'],0.2,0,,[],[],[],[],[],[],[],6.009259259259259,1.6636832000222057,1031.9665155000112,1033.8284592000127,,,,,,,,,,,1030.2850198000087,1030.2850198000087,1030.2850198000087,1030.2850198000087,1027.0654893000028,1027.0654893000028,1027.0654893000028,1027.0654893000028,1027.0654893000028,1027.0654893000028,1027.0654893000028,1027.0654893000028,0.006926899979589507,1027.0654893000028,,,,254,f,23,2023-03-23_10h02.02.229,RL,2022.2.4,60.1956358204529,
0,0.3,0.225,0,77,77,77,,,,,,,,,,None,1033.8284592000127,1033.8284592000127,1033.8284592000127,1033.8284592000127,1033.8284592000127,1033.8284592000127,j,0.35921789999702014,1034.2113546000037,1034.2113546000037,1034.2113546000037,1034.2113546000037,1034.2113546000037,1034.2113546000037,1034.509849300026,1034.509849300026,1035.8731535999977,1035.8731535999977,1035.8731535999977,1035.8731535999977,1035.8731535999977,1035.8731535999977,1035.8731535999977,1035.8731535999977,1035.8731535999977,1035.8731535999977,1035.8731535999977,1035.8731535999977,1035.8731535999977,1035.8731535999977,1035.8731535999977,1035.8731535999977,1035.8731535999977,1038.382311400026,1038.382311400026,1038.382311400026,1038.382311400026,1038.382311400026,31,17,54,64,64,50,5.0,2.1765633999893907,,,[],[],[],[],[],[],[],-0.2,3,,[],[],[],[],[],[],[],None,None,1040.5839338000224,1042.4051739000133,,,,,,,,,,,,,,,,,,,,,,,,,,,,254,f,23,2023-03-23_10h02.02.229,RL,2022.2.4,60.1956358204529,
1,-0.3,-0.225,0,78,78,78,,,,,,,,,,None,1042.4051739000133,1042.4051739000133,1042.4051739000133,1042.4051739000133,1042.4051739000133,1042.4051739000133,i,0.31479610002133995,1042.737993000017,1042.737993000017,1042.737993000017,1042.737993000017,1042.737993000017,1042.737993000017,1043.0370078000124,1043.0370078000124,1044.5994403000223,1044.5994403000223,1044.5994403000223,1044.5994403000223,1044.5994403000223,1044.5994403000223,1044.5994403000223,1044.5994403000223,1044.5994403000223,1044.5994403000223,1044.5994403000223,1044.5994403000223,1044.5994403000223,1044.5994403000223,1044.5994403000223,1044.5994403000223,1044.5994403000223,1047.1084637000167,1047.1084637000167,1047.1084637000167,1047.1084637000167,1047.1084637000167,26,28,48,53,48,33,5.0,1.5450302000099327,,,[],[],[],[],[],[],[],-0.2,2,,[],[],[],[],[],[],[],None,None,1048.6786272000172,1050.2669386000198,,,,,,,,,,,,,,,,,,,,,,,,,,,,254,f,23,2023-03-23_10h02.02.229,RL,2022.2.4,60.1956358204529,
0,0.3,0.225,0,79,79,79,,,,,,,,,,None,1050.2669386000198,1050.2669386000198,1050.2669386000198,1050.2669386000198,1050.2669386000198,1050.2669386000198,j,0.35136050000437535,1050.6499843000202,1050.6499843000202,1050.6499843000202,1050.6499843000202,1050.6499843000202,1050.6499843000202,1050.9486585000122,1050.9486585000122,1052.693582100008,1052.693582100008,1052.693582100008,1052.693582100008,1052.693582100008,1052.693582100008,1052.693582100008,1052.693582100008,1052.693582100008,1052.693582100008,1052.693582100008,1052.693582100008,1052.693582100008,1052.693582100008,1052.693582100008,1052.693582100008,1052.693582100008,,,,,,35,27,54,56,56,55,None,None,,,[],[],[],[],[],[],[],-0.2,1,34,[-0.020370370370370372],[-0.3175925925925926],[1],[0],[0],[3.505108299985295],['tijiao_random_2'],7.148148148148148,1.3218064999964554,1060.0726628000266,1061.73530510001,1055.2128635000263,1055.2128635000263,1055.2128635000263,1055.2128635000263,1055.2128635000263,1055.2128635000263,1055.2128635000263,1055.2128635000263,0.0058302000106778,1055.2128635000263,1058.732965400006,1058.732965400006,1058.732965400006,1058.732965400006,,,,,,,,,,,,,,254,f,23,2023-03-23_10h02.02.229,RL,2022.2.4,60.1956358204529,
1,-0.3,-0.225,0,80,80,80,,,,,,,,,,None,1061.73530510001,1061.73530510001,1061.73530510001,1061.73530510001,1061.73530510001,1061.73530510001,j,0.3331268999900203,1062.103411100019,1062.103411100019,1062.103411100019,1062.103411100019,1062.103411100019,1062.103411100019,1062.4004464000172,1062.4004464000172,1063.3643922000192,1063.3643922000192,1063.3643922000192,1063.3643922000192,1063.3643922000192,1063.3643922000192,1063.3643922000192,1063.3643922000192,1063.3643922000192,1063.3643922000192,1063.3643922000192,1063.3643922000192,1063.3643922000192,1063.3643922000192,1063.3643922000192,1063.3643922000192,1063.3643922000192,1065.8736835000163,1065.8736835000163,1065.8736835000163,1065.8736835000163,1065.8736835000163,40,26,56,62,62,33,6.0,1.9443331000220496,,,[],[],[],[],[],[],[],-0.6,3,,[],[],[],[],[],[],[],None,None,1067.844830600021,1069.747305900004,,,,,,,,,,,,,,,,,,,,,,,,,,,,254,f,23,2023-03-23_10h02.02.229,RL,2022.2.4,60.1956358204529,
0,0.3,0.225,0,81,81,81,,,,,,,,,,None,1069.747305900004,1069.747305900004,1069.747305900004,1069.747305900004,1069.747305900004,1069.747305900004,j,0.7542328000126872,1070.5304001000186,1070.5304001000186,1070.5304001000186,1070.5304001000186,1070.5304001000186,1070.5304001000186,1070.8278478000138,1070.8278478000138,1072.4897187000024,1072.4897187000024,1072.4897187000024,1072.4897187000024,1072.4897187000024,1072.4897187000024,1072.4897187000024,1072.4897187000024,1072.4897187000024,1072.4897187000024,1072.4897187000024,1072.4897187000024,1072.4897187000024,1072.4897187000024,1072.4897187000024,1072.4897187000024,1072.4897187000024,,,,,,26,32,54,57,57,54,None,None,65,65,[0.062037037037037036],[-0.26944444444444443],[1],[0],[0],[4.909579999977723],['tijiao'],-0.6,0,,[],[],[],[],[],[],[],7.833333333333334,2.9093396999815013,1082.8605719000043,1084.7728213000228,,,,,,,,,,,1079.9331776000035,1079.9331776000035,1079.9331776000035,1079.9331776000035,1075.0006189999986,1075.0006189999986,1075.0006189999986,1075.0006189999986,1075.0006189999986,1075.0006189999986,1075.0006189999986,1075.0006189999986,0.006857200001832098,1075.0006189999986,,,,254,f,23,2023-03-23_10h02.02.229,RL,2022.2.4,60.1956358204529,
1,-0.3,-0.225,0,82,82,82,,,,,,,,,,None,1084.7728213000228,1084.7728213000228,1084.7728213000228,1084.7728213000228,1084.7728213000228,1084.7728213000228,i,0.3806359000154771,1085.1741064000234,1085.1741064000234,1085.1741064000234,1085.1741064000234,1085.1741064000234,1085.1741064000234,1085.4712019000144,1085.4712019000144,1086.8837328000227,1086.8837328000227,1086.8837328000227,1086.8837328000227,1086.8837328000227,1086.8837328000227,1086.8837328000227,1086.8837328000227,1086.8837328000227,1086.8837328000227,1086.8837328000227,1086.8837328000227,1086.8837328000227,1086.8837328000227,1086.8837328000227,1086.8837328000227,1086.8837328000227,1089.3927291000145,1089.3927291000145,1089.3927291000145,1089.3927291000145,1089.3927291000145,24,26,50,52,50,44,5.0,1.6782948000181932,,,[],[],[],[],[],[],[],-0.6,3,,[],[],[],[],[],[],[],None,None,1091.0969004000071,1092.9667981000093,,,,,,,,,,,,,,,,,,,,,,,,,,,,254,f,23,2023-03-23_10h02.02.229,RL,2022.2.4,60.1956358204529,
0,0.3,0.225,0,83,83,83,,,,,,,,,,None,1092.9667981000093,1092.9667981000093,1092.9667981000093,1092.9667981000093,1092.9667981000093,1092.9667981000093,j,0.24933589997817762,1093.233313100005,1093.233313100005,1093.233313100005,1093.233313100005,1093.233313100005,1093.233313100005,1093.5324166000064,1093.5324166000064,1094.6625441000215,1094.6625441000215,1094.6625441000215,1094.6625441000215,1094.6625441000215,1094.6625441000215,1094.6625441000215,1094.6625441000215,1094.6625441000215,1094.6625441000215,1094.6625441000215,1094.6625441000215,1094.6625441000215,1094.6625441000215,1094.6625441000215,1094.6625441000215,1094.6625441000215,1097.1717470000149,1097.1717470000149,1097.1717470000149,1097.1717470000149,1097.1717470000149,24,26,43,54,54,41,5.0,1.6614274999883492,,,[],[],[],[],[],[],[],-0.2,2,,[],[],[],[],[],[],[],None,None,1098.8577339000185,1100.6628335000132,,,,,,,,,,,,,,,,,,,,,,,,,,,,254,f,23,2023-03-23_10h02.02.229,RL,2022.2.4,60.1956358204529,
1,-0.3,-0.225,0,84,84,84,,,,,,,,,,None,1100.6628335000132,1100.6628335000132,1100.6628335000132,1100.6628335000132,1100.6628335000132,1100.6628335000132,j,0.40774080000119284,1101.0954471000005,1101.0954471000005,1101.0954471000005,1101.0954471000005,1101.0954471000005,1101.0954471000005,1101.3940828000195,1101.3940828000195,1102.9065848000173,1102.9065848000173,1102.9065848000173,1102.9065848000173,1102.9065848000173,1102.9065848000173,1102.9065848000173,1102.9065848000173,1102.9065848000173,1102.9065848000173,1102.9065848000173,1102.9065848000173,1102.9065848000173,1102.9065848000173,1102.9065848000173,1102.9065848000173,1102.9065848000173,1105.4159626000037,1105.4159626000037,1105.4159626000037,1105.4159626000037,1105.4159626000037,22,27,53,57,57,63,4.0,1.7607874000095762,,,[],[],[],[],[],[],[],-0.2,2,,[],[],[],[],[],[],[],None,None,1107.2021505000012,1109.1559745999984,,,,,,,,,,,,,,,,,,,,,,,,,,,,254,f,23,2023-03-23_10h02.02.229,RL,2022.2.4,60.1956358204529,
0,0.3,0.225,0,85,85,85,,,,,,,,,,None,1109.1559745999984,1109.1559745999984,1109.1559745999984,1109.1559745999984,1109.1559745999984,1109.1559745999984,i,0.2917264999996405,1109.4724402000138,1109.4724402000138,1109.4724402000138,1109.4724402000138,1109.4724402000138,1109.4724402000138,1109.7715643999982,1109.7715643999982,1110.5859894000168,1110.5859894000168,1110.5859894000168,1110.5859894000168,1110.5859894000168,1110.5859894000168,1110.5859894000168,1110.5859894000168,1110.5859894000168,1110.5859894000168,1110.5859894000168,1110.5859894000168,1110.5859894000168,1110.5859894000168,1110.5859894000168,1110.5859894000168,1110.5859894000168,,,,,,25,28,48,51,48,52,None,None,,,[],[],[],[],[],[],[],0.6,1,65,[0.025],[-0.3148148148148148],[1],[0],[0],[5.385308299999451],['tijiao_random_2'],5.805555555555555,2.0203857000160497,1120.5407468000194,1122.5031643000257,1113.103305000026,1113.103305000026,1113.103305000026,1113.103305000026,1113.103305000026,1113.103305000026,1113.103305000026,1113.103305000026,0.005865299986908212,1113.103305000026,1118.501954700012,1118.501954700012,1118.501954700012,1118.501954700012,,,,,,,,,,,,,,254,f,23,2023-03-23_10h02.02.229,RL,2022.2.4,60.1956358204529,
1,-0.3,-0.225,0,86,86,86,,,,,,,,,,None,1122.5031643000257,1122.5031643000257,1122.5031643000257,1122.5031643000257,1122.5031643000257,1122.5031643000257,i,0.25975329999346286,1122.7864938999992,1122.7864938999992,1122.7864938999992,1122.7864938999992,1122.7864938999992,1122.7864938999992,1123.0850624000013,1123.0850624000013,1124.564155,1124.564155,1124.564155,1124.564155,1124.564155,1124.564155,1124.564155,1124.564155,1124.564155,1124.564155,1124.564155,1124.564155,1124.564155,1124.564155,1124.564155,1124.564155,1124.564155,1127.073196500016,1127.073196500016,1127.073196500016,1127.073196500016,1127.073196500016,21,32,56,54,56,55,4.0,1.5451316000253428,,,[],[],[],[],[],[],[],0.2,3,,[],[],[],[],[],[],[],None,None,1128.6435777000152,1130.1656163000152,,,,,,,,,,,,,,,,,,,,,,,,,,,,254,f,23,2023-03-23_10h02.02.229,RL,2022.2.4,60.1956358204529,
0,0.3,0.225,0,87,87,87,,,,,,,,,,None,1130.1656163000152,1130.1656163000152,1130.1656163000152,1130.1656163000152,1130.1656163000152,1130.1656163000152,j,0.3141518000047654,1130.4985861000023,1130.4985861000023,1130.4985861000023,1130.4985861000023,1130.4985861000023,1130.4985861000023,1130.7975002000167,1130.7975002000167,1131.9607824000122,1131.9607824000122,1131.9607824000122,1131.9607824000122,1131.9607824000122,1131.9607824000122,1131.9607824000122,1131.9607824000122,1131.9607824000122,1131.9607824000122,1131.9607824000122,1131.9607824000122,1131.9607824000122,1131.9607824000122,1131.9607824000122,1131.9607824000122,1131.9607824000122,,,,,,20,29,46,52,52,72,None,None,85,85,[-0.019444444444444445],[-0.262037037037037],[1],[0],[0],[4.29383089998737],['tijiao'],0.6,0,,[],[],[],[],[],[],[],4.111111111111111,1.9472442000114825,1140.7523562000133,1142.7479401000019,,,,,,,,,,,1138.7862381000014,1138.7862381000014,1138.7862381000014,1138.7862381000014,1134.472963600012,1134.472963600012,1134.472963600012,1134.472963600012,1134.472963600012,1134.472963600012,1134.472963600012,1134.472963600012,0.007777600025292486,1134.472963600012,,,,254,f,23,2023-03-23_10h02.02.229,RL,2022.2.4,60.1956358204529,
1,-0.3,-0.225,0,88,88,88,,,,,,,,,,None,1142.7479401000019,1142.7479401000019,1142.7479401000019,1142.7479401000019,1142.7479401000019,1142.7479401000019,j,0.3265869000169914,1143.0977155000146,1143.0977155000146,1143.0977155000146,1143.0977155000146,1143.0977155000146,1143.0977155000146,1143.3963558000105,1143.3963558000105,1144.4930333000084,1144.4930333000084,1144.4930333000084,1144.4930333000084,1144.4930333000084,1144.4930333000084,1144.4930333000084,1144.4930333000084,1144.4930333000084,1144.4930333000084,1144.4930333000084,1144.4930333000084,1144.4930333000084,1144.4930333000084,1144.4930333000084,1144.4930333000084,1144.4930333000084,1147.002461199998,1147.002461199998,1147.002461199998,1147.002461199998,1147.002461199998,40,25,47,56,56,69,3.0,1.594149100012146,,,[],[],[],[],[],[],[],0.2,2,,[],[],[],[],[],[],[],None,None,1148.6208713000233,1150.2939721000148,,,,,,,,,,,,,,,,,,,,,,,,,,,,254,f,23,2023-03-23_10h02.02.229,RL,2022.2.4,60.1956358204529,
0,0.3,0.225,0,89,89,89,,,,,,,,,,None,1150.2939721000148,1150.2939721000148,1150.2939721000148,1150.2939721000148,1150.2939721000148,1150.2939721000148,i,0.24867689999518916,1150.5602011000155,1150.5602011000155,1150.5602011000155,1150.5602011000155,1150.5602011000155,1150.5602011000155,1150.8590483000153,1150.8590483000153,1151.8398474999995,1151.8398474999995,1151.8398474999995,1151.8398474999995,1151.8398474999995,1151.8398474999995,1151.8398474999995,1151.8398474999995,1151.8398474999995,1151.8398474999995,1151.8398474999995,1151.8398474999995,1151.8398474999995,1151.8398474999995,1151.8398474999995,1151.8398474999995,1151.8398474999995,1154.3492105000187,1154.3492105000187,1154.3492105000187,1154.3492105000187,1154.3492105000187,37,45,44,51,44,68,2.0,1.9934814000152983,,,[],[],[],[],[],[],[],-0.2,3,,[],[],[],[],[],[],[],None,None,1156.3678674000257,1158.1392163000128,,,,,,,,,,,,,,,,,,,,,,,,,,,,254,f,23,2023-03-23_10h02.02.229,RL,2022.2.4,60.1956358204529,
