bandit0,black_x_pos_random,black_y_pos_random,trials.thisRepN,trials.thisTrialN,trials.thisN,trials.thisIndex,instru_img1.started,instru_img1.stopped,instru_resp.keys,instru_resp.rt,instru_resp.started,instru_resp.stopped,instru_img2.started,instru_img2.stopped,instru_resp2.keys,instru_resp2.rt,instru_resp2.started,instru_resp2.stopped,fixbefore_2.started,fixbefore_2.stopped,rest_image.started,rest_image.stopped,rest_response.keys,rest_response.started,rest_response.stopped,red.started,red.stopped,green.started,green.stopped,yellow.started,yellow.stopped,blue.started,blue.stopped,choose_bandit.keys,choose_bandit.rt,choose_bandit.started,choose_bandit.stopped,Fixation.started,Fixation.stopped,black.started,black.stopped,red_2.started,red_2.stopped,green_2.started,green_2.stopped,yellow_2.started,yellow_2.stopped,blue_2.started,blue_2.stopped,fixation_2.started,fixation_2.stopped,docs.started,docs.stopped,wait_playerB.started,wait_playerB.stopped,black_com.started,black_com.stopped,reward_sub.started,reward_sub.stopped,palyerb.started,palyerb.stopped,reward__sub.started,reward__sub.stopped,compare.started,compare.stopped,red_compare.started,red_compare.stopped,green_com.started,green_com.stopped,yellow_com.started,yellow_com.stopped,blue_com.started,blue_com.stopped,rewardyellow,rewardred,rewardblue,rewardgreen,subchoose,playerb,image_3.started,image_3.stopped,slider.response,slider.rt,slider.started,slider.stopped,text.started,text.stopped,image_4.started,image_4.stopped,image_5.started,image_5.stopped,expectself.text,expectself.started,expectself.stopped,value_expect_self,expect_self_black.started,expect_self_black.stopped,expect_self.started,expect_self.stopped,expect_self_red.started,expect_self_red.stopped,expect_self_green.started,expect_self_green.stopped,expect_self_yellow.started,expect_self_yellow.stopped,expect_self_blue.started,expect_self_blue.stopped,tijiao.started,tijiao.stopped,tijiao_click.started,tijiao_click.stopped,check.started,check.stopped,random_whicharm,whether_ask,jiantou_random.started,jiantou_random.stopped,expect_red.started,expect_red.stopped,expect_green.started,expect_green.stopped,expect_yellow.started,expect_yellow.stopped,expect_blue.started,expect_blue.stopped,expect_random_2.started,expect_random_2.stopped,expect_random_3.text,expect_random_3.started,expect_random_3.stopped,tijiao_random_2.started,tijiao_random_2.stopped,tijiao_random.started,tijiao_random.stopped,check_2.started,check_2.stopped,slider_2.response,slider_2.rt,slider_2.started,slider_2.stopped,image_7.started,image_7.stopped,confi.started,confi.stopped,notconfi.started,notconfi.stopped,bigx.started,bigx.stopped,intertrialfix.started,intertrialfix.stopped,tijiao_click.x,tijiao_click.y,tijiao_click.leftButton,tijiao_click.midButton,tijiao_click.rightButton,tijiao_click.time,tijiao_click.clicked_name,tijiao_random.x,tijiao_random.y,tijiao_random.leftButton,tijiao_random.midButton,tijiao_random.rightButton,tijiao_random.time,tijiao_random.clicked_name,rest_response.rt,participant,Gender,Age,date,expName,psychopyVersion,frameRate,
,,,,,,,19.48559560009744,None,space,2.5251703000394627,19.48559560009744,None,,,,,,,,,,,,,,,,,,,,,,,,,,,,,,,,,,,,,,,,,,,,,,,,,,,,,,,,,,,,,,,,,,,,,,,,,,,,,,,,,,,,,,,,,,,,,,,,,,,,,,,,,,,,,,,,,,,,,,,,,,,,,,,,,,,,,,,,,,,,,,,,,,,,,,,,,,255,f,22,2023_Mar_23_1122,RL,2021.2.3,60.02501843650336,
,,,,,,,,,,,,,22.052943199989386,None,s,40.680889799958095,22.052943199989386,None,,,,,,,,,,,,,,,,,,,,,,,,,,,,,,,,,,,,,,,,,,,,,,,,,,,,,,,,,,,,,,,,,,,,,,,,,,,,,,,,,,,,,,,,,,,,,,,,,,,,,,,,,,,,,,,,,,,,,,,,,,,,,,,,,,,,,,,,,,,,,,,,,,,,255,f,22,2023_Mar_23_1122,RL,2021.2.3,60.02501843650336,
1,-0.3,-0.225,0,0,0,0,,,,,,,,,,,,,62.76232630002778,None,None,None,None,None,None,63.84694379998837,None,63.84694379998837,None,63.84694379998837,None,63.84694379998837,None,i,0.5150568999815732,63.84694379998837,None,63.84694379998837,None,64.47372320003342,None,64.47372320003342,None,64.47372320003342,None,64.47372320003342,None,64.47372320003342,None,64.47372320003342,None,64.77075600007083,None,64.77075600007083,None,65.80927850003354,None,65.80927850003354,None,65.80927850003354,None,65.80927850003354,None,65.80927850003354,None,65.80927850003354,None,65.80927850003354,None,65.80927850003354,None,65.80927850003354,None,52,23,66,49,66,63,68.4349596000975,None,5.0,6.285428400035016,68.4349596000975,None,68.4349596000975,None,68.4349596000975,None,68.4349596000975,None,,None,None,,None,None,None,None,None,None,None,None,None,None,None,None,None,None,None,None,None,None,0.2,3,None,None,None,None,None,None,None,None,None,None,None,None,,None,None,None,None,None,None,None,None,None,None,None,None,None,None,None,None,None,None,None,None,75.37578510004096,None,,,,,,,,,,,,,,,,255,f,22,2023_Mar_23_1122,RL,2021.2.3,60.02501843650336,
0,0.3,0.225,0,1,1,1,,,,,,,,,,,,,,,None,None,None,None,None,77.40263400005642,None,77.40263400005642,None,77.40263400005642,None,77.40263400005642,None,r,0.8192926000338048,77.40263400005642,None,77.40263400005642,None,78.2602171000326,None,78.2602171000326,None,78.2602171000326,None,78.2602171000326,None,78.2602171000326,None,78.2602171000326,None,78.54724250000436,80.18153860000893,78.54724250000436,80.18153860000893,80.21817660005763,None,80.21817660005763,None,80.21817660005763,None,80.21817660005763,None,80.21817660005763,None,80.21817660005763,None,80.21817660005763,None,80.21817660005763,None,80.21817660005763,None,63,26,80,47,63,44,82.73411700001452,None,5.0,2.8693795000435784,82.73411700001452,None,82.73411700001452,None,82.73411700001452,None,82.73411700001452,None,,None,None,,None,None,None,None,None,None,None,None,None,None,None,None,None,None,None,None,None,None,-0.2,2,None,None,None,None,None,None,None,None,None,None,None,None,,None,None,None,None,None,None,None,None,None,None,None,None,None,None,None,None,None,None,None,None,85.66868800006341,None,,,,,,,,,,,,,,,,255,f,22,2023_Mar_23_1122,RL,2021.2.3,60.02501843650336,
1,-0.3,-0.225,0,2,2,2,,,,,,,,,,,,,,,None,None,None,None,None,87.60728100000415,None,87.60728100000415,None,87.60728100000415,None,87.60728100000415,None,j,0.6648802000563592,87.60728100000415,None,87.60728100000415,None,88.3229047000641,None,88.3229047000641,None,88.3229047000641,None,88.3229047000641,None,88.3229047000641,None,88.3229047000641,None,88.62066710006911,None,88.62066710006911,None,90.33781920000911,None,90.33781920000911,None,90.33781920000911,None,90.33781920000911,None,90.33781920000911,None,90.33781920000911,None,90.33781920000911,None,90.33781920000911,None,90.33781920000911,None,62,27,60,44,44,50,92.85380270006135,None,4.0,1.9068219000473619,92.85380270006135,None,92.85380270006135,None,92.85380270006135,None,92.85380270006135,None,,None,None,,None,None,None,None,None,None,None,None,None,None,None,None,None,None,None,None,None,None,-0.2,2,None,None,None,None,None,None,None,None,None,None,None,None,,None,None,None,None,None,None,None,None,None,None,None,None,None,None,None,None,None,None,None,None,94.82889000000432,None,,,,,,,,,,,,,,,,255,f,22,2023_Mar_23_1122,RL,2021.2.3,60.02501843650336,
0,0.3,0.225,0,3,3,3,,,,,,,,,,,,,,,None,None,None,None,None,96.54750490002334,None,96.54750490002334,None,96.54750490002334,None,96.54750490002334,None,r,0.6446412999648601,96.54750490002334,None,96.54750490002334,None,97.23193890007678,None,97.23193890007678,None,97.23193890007678,None,97.23193890007678,None,97.23193890007678,None,97.23193890007678,None,97.52693160006311,99.01120810001157,97.52693160006311,99.01120810001157,99.04334870004095,None,99.04334870004095,None,99.04334870004095,None,99.04334870004095,None,99.04334870004095,None,99.04334870004095,None,99.04334870004095,None,99.04334870004095,None,99.04334870004095,None,51,26,62,42,51,55,101.56796170002781,None,4.0,1.198028099955991,101.56796170002781,None,101.56796170002781,None,101.56796170002781,None,101.56796170002781,None,,None,None,,None,None,None,None,None,None,None,None,None,None,None,None,None,None,None,None,None,None,0.6,2,None,None,None,None,None,None,None,None,None,None,None,None,,None,None,None,None,None,None,None,None,None,None,None,None,None,None,None,None,None,None,None,None,102.81679660000373,None,,,,,,,,,,,,,,,,255,f,22,2023_Mar_23_1122,RL,2021.2.3,60.02501843650336,
1,-0.3,-0.225,0,4,4,4,,,,,,,,,,,,,,,None,None,None,None,None,104.70307130005676,None,104.70307130005676,None,104.70307130005676,None,104.70307130005676,None,i,0.6591508999699727,104.70307130005676,None,104.70307130005676,None,105.40519220009446,None,105.40519220009446,None,105.40519220009446,None,105.40519220009446,None,105.40519220009446,None,105.40519220009446,None,105.69926700007636,None,105.69926700007636,None,106.91729410004336,None,106.91729410004336,None,106.91729410004336,None,106.91729410004336,None,106.91729410004336,None,106.91729410004336,None,106.91729410004336,None,106.91729410004336,None,106.91729410004336,None,55,30,63,48,63,53,109.43073350004852,None,4.0,1.7745642999652773,109.43073350004852,None,109.43073350004852,None,109.43073350004852,None,109.43073350004852,None,,None,None,,None,None,None,None,None,None,None,None,None,None,None,None,None,None,None,None,None,None,-0.2,2,None,None,None,None,None,None,None,None,None,None,None,None,,None,None,None,None,None,None,None,None,None,None,None,None,None,None,None,None,None,None,None,None,111.27244780003093,None,,,,,,,,,,,,,,,,255,f,22,2023_Mar_23_1122,RL,2021.2.3,60.02501843650336,
0,0.3,0.225,0,5,5,5,,,,,,,,,,,,,,,None,None,None,None,None,113.07539250003174,None,113.07539250003174,None,113.07539250003174,None,113.07539250003174,None,r,0.6969052000204101,113.07539250003174,None,113.07539250003174,None,113.80943960009608,None,113.80943960009608,None,113.80943960009608,None,113.80943960009608,None,113.80943960009608,None,113.80943960009608,None,114.10519070003647,115.48949250008445,114.10519070003647,115.48949250008445,115.52489100000821,None,115.52489100000821,None,115.52489100000821,None,115.52489100000821,None,115.52489100000821,None,115.52489100000821,None,115.52489100000821,None,115.52489100000821,None,115.52489100000821,None,50,27,65,54,50,38,118.05042670003604,None,4.0,1.2301268998999149,118.05042670003604,None,118.05042670003604,None,118.05042670003604,None,118.05042670003604,None,,None,None,,None,None,None,None,None,None,None,None,None,None,None,None,None,None,None,None,None,None,-0.2,3,None,None,None,None,None,None,None,None,None,None,None,None,,None,None,None,None,None,None,None,None,None,None,None,None,None,None,None,None,None,None,None,None,119.33130970003549,None,,,,,,,,,,,,,,,,255,f,22,2023_Mar_23_1122,RL,2021.2.3,60.02501843650336,
1,-0.3,-0.225,0,6,6,6,,,,,,,,,,,,,,,None,None,None,None,None,121.23124420002569,None,121.23124420002569,None,121.23124420002569,None,121.23124420002569,None,f,0.4710715999826789,121.23124420002569,None,121.23124420002569,None,121.75572080002166,None,121.75572080002166,None,121.75572080002166,None,121.75572080002166,None,121.75572080002166,None,121.75572080002166,None,122.04391980008222,123.07788710005116,122.04391980008222,123.07788710005116,123.11542990000453,None,123.11542990000453,None,123.11542990000453,None,123.11542990000453,None,123.11542990000453,None,123.11542990000453,None,123.11542990000453,None,123.11542990000453,None,123.11542990000453,None,50,14,50,40,14,34,None,None,None,None,None,None,None,None,None,None,None,None,46,125.69055940001272,None,46,125.69055940001272,None,125.69055940001272,None,125.69055940001272,None,125.69055940001272,None,125.69055940001272,None,125.69055940001272,None,125.69055940001272,None,0.016514600021764636,None,125.69055940001272,None,0.6,0,None,None,None,None,None,None,None,None,None,None,None,None,,None,None,None,None,None,None,None,None,7.3671875,2.944067999953404,135.4249465999892,None,135.4249465999892,None,135.4249465999892,None,135.4249465999892,None,None,None,138.3878274000017,None,-0.01953125,-0.29296875,1,0,0,9.657760999980383,tijiao,,,,,,,,,255,f,22,2023_Mar_23_1122,RL,2021.2.3,60.02501843650336,
0,0.3,0.225,0,7,7,7,,,,,,,,,,,,,,,None,None,None,None,None,140.02749110001605,None,140.02749110001605,None,140.02749110001605,None,140.02749110001605,None,r,0.714815599960275,140.02749110001605,None,140.02749110001605,None,140.79538670007605,None,140.79538670007605,None,140.79538670007605,None,140.79538670007605,None,140.79538670007605,None,140.79538670007605,None,141.09054810006637,142.7749009000836,141.09054810006637,142.7749009000836,142.80621990002692,None,142.80621990002692,None,142.80621990002692,None,142.80621990002692,None,142.80621990002692,None,142.80621990002692,None,142.80621990002692,None,142.80621990002692,None,142.80621990002692,None,53,27,56,46,53,33,None,None,None,None,None,None,None,None,None,None,None,None,50,145.33500760002062,None,50,145.33500760002062,None,145.33500760002062,None,145.33500760002062,None,145.33500760002062,None,145.33500760002062,None,145.33500760002062,None,145.33500760002062,None,0.00044049997813999653,None,145.33500760002062,None,-0.6,0,None,None,None,None,None,None,None,None,None,None,None,None,,None,None,None,None,None,None,None,None,5.973958333333333,2.5147800999693573,150.40450040006544,None,150.40450040006544,None,150.40450040006544,None,150.40450040006544,None,None,None,152.94644040009007,None,0.13020833333333334,-0.3072916666666667,1,0,0,5.022049099905416,tijiao,,,,,,,,,255,f,22,2023_Mar_23_1122,RL,2021.2.3,60.02501843650336,
1,-0.3,-0.225,0,8,8,8,,,,,,,,,,,,,,,None,None,None,None,None,154.80415800004266,None,154.80415800004266,None,154.80415800004266,None,154.80415800004266,None,i,0.9382096999324858,154.80415800004266,None,154.80415800004266,None,155.79044080001768,None,155.79044080001768,None,155.79044080001768,None,155.79044080001768,None,155.79044080001768,None,155.79044080001768,None,156.08422910002992,None,156.08422910002992,None,157.2506362000713,None,157.2506362000713,None,157.2506362000713,None,157.2506362000713,None,157.2506362000713,None,157.2506362000713,None,157.2506362000713,None,157.2506362000713,None,157.2506362000713,None,52,35,56,45,56,37,159.7670648000203,None,3.0,1.739582399954088,159.7670648000203,None,159.7670648000203,None,159.7670648000203,None,159.7670648000203,None,,None,None,,None,None,None,None,None,None,None,None,None,None,None,None,None,None,None,None,None,None,0.6,3,None,None,None,None,None,None,None,None,None,None,None,None,,None,None,None,None,None,None,None,None,None,None,None,None,None,None,None,None,None,None,None,None,161.58759280003142,None,,,,,,,,,,,,,,,,255,f,22,2023_Mar_23_1122,RL,2021.2.3,60.02501843650336,
0,0.3,0.225,0,9,9,9,,,,,,,,,,,,,,,None,None,None,None,None,163.4274506000802,None,163.4274506000802,None,163.4274506000802,None,163.4274506000802,None,r,0.685096500092186,163.4274506000802,None,163.4274506000802,None,164.16250950004905,None,164.16250950004905,None,164.16250950004905,None,164.16250950004905,None,164.16250950004905,None,164.16250950004905,None,164.456699600094,None,164.456699600094,None,165.3386239000829,None,165.3386239000829,None,165.3386239000829,None,165.3386239000829,None,165.3386239000829,None,165.3386239000829,None,165.3386239000829,None,165.3386239000829,None,165.3386239000829,None,60,29,49,49,60,37,None,None,None,None,None,None,None,None,None,None,None,None,,None,None,,None,None,None,None,None,None,None,None,None,None,None,None,None,None,None,None,None,None,0.2,1,167.88984930003062,None,167.88984930003062,None,167.88984930003062,None,167.88984930003062,None,167.88984930003062,None,167.88984930003062,None,30,167.88984930003062,None,167.88984930003062,None,0.012255399953573942,None,167.88984930003062,None,3.9296875,3.0869502999121323,172.52958289999515,None,172.52958289999515,None,172.52958289999515,None,172.52958289999515,None,None,None,175.64570370002184,None,,,,,,,,0.0390625,-0.3020833333333333,1,0,0,4.5837201999966055,tijiao_random_2,,255,f,22,2023_Mar_23_1122,RL,2021.2.3,60.02501843650336,
1,-0.3,-0.225,0,10,10,10,,,,,,,,,,,,,,,None,None,None,None,None,177.57041650009342,None,177.57041650009342,None,177.57041650009342,None,177.57041650009342,None,f,0.3832455000374466,177.57041650009342,None,177.57041650009342,None,178.0042413000483,None,178.0042413000483,None,178.0042413000483,None,178.0042413000483,None,178.0042413000483,None,178.0042413000483,None,178.29972340003587,180.03418970003258,178.29972340003587,180.03418970003258,180.06650439999066,None,180.06650439999066,None,180.06650439999066,None,180.06650439999066,None,180.06650439999066,None,180.06650439999066,None,180.06650439999066,None,180.06650439999066,None,180.06650439999066,None,53,26,53,42,26,67,182.58192670007702,None,1.0,2.5907009999500588,182.58192670007702,None,182.58192670007702,None,182.58192670007702,None,182.58192670007702,None,,None,None,,None,None,None,None,None,None,None,None,None,None,None,None,None,None,None,None,None,None,0.2,3,None,None,None,None,None,None,None,None,None,None,None,None,,None,None,None,None,None,None,None,None,None,None,None,None,None,None,None,None,None,None,None,None,185.22576120006852,None,,,,,,,,,,,,,,,,255,f,22,2023_Mar_23_1122,RL,2021.2.3,60.02501843650336,
0,0.3,0.225,0,11,11,11,,,,,,,,,,,,,,,None,None,None,None,None,186.82669570005964,None,186.82669570005964,None,186.82669570005964,None,186.82669570005964,None,i,0.957411399926059,186.82669570005964,None,186.82669570005964,None,187.83082190004643,None,187.83082190004643,None,187.83082190004643,None,187.83082190004643,None,187.83082190004643,None,187.83082190004643,None,188.12322430009954,188.95736390003003,188.12322430009954,188.95736390003003,188.989748800057,None,188.989748800057,None,188.989748800057,None,188.989748800057,None,188.989748800057,None,188.989748800057,None,188.989748800057,None,188.989748800057,None,188.989748800057,None,57,26,65,38,65,49,None,None,None,None,None,None,None,None,None,None,None,None,48,191.5172082000645,None,48,191.5172082000645,None,191.5172082000645,None,191.5172082000645,None,191.5172082000645,None,191.5172082000645,None,191.5172082000645,None,191.5172082000645,None,0.0005177999846637249,None,191.5172082000645,None,0.2,0,None,None,None,None,None,None,None,None,None,None,None,None,,None,None,None,None,None,None,None,None,4.828125,2.4636147000128403,197.83570940000936,None,197.83570940000936,None,197.83570940000936,None,197.83570940000936,None,None,None,200.3293774999911,None,0.05859375,-0.2903645833333333,1,0,0,6.2723323999671265,tijiao,,,,,,,,,255,f,22,2023_Mar_23_1122,RL,2021.2.3,60.02501843650336,
1,-0.3,-0.225,0,12,12,12,,,,,,,,,,,,,,,None,None,None,None,None,202.28730440000072,None,202.28730440000072,None,202.28730440000072,None,202.28730440000072,None,r,0.5666789000388235,202.28730440000072,None,202.28730440000072,None,202.9032568000257,None,202.9032568000257,None,202.9032568000257,None,202.9032568000257,None,202.9032568000257,None,202.9032568000257,None,203.20041520008817,None,203.20041520008817,None,204.18539440003224,None,204.18539440003224,None,204.18539440003224,None,204.18539440003224,None,204.18539440003224,None,204.18539440003224,None,204.18539440003224,None,204.18539440003224,None,204.18539440003224,None,48,26,56,48,48,35,None,None,None,None,None,None,None,None,None,None,None,None,79,206.71013120003045,None,79,206.71013120003045,None,206.71013120003045,None,206.71013120003045,None,206.71013120003045,None,206.71013120003045,None,206.71013120003045,None,206.71013120003045,None,0.00012919993605464697,None,206.71013120003045,None,0.6,0,None,None,None,None,None,None,None,None,None,None,None,None,,None,None,None,None,None,None,None,None,6.677083333333334,2.470892500015907,214.84587730001658,None,214.84587730001658,None,214.84587730001658,None,214.84587730001658,None,None,None,217.34116720000748,None,-0.024739583333333332,-0.2981770833333333,1,0,0,8.089592600008473,tijiao,,,,,,,,,255,f,22,2023_Mar_23_1122,RL,2021.2.3,60.02501843650336,
0,0.3,0.225,0,13,13,13,,,,,,,,,,,,,,,None,None,None,None,None,219.01590510003734,None,219.01590510003734,None,219.01590510003734,None,219.01590510003734,None,j,0.44792710000183433,219.01590510003734,None,219.01590510003734,None,219.51703099999577,None,219.51703099999577,None,219.51703099999577,None,219.51703099999577,None,219.51703099999577,None,219.51703099999577,None,219.81182980001904,None,219.81182980001904,None,221.31000709999353,None,221.31000709999353,None,221.31000709999353,None,221.31000709999353,None,221.31000709999353,None,221.31000709999353,None,221.31000709999353,None,221.31000709999353,None,221.31000709999353,None,49,30,63,44,44,71,223.83635750005487,None,3.0,1.7984268999425694,223.83635750005487,None,223.83635750005487,None,223.83635750005487,None,223.83635750005487,None,,None,None,,None,None,None,None,None,None,None,None,None,None,None,None,None,None,None,None,None,None,0.6,3,None,None,None,None,None,None,None,None,None,None,None,None,,None,None,None,None,None,None,None,None,None,None,None,None,None,None,None,None,None,None,None,None,225.6891287000617,None,,,,,,,,,,,,,,,,255,f,22,2023_Mar_23_1122,RL,2021.2.3,60.02501843650336,
1,-0.3,-0.225,0,14,14,14,,,,,,,,,,,,,,,None,None,None,None,None,227.2379801000934,None,227.2379801000934,None,227.2379801000934,None,227.2379801000934,None,r,0.7560400000074878,227.2379801000934,None,227.2379801000934,None,228.03973170008976,None,228.03973170008976,None,228.03973170008976,None,228.03973170008976,None,228.03973170008976,None,228.03973170008976,None,228.3343197000213,230.25240420002956,228.3343197000213,230.25240420002956,230.2860753000714,None,230.2860753000714,None,230.2860753000714,None,230.2860753000714,None,230.2860753000714,None,230.2860753000714,None,230.2860753000714,None,230.2860753000714,None,230.2860753000714,None,60,31,57,55,60,62,232.8091733000474,None,1.0,2.6829781000269577,232.8091733000474,None,232.8091733000474,None,232.8091733000474,None,232.8091733000474,None,,None,None,,None,None,None,None,None,None,None,None,None,None,None,None,None,None,None,None,None,None,0.2,2,None,None,None,None,None,None,None,None,None,None,None,None,,None,None,None,None,None,None,None,None,None,None,None,None,None,None,None,None,None,None,None,None,235.5445985000115,None,,,,,,,,,,,,,,,,255,f,22,2023_Mar_23_1122,RL,2021.2.3,60.02501843650336,
0,0.3,0.225,0,15,15,15,,,,,,,,,,,,,,,None,None,None,None,None,237.09481610008515,None,237.09481610008515,None,237.09481610008515,None,237.09481610008515,None,i,0.4692069999873638,237.09481610008515,None,237.09481610008515,None,237.61271010001656,None,237.61271010001656,None,237.61271010001656,None,237.61271010001656,None,237.61271010001656,None,237.61271010001656,None,237.90756830002647,None,237.90756830002647,None,239.34580370003823,None,239.34580370003823,None,239.34580370003823,None,239.34580370003823,None,239.34580370003823,None,239.34580370003823,None,239.34580370003823,None,239.34580370003823,None,239.34580370003823,None,51,30,57,52,57,65,241.87474660004955,None,2.0,1.7050817999988794,241.87474660004955,None,241.87474660004955,None,241.87474660004955,None,241.87474660004955,None,,None,None,,None,None,None,None,None,None,None,None,None,None,None,None,None,None,None,None,None,None,-0.6,3,None,None,None,None,None,None,None,None,None,None,None,None,,None,None,None,None,None,None,None,None,None,None,None,None,None,None,None,None,None,None,None,None,243.63150410004891,None,,,,,,,,,,,,,,,,255,f,22,2023_Mar_23_1122,RL,2021.2.3,60.02501843650336,
1,-0.3,-0.225,0,16,16,16,,,,,,,,,,,,,,,None,None,None,None,None,245.56725690001622,None,245.56725690001622,None,245.56725690001622,None,245.56725690001622,None,f,0.4068222000496462,245.56725690001622,None,245.56725690001622,None,246.01978940004483,None,246.01978940004483,None,246.01978940004483,None,246.01978940004483,None,246.01978940004483,None,246.01978940004483,None,246.31341619999148,247.4474368999945,246.31341619999148,247.4474368999945,247.48017650004476,None,247.48017650004476,None,247.48017650004476,None,247.48017650004476,None,247.48017650004476,None,247.48017650004476,None,247.48017650004476,None,247.48017650004476,None,247.48017650004476,None,45,33,57,56,33,65,None,None,None,None,None,None,None,None,None,None,None,None,,None,None,,None,None,None,None,None,None,None,None,None,None,None,None,None,None,None,None,None,None,0.2,1,250.02663890004624,None,250.02663890004624,None,250.02663890004624,None,250.02663890004624,None,250.02663890004624,None,250.02663890004624,None,30,250.02663890004624,None,250.02663890004624,None,0.014472599956206977,None,250.02663890004624,None,1.9765625,3.9213269000174478,256.3945499000838,None,256.3945499000838,None,256.3945499000838,None,256.3945499000838,None,None,None,260.3378378000343,None,,,,,,,,-0.0546875,-0.3059895833333333,1,0,0,6.336651699966751,tijiao_random_2,,255,f,22,2023_Mar_23_1122,RL,2021.2.3,60.02501843650336,
0,0.3,0.225,0,17,17,17,,,,,,,,,,,,,,,None,None,None,None,None,262.1120125000598,None,262.1120125000598,None,262.1120125000598,None,262.1120125000598,None,r,0.4621906999964267,262.1120125000598,None,262.1120125000598,None,262.6146869000513,None,262.6146869000513,None,262.6146869000513,None,262.6146869000513,None,262.6146869000513,None,262.6146869000513,None,262.9083377000643,None,262.9083377000643,None,263.87341960007325,None,263.87341960007325,None,263.87341960007325,None,263.87341960007325,None,263.87341960007325,None,263.87341960007325,None,263.87341960007325,None,263.87341960007325,None,263.87341960007325,None,65,23,57,51,65,64,266.3994025000138,None,5.0,2.8345848999451846,266.3994025000138,None,266.3994025000138,None,266.3994025000138,None,266.3994025000138,None,,None,None,,None,None,None,None,None,None,None,None,None,None,None,None,None,None,None,None,None,None,0.2,2,None,None,None,None,None,None,None,None,None,None,None,None,,None,None,None,None,None,None,None,None,None,None,None,None,None,None,None,None,None,None,None,None,269.2966136999894,None,,,,,,,,,,,,,,,,255,f,22,2023_Mar_23_1122,RL,2021.2.3,60.02501843650336,
1,-0.3,-0.225,0,18,18,18,,,,,,,,,,,,,,,None,None,None,None,None,271.1670195000479,None,271.1670195000479,None,271.1670195000479,None,271.1670195000479,None,j,0.7272061000112444,271.1670195000479,None,271.1670195000479,None,271.9430028999923,None,271.9430028999923,None,271.9430028999923,None,271.9430028999923,None,271.9430028999923,None,271.9430028999923,None,272.2314819000894,None,272.2314819000894,None,273.76107700006105,None,273.76107700006105,None,273.76107700006105,None,273.76107700006105,None,273.76107700006105,None,273.76107700006105,None,273.76107700006105,None,273.76107700006105,None,273.76107700006105,None,56,17,59,56,56,66,276.2841233999934,None,3.0,2.172296099946834,276.2841233999934,None,276.2841233999934,None,276.2841233999934,None,276.2841233999934,None,,None,None,,None,None,None,None,None,None,None,None,None,None,None,None,None,None,None,None,None,None,-0.2,3,None,None,None,None,None,None,None,None,None,None,None,None,,None,None,None,None,None,None,None,None,None,None,None,None,None,None,None,None,None,None,None,None,278.51493150007445,None,,,,,,,,,,,,,,,,255,f,22,2023_Mar_23_1122,RL,2021.2.3,60.02501843650336,
0,0.3,0.225,0,19,19,19,,,,,,,,,,,,,,,None,None,None,None,None,280.3581358999945,None,280.3581358999945,None,280.3581358999945,None,280.3581358999945,None,r,0.5762063000584021,280.3581358999945,None,280.3581358999945,None,280.979347400018,None,280.979347400018,None,280.979347400018,None,280.979347400018,None,280.979347400018,None,280.979347400018,None,281.27127030002885,282.68894180003554,281.27127030002885,282.68894180003554,282.7204767999938,None,282.7204767999938,None,282.7204767999938,None,282.7204767999938,None,282.7204767999938,None,282.7204767999938,None,282.7204767999938,None,282.7204767999938,None,282.7204767999938,None,45,19,54,66,45,75,285.2449059000937,None,1.0,1.5986174000427127,285.2449059000937,None,285.2449059000937,None,285.2449059000937,None,285.2449059000937,None,,None,None,,None,None,None,None,None,None,None,None,None,None,None,None,None,None,None,None,None,None,0.6,2,None,None,None,None,None,None,None,None,None,None,None,None,,None,None,None,None,None,None,None,None,None,None,None,None,None,None,None,None,None,None,None,None,286.89709410001524,None,,,,,,,,,,,,,,,,255,f,22,2023_Mar_23_1122,RL,2021.2.3,60.02501843650336,
1,-0.3,-0.225,0,20,20,20,,,,,,,,,,,,,,,None,None,None,None,None,288.79711660009343,None,288.79711660009343,None,288.79711660009343,None,288.79711660009343,None,f,0.7673949999734759,288.79711660009343,None,288.79711660009343,None,289.61645880003925,None,289.61645880003925,None,289.61645880003925,None,289.61645880003925,None,289.61645880003925,None,289.61645880003925,None,289.91050980007276,None,289.91050980007276,None,290.8090043000411,None,290.8090043000411,None,290.8090043000411,None,290.8090043000411,None,290.8090043000411,None,290.8090043000411,None,290.8090043000411,None,290.8090043000411,None,290.8090043000411,None,50,27,59,57,27,58,293.3258511000313,None,1.0,1.0053409999236465,293.3258511000313,None,293.3258511000313,None,293.3258511000313,None,293.3258511000313,None,,None,None,,None,None,None,None,None,None,None,None,None,None,None,None,None,None,None,None,None,None,-0.2,3,None,None,None,None,None,None,None,None,None,None,None,None,,None,None,None,None,None,None,None,None,None,None,None,None,None,None,None,None,None,None,None,None,294.39413140004035,None,,,,,,,,,,,,,,,,255,f,22,2023_Mar_23_1122,RL,2021.2.3,60.02501843650336,
0,0.3,0.225,0,21,21,21,,,,,,,,,,,,,,,None,None,None,None,None,296.0012781000696,None,296.0012781000696,None,296.0012781000696,None,296.0012781000696,None,j,0.6842087999684736,296.0012781000696,None,296.0012781000696,None,296.7399865000043,None,296.7399865000043,None,296.7399865000043,None,296.7399865000043,None,296.7399865000043,None,296.7399865000043,None,297.0156899000285,298.6500641000457,297.0156899000285,298.6500641000457,298.68156500009354,None,298.68156500009354,None,298.68156500009354,None,298.68156500009354,None,298.68156500009354,None,298.68156500009354,None,298.68156500009354,None,298.68156500009354,None,298.68156500009354,None,48,32,64,63,63,68,301.1980116000632,None,1.0,0.8035751000279561,301.1980116000632,None,301.1980116000632,None,301.1980116000632,None,301.1980116000632,None,,None,None,,None,None,None,None,None,None,None,None,None,None,None,None,None,None,None,None,None,None,0.2,3,None,None,None,None,None,None,None,None,None,None,None,None,,None,None,None,None,None,None,None,None,None,None,None,None,None,None,None,None,None,None,None,None,302.07095369999297,None,,,,,,,,,,,,,,,,255,f,22,2023_Mar_23_1122,RL,2021.2.3,60.02501843650336,
1,-0.3,-0.225,0,22,22,22,,,,,,,,,,,,,,,None,None,None,None,None,303.7237152000889,None,303.7237152000889,None,303.7237152000889,None,303.7237152000889,None,i,0.6306631000479683,303.7237152000889,None,303.7237152000889,None,304.3974989000708,None,304.3974989000708,None,304.3974989000708,None,304.3974989000708,None,304.3974989000708,None,304.3974989000708,None,304.68741240003146,306.10511570004746,304.68741240003146,306.10511570004746,306.1369883000152,None,306.1369883000152,None,306.1369883000152,None,306.1369883000152,None,306.1369883000152,None,306.1369883000152,None,306.1369883000152,None,306.1369883000152,None,306.1369883000152,None,52,29,63,57,63,59,None,None,None,None,None,None,None,None,None,None,None,None,,None,None,,None,None,None,None,None,None,None,None,None,None,None,None,None,None,None,None,None,None,-0.6,1,308.68850170006044,None,308.68850170006044,None,308.68850170006044,None,308.68850170006044,None,308.68850170006044,None,308.68850170006044,None,67,308.68850170006044,None,308.68850170006044,None,0.009588200016878545,None,308.68850170006044,None,1.0390625,4.4418103999923915,315.4619432000909,None,315.4619432000909,None,315.4619432000909,None,315.4619432000909,None,None,None,319.92938490002416,None,,,,,,,,-0.06770833333333333,-0.28515625,1,0,0,6.732537299976684,tijiao_random_2,,255,f,22,2023_Mar_23_1122,RL,2021.2.3,60.02501843650336,
0,0.3,0.225,0,23,23,23,,,,,,,,,,,,,,,None,None,None,None,None,321.6697587000672,None,321.6697587000672,None,321.6697587000672,None,321.6697587000672,None,r,0.544949600007385,321.6697587000672,None,321.6697587000672,None,322.2551536000101,None,322.2551536000101,None,322.2551536000101,None,322.2551536000101,None,322.2551536000101,None,322.2551536000101,None,322.5497521000216,None,322.5497521000216,None,324.54958320001606,None,324.54958320001606,None,324.54958320001606,None,324.54958320001606,None,324.54958320001606,None,324.54958320001606,None,324.54958320001606,None,324.54958320001606,None,324.54958320001606,None,57,28,65,69,57,74,None,None,None,None,None,None,None,None,None,None,None,None,,None,None,,None,None,None,None,None,None,None,None,None,None,None,None,None,None,None,None,None,None,0.6,1,327.09431180008687,None,327.09431180008687,None,327.09431180008687,None,327.09431180008687,None,327.09431180008687,None,327.09431180008687,None,76,327.09431180008687,None,327.09431180008687,None,0.016495899995788932,None,327.09431180008687,None,1,2.4040389000438154,332.358267200063,None,332.358267200063,None,332.358267200063,None,332.358267200063,None,None,None,334.78963030001614,None,,,,,,,,-0.057291666666666664,-0.2903645833333333,1,0,0,5.220591600053012,tijiao_random_2,,255,f,22,2023_Mar_23_1122,RL,2021.2.3,60.02501843650336,
1,-0.3,-0.225,0,24,24,24,,,,,,,,,,,,,,,None,None,None,None,None,336.4642114000162,None,336.4642114000162,None,336.4642114000162,None,336.4642114000162,None,i,0.5215162000386044,336.4642114000162,None,336.4642114000162,None,337.0332735000411,None,337.0332735000411,None,337.0332735000411,None,337.0332735000411,None,337.0332735000411,None,337.0332735000411,None,337.32662920001894,None,337.32662920001894,None,338.80642630008515,None,338.80642630008515,None,338.80642630008515,None,338.80642630008515,None,338.80642630008515,None,338.80642630008515,None,338.80642630008515,None,338.80642630008515,None,338.80642630008515,None,54,30,67,77,67,65,341.3280221000314,None,4.0,2.955521499970928,341.3280221000314,None,341.3280221000314,None,341.3280221000314,None,341.3280221000314,None,,None,None,,None,None,None,None,None,None,None,None,None,None,None,None,None,None,None,None,None,None,-0.6,2,None,None,None,None,None,None,None,None,None,None,None,None,,None,None,None,None,None,None,None,None,None,None,None,None,None,None,None,None,None,None,None,None,344.3431009000633,None,,,,,,,,,,,,,,,,255,f,22,2023_Mar_23_1122,RL,2021.2.3,60.02501843650336,
0,0.3,0.225,0,25,25,25,,,,,,,,,,,,,,,None,None,None,None,None,345.95382320007775,None,345.95382320007775,None,345.95382320007775,None,345.95382320007775,None,i,0.8019199999980628,345.95382320007775,None,345.95382320007775,None,346.80608400003985,None,346.80608400003985,None,346.80608400003985,None,346.80608400003985,None,346.80608400003985,None,346.80608400003985,None,347.1001326000551,348.51772160001565,347.1001326000551,348.51772160001565,348.54939540009946,None,348.54939540009946,None,348.54939540009946,None,348.54939540009946,None,348.54939540009946,None,348.54939540009946,None,348.54939540009946,None,348.54939540009946,None,348.54939540009946,None,38,24,67,77,67,68,None,None,None,None,None,None,None,None,None,None,None,None,,None,None,,None,None,None,None,None,None,None,None,None,None,None,None,None,None,None,None,None,None,-0.2,1,351.09645770001225,None,351.09645770001225,None,351.09645770001225,None,351.09645770001225,None,351.09645770001225,None,351.09645770001225,None,99,351.09645770001225,None,351.09645770001225,None,0.01416089991107583,None,351.09645770001225,None,10.869791666666668,2.3303680000826716,365.4401970000472,None,365.4401970000472,None,365.4401970000472,None,365.4401970000472,None,None,None,367.7961229000939,None,,,,,,,,0.07552083333333333,-0.2942708333333333,1,0,0,4.552186799934134,tijiao_random_2,,255,f,22,2023_Mar_23_1122,RL,2021.2.3,60.02501843650336,
1,-0.3,-0.225,0,26,26,26,,,,,,,,,,,,,,,None,None,None,None,None,369.7206432000967,None,369.7206432000967,None,369.7206432000967,None,369.7206432000967,None,r,0.4453739000018686,369.7206432000967,None,369.7206432000967,None,370.2049684000667,None,370.2049684000667,None,370.2049684000667,None,370.2049684000667,None,370.2049684000667,None,370.2049684000667,None,370.4997193000745,371.76725230005104,370.4997193000745,371.76725230005104,371.7990620000055,None,371.7990620000055,None,371.7990620000055,None,371.7990620000055,None,371.7990620000055,None,371.7990620000055,None,371.7990620000055,None,371.7990620000055,None,371.7990620000055,None,59,22,66,73,59,58,374.3168888000073,None,3.0,2.473652199958451,374.3168888000073,None,374.3168888000073,None,374.3168888000073,None,374.3168888000073,None,,None,None,,None,None,None,None,None,None,None,None,None,None,None,None,None,None,None,None,None,None,0.2,3,None,None,None,None,None,None,None,None,None,None,None,None,,None,None,None,None,None,None,None,None,None,None,None,None,None,None,None,None,None,None,None,None,376.85827970004175,None,,,,,,,,,,,,,,,,255,f,22,2023_Mar_23_1122,RL,2021.2.3,60.02501843650336,
0,0.3,0.225,0,27,27,27,,,,,,,,,,,,,,,None,None,None,None,None,378.8266387000913,None,378.8266387000913,None,378.8266387000913,None,378.8266387000913,None,f,0.6094157999614254,378.8266387000913,None,378.8266387000913,None,379.47788290004246,None,379.47788290004246,None,379.47788290004246,None,379.47788290004246,None,379.47788290004246,None,379.47788290004246,None,379.7729770001024,380.6068780000787,379.7729770001024,380.6068780000787,380.63977310003247,None,380.63977310003247,None,380.63977310003247,None,380.63977310003247,None,380.63977310003247,None,380.63977310003247,None,380.63977310003247,None,380.63977310003247,None,380.63977310003247,None,53,21,64,74,21,67,None,None,None,None,None,None,None,None,None,None,None,None,,None,None,,None,None,None,None,None,None,None,None,None,None,None,None,None,None,None,None,None,None,-0.6,1,383.18447169999126,None,383.18447169999126,None,383.18447169999126,None,383.18447169999126,None,383.18447169999126,None,383.18447169999126,None,99,383.18447169999126,None,383.18447169999126,None,0.01614039996638894,None,383.18447169999126,None,1.0,1.1007861000252888,386.8845302000409,None,386.8845302000409,None,386.8845302000409,None,386.8845302000409,None,None,None,388.009716700064,None,,,,,,,,0.036458333333333336,-0.29296875,1,0,0,3.6694217999465764,tijiao_random_2,,255,f,22,2023_Mar_23_1122,RL,2021.2.3,60.02501843650336,
1,-0.3,-0.225,0,28,28,28,,,,,,,,,,,,,,,None,None,None,None,None,389.61730430007447,None,389.61730430007447,None,389.61730430007447,None,389.61730430007447,None,f,0.7487625000067055,389.61730430007447,None,389.61730430007447,None,390.4206026000902,None,390.4206026000902,None,390.4206026000902,None,390.4206026000902,None,390.4206026000902,None,390.4206026000902,None,390.7137961999979,392.5818510000827,390.7137961999979,392.5818510000827,392.6135097000515,None,392.6135097000515,None,392.6135097000515,None,392.6135097000515,None,392.6135097000515,None,392.6135097000515,None,392.6135097000515,None,392.6135097000515,None,392.6135097000515,None,44,26,59,69,26,70,395.1381544000469,None,1.0,5.370493299909867,395.1381544000469,None,395.1381544000469,None,395.1381544000469,None,395.1381544000469,None,,None,None,,None,None,None,None,None,None,None,None,None,None,None,None,None,None,None,None,None,None,-0.2,3,None,None,None,None,None,None,None,None,None,None,None,None,,None,None,None,None,None,None,None,None,None,None,None,None,None,None,None,None,None,None,None,None,400.5635629000608,None,,,,,,,,,,,,,,,,255,f,22,2023_Mar_23_1122,RL,2021.2.3,60.02501843650336,
0,0.3,0.225,0,29,29,29,,,,,,,,,,,,,,,None,None,None,None,None,402.3762279000366,None,402.3762279000366,None,402.3762279000366,None,402.3762279000366,None,f,0.8499172000447288,402.3762279000366,None,402.3762279000366,None,403.2777320999885,None,403.2777320999885,None,403.2777320999885,None,403.2777320999885,None,403.2777320999885,None,403.2777320999885,None,403.57285930006765,404.5399672000203,403.57285930006765,404.5399672000203,404.57736680004746,None,404.57736680004746,None,404.57736680004746,None,404.57736680004746,None,404.57736680004746,None,404.57736680004746,None,404.57736680004746,None,404.57736680004746,None,404.57736680004746,None,47,17,74,63,17,61,None,None,None,None,None,None,None,None,None,None,None,None,,None,None,,None,None,None,None,None,None,None,None,None,None,None,None,None,None,None,None,None,None,0.2,1,407.1206141000148,None,407.1206141000148,None,407.1206141000148,None,407.1206141000148,None,407.1206141000148,None,407.1206141000148,None,99,407.1206141000148,None,407.1206141000148,None,0.013360499870032072,None,407.1206141000148,None,8.057291666666666,3.0976063000271097,412.8697076000972,None,412.8697076000972,None,412.8697076000972,None,412.8697076000972,None,None,None,415.9960909000365,None,,,,,,,,0.0078125,-0.296875,1,0,0,5.718428399995901,tijiao_random_2,,255,f,22,2023_Mar_23_1122,RL,2021.2.3,60.02501843650336,
1,-0.3,-0.225,0,30,30,30,,,,,,,,,,,,,,,None,None,None,None,None,417.58649100002367,None,417.58649100002367,None,417.58649100002367,None,417.58649100002367,None,i,0.41102560004219413,417.58649100002367,None,417.58649100002367,None,418.03779560001567,None,418.03779560001567,None,418.03779560001567,None,418.03779560001567,None,418.03779560001567,None,418.03779560001567,None,418.33308360003866,420.0675511000445,418.33308360003866,420.0675511000445,420.10030940000433,None,420.10030940000433,None,420.10030940000433,None,420.10030940000433,None,420.10030940000433,None,420.10030940000433,None,420.10030940000433,None,420.10030940000433,None,420.10030940000433,None,51,36,65,80,65,67,None,None,None,None,None,None,None,None,None,None,None,None,,None,None,,None,None,None,None,None,None,None,None,None,None,None,None,None,None,None,None,None,None,0.2,1,422.647552600014,None,422.647552600014,None,422.647552600014,None,422.647552600014,None,422.647552600014,None,422.647552600014,None,99,422.647552600014,None,422.647552600014,None,0.012444199994206429,None,422.647552600014,None,11,2.164189599920064,425.76242390007246,None,425.76242390007246,None,425.76242390007246,None,425.76242390007246,None,None,None,427.9391263000434,None,,,,,,,,0.11458333333333333,-0.29296875,1,0,0,3.0661068999907,tijiao_random_2,,255,f,22,2023_Mar_23_1122,RL,2021.2.3,60.02501843650336,
0,0.3,0.225,0,31,31,31,,,,,,,,,,,,,,,None,None,None,None,None,429.57864080008585,None,429.57864080008585,None,429.57864080008585,None,429.57864080008585,None,i,0.5380593999288976,429.57864080008585,None,429.57864080008585,None,430.1626959000714,None,430.1626959000714,None,430.1626959000714,None,430.1626959000714,None,430.1626959000714,None,430.1626959000714,None,430.45805800007656,431.4420890000183,430.45805800007656,431.4420890000183,431.4726144000888,None,431.4726144000888,None,431.4726144000888,None,431.4726144000888,None,431.4726144000888,None,431.4726144000888,None,431.4726144000888,None,431.4726144000888,None,431.4726144000888,None,38,36,65,67,65,47,None,None,None,None,None,None,None,None,None,None,None,None,99,434.00291760009713,None,99,434.00291760009713,None,434.00291760009713,None,434.00291760009713,None,434.00291760009713,None,434.00291760009713,None,434.00291760009713,None,434.00291760009713,None,0.01664559985511005,None,434.00291760009713,None,-0.2,0,None,None,None,None,None,None,None,None,None,None,None,None,,None,None,None,None,None,None,None,None,10.830729166666668,2.6014753999188542,439.223890400026,None,439.223890400026,None,439.223890400026,None,439.223890400026,None,None,None,441.8473693000851,None,0.026041666666666668,-0.27734375,1,0,0,5.171233900007792,tijiao,,,,,,,,,255,f,22,2023_Mar_23_1122,RL,2021.2.3,60.02501843650336,
1,-0.3,-0.225,0,32,32,32,,,,,,,,,,,,,,,None,None,None,None,None,443.82098120008595,None,443.82098120008595,None,443.82098120008595,None,443.82098120008595,None,i,0.465471199946478,443.82098120008595,None,443.82098120008595,None,444.33838229998946,None,444.33838229998946,None,444.33838229998946,None,444.33838229998946,None,444.33838229998946,None,444.33838229998946,None,444.63457720004953,None,444.63457720004953,None,446.5828703000443,None,446.5828703000443,None,446.5828703000443,None,446.5828703000443,None,446.5828703000443,None,446.5828703000443,None,446.5828703000443,None,446.5828703000443,None,446.5828703000443,None,42,42,78,77,78,53,449.100927600055,None,6.0,1.5866231999825686,449.100927600055,None,449.100927600055,None,449.100927600055,None,449.100927600055,None,,None,None,,None,None,None,None,None,None,None,None,None,None,None,None,None,None,None,None,None,None,-0.6,3,None,None,None,None,None,None,None,None,None,None,None,None,,None,None,None,None,None,None,None,None,None,None,None,None,None,None,None,None,None,None,None,None,450.7439585000975,None,,,,,,,,,,,,,,,,255,f,22,2023_Mar_23_1122,RL,2021.2.3,60.02501843650336,
0,0.3,0.225,0,33,33,33,,,,,,,,,,,,,,,None,None,None,None,None,452.67775320005603,None,452.67775320005603,None,452.67775320005603,None,452.67775320005603,None,i,1.0187742999987677,452.67775320005603,None,452.67775320005603,None,453.7454285999993,None,453.7454285999993,None,453.7454285999993,None,453.7454285999993,None,453.7454285999993,None,453.7454285999993,None,454.0413411000045,None,454.0413411000045,None,455.82280960003845,None,455.82280960003845,None,455.82280960003845,None,455.82280960003845,None,455.82280960003845,None,455.82280960003845,None,455.82280960003845,None,455.82280960003845,None,455.82280960003845,None,47,47,72,77,72,67,458.34512730001006,None,5.0,1.5717014000983909,458.34512730001006,None,458.34512730001006,None,458.34512730001006,None,458.34512730001006,None,,None,None,,None,None,None,None,None,None,None,None,None,None,None,None,None,None,None,None,None,None,0.2,3,None,None,None,None,None,None,None,None,None,None,None,None,,None,None,None,None,None,None,None,None,None,None,None,None,None,None,None,None,None,None,None,None,459.9756218000548,None,,,,,,,,,,,,,,,,255,f,22,2023_Mar_23_1122,RL,2021.2.3,60.02501843650336,
1,-0.3,-0.225,0,34,34,34,,,,,,,,,,,,,,,None,None,None,None,None,461.8508426999906,None,461.8508426999906,None,461.8508426999906,None,461.8508426999906,None,i,0.745792500092648,461.8508426999906,None,461.8508426999906,None,462.6360236000037,None,462.6360236000037,None,462.6360236000037,None,462.6360236000037,None,462.6360236000037,None,462.6360236000037,None,462.9305481000338,None,462.9305481000338,None,463.76588290010113,None,463.76588290010113,None,463.76588290010113,None,463.76588290010113,None,463.76588290010113,None,463.76588290010113,None,463.76588290010113,None,463.76588290010113,None,463.76588290010113,None,37,42,71,73,71,69,None,None,None,None,None,None,None,None,None,None,None,None,99,466.29732840007637,None,99,466.29732840007637,None,466.29732840007637,None,466.29732840007637,None,466.29732840007637,None,466.29732840007637,None,466.29732840007637,None,466.29732840007637,None,0.01054909999947995,None,466.29732840007637,None,0.2,0,None,None,None,None,None,None,None,None,None,None,None,None,,None,None,None,None,None,None,None,None,11,1.8167694999137893,469.82243240007665,None,469.82243240007665,None,469.82243240007665,None,469.82243240007665,None,None,None,471.6679499000311,None,0.11458333333333333,-0.30859375,1,0,0,3.4803382999962196,tijiao,,,,,,,,,255,f,22,2023_Mar_23_1122,RL,2021.2.3,60.02501843650336,
0,0.3,0.225,0,35,35,35,,,,,,,,,,,,,,,None,None,None,None,None,473.24223680002615,None,473.24223680002615,None,473.24223680002615,None,473.24223680002615,None,i,0.6043953000335023,473.24223680002615,None,473.24223680002615,None,473.8960172000807,None,473.8960172000807,None,473.8960172000807,None,473.8960172000807,None,473.8960172000807,None,473.8960172000807,None,474.17172079999,475.67273490002844,474.17172079999,475.67273490002844,475.7044362000888,None,475.7044362000888,None,475.7044362000888,None,475.7044362000888,None,475.7044362000888,None,475.7044362000888,None,475.7044362000888,None,475.7044362000888,None,475.7044362000888,None,41,35,74,70,74,48,478.214389000088,None,7.0,1.4139597000321373,478.214389000088,None,478.214389000088,None,478.214389000088,None,478.214389000088,None,,None,None,,None,None,None,None,None,None,None,None,None,None,None,None,None,None,None,None,None,None,0.6,3,None,None,None,None,None,None,None,None,None,None,None,None,,None,None,None,None,None,None,None,None,None,None,None,None,None,None,None,None,None,None,None,None,479.6783981000772,None,,,,,,,,,,,,,,,,255,f,22,2023_Mar_23_1122,RL,2021.2.3,60.02501843650336,
1,-0.3,-0.225,0,36,36,36,,,,,,,,,,,,,,,None,None,None,None,None,481.2308498000493,None,481.2308498000493,None,481.2308498000493,None,481.2308498000493,None,i,0.4959396000485867,481.2308498000493,None,481.2308498000493,None,481.7664865000406,None,481.7664865000406,None,481.7664865000406,None,481.7664865000406,None,481.7664865000406,None,481.7664865000406,None,482.06050850008614,483.5113801000407,482.06050850008614,483.5113801000407,483.5447305000853,None,483.5447305000853,None,483.5447305000853,None,483.5447305000853,None,483.5447305000853,None,483.5447305000853,None,483.5447305000853,None,483.5447305000853,None,483.5447305000853,None,46,32,66,69,66,63,None,None,None,None,None,None,None,None,None,None,None,None,99,486.0717058000155,None,99,486.0717058000155,None,486.0717058000155,None,486.0717058000155,None,486.0717058000155,None,486.0717058000155,None,486.0717058000155,None,486.0717058000155,None,0.00015520001761615276,None,486.0717058000155,None,-0.6,0,None,None,None,None,None,None,None,None,None,None,None,None,,None,None,None,None,None,None,None,None,11,1.5682798000052571,489.42251080006827,None,489.42251080006827,None,489.42251080006827,None,489.42251080006827,None,None,None,491.0144480000017,None,0.03515625,-0.296875,1,0,0,3.3042126999935135,tijiao,,,,,,,,,255,f,22,2023_Mar_23_1122,RL,2021.2.3,60.02501843650336,
0,0.3,0.225,0,37,37,37,,,,,,,,,,,,,,,None,None,None,None,None,492.55564929998945,None,492.55564929998945,None,492.55564929998945,None,492.55564929998945,None,i,0.7624135999940336,492.55564929998945,None,492.55564929998945,None,493.3593359000515,None,493.3593359000515,None,493.3593359000515,None,493.3593359000515,None,493.3593359000515,None,493.3593359000515,None,493.6521780000767,495.2028881000588,493.6521780000767,495.2028881000588,495.2359013000969,None,495.2359013000969,None,495.2359013000969,None,495.2359013000969,None,495.2359013000969,None,495.2359013000969,None,495.2359013000969,None,495.2359013000969,None,495.2359013000969,None,45,28,76,73,76,62,497.75588539999444,None,7.0,1.5367092000087723,497.75588539999444,None,497.75588539999444,None,497.75588539999444,None,497.75588539999444,None,,None,None,,None,None,None,None,None,None,None,None,None,None,None,None,None,None,None,None,None,None,0.6,2,None,None,None,None,None,None,None,None,None,None,None,None,,None,None,None,None,None,None,None,None,None,None,None,None,None,None,None,None,None,None,None,None,499.3623917000368,None,,,,,,,,,,,,,,,,255,f,22,2023_Mar_23_1122,RL,2021.2.3,60.02501843650336,
1,-0.3,-0.225,0,38,38,38,,,,,,,,,,,,,,,None,None,None,None,None,500.9614617000334,None,500.9614617000334,None,500.9614617000334,None,500.9614617000334,None,i,0.7063507999991998,500.9614617000334,None,500.9614617000334,None,501.7122418000363,None,501.7122418000363,None,501.7122418000363,None,501.7122418000363,None,501.7122418000363,None,501.7122418000363,None,502.0078066000715,503.50887710007373,502.0078066000715,503.50887710007373,503.540354100056,None,503.540354100056,None,503.540354100056,None,503.540354100056,None,503.540354100056,None,503.540354100056,None,503.540354100056,None,503.540354100056,None,503.540354100056,None,43,41,63,61,63,65,506.06552390009165,None,2.0,1.8681099000386894,506.06552390009165,None,506.06552390009165,None,506.06552390009165,None,506.06552390009165,None,,None,None,,None,None,None,None,None,None,None,None,None,None,None,None,None,None,None,None,None,None,0.2,3,None,None,None,None,None,None,None,None,None,None,None,None,,None,None,None,None,None,None,None,None,None,None,None,None,None,None,None,None,None,None,None,None,508.0003512999974,None,,,,,,,,,,,,,,,,255,f,22,2023_Mar_23_1122,RL,2021.2.3,60.02501843650336,
0,0.3,0.225,0,39,39,39,,,,,,,,,,,,,,,None,None,None,None,None,509.8002454000525,None,509.8002454000525,None,509.8002454000525,None,509.8002454000525,None,r,0.4676753000821918,509.8002454000525,None,509.8002454000525,None,510.3235103000188,None,510.3235103000188,None,510.3235103000188,None,510.3235103000188,None,510.3235103000188,None,510.3235103000188,None,510.61367960006464,511.91455630003475,510.61367960006464,511.91455630003475,511.9469456000952,None,511.9469456000952,None,511.9469456000952,None,511.9469456000952,None,511.9469456000952,None,511.9469456000952,None,511.9469456000952,None,511.9469456000952,None,511.9469456000952,None,37,29,71,66,37,58,None,None,None,None,None,None,None,None,None,None,None,None,,None,None,,None,None,None,None,None,None,None,None,None,None,None,None,None,None,None,None,None,None,0.2,1,514.4914319000673,None,514.4914319000673,None,514.4914319000673,None,514.4914319000673,None,514.4914319000673,None,514.4914319000673,None,96,514.4914319000673,None,514.4914319000673,None,0.016599600086919963,None,514.4914319000673,None,10.973958333333332,2.3613865999504924,524.3135417000158,None,524.3135417000158,None,524.3135417000158,None,524.3135417000158,None,None,None,526.690742900013,None,,,,,,,,0.0703125,-0.2786458333333333,1,0,0,9.790785500081256,tijiao_random_2,,255,f,22,2023_Mar_23_1122,RL,2021.2.3,60.02501843650336,
1,-0.3,-0.225,0,40,40,40,,,,,,,,,,,,,,,None,None,None,None,None,528.5807465000544,None,528.5807465000544,None,528.5807465000544,None,528.5807465000544,None,i,0.38739729998633265,528.5807465000544,None,528.5807465000544,None,529.0132555000018,None,529.0132555000018,None,529.0132555000018,None,529.0132555000018,None,529.0132555000018,None,529.0132555000018,None,529.3099992000498,None,529.3099992000498,None,531.2749908000696,None,531.2749908000696,None,531.2749908000696,None,531.2749908000696,None,531.2749908000696,None,531.2749908000696,None,531.2749908000696,None,531.2749908000696,None,531.2749908000696,None,45,35,60,67,60,66,533.8002962000901,None,2.0,1.801923800026998,533.8002962000901,None,533.8002962000901,None,533.8002962000901,None,533.8002962000901,None,,None,None,,None,None,None,None,None,None,None,None,None,None,None,None,None,None,None,None,None,None,-0.2,2,None,None,None,None,None,None,None,None,None,None,None,None,,None,None,None,None,None,None,None,None,None,None,None,None,None,None,None,None,None,None,None,None,535.6692079000641,None,,,,,,,,,,,,,,,,255,f,22,2023_Mar_23_1122,RL,2021.2.3,60.02501843650336,
0,0.3,0.225,0,41,41,41,,,,,,,,,,,,,,,None,None,None,None,None,537.4026290000184,None,537.4026290000184,None,537.4026290000184,None,537.4026290000184,None,i,0.7654412999982014,537.4026290000184,None,537.4026290000184,None,538.2076323000947,None,538.2076323000947,None,538.2076323000947,None,538.2076323000947,None,538.2076323000947,None,538.2076323000947,None,538.4997715000063,None,538.4997715000063,None,540.4204667999875,None,540.4204667999875,None,540.4204667999875,None,540.4204667999875,None,540.4204667999875,None,540.4204667999875,None,540.4204667999875,None,540.4204667999875,None,540.4204667999875,None,37,35,67,68,67,49,542.9407026000554,None,5.0,1.719214600045234,542.9407026000554,None,542.9407026000554,None,542.9407026000554,None,542.9407026000554,None,,None,None,,None,None,None,None,None,None,None,None,None,None,None,None,None,None,None,None,None,None,-0.2,3,None,None,None,None,None,None,None,None,None,None,None,None,,None,None,None,None,None,None,None,None,None,None,None,None,None,None,None,None,None,None,None,None,544.7141985000344,None,,,,,,,,,,,,,,,,255,f,22,2023_Mar_23_1122,RL,2021.2.3,60.02501843650336,
1,-0.3,-0.225,0,42,42,42,,,,,,,,,,,,,,,None,None,None,None,None,546.4091176000657,None,546.4091176000657,None,546.4091176000657,None,546.4091176000657,None,r,0.7090974000748247,546.4091176000657,None,546.4091176000657,None,547.162767300033,None,547.162767300033,None,547.162767300033,None,547.162767300033,None,547.162767300033,None,547.162767300033,None,547.4559279000387,549.3405754000414,547.4559279000387,549.3405754000414,549.372652900056,None,549.372652900056,None,549.372652900056,None,549.372652900056,None,549.372652900056,None,549.372652900056,None,549.372652900056,None,549.372652900056,None,549.372652900056,None,43,28,60,71,43,35,None,None,None,None,None,None,None,None,None,None,None,None,,None,None,,None,None,None,None,None,None,None,None,None,None,None,None,None,None,None,None,None,None,0.2,1,551.9215570000233,None,551.9215570000233,None,551.9215570000233,None,551.9215570000233,None,551.9215570000233,None,551.9215570000233,None,76,551.9215570000233,None,551.9215570000233,None,0.0122422999702394,None,551.9215570000233,None,1.247395833333333,3.6694414999801666,566.047019300051,None,566.047019300051,None,566.047019300051,None,566.047019300051,None,None,None,569.7385670000222,None,,,,,,,,0.1171875,-0.3098958333333333,1,0,0,14.09018699999433,tijiao_random_2,,255,f,22,2023_Mar_23_1122,RL,2021.2.3,60.02501843650336,
0,0.3,0.225,0,43,43,43,,,,,,,,,,,,,,,None,None,None,None,None,571.6433309999993,None,571.6433309999993,None,571.6433309999993,None,571.6433309999993,None,i,0.5750312000745907,571.6433309999993,None,571.6433309999993,None,572.2614743000595,None,572.2614743000595,None,572.2614743000595,None,572.2614743000595,None,572.2614743000595,None,572.2614743000595,None,572.5570000000298,None,572.5570000000298,None,574.5284106000327,None,574.5284106000327,None,574.5284106000327,None,574.5284106000327,None,574.5284106000327,None,574.5284106000327,None,574.5284106000327,None,574.5284106000327,None,574.5284106000327,None,44,27,60,71,60,53,None,None,None,None,None,None,None,None,None,None,None,None,89,577.0604547000257,None,89,577.0604547000257,None,577.0604547000257,None,577.0604547000257,None,577.0604547000257,None,577.0604547000257,None,577.0604547000257,None,577.0604547000257,None,0.008435199968516827,None,577.0604547000257,None,0.2,0,None,None,None,None,None,None,None,None,None,None,None,None,,None,None,None,None,None,None,None,None,3.96875,3.454944199998863,586.9558607999934,None,586.9558607999934,None,586.9558607999934,None,586.9558607999934,None,None,None,590.4333889000118,None,-0.061197916666666664,-0.296875,1,0,0,9.84962400002405,tijiao,,,,,,,,,255,f,22,2023_Mar_23_1122,RL,2021.2.3,60.02501843650336,
1,-0.3,-0.225,0,44,44,44,,,,,,,,,,,,,,,None,None,None,None,None,592.2412720000139,None,592.2412720000139,None,592.2412720000139,None,592.2412720000139,None,f,0.40746790007688105,592.2412720000139,None,592.2412720000139,None,592.693445000099,None,592.693445000099,None,592.693445000099,None,592.693445000099,None,592.693445000099,None,592.693445000099,None,592.9876002999954,None,592.9876002999954,None,593.8361521000043,None,593.8361521000043,None,593.8361521000043,None,593.8361521000043,None,593.8361521000043,None,593.8361521000043,None,593.8361521000043,None,593.8361521000043,None,593.8361521000043,None,41,27,61,73,27,58,596.3577903000405,None,1.0,1.7363010999979451,596.3577903000405,None,596.3577903000405,None,596.3577903000405,None,596.3577903000405,None,,None,None,,None,None,None,None,None,None,None,None,None,None,None,None,None,None,None,None,None,None,0.2,3,None,None,None,None,None,None,None,None,None,None,None,None,,None,None,None,None,None,None,None,None,None,None,None,None,None,None,None,None,None,None,None,None,598.1513469000347,None,,,,,,,,,,,,,,,,255,f,22,2023_Mar_23_1122,RL,2021.2.3,60.02501843650336,
0,0.3,0.225,0,45,45,45,,,,,,,,,,,,,,,None,None,None,None,None,599.7129047000781,None,599.7129047000781,None,599.7129047000781,None,599.7129047000781,None,i,0.795626699924469,599.7129047000781,None,599.7129047000781,None,600.5486905000871,None,600.5486905000871,None,600.5486905000871,None,600.5486905000871,None,600.5486905000871,None,600.5486905000871,None,600.8430164000019,None,600.8430164000019,None,601.8076964000938,None,601.8076964000938,None,601.8076964000938,None,601.8076964000938,None,601.8076964000938,None,601.8076964000938,None,601.8076964000938,None,601.8076964000938,None,601.8076964000938,None,41,32,68,70,68,59,None,None,None,None,None,None,None,None,None,None,None,None,,None,None,,None,None,None,None,None,None,None,None,None,None,None,None,None,None,None,None,None,None,0.2,1,604.3587147000944,None,604.3587147000944,None,604.3587147000944,None,604.3587147000944,None,604.3587147000944,None,604.3587147000944,None,76,604.3587147000944,None,604.3587147000944,None,0.011589700006879866,None,604.3587147000944,None,1,2.092424999922514,609.6553575000726,None,609.6553575000726,None,609.6553575000726,None,609.6553575000726,None,None,None,611.7648951000301,None,,,,,,,,-0.08333333333333333,-0.2786458333333333,1,0,0,5.266370500088669,tijiao_random_2,,255,f,22,2023_Mar_23_1122,RL,2021.2.3,60.02501843650336,
1,-0.3,-0.225,0,46,46,46,,,,,,,,,,,,,,,None,None,None,None,None,613.2894478000235,None,613.2894478000235,None,613.2894478000235,None,613.2894478000235,None,i,0.4692478000652045,613.2894478000235,None,613.2894478000235,None,613.807736900053,None,613.807736900053,None,613.807736900053,None,613.807736900053,None,613.807736900053,None,613.807736900053,None,614.1021498000482,None,614.1021498000482,None,615.2333599000704,None,615.2333599000704,None,615.2333599000704,None,615.2333599000704,None,615.2333599000704,None,615.2333599000704,None,615.2333599000704,None,615.2333599000704,None,615.2333599000704,None,46,25,62,78,62,64,None,None,None,None,None,None,None,None,None,None,None,None,90,617.7618180999998,None,90,617.7618180999998,None,617.7618180999998,None,617.7618180999998,None,617.7618180999998,None,617.7618180999998,None,617.7618180999998,None,617.7618180999998,None,0.0015648999251425266,None,617.7618180999998,None,0.2,0,None,None,None,None,None,None,None,None,None,None,None,None,,None,None,None,None,None,None,None,None,9.515625,1.6563463000347838,623.2058278000914,None,623.2058278000914,None,623.2058278000914,None,623.2058278000914,None,None,None,624.8756179000484,None,0.052083333333333336,-0.2799479166666667,1,0,0,5.390045799897052,tijiao,,,,,,,,,255,f,22,2023_Mar_23_1122,RL,2021.2.3,60.02501843650336,
0,0.3,0.225,0,47,47,47,,,,,,,,,,,,,,,None,None,None,None,None,626.4817487000255,None,626.4817487000255,None,626.4817487000255,None,626.4817487000255,None,f,0.8169932999880984,626.4817487000255,None,626.4817487000255,None,627.3491456999909,None,627.3491456999909,None,627.3491456999909,None,627.3491456999909,None,627.3491456999909,None,627.3491456999909,None,627.6449996000156,None,627.6449996000156,None,628.5923045000527,None,628.5923045000527,None,628.5923045000527,None,628.5923045000527,None,628.5923045000527,None,628.5923045000527,None,628.5923045000527,None,628.5923045000527,None,628.5923045000527,None,41,29,66,73,29,31,None,None,None,None,None,None,None,None,None,None,None,None,89,631.1209321999922,None,89,631.1209321999922,None,631.1209321999922,None,631.1209321999922,None,631.1209321999922,None,631.1209321999922,None,631.1209321999922,None,631.1209321999922,None,0.0010829998645931482,None,631.1209321999922,None,0.2,0,None,None,None,None,None,None,None,None,None,None,None,None,,None,None,None,None,None,None,None,None,10.895833333333332,2.176027899957262,637.4121988000115,None,637.4121988000115,None,637.4121988000115,None,637.4121988000115,None,None,None,639.6027178000659,None,-0.005208333333333333,-0.2916666666666667,1,0,0,6.239847699995153,tijiao,,,,,,,,,255,f,22,2023_Mar_23_1122,RL,2021.2.3,60.02501843650336,
1,-0.3,-0.225,0,48,48,48,,,,,,,,,,,,,,,None,None,None,None,None,641.2255340000847,None,641.2255340000847,None,641.2255340000847,None,641.2255340000847,None,f,0.3935328999068588,641.2255340000847,None,641.2255340000847,None,641.6620487000328,None,641.6620487000328,None,641.6620487000328,None,641.6620487000328,None,641.6620487000328,None,641.6620487000328,None,641.9549101000885,None,641.9549101000885,None,643.1030632000184,None,643.1030632000184,None,643.1030632000184,None,643.1030632000184,None,643.1030632000184,None,643.1030632000184,None,643.1030632000184,None,643.1030632000184,None,643.1030632000184,None,43,25,63,64,25,68,645.6253619000781,None,1.0,0.7347287000156939,645.6253619000781,None,645.6253619000781,None,645.6253619000781,None,645.6253619000781,None,,None,None,,None,None,None,None,None,None,None,None,None,None,None,None,None,None,None,None,None,None,0.6,3,None,None,None,None,None,None,None,None,None,None,None,None,,None,None,None,None,None,None,None,None,None,None,None,None,None,None,None,None,None,None,None,None,646.434219900053,None,,,,,,,,,,,,,,,,255,f,22,2023_Mar_23_1122,RL,2021.2.3,60.02501843650336,
0,0.3,0.225,0,49,49,49,,,,,,,,,,,,,,,None,None,None,None,None,648.0298630000325,None,648.0298630000325,None,648.0298630000325,None,648.0298630000325,None,j,0.8991467000450939,648.0298630000325,None,648.0298630000325,None,648.9859314000932,None,648.9859314000932,None,648.9859314000932,None,648.9859314000932,None,648.9859314000932,None,648.9859314000932,None,649.2766185000073,None,649.2766185000073,None,650.6910526000429,None,650.6910526000429,None,650.6910526000429,None,650.6910526000429,None,650.6910526000429,None,650.6910526000429,None,650.6910526000429,None,650.6910526000429,None,650.6910526000429,None,43,22,62,63,63,40,None,None,None,None,None,None,None,None,None,None,None,None,,None,None,,None,None,None,None,None,None,None,None,None,None,None,None,None,None,None,None,None,None,0.2,1,653.2428268000949,None,653.2428268000949,None,653.2428268000949,None,653.2428268000949,None,653.2428268000949,None,653.2428268000949,None,76,653.2428268000949,None,653.2428268000949,None,0.011204999987967312,None,653.2428268000949,None,1.221354166666667,2.3800549999577925,659.8602241000626,None,659.8602241000626,None,659.8602241000626,None,659.8602241000626,None,None,None,662.2668409000617,None,,,,,,,,-0.08463541666666667,-0.2955729166666667,1,0,0,6.584145999979228,tijiao_random_2,,255,f,22,2023_Mar_23_1122,RL,2021.2.3,60.02501843650336,
1,-0.3,-0.225,0,50,50,50,,,,,,,,,,,,,,,None,None,None,None,None,663.7913606000366,None,663.7913606000366,None,663.7913606000366,None,663.7913606000366,None,f,0.5586943000089377,663.7913606000366,None,663.7913606000366,None,664.3944697000552,None,664.3944697000552,None,664.3944697000552,None,664.3944697000552,None,664.3944697000552,None,664.3944697000552,None,664.6873015000019,666.0549413000699,664.6873015000019,666.0549413000699,666.0933036000933,None,666.0933036000933,None,666.0933036000933,None,666.0933036000933,None,666.0933036000933,None,666.0933036000933,None,666.0933036000933,None,666.0933036000933,None,666.0933036000933,None,43,27,67,61,27,55,668.6283663000213,None,1.0,2.532602700055577,668.6283663000213,None,668.6283663000213,None,668.6283663000213,None,668.6283663000213,None,,None,None,,None,None,None,None,None,None,None,None,None,None,None,None,None,None,None,None,None,None,-0.2,3,None,None,None,None,None,None,None,None,None,None,None,None,,None,None,None,None,None,None,None,None,None,None,None,None,None,None,None,None,None,None,None,None,671.2137039999943,None,,,,,,,,,,,,,,,,255,f,22,2023_Mar_23_1122,RL,2021.2.3,60.02501843650336,
0,0.3,0.225,0,51,51,51,,,,,,,,,,,,,,,None,None,None,None,None,672.7803190000122,None,672.7803190000122,None,672.7803190000122,None,672.7803190000122,None,i,1.1598185000475496,672.7803190000122,None,672.7803190000122,None,673.983796400018,None,673.983796400018,None,673.983796400018,None,673.983796400018,None,673.983796400018,None,673.983796400018,None,674.2773128000554,676.278705200064,674.2773128000554,676.278705200064,676.3108344000066,None,676.3108344000066,None,676.3108344000066,None,676.3108344000066,None,676.3108344000066,None,676.3108344000066,None,676.3108344000066,None,676.3108344000066,None,676.3108344000066,None,32,17,59,66,59,33,None,None,None,None,None,None,None,None,None,None,None,None,67,678.8388859000988,None,67,678.8388859000988,None,678.8388859000988,None,678.8388859000988,None,678.8388859000988,None,678.8388859000988,None,678.8388859000988,None,678.8388859000988,None,0.01655260007828474,None,678.8388859000988,None,-0.6,0,None,None,None,None,None,None,None,None,None,None,None,None,,None,None,None,None,None,None,None,None,1,2.4479847999755293,682.6904526000144,None,682.6904526000144,None,682.6904526000144,None,682.6904526000144,None,None,None,685.1659622000298,None,0.08333333333333333,-0.2903645833333333,1,0,0,3.80350559996441,tijiao,,,,,,,,,255,f,22,2023_Mar_23_1122,RL,2021.2.3,60.02501843650336,
1,-0.3,-0.225,0,52,52,52,,,,,,,,,,,,,,,None,None,None,None,None,686.7559467999963,None,686.7559467999963,None,686.7559467999963,None,686.7559467999963,None,r,0.4143446000525728,686.7559467999963,None,686.7559467999963,None,687.2092623000499,None,687.2092623000499,None,687.2092623000499,None,687.2092623000499,None,687.2092623000499,None,687.2092623000499,None,687.5031228000298,None,687.5031228000298,None,689.0512069000397,None,689.0512069000397,None,689.0512069000397,None,689.0512069000397,None,689.0512069000397,None,689.0512069000397,None,689.0512069000397,None,689.0512069000397,None,689.0512069000397,None,42,24,72,69,42,64,None,None,None,None,None,None,None,None,None,None,None,None,,None,None,,None,None,None,None,None,None,None,None,None,None,None,None,None,None,None,None,None,None,0.2,1,691.5962936000433,None,691.5962936000433,None,691.5962936000433,None,691.5962936000433,None,691.5962936000433,None,691.5962936000433,None,22,691.5962936000433,None,691.5962936000433,None,0.0006659000646322966,None,691.5962936000433,None,3.825520833333334,1.5027818999951705,699.2598805000307,None,699.2598805000307,None,699.2598805000307,None,699.2598805000307,None,None,None,700.7782544000074,None,,,,,,,,-0.10416666666666667,-0.2877604166666667,1,0,0,7.62345600000117,tijiao_random_2,,255,f,22,2023_Mar_23_1122,RL,2021.2.3,60.02501843650336,
0,0.3,0.225,0,53,53,53,,,,,,,,,,,,,,,None,None,None,None,None,702.3015707000159,None,702.3015707000159,None,702.3015707000159,None,702.3015707000159,None,f,0.41857530002016574,702.3015707000159,None,702.3015707000159,None,702.7676256000996,None,702.7676256000996,None,702.7676256000996,None,702.7676256000996,None,702.7676256000996,None,702.7676256000996,None,703.0641203999985,None,703.0641203999985,None,704.8344925000565,None,704.8344925000565,None,704.8344925000565,None,704.8344925000565,None,704.8344925000565,None,704.8344925000565,None,704.8344925000565,None,704.8344925000565,None,704.8344925000565,None,32,16,64,67,16,64,707.3474939001026,None,1.0,0.9541632999898866,707.3474939001026,None,707.3474939001026,None,707.3474939001026,None,707.3474939001026,None,,None,None,,None,None,None,None,None,None,None,None,None,None,None,None,None,None,None,None,None,None,-0.6,2,None,None,None,None,None,None,None,None,None,None,None,None,,None,None,None,None,None,None,None,None,None,None,None,None,None,None,None,None,None,None,None,None,708.3544466000749,None,,,,,,,,,,,,,,,,255,f,22,2023_Mar_23_1122,RL,2021.2.3,60.02501843650336,
1,-0.3,-0.225,0,54,54,54,,,,,,,,,,,,,,,None,None,None,None,None,710.1566761001013,None,710.1566761001013,None,710.1566761001013,None,710.1566761001013,None,i,1.0136089000152424,710.1566761001013,None,710.1566761001013,None,711.2123002000153,None,711.2123002000153,None,711.2123002000153,None,711.2123002000153,None,711.2123002000153,None,711.2123002000153,None,711.5031825000187,None,711.5031825000187,None,712.7663453000132,None,712.7663453000132,None,712.7663453000132,None,712.7663453000132,None,712.7663453000132,None,712.7663453000132,None,712.7663453000132,None,712.7663453000132,None,712.7663453000132,None,37,12,50,71,50,63,715.2943438000511,None,1.0,1.7200506000081077,715.2943438000511,None,715.2943438000511,None,715.2943438000511,None,715.2943438000511,None,,None,None,,None,None,None,None,None,None,None,None,None,None,None,None,None,None,None,None,None,None,0.2,3,None,None,None,None,None,None,None,None,None,None,None,None,,None,None,None,None,None,None,None,None,None,None,None,None,None,None,None,None,None,None,None,None,717.0826444000704,None,,,,,,,,,,,,,,,,255,f,22,2023_Mar_23_1122,RL,2021.2.3,60.02501843650336,
0,0.3,0.225,0,55,55,55,,,,,,,,,,,,,,,None,None,None,None,None,718.7118979000952,None,718.7118979000952,None,718.7118979000952,None,718.7118979000952,None,r,0.7387017000000924,718.7118979000952,None,718.7118979000952,None,719.5010226999875,None,719.5010226999875,None,719.5010226999875,None,719.5010226999875,None,719.5010226999875,None,719.5010226999875,None,719.7922173000406,720.6261057000374,719.7922173000406,720.6261057000374,720.6562859000405,None,720.6562859000405,None,720.6562859000405,None,720.6562859000405,None,720.6562859000405,None,720.6562859000405,None,720.6562859000405,None,720.6562859000405,None,720.6562859000405,None,36,20,57,73,36,67,None,None,None,None,None,None,None,None,None,None,None,None,,None,None,,None,None,None,None,None,None,None,None,None,None,None,None,None,None,None,None,None,None,-0.6,1,723.204918500036,None,723.204918500036,None,723.204918500036,None,723.204918500036,None,723.204918500036,None,723.204918500036,None,10,723.204918500036,None,723.204918500036,None,0.014716499950736761,None,723.204918500036,None,2.236979166666667,2.227019099984318,726.7224174001021,None,726.7224174001021,None,726.7224174001021,None,726.7224174001021,None,None,None,728.9648881000467,None,,,,,,,,0.0078125,-0.2903645833333333,1,0,0,3.485541900037788,tijiao_random_2,,255,f,22,2023_Mar_23_1122,RL,2021.2.3,60.02501843650336,
1,-0.3,-0.225,0,56,56,56,,,,,,,,,,,,,,,None,None,None,None,None,730.9379363000626,None,730.9379363000626,None,730.9379363000626,None,730.9379363000626,None,i,0.3825070000020787,730.9379363000626,None,730.9379363000626,None,731.3739290999947,None,731.3739290999947,None,731.3739290999947,None,731.3739290999947,None,731.3739290999947,None,731.3739290999947,None,731.6673188999994,None,731.6673188999994,None,732.714435400092,None,732.714435400092,None,732.714435400092,None,732.714435400092,None,732.714435400092,None,732.714435400092,None,732.714435400092,None,732.714435400092,None,732.714435400092,None,45,22,61,80,61,66,None,None,None,None,None,None,None,None,None,None,None,None,67,735.2513184000272,None,67,735.2513184000272,None,735.2513184000272,None,735.2513184000272,None,735.2513184000272,None,735.2513184000272,None,735.2513184000272,None,735.2513184000272,None,0.0097861000103876,None,735.2513184000272,None,0.6,0,None,None,None,None,None,None,None,None,None,None,None,None,,None,None,None,None,None,None,None,None,6.911458333333334,2.799377299961634,742.4477634000359,None,742.4477634000359,None,742.4477634000359,None,742.4477634000359,None,None,None,745.2595018000575,None,0.08203125,-0.2916666666666667,1,0,0,7.148924799985252,tijiao,,,,,,,,,255,f,22,2023_Mar_23_1122,RL,2021.2.3,60.02501843650336,
0,0.3,0.225,0,57,57,57,,,,,,,,,,,,,,,None,None,None,None,None,746.9989627000177,None,746.9989627000177,None,746.9989627000177,None,746.9989627000177,None,i,0.381738799973391,746.9989627000177,None,746.9989627000177,None,747.4337910000468,None,747.4337910000468,None,747.4337910000468,None,747.4337910000468,None,747.4337910000468,None,747.4337910000468,None,747.7284521000693,None,747.7284521000693,None,748.6435947000282,None,748.6435947000282,None,748.6435947000282,None,748.6435947000282,None,748.6435947000282,None,748.6435947000282,None,748.6435947000282,None,748.6435947000282,None,748.6435947000282,None,37,22,55,86,55,55,751.1700741000241,None,4.0,2.5189408999867737,751.1700741000241,None,751.1700741000241,None,751.1700741000241,None,751.1700741000241,None,,None,None,,None,None,None,None,None,None,None,None,None,None,None,None,None,None,None,None,None,None,-0.6,2,None,None,None,None,None,None,None,None,None,None,None,None,,None,None,None,None,None,None,None,None,None,None,None,None,None,None,None,None,None,None,None,None,753.7522346000187,None,,,,,,,,,,,,,,,,255,f,22,2023_Mar_23_1122,RL,2021.2.3,60.02501843650336,
1,-0.3,-0.225,0,58,58,58,,,,,,,,,,,,,,,None,None,None,None,None,755.5713912000647,None,755.5713912000647,None,755.5713912000647,None,755.5713912000647,None,f,0.9293363000033423,755.5713912000647,None,755.5713912000647,None,756.5467073000036,None,756.5467073000036,None,756.5467073000036,None,756.5467073000036,None,756.5467073000036,None,756.5467073000036,None,756.8346629000735,None,756.8346629000735,None,758.084454099997,None,758.084454099997,None,758.084454099997,None,758.084454099997,None,758.084454099997,None,758.084454099997,None,758.084454099997,None,758.084454099997,None,758.084454099997,None,39,17,62,77,17,66,None,None,None,None,None,None,None,None,None,None,None,None,,None,None,,None,None,None,None,None,None,None,None,None,None,None,None,None,None,None,None,None,None,-0.2,1,760.6255720000481,None,760.6255720000481,None,760.6255720000481,None,760.6255720000481,None,760.6255720000481,None,760.6255720000481,None,17,760.6255720000481,None,760.6255720000481,None,0.0026749001117423177,None,760.6255720000481,None,1.091145833333333,2.961954499944113,766.6369966000784,None,766.6369966000784,None,766.6369966000784,None,766.6369966000784,None,None,None,769.6268742000684,None,,,,,,,,0.009114583333333334,-0.2955729166666667,1,0,0,5.975068499916233,tijiao_random_2,,255,f,22,2023_Mar_23_1122,RL,2021.2.3,60.02501843650336,
0,0.3,0.225,0,59,59,59,,,,,,,,,,,,,,,None,None,None,None,None,771.1822751000291,None,771.1822751000291,None,771.1822751000291,None,771.1822751000291,None,i,0.5785242000129074,771.1822751000291,None,771.1822751000291,None,771.7995823000092,None,771.7995823000092,None,771.7995823000092,None,771.7995823000092,None,771.7995823000092,None,771.7995823000092,None,772.0952157001011,None,772.0952157001011,None,773.6953488000436,None,773.6953488000436,None,773.6953488000436,None,773.6953488000436,None,773.6953488000436,None,773.6953488000436,None,773.6953488000436,None,773.6953488000436,None,773.6953488000436,None,33,19,64,70,64,64,None,None,None,None,None,None,None,None,None,None,None,None,67,776.2314944000682,None,67,776.2314944000682,None,776.2314944000682,None,776.2314944000682,None,776.2314944000682,None,776.2314944000682,None,776.2314944000682,None,776.2314944000682,None,0.008636099868454039,None,776.2314944000682,None,0.2,0,None,None,None,None,None,None,None,None,None,None,None,None,,None,None,None,None,None,None,None,None,1.104166666666667,2.8469741999870166,784.6780490000965,None,784.6780490000965,None,784.6780490000965,None,784.6780490000965,None,None,None,787.5386043000035,None,0.018229166666666668,-0.2981770833333333,1,0,0,8.398425999912433,tijiao,,,,,,,,,255,f,22,2023_Mar_23_1122,RL,2021.2.3,60.02501843650336,
1,-0.3,-0.225,0,60,60,60,,,,,,,,,,,,,,,None,None,None,None,None,789.1113415000727,None,789.1113415000727,None,789.1113415000727,None,789.1113415000727,None,i,0.42962929990608245,789.1113415000727,None,789.1113415000727,None,789.5814753000159,None,789.5814753000159,None,789.5814753000159,None,789.5814753000159,None,789.5814753000159,None,789.5814753000159,None,789.8741917000152,None,789.8741917000152,None,791.489107200061,None,791.489107200061,None,791.489107200061,None,791.489107200061,None,791.489107200061,None,791.489107200061,None,791.489107200061,None,791.489107200061,None,791.489107200061,None,31,26,54,81,54,65,794.007365400088,None,1.0,2.6888200999237597,794.007365400088,None,794.007365400088,None,794.007365400088,None,794.007365400088,None,,None,None,,None,None,None,None,None,None,None,None,None,None,None,None,None,None,None,None,None,None,0.2,2,None,None,None,None,None,None,None,None,None,None,None,None,,None,None,None,None,None,None,None,None,None,None,None,None,None,None,None,None,None,None,None,None,796.7665794000495,None,,,,,,,,,,,,,,,,255,f,22,2023_Mar_23_1122,RL,2021.2.3,60.02501843650336,
0,0.3,0.225,0,61,61,61,,,,,,,,,,,,,,,None,None,None,None,None,798.6178829000564,None,798.6178829000564,None,798.6178829000564,None,798.6178829000564,None,i,0.5531446000095457,798.6178829000564,None,798.6178829000564,None,799.2221847000765,None,799.2221847000765,None,799.2221847000765,None,799.2221847000765,None,799.2221847000765,None,799.2221847000765,None,799.5143002000405,None,799.5143002000405,None,801.2622602999909,None,801.2622602999909,None,801.2622602999909,None,801.2622602999909,None,801.2622602999909,None,801.2622602999909,None,801.2622602999909,None,801.2622602999909,None,801.2622602999909,None,30,27,63,73,63,73,803.7809093000833,None,1.0,1.2562805999768898,803.7809093000833,None,803.7809093000833,None,803.7809093000833,None,803.7809093000833,None,,None,None,,None,None,None,None,None,None,None,None,None,None,None,None,None,None,None,None,None,None,0.2,3,None,None,None,None,None,None,None,None,None,None,None,None,,None,None,None,None,None,None,None,None,None,None,None,None,None,None,None,None,None,None,None,None,805.1004201000324,None,,,,,,,,,,,,,,,,255,f,22,2023_Mar_23_1122,RL,2021.2.3,60.02501843650336,
1,-0.3,-0.225,0,62,62,62,,,,,,,,,,,,,,,None,None,None,None,None,807.0407823000569,None,807.0407823000569,None,807.0407823000569,None,807.0407823000569,None,r,0.5801719999872148,807.0407823000569,None,807.0407823000569,None,807.6590945000062,None,807.6590945000062,None,807.6590945000062,None,807.6590945000062,None,807.6590945000062,None,807.6590945000062,None,807.953512200038,809.9048186000437,807.953512200038,809.9048186000437,809.9404600000707,None,809.9404600000707,None,809.9404600000707,None,809.9404600000707,None,809.9404600000707,None,809.9404600000707,None,809.9404600000707,None,809.9404600000707,None,809.9404600000707,None,32,23,60,73,32,68,None,None,None,None,None,None,None,None,None,None,None,None,23,812.468269300065,None,23,812.468269300065,None,812.468269300065,None,812.468269300065,None,812.468269300065,None,812.468269300065,None,812.468269300065,None,812.468269300065,None,0.013244300032965839,None,812.468269300065,None,0.6,0,None,None,None,None,None,None,None,None,None,None,None,None,,None,None,None,None,None,None,None,None,1,2.42664479999803,820.9352908000583,None,820.9352908000583,None,820.9352908000583,None,820.9352908000583,None,None,None,823.378514100099,None,-0.041666666666666664,-0.3072916666666667,1,0,0,8.41999699990265,tijiao,,,,,,,,,255,f,22,2023_Mar_23_1122,RL,2021.2.3,60.02501843650336,
0,0.3,0.225,0,63,63,63,,,,,,,,,,,,,,,None,None,None,None,None,824.9529454000294,None,824.9529454000294,None,824.9529454000294,None,824.9529454000294,None,f,0.48921839997638017,824.9529454000294,None,824.9529454000294,None,825.4880867000902,None,825.4880867000902,None,825.4880867000902,None,825.4880867000902,None,825.4880867000902,None,825.4880867000902,None,825.7826326000504,None,825.7826326000504,None,826.6307909000898,None,826.6307909000898,None,826.6307909000898,None,826.6307909000898,None,826.6307909000898,None,826.6307909000898,None,826.6307909000898,None,826.6307909000898,None,826.6307909000898,None,29,27,76,72,27,66,None,None,None,None,None,None,None,None,None,None,None,None,90,829.1585618000245,None,90,829.1585618000245,None,829.1585618000245,None,829.1585618000245,None,829.1585618000245,None,829.1585618000245,None,829.1585618000245,None,829.1585618000245,None,0.0011757999891415238,None,829.1585618000245,None,0.2,0,None,None,None,None,None,None,None,None,None,None,None,None,,None,None,None,None,None,None,None,None,10.192708333333332,2.7503409000346437,835.4269964999985,None,835.4269964999985,None,835.4269964999985,None,835.4269964999985,None,None,None,838.1906485999934,None,-0.036458333333333336,-0.26953125,1,0,0,6.223473199992441,tijiao,,,,,,,,,255,f,22,2023_Mar_23_1122,RL,2021.2.3,60.02501843650336,
1,-0.3,-0.225,0,64,64,64,,,,,,,,,,,,,,,None,None,None,None,None,839.9462928000139,None,839.9462928000139,None,839.9462928000139,None,839.9462928000139,None,f,0.43601499998476356,839.9462928000139,None,839.9462928000139,None,840.4325829000445,None,840.4325829000445,None,840.4325829000445,None,840.4325829000445,None,840.4325829000445,None,840.4325829000445,None,840.7264815000817,None,840.7264815000817,None,842.0829367000842,None,842.0829367000842,None,842.0829367000842,None,842.0829367000842,None,842.0829367000842,None,842.0829367000842,None,842.0829367000842,None,842.0829367000842,None,842.0829367000842,None,37,39,60,77,39,86,844.610399600002,None,1.0,2.106322600040585,844.610399600002,None,844.610399600002,None,844.610399600002,None,844.610399600002,None,,None,None,,None,None,None,None,None,None,None,None,None,None,None,None,None,None,None,None,None,None,0.6,2,None,None,None,None,None,None,None,None,None,None,None,None,,None,None,None,None,None,None,None,None,None,None,None,None,None,None,None,None,None,None,None,None,846.7757219000487,None,,,,,,,,,,,,,,,,255,f,22,2023_Mar_23_1122,RL,2021.2.3,60.02501843650336,
0,0.3,0.225,0,65,65,65,,,,,,,,,,,,,,,None,None,None,None,None,848.702401000075,None,848.702401000075,None,848.702401000075,None,848.702401000075,None,j,0.9698519000085071,848.702401000075,None,848.702401000075,None,849.7260906000156,None,849.7260906000156,None,849.7260906000156,None,849.7260906000156,None,849.7260906000156,None,849.7260906000156,None,850.016101700021,None,850.016101700021,None,850.8972044000402,None,850.8972044000402,None,850.8972044000402,None,850.8972044000402,None,850.8972044000402,None,850.8972044000402,None,850.8972044000402,None,850.8972044000402,None,850.8972044000402,None,28,24,68,71,71,77,None,None,None,None,None,None,None,None,None,None,None,None,,None,None,,None,None,None,None,None,None,None,None,None,None,None,None,None,None,None,None,None,None,0.6,1,853.4435329000698,None,853.4435329000698,None,853.4435329000698,None,853.4435329000698,None,853.4435329000698,None,853.4435329000698,None,67,853.4435329000698,None,853.4435329000698,None,0.01622510002925992,None,853.4435329000698,None,7.197916666666666,3.0985254000406712,861.5298992000753,None,861.5298992000753,None,861.5298992000753,None,861.5298992000753,None,None,None,864.6625519000227,None,,,,,,,,-0.09765625,-0.3072916666666667,1,0,0,8.055736999958754,tijiao_random_2,,255,f,22,2023_Mar_23_1122,RL,2021.2.3,60.02501843650336,
1,-0.3,-0.225,0,66,66,66,,,,,,,,,,,,,,,None,None,None,None,None,866.4153517000377,None,866.4153517000377,None,866.4153517000377,None,866.4153517000377,None,j,0.667020000051707,866.4153517000377,None,866.4153517000377,None,867.1310236999998,None,867.1310236999998,None,867.1310236999998,None,867.1310236999998,None,867.1310236999998,None,867.1310236999998,None,867.4281436000019,None,867.4281436000019,None,868.7480617000256,None,868.7480617000256,None,868.7480617000256,None,868.7480617000256,None,868.7480617000256,None,868.7480617000256,None,868.7480617000256,None,868.7480617000256,None,868.7480617000256,None,34,35,51,77,77,40,None,None,None,None,None,None,None,None,None,None,None,None,,None,None,,None,None,None,None,None,None,None,None,None,None,None,None,None,None,None,None,None,None,0.6,1,871.2920328000328,None,871.2920328000328,None,871.2920328000328,None,871.2920328000328,None,871.2920328000328,None,871.2920328000328,None,89,871.2920328000328,None,871.2920328000328,None,0.013885599910281599,None,871.2920328000328,None,9.020833333333332,2.1732109000440687,877.199515699991,None,877.199515699991,None,877.199515699991,None,877.199515699991,None,None,None,879.3854927000357,None,,,,,,,,-0.028645833333333332,-0.3020833333333333,1,0,0,5.868822099990211,tijiao_random_2,,255,f,22,2023_Mar_23_1122,RL,2021.2.3,60.02501843650336,
0,0.3,0.225,0,67,67,67,,,,,,,,,,,,,,,None,None,None,None,None,881.1748099999968,None,881.1748099999968,None,881.1748099999968,None,881.1748099999968,None,j,0.39763480005785823,881.1748099999968,None,881.1748099999968,None,881.6079352000961,None,881.6079352000961,None,881.6079352000961,None,881.6079352000961,None,881.6079352000961,None,881.6079352000961,None,881.9049921000842,None,881.9049921000842,None,882.9535501000937,None,882.9535501000937,None,882.9535501000937,None,882.9535501000937,None,882.9535501000937,None,882.9535501000937,None,882.9535501000937,None,882.9535501000937,None,882.9535501000937,None,26,38,53,84,84,80,885.4793507000431,None,3.0,2.7995764000806957,885.4793507000431,None,885.4793507000431,None,885.4793507000431,None,885.4793507000431,None,,None,None,,None,None,None,None,None,None,None,None,None,None,None,None,None,None,None,None,None,None,0.2,2,None,None,None,None,None,None,None,None,None,None,None,None,,None,None,None,None,None,None,None,None,None,None,None,None,None,None,None,None,None,None,None,None,888.3397431999911,None,,,,,,,,,,,,,,,,255,f,22,2023_Mar_23_1122,RL,2021.2.3,60.02501843650336,
1,-0.3,-0.225,0,68,68,68,,,,,,,,,,,,,,,None,None,None,None,None,889.9977643000893,None,889.9977643000893,None,889.9977643000893,None,889.9977643000893,None,i,0.8149391999468207,889.9977643000893,None,889.9977643000893,None,890.8660756000318,None,890.8660756000318,None,890.8660756000318,None,890.8660756000318,None,890.8660756000318,None,890.8660756000318,None,891.1611454000231,892.7960111000575,891.1611454000231,892.7960111000575,892.8293168999953,None,892.8293168999953,None,892.8293168999953,None,892.8293168999953,None,892.8293168999953,None,892.8293168999953,None,892.8293168999953,None,892.8293168999953,None,892.8293168999953,None,36,30,56,82,56,82,None,None,None,None,None,None,None,None,None,None,None,None,98,895.3574996000389,None,98,895.3574996000389,None,895.3574996000389,None,895.3574996000389,None,895.3574996000389,None,895.3574996000389,None,895.3574996000389,None,895.3574996000389,None,0.015215700026601553,None,895.3574996000389,None,-0.2,0,None,None,None,None,None,None,None,None,None,None,None,None,,None,None,None,None,None,None,None,None,8.786458333333332,1.6283529000356793,901.9262020000024,None,901.9262020000024,None,901.9262020000024,None,901.9262020000024,None,None,None,903.5846648000879,None,-0.11848958333333333,-0.30859375,1,0,0,6.520690600038506,tijiao,,,,,,,,,255,f,22,2023_Mar_23_1122,RL,2021.2.3,60.02501843650336,
0,0.3,0.225,0,69,69,69,,,,,,,,,,,,,,,None,None,None,None,None,905.1084799000528,None,905.1084799000528,None,905.1084799000528,None,905.1084799000528,None,j,0.5743645000038669,905.1084799000528,None,905.1084799000528,None,905.7309175000992,None,905.7309175000992,None,905.7309175000992,None,905.7309175000992,None,905.7309175000992,None,905.7309175000992,None,906.0215995000908,906.9054833000991,906.0215995000908,906.9054833000991,906.9409712000052,None,906.9409712000052,None,906.9409712000052,None,906.9409712000052,None,906.9409712000052,None,906.9409712000052,None,906.9409712000052,None,906.9409712000052,None,906.9409712000052,None,34,42,63,78,78,36,909.461281600059,None,3.0,2.200592300039716,909.461281600059,None,909.461281600059,None,909.461281600059,None,909.461281600059,None,,None,None,,None,None,None,None,None,None,None,None,None,None,None,None,None,None,None,None,None,None,0.6,3,None,None,None,None,None,None,None,None,None,None,None,None,,None,None,None,None,None,None,None,None,None,None,None,None,None,None,None,None,None,None,None,None,911.7263772999868,None,,,,,,,,,,,,,,,,255,f,22,2023_Mar_23_1122,RL,2021.2.3,60.02501843650336,
1,-0.3,-0.225,0,70,70,70,,,,,,,,,,,,,,,None,None,None,None,None,913.6980697000399,None,913.6980697000399,None,913.6980697000399,None,913.6980697000399,None,i,0.9647604000056162,913.6980697000399,None,913.6980697000399,None,914.7005029000575,None,914.7005029000575,None,914.7005029000575,None,914.7005029000575,None,914.7005029000575,None,914.7005029000575,None,914.9944212000119,916.512178300065,914.9944212000119,916.512178300065,916.5447284000693,None,916.5447284000693,None,916.5447284000693,None,916.5447284000693,None,916.5447284000693,None,916.5447284000693,None,916.5447284000693,None,916.5447284000693,None,916.5447284000693,None,36,43,63,75,63,67,919.0600529999938,None,2.0,2.4924898999743164,919.0600529999938,None,919.0600529999938,None,919.0600529999938,None,919.0600529999938,None,,None,None,,None,None,None,None,None,None,None,None,None,None,None,None,None,None,None,None,None,None,-0.2,3,None,None,None,None,None,None,None,None,None,None,None,None,,None,None,None,None,None,None,None,None,None,None,None,None,None,None,None,None,None,None,None,None,921.6053746000398,None,,,,,,,,,,,,,,,,255,f,22,2023_Mar_23_1122,RL,2021.2.3,60.02501843650336,
0,0.3,0.225,0,71,71,71,,,,,,,,,,,,,,,None,None,None,None,None,923.1709931000369,None,923.1709931000369,None,923.1709931000369,None,923.1709931000369,None,i,0.7619378999806941,923.1709931000369,None,923.1709931000369,None,923.9742040000856,None,923.9742040000856,None,923.9742040000856,None,923.9742040000856,None,923.9742040000856,None,923.9742040000856,None,924.2675958999898,None,924.2675958999898,None,925.8518880000338,None,925.8518880000338,None,925.8518880000338,None,925.8518880000338,None,925.8518880000338,None,925.8518880000338,None,925.8518880000338,None,925.8518880000338,None,925.8518880000338,None,45,38,67,74,67,82,928.3746415000642,None,1.0,2.750481400056742,928.3746415000642,None,928.3746415000642,None,928.3746415000642,None,928.3746415000642,None,,None,None,,None,None,None,None,None,None,None,None,None,None,None,None,None,None,None,None,None,None,-0.2,3,None,None,None,None,None,None,None,None,None,None,None,None,,None,None,None,None,None,None,None,None,None,None,None,None,None,None,None,None,None,None,None,None,931.1813004000578,None,,,,,,,,,,,,,,,,255,f,22,2023_Mar_23_1122,RL,2021.2.3,60.02501843650336,
1,-0.3,-0.225,0,72,72,72,,,,,,,,,,,,,,,None,None,None,None,None,933.0113710000878,None,933.0113710000878,None,933.0113710000878,None,933.0113710000878,None,i,0.6615659000817686,933.0113710000878,None,933.0113710000878,None,933.7125407001004,None,933.7125407001004,None,933.7125407001004,None,933.7125407001004,None,933.7125407001004,None,933.7125407001004,None,934.0077071000123,None,934.0077071000123,None,935.9929691000143,None,935.9929691000143,None,935.9929691000143,None,935.9929691000143,None,935.9929691000143,None,935.9929691000143,None,935.9929691000143,None,935.9929691000143,None,935.9929691000143,None,45,40,68,78,68,86,None,None,None,None,None,None,None,None,None,None,None,None,,None,None,,None,None,None,None,None,None,None,None,None,None,None,None,None,None,None,None,None,None,0.6,1,938.5351768000983,None,938.5351768000983,None,938.5351768000983,None,938.5351768000983,None,938.5351768000983,None,938.5351768000983,None,99,938.5351768000983,None,938.5351768000983,None,0.0007021998753771186,None,938.5351768000983,None,9.098958333333332,2.409254700061865,944.8217632999877,None,944.8217632999877,None,944.8217632999877,None,944.8217632999877,None,None,None,947.2499864000129,None,,,,,,,,-0.055989583333333336,-0.2864583333333333,1,0,0,6.255907200044021,tijiao_random_2,,255,f,22,2023_Mar_23_1122,RL,2021.2.3,60.02501843650336,
0,0.3,0.225,0,73,73,73,,,,,,,,,,,,,,,None,None,None,None,None,949.0058290000306,None,949.0058290000306,None,949.0058290000306,None,949.0058290000306,None,j,0.3777865000301972,949.0058290000306,None,949.0058290000306,None,949.421525600017,None,949.421525600017,None,949.421525600017,None,949.421525600017,None,949.421525600017,None,949.421525600017,None,949.7187213000143,None,949.7187213000143,None,951.150339200045,None,951.150339200045,None,951.150339200045,None,951.150339200045,None,951.150339200045,None,951.150339200045,None,951.150339200045,None,951.150339200045,None,951.150339200045,None,38,50,76,68,68,43,953.6750393999973,None,2.0,2.634290099958889,953.6750393999973,None,953.6750393999973,None,953.6750393999973,None,953.6750393999973,None,,None,None,,None,None,None,None,None,None,None,None,None,None,None,None,None,None,None,None,None,None,0.2,2,None,None,None,None,None,None,None,None,None,None,None,None,,None,None,None,None,None,None,None,None,None,None,None,None,None,None,None,None,None,None,None,None,956.3623612000374,None,,,,,,,,,,,,,,,,255,f,22,2023_Mar_23_1122,RL,2021.2.3,60.02501843650336,
1,-0.3,-0.225,0,74,74,74,,,,,,,,,,,,,,,None,None,None,None,None,958.1121290000156,None,958.1121290000156,None,958.1121290000156,None,958.1121290000156,None,j,0.7113134000683203,958.1121290000156,None,958.1121290000156,None,958.8636888000183,None,958.8636888000183,None,958.8636888000183,None,958.8636888000183,None,958.8636888000183,None,958.8636888000183,None,959.1583903999999,None,959.1583903999999,None,960.5554980000015,None,960.5554980000015,None,960.5554980000015,None,960.5554980000015,None,960.5554980000015,None,960.5554980000015,None,960.5554980000015,None,960.5554980000015,None,960.5554980000015,None,43,37,71,74,74,82,None,None,None,None,None,None,None,None,None,None,None,None,89,963.090947000077,None,89,963.090947000077,None,963.090947000077,None,963.090947000077,None,963.090947000077,None,963.090947000077,None,963.090947000077,None,963.090947000077,None,0.012727400055155158,None,963.090947000077,None,0.6,0,None,None,None,None,None,None,None,None,None,None,None,None,,None,None,None,None,None,None,None,None,8.8125,2.356554999947548,967.3691340000369,None,967.3691340000369,None,967.3691340000369,None,967.3691340000369,None,None,None,969.7472684000386,None,-0.11067708333333333,-0.296875,1,0,0,4.232610600069165,tijiao,,,,,,,,,255,f,22,2023_Mar_23_1122,RL,2021.2.3,60.02501843650336,
0,0.3,0.225,0,75,75,75,,,,,,,,,,,,,,,971.3003176000202,None,q,971.3003176000202,None,1055.355490499991,None,1055.355490499991,None,1055.355490499991,None,1055.355490499991,None,i,0.7125063999556005,1055.355490499991,None,1055.355490499991,None,1056.1141633000225,None,1056.1141633000225,None,1056.1141633000225,None,1056.1141633000225,None,1056.1141633000225,None,1056.1141633000225,None,1056.4095952000935,None,1056.4095952000935,None,1058.3417269000784,None,1058.3417269000784,None,1058.3417269000784,None,1058.3417269000784,None,1058.3417269000784,None,1058.3417269000784,None,1058.3417269000784,None,1058.3417269000784,None,1058.3417269000784,None,37,40,71,69,71,64,None,None,None,None,None,None,None,None,None,None,None,None,,None,None,,None,None,None,None,None,None,None,None,None,None,None,None,None,None,None,None,None,None,0.6,1,1060.8864597000647,None,1060.8864597000647,None,1060.8864597000647,None,1060.8864597000647,None,1060.8864597000647,None,1060.8864597000647,None,99,1060.8864597000647,None,1060.8864597000647,None,0.000425499863922596,None,1060.8864597000647,None,10.036458333333332,2.4134698000270873,1067.4409700999968,None,1067.4409700999968,None,1067.4409700999968,None,1067.4409700999968,None,None,None,1069.8683002000907,None,,,,,,,,0.13411458333333334,-0.3020833333333333,1,0,0,6.522716500097886,tijiao_random_2,84.02038720005658,255,f,22,2023_Mar_23_1122,RL,2021.2.3,60.02501843650336,
1,-0.3,-0.225,0,76,76,76,,,,,,,,,,,,,,,None,None,None,None,None,1071.390201500035,None,1071.390201500035,None,1071.390201500035,None,1071.390201500035,None,j,0.6075105000054464,1071.390201500035,None,1071.390201500035,None,1072.0417921000626,None,1072.0417921000626,None,1072.0417921000626,None,1072.0417921000626,None,1072.0417921000626,None,1072.0417921000626,None,1072.337198400055,None,1072.337198400055,None,1073.7178333000047,None,1073.7178333000047,None,1073.7178333000047,None,1073.7178333000047,None,1073.7178333000047,None,1073.7178333000047,None,1073.7178333000047,None,1073.7178333000047,None,1073.7178333000047,None,30,44,69,65,65,61,None,None,None,None,None,None,None,None,None,None,None,None,90,1076.2496529000346,None,90,1076.2496529000346,None,1076.2496529000346,None,1076.2496529000346,None,1076.2496529000346,None,1076.2496529000346,None,1076.2496529000346,None,1076.2496529000346,None,0.016438699909485877,None,1076.2496529000346,None,0.2,0,None,None,None,None,None,None,None,None,None,None,None,None,,None,None,None,None,None,None,None,None,9.580729166666668,2.120751699898392,1083.7130461999914,None,1083.7130461999914,None,1083.7130461999914,None,1083.7130461999914,None,None,None,1085.8459854000248,None,0.14973958333333334,-0.2786458333333333,1,0,0,7.405503900023177,tijiao,,,,,,,,,255,f,22,2023_Mar_23_1122,RL,2021.2.3,60.02501843650336,
