bandit0,black_x_pos_random,black_y_pos_random,trials.thisRepN,trials.thisTrialN,trials.thisN,trials.thisIndex,instru_img1.started,instru_resp.started,instru_resp.keys,instru_resp.rt,instru_img2.started,instru_resp2.started,instru_resp2.keys,instru_resp2.rt,fixbefore_2.started,rest_response.keys,red.started,green.started,yellow.started,blue.started,choose_bandit.started,Fixation.started,choose_bandit.keys,choose_bandit.rt,black.started,red_2.started,green_2.started,yellow_2.started,blue_2.started,fixation_2.started,docs.started,wait_playerB.started,docs.stopped,wait_playerB.stopped,black.stopped,red_2.stopped,green_2.stopped,yellow_2.stopped,blue_2.stopped,fixation_2.stopped,black_com.started,reward_sub.started,palyerb.started,reward__sub.started,compare.started,red_compare.started,green_com.started,yellow_com.started,blue_com.started,rewardyellow,rewardred,rewardblue,rewardgreen,subchoose,playerb,slider.response,slider.rt,expectself.started,expect_self_black.started,expect_self.started,expect_self_red.started,expect_self_green.started,expect_self_yellow.started,expect_self_blue.started,tijiao.started,tijiao_click.started,check.started,expectself.text,value_expect_self,tijiao_click.x,tijiao_click.y,tijiao_click.leftButton,tijiao_click.midButton,tijiao_click.rightButton,tijiao_click.time,tijiao_click.clicked_name,random_whicharm,whether_ask,expect_random_3.text,tijiao_random.x,tijiao_random.y,tijiao_random.leftButton,tijiao_random.midButton,tijiao_random.rightButton,tijiao_random.time,tijiao_random.clicked_name,slider_2.started,image_7.started,confi.started,notconfi.started,slider_2.response,slider_2.rt,intertrialfix.started,intertrialfix.stopped,image_3.started,slider.started,text.started,image_4.started,image_5.started,jiantou_random.started,expect_red.started,expect_green.started,expect_yellow.started,expect_blue.started,expect_random_2.started,expect_random_3.started,tijiao_random_2.started,tijiao_random.started,check_2.started,rest_image.started,rest_response.started,rest_response.rt,participant,Gender,Age,date,expName,psychopyVersion,frameRate,
,,,,,,,25.022349399980158,25.022349399980158,space,16.120462999970187,,,,,,,,,,,,,,,,,,,,,,,,,,,,,,,,,,,,,,,,,,,,,,,,,,,,,,,,,,,,,,,,,,,,,,,,,,,,,,,,,,,,,,,,,,,,,,,,,,,,,,,257,f,22,2023-03-23_13h36.45.542,RL,2022.2.4,60.164091539017534,
,,,,,,,,,,,41.168793499993626,41.168793499993626,s,49.90602819999913,,,,,,,,,,,,,,,,,,,,,,,,,,,,,,,,,,,,,,,,,,,,,,,,,,,,,,,,,,,,,,,,,,,,,,,,,,,,,,,,,,,,,,,,,,,,,,,,,,,257,f,22,2023-03-23_13h36.45.542,RL,2022.2.4,60.164091539017534,
1,-0.3,-0.225,0,0,0,0,,,,,,,,,91.09180450002896,None,92.1260903000366,92.1260903000366,92.1260903000366,92.1260903000366,92.1260903000366,92.1260903000366,j,0.5921759000048041,92.7594478999963,92.7594478999963,92.7594478999963,92.7594478999963,92.7594478999963,92.7594478999963,93.03650360001484,93.03650360001484,94.94759180000983,94.94759180000983,94.96681700000772,94.96681700000772,94.96681700000772,94.96681700000772,94.96681700000772,94.96681700000772,94.96681700000772,94.96681700000772,94.96681700000772,94.96681700000772,94.96681700000772,94.96681700000772,94.96681700000772,94.96681700000772,94.96681700000772,67,40,55,45,45,39,None,None,97.49844049999956,97.49844049999956,97.49844049999956,97.49844049999956,97.49844049999956,97.49844049999956,97.49844049999956,97.49844049999956,0.006740200042258948,97.49844049999956,54,54,[0.10740740740740741],[-0.2824074074074074],[1],[0],[0],[7.422717500012368],['tijiao'],-0.6,0,,[],[],[],[],[],[],[],105.03804680000758,105.03804680000758,105.03804680000758,105.03804680000758,6.944444444444445,3.3266405999893323,108.41677270003129,110.35547200002475,,,,,,,,,,,,,,,,,,,257,f,22,2023-03-23_13h36.45.542,RL,2022.2.4,60.164091539017534,
0,0.3,0.225,0,1,1,1,,,,,,,,,,None,110.35547200002475,110.35547200002475,110.35547200002475,110.35547200002475,110.35547200002475,110.35547200002475,r,0.5499622999923304,110.93800460000057,110.93800460000057,110.93800460000057,110.93800460000057,110.93800460000057,110.93800460000057,111.23665390000679,111.23665390000679,112.2334779999801,112.2334779999801,112.2334779999801,112.2334779999801,112.2334779999801,112.2334779999801,112.2334779999801,112.2334779999801,112.2334779999801,112.2334779999801,112.2334779999801,112.2334779999801,112.2334779999801,112.2334779999801,112.2334779999801,112.2334779999801,112.2334779999801,76,34,51,44,76,64,None,None,114.74392119998811,114.74392119998811,114.74392119998811,114.74392119998811,114.74392119998811,114.74392119998811,114.74392119998811,114.74392119998811,0.005960899987258017,114.74392119998811,80,80,[0.017592592592592594],[-0.287962962962963],[1],[0],[0],[6.206872799957637],['tijiao'],0.2,0,,[],[],[],[],[],[],[],120.97227440000279,120.97227440000279,120.97227440000279,120.97227440000279,7.027777777777778,2.3119303999701515,123.30261220003013,124.98225400003139,,,,,,,,,,,,,,,,,,,257,f,22,2023-03-23_13h36.45.542,RL,2022.2.4,60.164091539017534,
1,-0.3,-0.225,0,2,2,2,,,,,,,,,,None,124.98225400003139,124.98225400003139,124.98225400003139,124.98225400003139,124.98225400003139,124.98225400003139,r,0.6646875999867916,125.66600279998966,125.66600279998966,125.66600279998966,125.66600279998966,125.66600279998966,125.66600279998966,125.96327960002236,125.96327960002236,127.87444610003149,127.87444610003149,127.87444610003149,127.87444610003149,127.87444610003149,127.87444610003149,127.87444610003149,127.87444610003149,127.87444610003149,127.87444610003149,127.87444610003149,127.87444610003149,127.87444610003149,127.87444610003149,127.87444610003149,127.87444610003149,127.87444610003149,73,25,63,47,73,60,5.0,3.7384285000152886,,,,,,,,,,,,,[],[],[],[],[],[],[],0.2,2,,[],[],[],[],[],[],[],,,,,None,None,134.1546467000153,136.00207350001438,130.38407110003754,130.38407110003754,130.38407110003754,130.38407110003754,130.38407110003754,,,,,,,,,,,,,,257,f,22,2023-03-23_13h36.45.542,RL,2022.2.4,60.164091539017534,
0,0.3,0.225,0,3,3,3,,,,,,,,,,None,136.00207350001438,136.00207350001438,136.00207350001438,136.00207350001438,136.00207350001438,136.00207350001438,j,0.4493438000208698,136.48595110001042,136.48595110001042,136.48595110001042,136.48595110001042,136.48595110001042,136.48595110001042,136.7835885999957,136.7835885999957,138.4787846999825,138.4787846999825,138.4787846999825,138.4787846999825,138.4787846999825,138.4787846999825,138.4787846999825,138.4787846999825,138.4787846999825,138.4787846999825,138.4787846999825,138.4787846999825,138.4787846999825,138.4787846999825,138.4787846999825,138.4787846999825,138.4787846999825,73,37,57,52,52,54,4.0,3.0074059999897145,,,,,,,,,,,,,[],[],[],[],[],[],[],0.6,2,,[],[],[],[],[],[],[],,,,,None,None,144.02093490003608,146.00787860003766,140.98807070002658,140.98807070002658,140.98807070002658,140.98807070002658,140.98807070002658,,,,,,,,,,,,,,257,f,22,2023-03-23_13h36.45.542,RL,2022.2.4,60.164091539017534,
1,-0.3,-0.225,0,4,4,4,,,,,,,,,,None,146.00787860003766,146.00787860003766,146.00787860003766,146.00787860003766,146.00787860003766,146.00787860003766,i,0.5335701000294648,146.57390250003664,146.57390250003664,146.57390250003664,146.57390250003664,146.57390250003664,146.57390250003664,146.87290760001633,146.87290760001633,148.58477080002194,148.58477080002194,148.58477080002194,148.58477080002194,148.58477080002194,148.58477080002194,148.58477080002194,148.58477080002194,148.58477080002194,148.58477080002194,148.58477080002194,148.58477080002194,148.58477080002194,148.58477080002194,148.58477080002194,148.58477080002194,148.58477080002194,63,44,68,61,68,35,None,None,,,,,,,,,,,,,[],[],[],[],[],[],[],-0.6,1,46,[0.018518518518518517],[-0.28703703703703703],[1],[0],[0],[8.292187799990643],['tijiao_random_2'],159.40914529998554,159.40914529998554,159.40914529998554,159.40914529998554,6.037037037037036,2.786025099980179,162.2129253000021,164.0252988000284,,,,,,151.10708079999313,151.10708079999313,151.10708079999313,151.10708079999313,151.10708079999313,151.10708079999313,151.10708079999313,151.10708079999313,0.007013199967332184,151.10708079999313,,,,257,f,22,2023-03-23_13h36.45.542,RL,2022.2.4,60.164091539017534,
0,0.3,0.225,0,5,5,5,,,,,,,,,,None,164.0252988000284,164.0252988000284,164.0252988000284,164.0252988000284,164.0252988000284,164.0252988000284,i,0.7746541000087745,164.82562060002238,164.82562060002238,164.82562060002238,164.82562060002238,164.82562060002238,164.82562060002238,165.12287369999103,165.12287369999103,166.25314440001966,166.25314440001966,166.25314440001966,166.25314440001966,166.25314440001966,166.25314440001966,166.25314440001966,166.25314440001966,166.25314440001966,166.25314440001966,166.25314440001966,166.25314440001966,166.25314440001966,166.25314440001966,166.25314440001966,166.25314440001966,166.25314440001966,66,41,58,51,58,61,4.0,3.024577700009104,,,,,,,,,,,,,[],[],[],[],[],[],[],0.2,2,,[],[],[],[],[],[],[],,,,,None,None,171.8145477999933,173.3669373000157,168.76219799998216,168.76219799998216,168.76219799998216,168.76219799998216,168.76219799998216,,,,,,,,,,,,,,257,f,22,2023-03-23_13h36.45.542,RL,2022.2.4,60.164091539017534,
1,-0.3,-0.225,0,6,6,6,,,,,,,,,,None,173.3669373000157,173.3669373000157,173.3669373000157,173.3669373000157,173.3669373000157,173.3669373000157,f,0.5442255000234582,173.93855830002576,173.93855830002576,173.93855830002576,173.93855830002576,173.93855830002576,173.93855830002576,174.23143699998036,174.23143699998036,175.72723690001294,175.72723690001294,175.7438584000338,175.7438584000338,175.7438584000338,175.7438584000338,175.7438584000338,175.7438584000338,175.7438584000338,175.7438584000338,175.7438584000338,175.7438584000338,175.7438584000338,175.7438584000338,175.7438584000338,175.7438584000338,175.7438584000338,68,43,54,49,43,48,3.0,3.0239137000171468,,,,,,,,,,,,,[],[],[],[],[],[],[],0.2,3,,[],[],[],[],[],[],[],,,,,None,None,181.30399819999002,183.15677350002807,178.25277580000693,178.25277580000693,178.25277580000693,178.25277580000693,178.25277580000693,,,,,,,,,,,,,,257,f,22,2023-03-23_13h36.45.542,RL,2022.2.4,60.164091539017534,
0,0.3,0.225,0,7,7,7,,,,,,,,,,None,183.15677350002807,183.15677350002807,183.15677350002807,183.15677350002807,183.15677350002807,183.15677350002807,j,0.3700636000139639,183.55661510000937,183.55661510000937,183.55661510000937,183.55661510000937,183.55661510000937,183.55661510000937,183.8551816000254,183.8551816000254,185.58377409999957,185.58377409999957,185.58377409999957,185.58377409999957,185.58377409999957,185.58377409999957,185.58377409999957,185.58377409999957,185.58377409999957,185.58377409999957,185.58377409999957,185.58377409999957,185.58377409999957,185.58377409999957,185.58377409999957,185.58377409999957,185.58377409999957,74,42,63,50,50,64,None,None,,,,,,,,,,,,,[],[],[],[],[],[],[],-0.2,1,47,"[0.03981481481481482, 0.040740740740740744]","[-0.2462962962962963, -0.29907407407407405]","[1, 1]","[0, 0]","[0, 0]","[7.992732599959709, 8.891092699952424]",['tijiao_random_2'],197.00845429999754,197.00845429999754,197.00845429999754,197.00845429999754,6.111111111111111,4.778704199998174,201.8050717000151,203.46810380002717,,,,,,188.10249590000603,188.10249590000603,188.10249590000603,188.10249590000603,188.10249590000603,188.10249590000603,188.10249590000603,188.10249590000603,0.006783700024243444,188.10249590000603,,,,257,f,22,2023-03-23_13h36.45.542,RL,2022.2.4,60.164091539017534,
1,-0.3,-0.225,0,8,8,8,,,,,,,,,,None,203.46810380002717,203.46810380002717,203.46810380002717,203.46810380002717,203.46810380002717,203.46810380002717,r,0.4730122000328265,203.97010919998866,203.97010919998866,203.97010919998866,203.97010919998866,203.97010919998866,203.97010919998866,204.2657934000017,204.2657934000017,205.6619016000186,205.6619016000186,205.67897449998418,205.67897449998418,205.67897449998418,205.67897449998418,205.67897449998418,205.67897449998418,205.67897449998418,205.67897449998418,205.67897449998418,205.67897449998418,205.67897449998418,205.67897449998418,205.67897449998418,205.67897449998418,205.67897449998418,55,49,63,65,55,33,6.0,3.423430900031235,,,,,,,,,,,,,[],[],[],[],[],[],[],-0.2,2,,[],[],[],[],[],[],[],,,,,None,None,211.6399906000006,213.59018800000194,208.18788089998998,208.18788089998998,208.18788089998998,208.18788089998998,208.18788089998998,,,,,,,,,,,,,,257,f,22,2023-03-23_13h36.45.542,RL,2022.2.4,60.164091539017534,
0,0.3,0.225,0,9,9,9,,,,,,,,,,None,213.59018800000194,213.59018800000194,213.59018800000194,213.59018800000194,213.59018800000194,213.59018800000194,j,0.8957117000245489,214.50613100000191,214.50613100000191,214.50613100000191,214.50613100000191,214.50613100000191,214.50613100000191,214.80368850001832,214.80368850001832,216.69873970001936,216.69873970001936,216.69873970001936,216.69873970001936,216.69873970001936,216.69873970001936,216.69873970001936,216.69873970001936,216.69873970001936,216.69873970001936,216.69873970001936,216.69873970001936,216.69873970001936,216.69873970001936,216.69873970001936,216.69873970001936,216.69873970001936,66,44,51,65,65,63,4.0,4.886079999967478,,,,,,,,,,,,,[],[],[],[],[],[],[],-0.2,2,,[],[],[],[],[],[],[],,,,,None,None,224.12204930000007,226.05658000003314,219.20807280001463,219.20807280001463,219.20807280001463,219.20807280001463,219.20807280001463,,,,,,,,,,,,,,257,f,22,2023-03-23_13h36.45.542,RL,2022.2.4,60.164091539017534,
1,-0.3,-0.225,0,10,10,10,,,,,,,,,,None,226.05658000003314,226.05658000003314,226.05658000003314,226.05658000003314,226.05658000003314,226.05658000003314,j,0.5474912000354379,226.62300020002294,226.62300020002294,226.62300020002294,226.62300020002294,226.62300020002294,226.62300020002294,226.9208303000196,226.9208303000196,228.15076470002532,228.15076470002532,228.15076470002532,228.15076470002532,228.15076470002532,228.15076470002532,228.15076470002532,228.15076470002532,228.15076470002532,228.15076470002532,228.15076470002532,228.15076470002532,228.15076470002532,228.15076470002532,228.15076470002532,228.15076470002532,228.15076470002532,58,39,55,72,72,49,5.0,2.9579705000505783,,,,,,,,,,,,,[],[],[],[],[],[],[],-0.2,2,,[],[],[],[],[],[],[],,,,,None,None,233.64631739998003,235.61356359999627,230.6595718000317,230.6595718000317,230.6595718000317,230.6595718000317,230.6595718000317,,,,,,,,,,,,,,257,f,22,2023-03-23_13h36.45.542,RL,2022.2.4,60.164091539017534,
0,0.3,0.225,0,11,11,11,,,,,,,,,,None,235.61356359999627,235.61356359999627,235.61356359999627,235.61356359999627,235.61356359999627,235.61356359999627,r,0.36128889996325597,235.99695990001783,235.99695990001783,235.99695990001783,235.99695990001783,235.99695990001783,235.99695990001783,236.29535269999178,236.29535269999178,237.97413990000496,237.97413990000496,237.97413990000496,237.97413990000496,237.97413990000496,237.97413990000496,237.97413990000496,237.97413990000496,237.97413990000496,237.97413990000496,237.97413990000496,237.97413990000496,237.97413990000496,237.97413990000496,237.97413990000496,237.97413990000496,237.97413990000496,62,45,44,56,62,66,None,None,,,,,,,,,,,,,[],[],[],[],[],[],[],0.2,1,68,[0.01574074074074074],[-0.29259259259259257],[1],[0],[0],[6.5970068000024185],['tijiao_random_2'],247.10271619999548,247.10271619999548,247.10271619999548,247.10271619999548,7.972222222222221,4.399055199988652,251.51955490000546,253.3315441000159,,,,,,240.4927632000181,240.4927632000181,240.4927632000181,240.4927632000181,240.4927632000181,240.4927632000181,240.4927632000181,240.4927632000181,0.00603030005004257,240.4927632000181,,,,257,f,22,2023-03-23_13h36.45.542,RL,2022.2.4,60.164091539017534,
1,-0.3,-0.225,0,12,12,12,,,,,,,,,,None,253.3315441000159,253.3315441000159,253.3315441000159,253.3315441000159,253.3315441000159,253.3315441000159,f,0.34089799999492243,253.7008130000322,253.7008130000322,253.7008130000322,253.7008130000322,253.7008130000322,253.7008130000322,253.99676300003193,253.99676300003193,255.07720230001723,255.07720230001723,255.07720230001723,255.07720230001723,255.07720230001723,255.07720230001723,255.07720230001723,255.07720230001723,255.07720230001723,255.07720230001723,255.07720230001723,255.07720230001723,255.07720230001723,255.07720230001723,255.07720230001723,255.07720230001723,255.07720230001723,63,32,47,61,32,55,None,None,,,,,,,,,,,,,[],[],[],[],[],[],[],0.2,1,55,[-0.0712962962962963],[-0.2972222222222222],[1],[0],[0],[11.482891999999993],['tijiao_random_2'],269.09180940000806,269.09180940000806,269.09180940000806,269.09180940000806,6.925925925925926,2.3216603999608196,271.4319459000253,273.3439347000094,,,,,,257.5969527999987,257.5969527999987,257.5969527999987,257.5969527999987,257.5969527999987,257.5969527999987,257.5969527999987,257.5969527999987,0.007144599978346378,257.5969527999987,,,,257,f,22,2023-03-23_13h36.45.542,RL,2022.2.4,60.164091539017534,
0,0.3,0.225,0,13,13,13,,,,,,,,,,None,273.3439347000094,273.3439347000094,273.3439347000094,273.3439347000094,273.3439347000094,273.3439347000094,i,0.67925909999758,274.04291870002635,274.04291870002635,274.04291870002635,274.04291870002635,274.04291870002635,274.04291870002635,274.3415394999902,274.3415394999902,275.6712610999821,275.6712610999821,275.6712610999821,275.6712610999821,275.6712610999821,275.6712610999821,275.6712610999821,275.6712610999821,275.6712610999821,275.6712610999821,275.6712610999821,275.6712610999821,275.6712610999821,275.6712610999821,275.6712610999821,275.6712610999821,275.6712610999821,69,22,41,61,41,44,4.0,3.8554820000426844,,,,,,,,,,,,,[],[],[],[],[],[],[],-0.2,2,,[],[],[],[],[],[],[],,,,,None,None,282.0646693999879,283.83188050001627,278.1799600000377,278.1799600000377,278.1799600000377,278.1799600000377,278.1799600000377,,,,,,,,,,,,,,257,f,22,2023-03-23_13h36.45.542,RL,2022.2.4,60.164091539017534,
1,-0.3,-0.225,0,14,14,14,,,,,,,,,,None,283.83188050001627,283.83188050001627,283.83188050001627,283.83188050001627,283.83188050001627,283.83188050001627,r,0.8110307000461034,284.6635239000316,284.6635239000316,284.6635239000316,284.6635239000316,284.6635239000316,284.6635239000316,284.9626537000295,284.9626537000295,286.9571034000255,286.9571034000255,286.9571034000255,286.9571034000255,286.9571034000255,286.9571034000255,286.9571034000255,286.9571034000255,286.9571034000255,286.9571034000255,286.9571034000255,286.9571034000255,286.9571034000255,286.9571034000255,286.9571034000255,286.9571034000255,286.9571034000255,55,40,41,63,55,43,5.0,3.274035600014031,,,,,,,,,,,,,[],[],[],[],[],[],[],0.6,2,,[],[],[],[],[],[],[],,,,,None,None,292.7682062999811,294.76900119998027,289.4662228000234,289.4662228000234,289.4662228000234,289.4662228000234,289.4662228000234,,,,,,,,,,,,,,257,f,22,2023-03-23_13h36.45.542,RL,2022.2.4,60.164091539017534,
0,0.3,0.225,0,15,15,15,,,,,,,,,,None,294.76900119998027,294.76900119998027,294.76900119998027,294.76900119998027,294.76900119998027,294.76900119998027,i,0.48975970002356917,295.28596750000725,295.28596750000725,295.28596750000725,295.28596750000725,295.28596750000725,295.28596750000725,295.58358350000344,295.58358350000344,297.5781324999989,297.5781324999989,297.5781324999989,297.5781324999989,297.5781324999989,297.5781324999989,297.5781324999989,297.5781324999989,297.5781324999989,297.5781324999989,297.5781324999989,297.5781324999989,297.5781324999989,297.5781324999989,297.5781324999989,297.5781324999989,297.5781324999989,62,43,51,65,51,70,None,None,300.090965099982,300.090965099982,300.090965099982,300.090965099982,300.090965099982,300.090965099982,300.090965099982,300.090965099982,0.00810719997389242,300.090965099982,60,60,[0.011111111111111112],[-0.2833333333333333],[1],[0],[0],[9.69561390002491],['tijiao'],0.2,0,,[],[],[],[],[],[],[],309.8074231999926,309.8074231999926,309.8074231999926,309.8074231999926,4.916666666666666,3.790089700021781,313.6163433000329,315.5619976000162,,,,,,,,,,,,,,,,,,,257,f,22,2023-03-23_13h36.45.542,RL,2022.2.4,60.164091539017534,
1,-0.3,-0.225,0,16,16,16,,,,,,,,,,None,315.5619976000162,315.5619976000162,315.5619976000162,315.5619976000162,315.5619976000162,315.5619976000162,i,0.3267191000049934,315.9114386999863,315.9114386999863,315.9114386999863,315.9114386999863,315.9114386999863,315.9114386999863,316.2106906999834,316.2106906999834,317.10803730000043,317.10803730000043,317.10803730000043,317.10803730000043,317.10803730000043,317.10803730000043,317.10803730000043,317.10803730000043,317.10803730000043,317.10803730000043,317.10803730000043,317.10803730000043,317.10803730000043,317.10803730000043,317.10803730000043,317.10803730000043,317.10803730000043,53,31,48,68,48,75,None,None,319.6200225999928,319.6200225999928,319.6200225999928,319.6200225999928,319.6200225999928,319.6200225999928,319.6200225999928,319.6200225999928,0.007554600015282631,319.6200225999928,46,46,[0.06388888888888888],[-0.2833333333333333],[1],[0],[0],[8.216250800003763],['tijiao'],0.6,0,,[],[],[],[],[],[],[],327.8574632999953,327.8574632999953,327.8574632999953,327.8574632999953,8.99074074074074,2.9932763000251725,330.8692872999818,332.54880370001774,,,,,,,,,,,,,,,,,,,257,f,22,2023-03-23_13h36.45.542,RL,2022.2.4,60.164091539017534,
0,0.3,0.225,0,17,17,17,,,,,,,,,,None,332.54880370001774,332.54880370001774,332.54880370001774,332.54880370001774,332.54880370001774,332.54880370001774,r,0.6132935999776237,333.18157120002434,333.18157120002434,333.18157120002434,333.18157120002434,333.18157120002434,333.18157120002434,333.4800069000339,333.4800069000339,335.3081026999862,335.3081026999862,335.3081026999862,335.3081026999862,335.3081026999862,335.3081026999862,335.3081026999862,335.3081026999862,335.3081026999862,335.3081026999862,335.3081026999862,335.3081026999862,335.3081026999862,335.3081026999862,335.3081026999862,335.3081026999862,335.3081026999862,69,36,50,63,69,54,5.0,2.824932500021532,,,,,,,,,,,,,[],[],[],[],[],[],[],-0.6,2,,[],[],[],[],[],[],[],,,,,None,None,340.6702827999834,342.28924270003336,337.81762450002134,337.81762450002134,337.81762450002134,337.81762450002134,337.81762450002134,,,,,,,,,,,,,,257,f,22,2023-03-23_13h36.45.542,RL,2022.2.4,60.164091539017534,
1,-0.3,-0.225,0,18,18,18,,,,,,,,,,None,342.28924270003336,342.28924270003336,342.28924270003336,342.28924270003336,342.28924270003336,342.28924270003336,j,0.4532592000323348,342.77461249998305,342.77461249998305,342.77461249998305,342.77461249998305,342.77461249998305,342.77461249998305,343.07087170000887,343.07087170000887,344.8990820000181,344.8990820000181,344.8990820000181,344.8990820000181,344.8990820000181,344.8990820000181,344.8990820000181,344.8990820000181,344.8990820000181,344.8990820000181,344.8990820000181,344.8990820000181,344.8990820000181,344.8990820000181,344.8990820000181,344.8990820000181,344.8990820000181,72,45,52,53,53,72,None,None,347.41062310000416,347.41062310000416,347.41062310000416,347.41062310000416,347.41062310000416,347.41062310000416,347.41062310000416,347.41062310000416,0.006948599999304861,347.41062310000416,56,56,[0.02962962962962963],[-0.2833333333333333],[1],[0],[0],[9.69599019997986],['tijiao'],0.2,0,,[],[],[],[],[],[],[],357.12933720002184,357.12933720002184,357.12933720002184,357.12933720002184,7.0092592592592595,2.243043700000271,359.3915210000123,361.32076770003187,,,,,,,,,,,,,,,,,,,257,f,22,2023-03-23_13h36.45.542,RL,2022.2.4,60.164091539017534,
0,0.3,0.225,0,19,19,19,,,,,,,,,,None,361.32076770003187,361.32076770003187,361.32076770003187,361.32076770003187,361.32076770003187,361.32076770003187,j,0.3732490999973379,361.7227162999916,361.7227162999916,361.7227162999916,361.7227162999916,361.7227162999916,361.7227162999916,362.01901340001496,362.01901340001496,363.24894010002026,363.24894010002026,363.24894010002026,363.24894010002026,363.24894010002026,363.24894010002026,363.24894010002026,363.24894010002026,363.24894010002026,363.24894010002026,363.24894010002026,363.24894010002026,363.24894010002026,363.24894010002026,363.24894010002026,363.24894010002026,363.24894010002026,67,51,46,58,58,64,4.0,6.165718999982346,,,,,,,,,,,,,[],[],[],[],[],[],[],0.6,2,,[],[],[],[],[],[],[],,,,,None,None,371.95333649998065,373.9026423000032,365.7581506000133,365.7581506000133,365.7581506000133,365.7581506000133,365.7581506000133,,,,,,,,,,,,,,257,f,22,2023-03-23_13h36.45.542,RL,2022.2.4,60.164091539017534,
1,-0.3,-0.225,0,20,20,20,,,,,,,,,,None,373.9026423000032,373.9026423000032,373.9026423000032,373.9026423000032,373.9026423000032,373.9026423000032,i,0.8037896999740042,374.73569100000896,374.73569100000896,374.73569100000896,374.73569100000896,374.73569100000896,374.73569100000896,375.0333865000284,375.0333865000284,376.4958824000205,376.4958824000205,376.4958824000205,376.4958824000205,376.4958824000205,376.4958824000205,376.4958824000205,376.4958824000205,376.4958824000205,376.4958824000205,376.4958824000205,376.4958824000205,376.4958824000205,376.4958824000205,376.4958824000205,376.4958824000205,376.4958824000205,68,47,46,56,46,61,None,None,,,,,,,,,,,,,[],[],[],[],[],[],[],-0.2,1,65,[-0.004629629629629629],[-0.26481481481481484],[1],[0],[0],[8.674067899992224],['tijiao_random_2'],387.703422999999,387.703422999999,387.703422999999,387.703422999999,7.935185185185185,7.372226400009822,395.0941291000345,396.64095040003303,,,,,,379.0154987000278,379.0154987000278,379.0154987000278,379.0154987000278,379.0154987000278,379.0154987000278,379.0154987000278,379.0154987000278,0.006740099983289838,379.0154987000278,,,,257,f,22,2023-03-23_13h36.45.542,RL,2022.2.4,60.164091539017534,
0,0.3,0.225,0,21,21,21,,,,,,,,,,None,396.64095040003303,396.64095040003303,396.64095040003303,396.64095040003303,396.64095040003303,396.64095040003303,f,0.37473669997416437,397.0438143000356,397.0438143000356,397.0438143000356,397.0438143000356,397.0438143000356,397.0438143000356,397.33920719998423,397.33920719998423,398.2535417000181,398.2535417000181,398.2535417000181,398.2535417000181,398.2535417000181,398.2535417000181,398.2535417000181,398.2535417000181,398.2535417000181,398.2535417000181,398.2535417000181,398.2535417000181,398.2535417000181,398.2535417000181,398.2535417000181,398.2535417000181,398.2535417000181,51,37,54,54,37,55,2.0,3.9212731000152417,,,,,,,,,,,,,[],[],[],[],[],[],[],0.2,2,,[],[],[],[],[],[],[],,,,,None,None,404.70964690000983,406.3146899000276,400.7625099000288,400.7625099000288,400.7625099000288,400.7625099000288,400.7625099000288,,,,,,,,,,,,,,257,f,22,2023-03-23_13h36.45.542,RL,2022.2.4,60.164091539017534,
1,-0.3,-0.225,0,22,22,22,,,,,,,,,,None,406.3146899000276,406.3146899000276,406.3146899000276,406.3146899000276,406.3146899000276,406.3146899000276,i,0.7007811000221409,407.0485511000152,407.0485511000152,407.0485511000152,407.0485511000152,407.0485511000152,407.0485511000152,407.34496770001715,407.34496770001715,408.3591636000201,408.3591636000201,408.3591636000201,408.3591636000201,408.3591636000201,408.3591636000201,408.3591636000201,408.3591636000201,408.3591636000201,408.3591636000201,408.3591636000201,408.3591636000201,408.3591636000201,408.3591636000201,408.3591636000201,408.3591636000201,408.3591636000201,55,45,52,55,52,60,4.0,2.8246097000082955,,,,,,,,,,,,,[],[],[],[],[],[],[],-0.6,3,,[],[],[],[],[],[],[],,,,,None,None,413.71856080001453,415.6889216999989,410.8683933999855,410.8683933999855,410.8683933999855,410.8683933999855,410.8683933999855,,,,,,,,,,,,,,257,f,22,2023-03-23_13h36.45.542,RL,2022.2.4,60.164091539017534,
0,0.3,0.225,0,23,23,23,,,,,,,,,,None,415.6889216999989,415.6889216999989,415.6889216999989,415.6889216999989,415.6889216999989,415.6889216999989,r,0.6768350999918766,416.3879237000365,416.3879237000365,416.3879237000365,416.3879237000365,416.3879237000365,416.3879237000365,416.68653609999456,416.68653609999456,418.2654083999805,418.2654083999805,418.2654083999805,418.2654083999805,418.2654083999805,418.2654083999805,418.2654083999805,418.2654083999805,418.2654083999805,418.2654083999805,418.2654083999805,418.2654083999805,418.2654083999805,418.2654083999805,418.2654083999805,418.2654083999805,418.2654083999805,56,45,63,58,56,59,4.0,2.243080399988685,,,,,,,,,,,,,[],[],[],[],[],[],[],-0.2,3,,[],[],[],[],[],[],[],,,,,None,None,423.0434974000091,424.8637108000112,420.7746194000356,420.7746194000356,420.7746194000356,420.7746194000356,420.7746194000356,,,,,,,,,,,,,,257,f,22,2023-03-23_13h36.45.542,RL,2022.2.4,60.164091539017534,
1,-0.3,-0.225,0,24,24,24,,,,,,,,,,None,424.8637108000112,424.8637108000112,424.8637108000112,424.8637108000112,424.8637108000112,424.8637108000112,r,0.9683889000443742,425.8631847000215,425.8631847000215,425.8631847000215,425.8631847000215,425.8631847000215,425.8631847000215,426.16022060002433,426.16022060002433,427.756140100013,427.756140100013,427.7728567000013,427.7728567000013,427.7728567000013,427.7728567000013,427.7728567000013,427.7728567000013,427.7728567000013,427.7728567000013,427.7728567000013,427.7728567000013,427.7728567000013,427.7728567000013,427.7728567000013,427.7728567000013,427.7728567000013,56,36,51,62,56,52,None,None,430.2848249000381,430.2848249000381,430.2848249000381,430.2848249000381,430.2848249000381,430.2848249000381,430.2848249000381,430.2848249000381,0.007698100002016872,430.2848249000381,56,56,[0.012962962962962963],[-0.28703703703703703],[1],[0],[0],[4.227200599969365],['tijiao'],0.2,0,,[],[],[],[],[],[],[],434.5338085999829,434.5338085999829,434.5338085999829,434.5338085999829,9.99074074074074,2.1447815999854356,436.6972429000307,438.64283720002277,,,,,,,,,,,,,,,,,,,257,f,22,2023-03-23_13h36.45.542,RL,2022.2.4,60.164091539017534,
0,0.3,0.225,0,25,25,25,,,,,,,,,,None,438.64283720002277,438.64283720002277,438.64283720002277,438.64283720002277,438.64283720002277,438.64283720002277,r,0.39225130004342645,439.0602837000042,439.0602837000042,439.0602837000042,439.0602837000042,439.0602837000042,439.0602837000042,439.3576166999992,439.3576166999992,440.8704549000249,440.8704549000249,440.8704549000249,440.8704549000249,440.8704549000249,440.8704549000249,440.8704549000249,440.8704549000249,440.8704549000249,440.8704549000249,440.8704549000249,440.8704549000249,440.8704549000249,440.8704549000249,440.8704549000249,440.8704549000249,440.8704549000249,46,41,58,61,46,70,None,None,,,,,,,,,,,,,[],[],[],[],[],[],[],0.2,1,67,[0.022222222222222223],[-0.2675925925925926],[1],[0],[0],[7.111012100009248],['tijiao_random_2'],450.5162797999801,450.5162797999801,450.5162797999801,450.5162797999801,6.935185185185185,3.033751000009943,453.568017099984,455.56337590003386,,,,,,443.3907746000332,443.3907746000332,443.3907746000332,443.3907746000332,443.3907746000332,443.3907746000332,443.3907746000332,443.3907746000332,0.0073432999779470265,443.3907746000332,,,,257,f,22,2023-03-23_13h36.45.542,RL,2022.2.4,60.164091539017534,
1,-0.3,-0.225,0,26,26,26,,,,,,,,,,None,455.56337590003386,455.56337590003386,455.56337590003386,455.56337590003386,455.56337590003386,455.56337590003386,i,0.3620037999935448,455.94772220001323,455.94772220001323,455.94772220001323,455.94772220001323,455.94772220001323,455.94772220001323,456.2451637000195,456.2451637000195,458.2063554000342,458.2063554000342,458.2063554000342,458.2063554000342,458.2063554000342,458.2063554000342,458.2063554000342,458.2063554000342,458.2063554000342,458.2063554000342,458.2063554000342,458.2063554000342,458.2063554000342,458.2063554000342,458.2063554000342,458.2063554000342,458.2063554000342,63,37,59,60,59,46,None,None,460.7179600999807,460.7179600999807,460.7179600999807,460.7179600999807,460.7179600999807,460.7179600999807,460.7179600999807,460.7179600999807,0.007475299993529916,460.7179600999807,57,57,[0.07592592592592592],[-0.29444444444444445],[1],[0],[0],[5.906136300007347],['tijiao'],-0.6,0,,[],[],[],[],[],[],[],466.64501099998597,466.64501099998597,466.64501099998597,466.64501099998597,8.99074074074074,2.827041400014423,469.4911787000019,471.25401640002383,,,,,,,,,,,,,,,,,,,257,f,22,2023-03-23_13h36.45.542,RL,2022.2.4,60.164091539017534,
0,0.3,0.225,0,27,27,27,,,,,,,,,,None,471.25401640002383,471.25401640002383,471.25401640002383,471.25401640002383,471.25401640002383,471.25401640002383,i,0.3865194999962114,471.67168339999625,471.67168339999625,471.67168339999625,471.67168339999625,471.67168339999625,471.67168339999625,471.96906859998126,471.96906859998126,473.0990883000195,473.0990883000195,473.0990883000195,473.0990883000195,473.0990883000195,473.0990883000195,473.0990883000195,473.0990883000195,473.0990883000195,473.0990883000195,473.0990883000195,473.0990883000195,473.0990883000195,473.0990883000195,473.0990883000195,473.0990883000195,473.0990883000195,56,43,54,52,54,54,None,None,475.60924449999584,475.60924449999584,475.60924449999584,475.60924449999584,475.60924449999584,475.60924449999584,475.60924449999584,475.60924449999584,0.005229000002145767,475.60924449999584,54,54,[0.08055555555555556],[-0.27870370370370373],[1],[0],[0],[9.249687000003178],['tijiao'],-0.2,0,,[],[],[],[],[],[],[],484.8786124000326,484.8786124000326,484.8786124000326,484.8786124000326,10.027777777777779,2.6943177000503056,487.5916515000281,489.18825330003165,,,,,,,,,,,,,,,,,,,257,f,22,2023-03-23_13h36.45.542,RL,2022.2.4,60.164091539017534,
1,-0.3,-0.225,0,28,28,28,,,,,,,,,,None,489.18825330003165,489.18825330003165,489.18825330003165,489.18825330003165,489.18825330003165,489.18825330003165,i,0.41131290001794696,489.6225159000023,489.6225159000023,489.6225159000023,489.6225159000023,489.6225159000023,489.6225159000023,489.91988970001694,489.91988970001694,491.26606629998423,491.26606629998423,491.26606629998423,491.26606629998423,491.26606629998423,491.26606629998423,491.26606629998423,491.26606629998423,491.26606629998423,491.26606629998423,491.26606629998423,491.26606629998423,491.26606629998423,491.26606629998423,491.26606629998423,491.26606629998423,491.26606629998423,49,35,56,60,56,29,6.0,3.290472000022419,,,,,,,,,,,,,[],[],[],[],[],[],[],0.6,3,,[],[],[],[],[],[],[],,,,,None,None,497.09058070002357,499.0612684999942,493.77512790000765,493.77512790000765,493.77512790000765,493.77512790000765,493.77512790000765,,,,,,,,,,,,,,257,f,22,2023-03-23_13h36.45.542,RL,2022.2.4,60.164091539017534,
0,0.3,0.225,0,29,29,29,,,,,,,,,,None,499.0612684999942,499.0612684999942,499.0612684999942,499.0612684999942,499.0612684999942,499.0612684999942,r,0.9289244000101462,500.00971330003813,500.00971330003813,500.00971330003813,500.00971330003813,500.00971330003813,500.00971330003813,500.30821849999484,500.30821849999484,501.5218392999959,501.5218392999959,501.5218392999959,501.5218392999959,501.5218392999959,501.5218392999959,501.5218392999959,501.5218392999959,501.5218392999959,501.5218392999959,501.5218392999959,501.5218392999959,501.5218392999959,501.5218392999959,501.5218392999959,501.5218392999959,501.5218392999959,63,32,55,65,63,54,None,None,504.03164549998473,504.03164549998473,504.03164549998473,504.03164549998473,504.03164549998473,504.03164549998473,504.03164549998473,504.03164549998473,0.005768999981228262,504.03164549998473,62,62,[0.04351851851851852],[-0.2712962962962963],[1],[0],[0],[9.099540700030047],['tijiao'],0.2,0,,[],[],[],[],[],[],[],513.1539325999911,513.1539325999911,513.1539325999911,513.1539325999911,8.037037037037038,2.641752300027292,515.814740700007,517.6271424000151,,,,,,,,,,,,,,,,,,,257,f,22,2023-03-23_13h36.45.542,RL,2022.2.4,60.164091539017534,
1,-0.3,-0.225,0,30,30,30,,,,,,,,,,None,517.6271424000151,517.6271424000151,517.6271424000151,517.6271424000151,517.6271424000151,517.6271424000151,r,0.33651280001504347,517.9956756000174,517.9956756000174,517.9956756000174,517.9956756000174,517.9956756000174,517.9956756000174,518.2925704999943,518.2925704999943,520.2371789999888,520.2371789999888,520.2371789999888,520.2371789999888,520.2371789999888,520.2371789999888,520.2371789999888,520.2371789999888,520.2371789999888,520.2371789999888,520.2371789999888,520.2371789999888,520.2371789999888,520.2371789999888,520.2371789999888,520.2371789999888,520.2371789999888,53,47,58,68,53,49,3.0,4.387311499973293,,,,,,,,,,,,,[],[],[],[],[],[],[],0.6,2,,[],[],[],[],[],[],[],,,,,None,None,527.1596987000084,528.9300718000159,522.7462067999877,522.7462067999877,522.7462067999877,522.7462067999877,522.7462067999877,,,,,,,,,,,,,,257,f,22,2023-03-23_13h36.45.542,RL,2022.2.4,60.164091539017534,
0,0.3,0.225,0,31,31,31,,,,,,,,,,None,528.9300718000159,528.9300718000159,528.9300718000159,528.9300718000159,528.9300718000159,528.9300718000159,i,0.5329076999914832,529.4962130000349,529.4962130000349,529.4962130000349,529.4962130000349,529.4962130000349,529.4962130000349,529.7945078000193,529.7945078000193,531.3069759000209,531.3069759000209,531.3069759000209,531.3069759000209,531.3069759000209,531.3069759000209,531.3069759000209,531.3069759000209,531.3069759000209,531.3069759000209,531.3069759000209,531.3069759000209,531.3069759000209,531.3069759000209,531.3069759000209,531.3069759000209,531.3069759000209,49,39,61,68,61,55,5.0,4.104616999975406,,,,,,,,,,,,,[],[],[],[],[],[],[],0.2,3,,[],[],[],[],[],[],[],,,,,None,None,537.950554399984,539.8667750000022,533.8161556000123,533.8161556000123,533.8161556000123,533.8161556000123,533.8161556000123,,,,,,,,,,,,,,257,f,22,2023-03-23_13h36.45.542,RL,2022.2.4,60.164091539017534,
1,-0.3,-0.225,0,32,32,32,,,,,,,,,,None,539.8667750000022,539.8667750000022,539.8667750000022,539.8667750000022,539.8667750000022,539.8667750000022,f,0.3914213999523781,540.2841233999934,540.2841233999934,540.2841233999934,540.2841233999934,540.2841233999934,540.2841233999934,540.5818057000288,540.5818057000288,541.9446374999825,541.9446374999825,541.9446374999825,541.9446374999825,541.9446374999825,541.9446374999825,541.9446374999825,541.9446374999825,541.9446374999825,541.9446374999825,541.9446374999825,541.9446374999825,541.9446374999825,541.9446374999825,541.9446374999825,541.9446374999825,541.9446374999825,38,42,67,78,42,52,None,None,544.4560014000162,544.4560014000162,544.4560014000162,544.4560014000162,544.4560014000162,544.4560014000162,544.4560014000162,544.4560014000162,0.0070106000057421625,544.4560014000162,46,46,[0.046296296296296294],[-0.2935185185185185],[1],[0],[0],[5.075650499959011],['tijiao'],0.2,0,,[],[],[],[],[],[],[],549.5524131000275,549.5524131000275,549.5524131000275,549.5524131000275,6.9907407407407405,2.3288097999757156,551.8998815999948,553.6956902000238,,,,,,,,,,,,,,,,,,,257,f,22,2023-03-23_13h36.45.542,RL,2022.2.4,60.164091539017534,
0,0.3,0.225,0,33,33,33,,,,,,,,,,None,553.6956902000238,553.6956902000238,553.6956902000238,553.6956902000238,553.6956902000238,553.6956902000238,f,0.3148293000413105,554.0318290999858,554.0318290999858,554.0318290999858,554.0318290999858,554.0318290999858,554.0318290999858,554.327397599991,554.327397599991,555.6237347000279,555.6237347000279,555.6237347000279,555.6237347000279,555.6237347000279,555.6237347000279,555.6237347000279,555.6237347000279,555.6237347000279,555.6237347000279,555.6237347000279,555.6237347000279,555.6237347000279,555.6237347000279,555.6237347000279,555.6237347000279,555.6237347000279,44,50,62,76,50,53,None,None,558.1340230000205,558.1340230000205,558.1340230000205,558.1340230000205,558.1340230000205,558.1340230000205,558.1340230000205,558.1340230000205,0.0058046000194735825,558.1340230000205,54,54,[0.08796296296296297],[-0.2814814814814815],[1],[0],[0],[6.306721500004642],['tijiao'],0.6,0,,[],[],[],[],[],[],[],564.4619311999995,564.4619311999995,564.4619311999995,564.4619311999995,8.018518518518519,2.527990300033707,567.0086505000363,568.8044574999949,,,,,,,,,,,,,,,,,,,257,f,22,2023-03-23_13h36.45.542,RL,2022.2.4,60.164091539017534,
1,-0.3,-0.225,0,34,34,34,,,,,,,,,,None,568.8044574999949,568.8044574999949,568.8044574999949,568.8044574999949,568.8044574999949,568.8044574999949,f,0.3672054000198841,569.204077500035,569.204077500035,569.204077500035,569.204077500035,569.204077500035,569.204077500035,569.5028873999836,569.5028873999836,571.1315481000347,571.1315481000347,571.1315481000347,571.1315481000347,571.1315481000347,571.1315481000347,571.1315481000347,571.1315481000347,571.1315481000347,571.1315481000347,571.1315481000347,571.1315481000347,571.1315481000347,571.1315481000347,571.1315481000347,571.1315481000347,571.1315481000347,48,42,62,77,42,27,3.0,3.1244426000048406,,,,,,,,,,,,,[],[],[],[],[],[],[],-0.6,3,,[],[],[],[],[],[],[],,,,,None,None,576.793267800007,578.5943508000346,573.6406859999988,573.6406859999988,573.6406859999988,573.6406859999988,573.6406859999988,,,,,,,,,,,,,,257,f,22,2023-03-23_13h36.45.542,RL,2022.2.4,60.164091539017534,
0,0.3,0.225,0,35,35,35,,,,,,,,,,None,578.5943508000346,578.5943508000346,578.5943508000346,578.5943508000346,578.5943508000346,578.5943508000346,j,0.3941435000160709,579.0122276000329,579.0122276000329,579.0122276000329,579.0122276000329,579.0122276000329,579.0122276000329,579.3090374000021,579.3090374000021,581.0710092000081,581.0710092000081,581.0710092000081,581.0710092000081,581.0710092000081,581.0710092000081,581.0710092000081,581.0710092000081,581.0710092000081,581.0710092000081,581.0710092000081,581.0710092000081,581.0710092000081,581.0710092000081,581.0710092000081,581.0710092000081,581.0710092000081,44,51,60,77,77,61,6.0,2.5920233000069857,,,,,,,,,,,,,[],[],[],[],[],[],[],-0.6,2,,[],[],[],[],[],[],[],,,,,None,None,586.2016663000104,587.7193087000051,583.5800640999805,583.5800640999805,583.5800640999805,583.5800640999805,583.5800640999805,,,,,,,,,,,,,,257,f,22,2023-03-23_13h36.45.542,RL,2022.2.4,60.164091539017534,
1,-0.3,-0.225,0,36,36,36,,,,,,,,,,None,587.7193087000051,587.7193087000051,587.7193087000051,587.7193087000051,587.7193087000051,587.7193087000051,j,0.5361584999482147,588.2859098000336,588.2859098000336,588.2859098000336,588.2859098000336,588.2859098000336,588.2859098000336,588.584087700001,588.584087700001,589.5646791000036,589.5646791000036,589.5646791000036,589.5646791000036,589.5646791000036,589.5646791000036,589.5646791000036,589.5646791000036,589.5646791000036,589.5646791000036,589.5646791000036,589.5646791000036,589.5646791000036,589.5646791000036,589.5646791000036,589.5646791000036,589.5646791000036,41,46,60,74,74,58,6.0,2.542421199963428,,,,,,,,,,,,,[],[],[],[],[],[],[],0.6,3,,[],[],[],[],[],[],[],,,,,None,None,594.6432959000231,596.3459180000355,592.0739229000174,592.0739229000174,592.0739229000174,592.0739229000174,592.0739229000174,,,,,,,,,,,,,,257,f,22,2023-03-23_13h36.45.542,RL,2022.2.4,60.164091539017534,
0,0.3,0.225,0,37,37,37,,,,,,,,,,None,596.3459180000355,596.3459180000355,596.3459180000355,596.3459180000355,596.3459180000355,596.3459180000355,j,0.5264692999771796,596.8947339000297,596.8947339000297,596.8947339000297,596.8947339000297,596.8947339000297,596.8947339000297,597.1938963999855,597.1938963999855,599.0550012000022,599.0550012000022,599.0550012000022,599.0550012000022,599.0550012000022,599.0550012000022,599.0550012000022,599.0550012000022,599.0550012000022,599.0550012000022,599.0550012000022,599.0550012000022,599.0550012000022,599.0550012000022,599.0550012000022,599.0550012000022,599.0550012000022,43,45,55,69,69,57,5.0,2.01028220000444,,,,,,,,,,,,,[],[],[],[],[],[],[],-0.6,3,,[],[],[],[],[],[],[],,,,,None,None,603.6020304000122,605.4878100000205,601.5644443000201,601.5644443000201,601.5644443000201,601.5644443000201,601.5644443000201,,,,,,,,,,,,,,257,f,22,2023-03-23_13h36.45.542,RL,2022.2.4,60.164091539017534,
1,-0.3,-0.225,0,38,38,38,,,,,,,,,,None,605.4878100000205,605.4878100000205,605.4878100000205,605.4878100000205,605.4878100000205,605.4878100000205,j,0.790209099999629,606.3023339000065,606.3023339000065,606.3023339000065,606.3023339000065,606.3023339000065,606.3023339000065,606.601462599996,606.601462599996,607.6154088000185,607.6154088000185,607.6154088000185,607.6154088000185,607.6154088000185,607.6154088000185,607.6154088000185,607.6154088000185,607.6154088000185,607.6154088000185,607.6154088000185,607.6154088000185,607.6154088000185,607.6154088000185,607.6154088000185,607.6154088000185,607.6154088000185,39,47,57,81,81,51,None,None,,,,,,,,,,,,,[],[],[],[],[],[],[],-0.6,1,48,[0.019444444444444445],[-0.30462962962962964],[1],[0],[0],[8.825165099988226],['tijiao_random_2'],618.9713178999955,618.9713178999955,618.9713178999955,618.9713178999955,5.018518518518518,4.6472102999687195,623.6372828999883,625.5827172999852,,,,,,610.1333397999988,610.1333397999988,610.1333397999988,610.1333397999988,610.1333397999988,610.1333397999988,610.1333397999988,610.1333397999988,0.006065500027034432,610.1333397999988,,,,257,f,22,2023-03-23_13h36.45.542,RL,2022.2.4,60.164091539017534,
0,0.3,0.225,0,39,39,39,,,,,,,,,,None,625.5827172999852,625.5827172999852,625.5827172999852,625.5827172999852,625.5827172999852,625.5827172999852,r,0.30307909997645766,625.9189025000087,625.9189025000087,625.9189025000087,625.9189025000087,625.9189025000087,625.9189025000087,626.2148300000117,626.2148300000117,627.8767430000007,627.8767430000007,627.8930683000362,627.8930683000362,627.8930683000362,627.8930683000362,627.8930683000362,627.8930683000362,627.8930683000362,627.8930683000362,627.8930683000362,627.8930683000362,627.8930683000362,627.8930683000362,627.8930683000362,627.8930683000362,627.8930683000362,44,52,58,85,44,58,4.0,1.960445799981244,,,,,,,,,,,,,[],[],[],[],[],[],[],0.6,2,,[],[],[],[],[],[],[],,,,,None,None,632.3895946000121,634.109598400013,630.4021711000241,630.4021711000241,630.4021711000241,630.4021711000241,630.4021711000241,,,,,,,,,,,,,,257,f,22,2023-03-23_13h36.45.542,RL,2022.2.4,60.164091539017534,
1,-0.3,-0.225,0,40,40,40,,,,,,,,,,None,634.109598400013,634.109598400013,634.109598400013,634.109598400013,634.109598400013,634.109598400013,f,0.5029626999748871,634.6428634999902,634.6428634999902,634.6428634999902,634.6428634999902,634.6428634999902,634.6428634999902,634.9409081999911,634.9409081999911,635.9048983000102,635.9048983000102,635.9048983000102,635.9048983000102,635.9048983000102,635.9048983000102,635.9048983000102,635.9048983000102,635.9048983000102,635.9048983000102,635.9048983000102,635.9048983000102,635.9048983000102,635.9048983000102,635.9048983000102,635.9048983000102,635.9048983000102,50,56,55,80,56,54,4.0,4.669676200021058,,,,,,,,,,,,,[],[],[],[],[],[],[],-0.2,3,,[],[],[],[],[],[],[],,,,,None,None,643.1095408999827,644.9134808999952,638.4140138000366,638.4140138000366,638.4140138000366,638.4140138000366,638.4140138000366,,,,,,,,,,,,,,257,f,22,2023-03-23_13h36.45.542,RL,2022.2.4,60.164091539017534,
0,0.3,0.225,0,41,41,41,,,,,,,,,,None,644.9134808999952,644.9134808999952,644.9134808999952,644.9134808999952,644.9134808999952,644.9134808999952,i,0.4893117999890819,645.4314041000325,645.4314041000325,645.4314041000325,645.4314041000325,645.4314041000325,645.4314041000325,645.7281350999838,645.7281350999838,647.2571320999996,647.2571320999996,647.2571320999996,647.2571320999996,647.2571320999996,647.2571320999996,647.2571320999996,647.2571320999996,647.2571320999996,647.2571320999996,647.2571320999996,647.2571320999996,647.2571320999996,647.2571320999996,647.2571320999996,647.2571320999996,647.2571320999996,44,47,57,84,57,49,5.0,3.256929900031537,,,,,,,,,,,,,[],[],[],[],[],[],[],-0.6,3,,[],[],[],[],[],[],[],,,,,None,None,653.0509886000073,654.9195600000094,649.7662597000017,649.7662597000017,649.7662597000017,649.7662597000017,649.7662597000017,,,,,,,,,,,,,,257,f,22,2023-03-23_13h36.45.542,RL,2022.2.4,60.164091539017534,
1,-0.3,-0.225,0,42,42,42,,,,,,,,,,None,654.9195600000094,654.9195600000094,654.9195600000094,654.9195600000094,654.9195600000094,654.9195600000094,i,0.8893596999696456,655.8366207000217,655.8366207000217,655.8366207000217,655.8366207000217,655.8366207000217,655.8366207000217,656.1330744000152,656.1330744000152,657.4296134000178,657.4296134000178,657.4296134000178,657.4296134000178,657.4296134000178,657.4296134000178,657.4296134000178,657.4296134000178,657.4296134000178,657.4296134000178,657.4296134000178,657.4296134000178,657.4296134000178,657.4296134000178,657.4296134000178,657.4296134000178,657.4296134000178,31,49,59,82,59,57,4.0,2.3095717999967746,,,,,,,,,,,,,[],[],[],[],[],[],[],-0.6,3,,[],[],[],[],[],[],[],,,,,None,None,662.2773520000046,664.0940428000176,659.9386940000113,659.9386940000113,659.9386940000113,659.9386940000113,659.9386940000113,,,,,,,,,,,,,,257,f,22,2023-03-23_13h36.45.542,RL,2022.2.4,60.164091539017534,
0,0.3,0.225,0,43,43,43,,,,,,,,,,None,664.0940428000176,664.0940428000176,664.0940428000176,664.0940428000176,664.0940428000176,664.0940428000176,j,0.5109205000335351,664.6283338000067,664.6283338000067,664.6283338000067,664.6283338000067,664.6283338000067,664.6283338000067,664.9258824000135,664.9258824000135,666.039368800004,666.039368800004,666.039368800004,666.039368800004,666.039368800004,666.039368800004,666.039368800004,666.039368800004,666.039368800004,666.039368800004,666.039368800004,666.039368800004,666.039368800004,666.039368800004,666.039368800004,666.039368800004,666.039368800004,38,48,51,73,73,41,7.0,1.2297710999846458,,,,,,,,,,,,,[],[],[],[],[],[],[],0.2,3,,[],[],[],[],[],[],[],,,,,None,None,669.803602800006,671.5070598000311,668.5483476000372,668.5483476000372,668.5483476000372,668.5483476000372,668.5483476000372,,,,,,,,,,,,,,257,f,22,2023-03-23_13h36.45.542,RL,2022.2.4,60.164091539017534,
1,-0.3,-0.225,0,44,44,44,,,,,,,,,,None,671.5070598000311,671.5070598000311,671.5070598000311,671.5070598000311,671.5070598000311,671.5070598000311,j,0.3563230999861844,671.8913453000132,671.8913453000132,671.8913453000132,671.8913453000132,671.8913453000132,671.8913453000132,672.1892881999956,672.1892881999956,673.0037293999922,673.0037293999922,673.0037293999922,673.0037293999922,673.0037293999922,673.0037293999922,673.0037293999922,673.0037293999922,673.0037293999922,673.0037293999922,673.0037293999922,673.0037293999922,673.0037293999922,673.0037293999922,673.0037293999922,673.0037293999922,673.0037293999922,42,49,48,75,75,61,None,None,,,,,,,,,,,,,[],[],[],[],[],[],[],-0.6,1,43,[0.0712962962962963],[-0.2518518518518518],[1],[0],[0],[5.183210299990606],['tijiao_random_2'],680.719241200015,680.719241200015,680.719241200015,680.719241200015,9.0,2.4209910999634303,683.1579528999864,684.970919799991,,,,,,675.5229674000293,675.5229674000293,675.5229674000293,675.5229674000293,675.5229674000293,675.5229674000293,675.5229674000293,675.5229674000293,0.0067612999700941145,675.5229674000293,,,,257,f,22,2023-03-23_13h36.45.542,RL,2022.2.4,60.164091539017534,
0,0.3,0.225,0,45,45,45,,,,,,,,,,None,684.970919799991,684.970919799991,684.970919799991,684.970919799991,684.970919799991,684.970919799991,r,0.3608694999711588,685.3555735999835,685.3555735999835,685.3555735999835,685.3555735999835,685.3555735999835,685.3555735999835,685.6523037999868,685.6523037999868,687.1813653000281,687.1813653000281,687.1813653000281,687.1813653000281,687.1813653000281,687.1813653000281,687.1813653000281,687.1813653000281,687.1813653000281,687.1813653000281,687.1813653000281,687.1813653000281,687.1813653000281,687.1813653000281,687.1813653000281,687.1813653000281,687.1813653000281,45,58,49,61,45,61,5.0,3.0732463000458665,,,,,,,,,,,,,[],[],[],[],[],[],[],0.6,3,,[],[],[],[],[],[],[],,,,,None,None,692.7914702999988,694.7109306000057,689.6906461000326,689.6906461000326,689.6906461000326,689.6906461000326,689.6906461000326,,,,,,,,,,,,,,257,f,22,2023-03-23_13h36.45.542,RL,2022.2.4,60.164091539017534,
1,-0.3,-0.225,0,46,46,46,,,,,,,,,,None,694.7109306000057,694.7109306000057,694.7109306000057,694.7109306000057,694.7109306000057,694.7109306000057,f,0.5914877999457531,695.3266998000327,695.3266998000327,695.3266998000327,695.3266998000327,695.3266998000327,695.3266998000327,695.6251848000102,695.6251848000102,697.4203766999999,697.4203766999999,697.4203766999999,697.4203766999999,697.4203766999999,697.4203766999999,697.4203766999999,697.4203766999999,697.4203766999999,697.4203766999999,697.4203766999999,697.4203766999999,697.4203766999999,697.4203766999999,697.4203766999999,697.4203766999999,697.4203766999999,43,48,50,64,48,68,5.0,0.8138861000188626,,,,,,,,,,,,,[],[],[],[],[],[],[],0.2,2,,[],[],[],[],[],[],[],,,,,None,None,700.7697262000293,702.2902699999977,699.9295919000288,699.9295919000288,699.9295919000288,699.9295919000288,699.9295919000288,,,,,,,,,,,,,,257,f,22,2023-03-23_13h36.45.542,RL,2022.2.4,60.164091539017534,
0,0.3,0.225,0,47,47,47,,,,,,,,,,None,702.2902699999977,702.2902699999977,702.2902699999977,702.2902699999977,702.2902699999977,702.2902699999977,f,0.9091048999689519,703.2218649000279,703.2218649000279,703.2218649000279,703.2218649000279,703.2218649000279,703.2218649000279,703.5204866999993,703.5204866999993,704.3842699000379,704.3842699000379,704.3842699000379,704.3842699000379,704.3842699000379,704.3842699000379,704.3842699000379,704.3842699000379,704.3842699000379,704.3842699000379,704.3842699000379,704.3842699000379,704.3842699000379,704.3842699000379,704.3842699000379,704.3842699000379,704.3842699000379,45,46,49,64,46,56,3.0,2.4255722000380047,,,,,,,,,,,,,[],[],[],[],[],[],[],-0.6,2,,[],[],[],[],[],[],[],,,,,None,None,709.3461772000301,711.0995325000258,706.8934391000075,706.8934391000075,706.8934391000075,706.8934391000075,706.8934391000075,,,,,,,,,,,,,,257,f,22,2023-03-23_13h36.45.542,RL,2022.2.4,60.164091539017534,
1,-0.3,-0.225,0,48,48,48,,,,,,,,,,None,711.0995325000258,711.0995325000258,711.0995325000258,711.0995325000258,711.0995325000258,711.0995325000258,i,0.3664762999978848,711.4985940000042,711.4985940000042,711.4985940000042,711.4985940000042,711.4985940000042,711.4985940000042,711.7979023000225,711.7979023000225,713.6761572000105,713.6761572000105,713.6761572000105,713.6761572000105,713.6761572000105,713.6761572000105,713.6761572000105,713.6761572000105,713.6761572000105,713.6761572000105,713.6761572000105,713.6761572000105,713.6761572000105,713.6761572000105,713.6761572000105,713.6761572000105,713.6761572000105,48,45,43,59,43,55,None,None,716.1891030999832,716.1891030999832,716.1891030999832,716.1891030999832,716.1891030999832,716.1891030999832,716.1891030999832,716.1891030999832,0.008563100011087954,716.1891030999832,46,46,[-0.05740740740740741],[-0.2712962962962963],[1],[0],[0],[5.889030299964361],['tijiao'],-0.2,0,,[],[],[],[],[],[],[],722.0981689000037,722.0981689000037,722.0981689000037,722.0981689000037,7.953703703703704,8.677556700014975,730.7949368000263,732.657447799982,,,,,,,,,,,,,,,,,,,257,f,22,2023-03-23_13h36.45.542,RL,2022.2.4,60.164091539017534,
0,0.3,0.225,0,49,49,49,,,,,,,,,,None,732.657447799982,732.657447799982,732.657447799982,732.657447799982,732.657447799982,732.657447799982,i,0.47887360001914203,733.1591857000021,733.1591857000021,733.1591857000021,733.1591857000021,733.1591857000021,733.1591857000021,733.4549706000253,733.4549706000253,734.7517711999826,734.7517711999826,734.7517711999826,734.7517711999826,734.7517711999826,734.7517711999826,734.7517711999826,734.7517711999826,734.7517711999826,734.7517711999826,734.7517711999826,734.7517711999826,734.7517711999826,734.7517711999826,734.7517711999826,734.7517711999826,734.7517711999826,54,50,41,58,41,50,3.0,5.118353000027128,,,,,,,,,,,,,[],[],[],[],[],[],[],0.2,3,,[],[],[],[],[],[],[],,,,,None,None,742.4046810999862,743.9928147000028,737.2605885000085,737.2605885000085,737.2605885000085,737.2605885000085,737.2605885000085,,,,,,,,,,,,,,257,f,22,2023-03-23_13h36.45.542,RL,2022.2.4,60.164091539017534,
1,-0.3,-0.225,0,50,50,50,,,,,,,,,,None,743.9928147000028,743.9928147000028,743.9928147000028,743.9928147000028,743.9928147000028,743.9928147000028,j,0.33257739996770397,744.3440558000002,744.3440558000002,744.3440558000002,744.3440558000002,744.3440558000002,744.3440558000002,744.6416866999934,744.6416866999934,746.6195487999939,746.6195487999939,746.6195487999939,746.6195487999939,746.6195487999939,746.6195487999939,746.6195487999939,746.6195487999939,746.6195487999939,746.6195487999939,746.6195487999939,746.6195487999939,746.6195487999939,746.6195487999939,746.6195487999939,746.6195487999939,746.6195487999939,49,36,50,50,50,47,4.0,2.443120599957183,,,,,,,,,,,,,[],[],[],[],[],[],[],0.6,3,,[],[],[],[],[],[],[],,,,,None,None,751.5977919999859,753.2179928999976,749.1285740000312,749.1285740000312,749.1285740000312,749.1285740000312,749.1285740000312,,,,,,,,,,,,,,257,f,22,2023-03-23_13h36.45.542,RL,2022.2.4,60.164091539017534,
0,0.3,0.225,0,51,51,51,,,,,,,,,,None,753.2179928999976,753.2179928999976,753.2179928999976,753.2179928999976,753.2179928999976,753.2179928999976,j,0.3887791999732144,753.6354347000015,753.6354347000015,753.6354347000015,753.6354347000015,753.6354347000015,753.6354347000015,753.9328190000379,753.9328190000379,755.5947636000346,755.5947636000346,755.5947636000346,755.5947636000346,755.5947636000346,755.5947636000346,755.5947636000346,755.5947636000346,755.5947636000346,755.5947636000346,755.5947636000346,755.5947636000346,755.5947636000346,755.5947636000346,755.5947636000346,755.5947636000346,755.5947636000346,51,45,50,52,52,52,4.0,1.0295717000262812,,,,,,,,,,,,,[],[],[],[],[],[],[],0.2,2,,[],[],[],[],[],[],[],,,,,None,None,759.1627114000148,760.8802687000134,758.1042510999832,758.1042510999832,758.1042510999832,758.1042510999832,758.1042510999832,,,,,,,,,,,,,,257,f,22,2023-03-23_13h36.45.542,RL,2022.2.4,60.164091539017534,
1,-0.3,-0.225,0,52,52,52,,,,,,,,,,None,760.8802687000134,760.8802687000134,760.8802687000134,760.8802687000134,760.8802687000134,760.8802687000134,j,0.7599879000335932,761.6618938000174,761.6618938000174,761.6618938000174,761.6618938000174,761.6618938000174,761.6618938000174,761.9606006999966,761.9606006999966,763.6396089000045,763.6396089000045,763.6396089000045,763.6396089000045,763.6396089000045,763.6396089000045,763.6396089000045,763.6396089000045,763.6396089000045,763.6396089000045,763.6396089000045,763.6396089000045,763.6396089000045,763.6396089000045,763.6396089000045,763.6396089000045,763.6396089000045,43,40,44,56,56,54,None,None,,,,,,,,,,,,,[],[],[],[],[],[],[],-0.2,1,63,[-0.03796296296296296],[-0.29074074074074074],[1],[0],[0],[8.107695299957413],['tijiao_random_2'],774.2802874000045,774.2802874000045,774.2802874000045,774.2802874000045,6.064814814814815,6.509948100021575,780.8083622999839,782.5378786000074,,,,,,766.1603872000123,766.1603872000123,766.1603872000123,766.1603872000123,766.1603872000123,766.1603872000123,766.1603872000123,766.1603872000123,0.006667700014077127,766.1603872000123,,,,257,f,22,2023-03-23_13h36.45.542,RL,2022.2.4,60.164091539017534,
0,0.3,0.225,0,53,53,53,,,,,,,,,,None,782.5378786000074,782.5378786000074,782.5378786000074,782.5378786000074,782.5378786000074,782.5378786000074,f,0.3863110999809578,782.9566958000069,782.9566958000069,782.9566958000069,782.9566958000069,782.9566958000069,782.9566958000069,783.2527604000061,783.2527604000061,784.9146187999868,784.9146187999868,784.9315345000359,784.9315345000359,784.9315345000359,784.9315345000359,784.9315345000359,784.9315345000359,784.9315345000359,784.9315345000359,784.9315345000359,784.9315345000359,784.9315345000359,784.9315345000359,784.9315345000359,784.9315345000359,784.9315345000359,39,43,50,70,43,43,3.0,2.6423460000078194,,,,,,,,,,,,,[],[],[],[],[],[],[],-0.2,3,,[],[],[],[],[],[],[],,,,,None,None,790.1107397000305,791.8787472000113,787.4406594000175,787.4406594000175,787.4406594000175,787.4406594000175,787.4406594000175,,,,,,,,,,,,,,257,f,22,2023-03-23_13h36.45.542,RL,2022.2.4,60.164091539017534,
1,-0.3,-0.225,0,54,54,54,,,,,,,,,,None,791.8787472000113,791.8787472000113,791.8787472000113,791.8787472000113,791.8787472000113,791.8787472000113,r,0.36741750000510365,792.2801995000336,792.2801995000336,792.2801995000336,792.2801995000336,792.2801995000336,792.2801995000336,792.577410900034,792.577410900034,793.9736195000005,793.9736195000005,793.9900952000171,793.9900952000171,793.9900952000171,793.9900952000171,793.9900952000171,793.9900952000171,793.9900952000171,793.9900952000171,793.9900952000171,793.9900952000171,793.9900952000171,793.9900952000171,793.9900952000171,793.9900952000171,793.9900952000171,48,44,38,70,48,55,None,None,,,,,,,,,,,,,[],[],[],[],[],[],[],-0.2,1,46,[-0.06111111111111111],[-0.27870370370370373],[1],[0],[0],[10.40293229999952],['tijiao_random_2'],806.9258475999814,806.9258475999814,806.9258475999814,806.9258475999814,8.166666666666668,3.7989602999878116,810.7431225000182,812.356548700016,,,,,,796.5095900000306,796.5095900000306,796.5095900000306,796.5095900000306,796.5095900000306,796.5095900000306,796.5095900000306,796.5095900000306,0.006694299983792007,796.5095900000306,,,,257,f,22,2023-03-23_13h36.45.542,RL,2022.2.4,60.164091539017534,
0,0.3,0.225,0,55,55,55,,,,,,,,,,None,812.356548700016,812.356548700016,812.356548700016,812.356548700016,812.356548700016,812.356548700016,f,0.3163545000134036,812.7058337000199,812.7058337000199,812.7058337000199,812.7058337000199,812.7058337000199,812.7058337000199,813.0049791000201,813.0049791000201,814.301266000024,814.301266000024,814.301266000024,814.301266000024,814.301266000024,814.301266000024,814.301266000024,814.301266000024,814.301266000024,814.301266000024,814.301266000024,814.301266000024,814.301266000024,814.301266000024,814.301266000024,814.301266000024,814.301266000024,46,39,40,72,39,49,2.0,3.3069350000005215,,,,,,,,,,,,,[],[],[],[],[],[],[],-0.2,2,,[],[],[],[],[],[],[],,,,,None,None,820.1438127000001,821.764325199998,816.8103655999876,816.8103655999876,816.8103655999876,816.8103655999876,816.8103655999876,,,,,,,,,,,,,,257,f,22,2023-03-23_13h36.45.542,RL,2022.2.4,60.164091539017534,
1,-0.3,-0.225,0,56,56,56,,,,,,,,,,None,821.764325199998,821.764325199998,821.764325199998,821.764325199998,821.764325199998,821.764325199998,i,0.4456262000021525,822.2312584000174,822.2312584000174,822.2312584000174,822.2312584000174,822.2312584000174,822.2312584000174,822.5289243999869,822.5289243999869,823.8420194000355,823.8420194000355,823.8420194000355,823.8420194000355,823.8420194000355,823.8420194000355,823.8420194000355,823.8420194000355,823.8420194000355,823.8420194000355,823.8420194000355,823.8420194000355,823.8420194000355,823.8420194000355,823.8420194000355,823.8420194000355,823.8420194000355,52,41,37,72,37,82,None,None,,,,,,,,,,,,,[],[],[],[],[],[],[],0.6,1,75,[-0.07407407407407407],[-0.28425925925925927],[1],[0],[0],[7.113897699979134],['tijiao_random_2'],833.4862333000056,833.4862333000056,833.4862333000056,833.4862333000056,6.037037037037036,3.7659750999882817,837.270875599992,839.0505028000334,,,,,,826.3595196999959,826.3595196999959,826.3595196999959,826.3595196999959,826.3595196999959,826.3595196999959,826.3595196999959,826.3595196999959,0.0065175999770872295,826.3595196999959,,,,257,f,22,2023-03-23_13h36.45.542,RL,2022.2.4,60.164091539017534,
0,0.3,0.225,0,57,57,57,,,,,,,,,,None,839.0505028000334,839.0505028000334,839.0505028000334,839.0505028000334,839.0505028000334,839.0505028000334,j,0.3094363000127487,839.386309500027,839.386309500027,839.386309500027,839.386309500027,839.386309500027,839.386309500027,839.6823621999938,839.6823621999938,840.8122547999956,840.8122547999956,840.8122547999956,840.8122547999956,840.8122547999956,840.8122547999956,840.8122547999956,840.8122547999956,840.8122547999956,840.8122547999956,840.8122547999956,840.8122547999956,840.8122547999956,840.8122547999956,840.8122547999956,840.8122547999956,840.8122547999956,48,38,35,72,72,98,None,None,,,,,,,,,,,,,[],[],[],[],[],[],[],0.2,1,52,[-0.009259259259259259],[-0.30648148148148147],[1],[0],[0],[7.177513399976306],['tijiao_random_2'],850.5237429999979,850.5237429999979,850.5237429999979,850.5237429999979,5.037037037037036,2.9511570000322536,853.4930754000088,855.006664399989,,,,,,843.3325444000075,843.3325444000075,843.3325444000075,843.3325444000075,843.3325444000075,843.3325444000075,843.3325444000075,843.3325444000075,0.006461900018621236,843.3325444000075,,,,257,f,22,2023-03-23_13h36.45.542,RL,2022.2.4,60.164091539017534,
1,-0.3,-0.225,0,58,58,58,,,,,,,,,,None,855.006664399989,855.006664399989,855.006664399989,855.006664399989,855.006664399989,855.006664399989,i,0.2675333999795839,855.3062546000001,855.3062546000001,855.3062546000001,855.3062546000001,855.3062546000001,855.3062546000001,855.605082700029,855.605082700029,856.4198808000074,856.4198808000074,856.4198808000074,856.4198808000074,856.4198808000074,856.4198808000074,856.4198808000074,856.4198808000074,856.4198808000074,856.4198808000074,856.4198808000074,856.4198808000074,856.4198808000074,856.4198808000074,856.4198808000074,856.4198808000074,856.4198808000074,44,43,41,79,41,94,1.0,3.822305299981963,,,,,,,,,,,,,[],[],[],[],[],[],[],-0.2,3,,[],[],[],[],[],[],[],,,,,None,None,862.7770219999948,864.4473830999923,858.9289308000007,858.9289308000007,858.9289308000007,858.9289308000007,858.9289308000007,,,,,,,,,,,,,,257,f,22,2023-03-23_13h36.45.542,RL,2022.2.4,60.164091539017534,
0,0.3,0.225,0,59,59,59,,,,,,,,,,None,864.4473830999923,864.4473830999923,864.4473830999923,864.4473830999923,864.4473830999923,864.4473830999923,f,0.578663999971468,865.0476552000036,865.0476552000036,865.0476552000036,865.0476552000036,865.0476552000036,865.0476552000036,865.3452513000229,865.3452513000229,867.3066796000348,867.3066796000348,867.3066796000348,867.3066796000348,867.3066796000348,867.3066796000348,867.3066796000348,867.3066796000348,867.3066796000348,867.3066796000348,867.3066796000348,867.3066796000348,867.3066796000348,867.3066796000348,867.3066796000348,867.3066796000348,867.3066796000348,49,46,31,72,46,97,1.0,3.4564934999798425,,,,,,,,,,,,,[],[],[],[],[],[],[],-0.2,3,,[],[],[],[],[],[],[],,,,,None,None,873.2996732000029,875.0521716999938,869.8159463999909,869.8159463999909,869.8159463999909,869.8159463999909,869.8159463999909,,,,,,,,,,,,,,257,f,22,2023-03-23_13h36.45.542,RL,2022.2.4,60.164091539017534,
1,-0.3,-0.225,0,60,60,60,,,,,,,,,,None,875.0521716999938,875.0521716999938,875.0521716999938,875.0521716999938,875.0521716999938,875.0521716999938,i,0.40409049997106194,875.4859545000363,875.4859545000363,875.4859545000363,875.4859545000363,875.4859545000363,875.4859545000363,875.7833838000079,875.7833838000079,877.562148099998,877.562148099998,877.562148099998,877.562148099998,877.562148099998,877.562148099998,877.562148099998,877.562148099998,877.562148099998,877.562148099998,877.562148099998,877.562148099998,877.562148099998,877.562148099998,877.562148099998,877.562148099998,877.562148099998,49,46,36,66,36,95,1.0,1.4452281999983825,,,,,,,,,,,,,[],[],[],[],[],[],[],0.2,3,,[],[],[],[],[],[],[],,,,,None,None,881.5451177000068,883.213118500018,880.0710589000373,880.0710589000373,880.0710589000373,880.0710589000373,880.0710589000373,,,,,,,,,,,,,,257,f,22,2023-03-23_13h36.45.542,RL,2022.2.4,60.164091539017534,
0,0.3,0.225,0,61,61,61,,,,,,,,,,None,883.213118500018,883.213118500018,883.213118500018,883.213118500018,883.213118500018,883.213118500018,r,0.8607869000406936,884.0955824999837,884.0955824999837,884.0955824999837,884.0955824999837,884.0955824999837,884.0955824999837,884.3936117999838,884.3936117999838,886.2718433000264,886.2718433000264,886.2718433000264,886.2718433000264,886.2718433000264,886.2718433000264,886.2718433000264,886.2718433000264,886.2718433000264,886.2718433000264,886.2718433000264,886.2718433000264,886.2718433000264,886.2718433000264,886.2718433000264,886.2718433000264,886.2718433000264,49,56,42,72,49,88,1.0,4.22052370000165,,,,,,,,,,,,,[],[],[],[],[],[],[],-0.6,3,,[],[],[],[],[],[],[],,,,,None,None,893.0273056000005,894.7982832000125,888.7807673999923,888.7807673999923,888.7807673999923,888.7807673999923,888.7807673999923,,,,,,,,,,,,,,257,f,22,2023-03-23_13h36.45.542,RL,2022.2.4,60.164091539017534,
1,-0.3,-0.225,0,62,62,62,,,,,,,,,,None,894.7982832000125,894.7982832000125,894.7982832000125,894.7982832000125,894.7982832000125,894.7982832000125,i,0.679817299998831,895.4977597999969,895.4977597999969,895.4977597999969,895.4977597999969,895.4977597999969,895.4977597999969,895.7958113999921,895.7958113999921,897.3410718000378,897.3410718000378,897.3410718000378,897.3410718000378,897.3410718000378,897.3410718000378,897.3410718000378,897.3410718000378,897.3410718000378,897.3410718000378,897.3410718000378,897.3410718000378,897.3410718000378,897.3410718000378,897.3410718000378,897.3410718000378,897.3410718000378,55,47,36,56,36,91,1.0,1.1634688000194728,,,,,,,,,,,,,[],[],[],[],[],[],[],-0.6,3,,[],[],[],[],[],[],[],,,,,None,None,901.039556600037,902.7264758999809,899.8504640000174,899.8504640000174,899.8504640000174,899.8504640000174,899.8504640000174,,,,,,,,,,,,,,257,f,22,2023-03-23_13h36.45.542,RL,2022.2.4,60.164091539017534,
0,0.3,0.225,0,63,63,63,,,,,,,,,,None,902.7264758999809,902.7264758999809,902.7264758999809,902.7264758999809,902.7264758999809,902.7264758999809,j,0.38471900002332404,903.1431081999908,903.1431081999908,903.1431081999908,903.1431081999908,903.1431081999908,903.1431081999908,903.4415991000133,903.4415991000133,904.8378633999964,904.8378633999964,904.8378633999964,904.8378633999964,904.8378633999964,904.8378633999964,904.8378633999964,904.8378633999964,904.8378633999964,904.8378633999964,904.8378633999964,904.8378633999964,904.8378633999964,904.8378633999964,904.8378633999964,904.8378633999964,904.8378633999964,57,48,40,73,73,91,4.0,5.683711500023492,,,,,,,,,,,,,[],[],[],[],[],[],[],0.6,3,,[],[],[],[],[],[],[],,,,,None,None,913.0585232999874,914.6439228000236,907.3469400000176,907.3469400000176,907.3469400000176,907.3469400000176,907.3469400000176,,,,,,,,,,,,,,257,f,22,2023-03-23_13h36.45.542,RL,2022.2.4,60.164091539017534,
1,-0.3,-0.225,0,64,64,64,,,,,,,,,,None,914.6439228000236,914.6439228000236,914.6439228000236,914.6439228000236,914.6439228000236,914.6439228000236,f,0.36215050000464544,915.0266989000374,915.0266989000374,915.0266989000374,915.0266989000374,915.0266989000374,915.0266989000374,915.3259582000319,915.3259582000319,917.2206546000089,917.2206546000089,917.2206546000089,917.2206546000089,917.2206546000089,917.2206546000089,917.2206546000089,917.2206546000089,917.2206546000089,917.2206546000089,917.2206546000089,917.2206546000089,917.2206546000089,917.2206546000089,917.2206546000089,917.2206546000089,917.2206546000089,57,54,36,60,54,89,None,None,919.7310773000354,919.7310773000354,919.7310773000354,919.7310773000354,919.7310773000354,919.7310773000354,919.7310773000354,919.7310773000354,0.005995700019411743,919.7310773000354,58,58,[-0.010185185185185186],[-0.33055555555555555],[1],[0],[0],[6.972072299977299],['tijiao'],-0.6,0,,[],[],[],[],[],[],[],926.7231507999822,926.7231507999822,926.7231507999822,926.7231507999822,4.064814814814815,7.364756399998441,934.1066710000159,936.0689171000267,,,,,,,,,,,,,,,,,,,257,f,22,2023-03-23_13h36.45.542,RL,2022.2.4,60.164091539017534,
0,0.3,0.225,0,65,65,65,,,,,,,,,,None,936.0689171000267,936.0689171000267,936.0689171000267,936.0689171000267,936.0689171000267,936.0689171000267,f,0.32308180001564324,936.4194928000215,936.4194928000215,936.4194928000215,936.4194928000215,936.4194928000215,936.4194928000215,936.7174623000319,936.7174623000319,938.3460434000008,938.3460434000008,938.3460434000008,938.3460434000008,938.3460434000008,938.3460434000008,938.3460434000008,938.3460434000008,938.3460434000008,938.3460434000008,938.3460434000008,938.3460434000008,938.3460434000008,938.3460434000008,938.3460434000008,938.3460434000008,938.3460434000008,52,45,46,66,45,92,None,None,,,,,,,,,,,,,[],[],[],[],[],[],[],0.6,1,76,[-0.025],[-0.30185185185185187],[1],[0],[0],[8.257261400052812],['tijiao_random_2'],949.139241900004,949.139241900004,949.139241900004,949.139241900004,1.1203703703703702,5.094933599990327,954.2515353999916,956.1474130999995,,,,,,940.8670229000272,940.8670229000272,940.8670229000272,940.8670229000272,940.8670229000272,940.8670229000272,940.8670229000272,940.8670229000272,0.006861700036097318,940.8670229000272,,,,257,f,22,2023-03-23_13h36.45.542,RL,2022.2.4,60.164091539017534,
1,-0.3,-0.225,0,66,66,66,,,,,,,,,,None,956.1474130999995,956.1474130999995,956.1474130999995,956.1474130999995,956.1474130999995,956.1474130999995,j,0.3465303999837488,956.5152670000098,956.5152670000098,956.5152670000098,956.5152670000098,956.5152670000098,956.5152670000098,956.8122905000346,956.8122905000346,958.0589553000173,958.0589553000173,958.0589553000173,958.0589553000173,958.0589553000173,958.0589553000173,958.0589553000173,958.0589553000173,958.0589553000173,958.0589553000173,958.0589553000173,958.0589553000173,958.0589553000173,958.0589553000173,958.0589553000173,958.0589553000173,958.0589553000173,59,50,40,63,63,69,3.0,4.452985299983993,,,,,,,,,,,,,[],[],[],[],[],[],[],0.2,2,,[],[],[],[],[],[],[],,,,,None,None,965.0483729999978,966.6189069999964,960.5680204000091,960.5680204000091,960.5680204000091,960.5680204000091,960.5680204000091,,,,,,,,,,,,,,257,f,22,2023-03-23_13h36.45.542,RL,2022.2.4,60.164091539017534,
0,0.3,0.225,0,67,67,67,,,,,,,,,,None,966.6189069999964,966.6189069999964,966.6189069999964,966.6189069999964,966.6189069999964,966.6189069999964,i,0.5689275999902748,967.2194664999843,967.2194664999843,967.2194664999843,967.2194664999843,967.2194664999843,967.2194664999843,967.5165971000097,967.5165971000097,969.2619125000201,969.2619125000201,969.2619125000201,969.2619125000201,969.2619125000201,969.2619125000201,969.2619125000201,969.2619125000201,969.2619125000201,969.2619125000201,969.2619125000201,969.2619125000201,969.2619125000201,969.2619125000201,969.2619125000201,969.2619125000201,969.2619125000201,49,49,34,63,34,41,3.0,2.608730000036303,,,,,,,,,,,,,[],[],[],[],[],[],[],0.6,3,,[],[],[],[],[],[],[],,,,,None,None,974.4051436000154,976.176201299997,971.7710396000184,971.7710396000184,971.7710396000184,971.7710396000184,971.7710396000184,,,,,,,,,,,,,,257,f,22,2023-03-23_13h36.45.542,RL,2022.2.4,60.164091539017534,
1,-0.3,-0.225,0,68,68,68,,,,,,,,,,None,976.176201299997,976.176201299997,976.176201299997,976.176201299997,976.176201299997,976.176201299997,f,0.4779794999631122,976.6750343000167,976.6750343000167,976.6750343000167,976.6750343000167,976.6750343000167,976.6750343000167,976.9738435000181,976.9738435000181,978.1541846999899,978.1541846999899,978.1541846999899,978.1541846999899,978.1541846999899,978.1541846999899,978.1541846999899,978.1541846999899,978.1541846999899,978.1541846999899,978.1541846999899,978.1541846999899,978.1541846999899,978.1541846999899,978.1541846999899,978.1541846999899,978.1541846999899,58,43,36,65,43,81,None,None,980.6643533000024,980.6643533000024,980.6643533000024,980.6643533000024,980.6643533000024,980.6643533000024,980.6643533000024,980.6643533000024,0.005669799982570112,980.6643533000024,48,48,[-0.10092592592592593],[-0.2712962962962963],[1],[0],[0],[5.176399599993601],['tijiao'],0.2,0,,[],[],[],[],[],[],[],985.8629492000327,985.8629492000327,985.8629492000327,985.8629492000327,7.916666666666666,2.8090008000144735,988.6909698999953,990.5203578000073,,,,,,,,,,,,,,,,,,,257,f,22,2023-03-23_13h36.45.542,RL,2022.2.4,60.164091539017534,
0,0.3,0.225,0,69,69,69,,,,,,,,,,None,990.5203578000073,990.5203578000073,990.5203578000073,990.5203578000073,990.5203578000073,990.5203578000073,f,0.3914676000131294,990.9373469999991,990.9373469999991,990.9373469999991,990.9373469999991,990.9373469999991,990.9373469999991,991.2351826000377,991.2351826000377,992.2822877999861,992.2822877999861,992.2822877999861,992.2822877999861,992.2822877999861,992.2822877999861,992.2822877999861,992.2822877999861,992.2822877999861,992.2822877999861,992.2822877999861,992.2822877999861,992.2822877999861,992.2822877999861,992.2822877999861,992.2822877999861,992.2822877999861,63,41,33,78,41,87,2.0,4.968886099988595,,,,,,,,,,,,,[],[],[],[],[],[],[],-0.2,3,,[],[],[],[],[],[],[],,,,,None,None,999.7869036000338,1001.5897417999804,994.7915258000139,994.7915258000139,994.7915258000139,994.7915258000139,994.7915258000139,,,,,,,,,,,,,,257,f,22,2023-03-23_13h36.45.542,RL,2022.2.4,60.164091539017534,
1,-0.3,-0.225,0,70,70,70,,,,,,,,,,None,1001.5897417999804,1001.5897417999804,1001.5897417999804,1001.5897417999804,1001.5897417999804,1001.5897417999804,r,0.3520486999768764,1001.9735768000246,1001.9735768000246,1001.9735768000246,1001.9735768000246,1001.9735768000246,1001.9735768000246,1002.2718413000111,1002.2718413000111,1004.1999513999908,1004.1999513999908,1004.1999513999908,1004.1999513999908,1004.1999513999908,1004.1999513999908,1004.1999513999908,1004.1999513999908,1004.1999513999908,1004.1999513999908,1004.1999513999908,1004.1999513999908,1004.1999513999908,1004.1999513999908,1004.1999513999908,1004.1999513999908,1004.1999513999908,61,42,34,70,61,87,2.0,3.822298400045838,,,,,,,,,,,,,[],[],[],[],[],[],[],0.2,2,,[],[],[],[],[],[],[],,,,,None,None,1010.560088600032,1012.1775318,1006.7086444000015,1006.7086444000015,1006.7086444000015,1006.7086444000015,1006.7086444000015,,,,,,,,,,,,,,257,f,22,2023-03-23_13h36.45.542,RL,2022.2.4,60.164091539017534,
0,0.3,0.225,0,71,71,71,,,,,,,,,,None,1012.1775318,1012.1775318,1012.1775318,1012.1775318,1012.1775318,1012.1775318,r,0.4255826000007801,1012.626960500027,1012.626960500027,1012.626960500027,1012.626960500027,1012.626960500027,1012.626960500027,1012.9261754000327,1012.9261754000327,1014.7706171000027,1014.7706171000027,1014.7706171000027,1014.7706171000027,1014.7706171000027,1014.7706171000027,1014.7706171000027,1014.7706171000027,1014.7706171000027,1014.7706171000027,1014.7706171000027,1014.7706171000027,1014.7706171000027,1014.7706171000027,1014.7706171000027,1014.7706171000027,1014.7706171000027,64,46,36,72,64,88,2.0,4.02168950001942,,,,,,,,,,,,,[],[],[],[],[],[],[],-0.2,2,,[],[],[],[],[],[],[],,,,,None,None,1021.3273604999995,1023.0148804000346,1017.2796534000081,1017.2796534000081,1017.2796534000081,1017.2796534000081,1017.2796534000081,,,,,,,,,,,,,,257,f,22,2023-03-23_13h36.45.542,RL,2022.2.4,60.164091539017534,
1,-0.3,-0.225,0,72,72,72,,,,,,,,,,None,1023.0148804000346,1023.0148804000346,1023.0148804000346,1023.0148804000346,1023.0148804000346,1023.0148804000346,i,0.3794056000187993,1023.4154805000289,1023.4154805000289,1023.4154805000289,1023.4154805000289,1023.4154805000289,1023.4154805000289,1023.7130645000143,1023.7130645000143,1025.3417521000374,1025.3417521000374,1025.3417521000374,1025.3417521000374,1025.3417521000374,1025.3417521000374,1025.3417521000374,1025.3417521000374,1025.3417521000374,1025.3417521000374,1025.3417521000374,1025.3417521000374,1025.3417521000374,1025.3417521000374,1025.3417521000374,1025.3417521000374,1025.3417521000374,56,47,40,76,40,88,None,None,,,,,,,,,,,,,[],[],[],[],[],[],[],-0.2,1,65,[-0.03796296296296296],[-0.30185185185185187],[1],[0],[0],[6.611860900011379],['tijiao_random_2'],1034.4901788000134,1034.4901788000134,1034.4901788000134,1034.4901788000134,3.037037037037037,5.992215099977329,1040.4994605000247,1042.4282163000316,,,,,,1027.8627712000161,1027.8627712000161,1027.8627712000161,1027.8627712000161,1027.8627712000161,1027.8627712000161,1027.8627712000161,1027.8627712000161,0.007062200049404055,1027.8627712000161,,,,257,f,22,2023-03-23_13h36.45.542,RL,2022.2.4,60.164091539017534,
0,0.3,0.225,0,73,73,73,,,,,,,,,,None,1042.4282163000316,1042.4282163000316,1042.4282163000316,1042.4282163000316,1042.4282163000316,1042.4282163000316,f,0.37265979999210685,1042.828875600011,1042.828875600011,1042.828875600011,1042.828875600011,1042.828875600011,1042.828875600011,1043.1267592000077,1043.1267592000077,1044.9553693000344,1044.9553693000344,1044.9553693000344,1044.9553693000344,1044.9553693000344,1044.9553693000344,1044.9553693000344,1044.9553693000344,1044.9553693000344,1044.9553693000344,1044.9553693000344,1044.9553693000344,1044.9553693000344,1044.9553693000344,1044.9553693000344,1044.9553693000344,1044.9553693000344,69,48,33,73,48,80,None,None,1047.46643640002,1047.46643640002,1047.46643640002,1047.46643640002,1047.46643640002,1047.46643640002,1047.46643640002,1047.46643640002,0.006774100009351969,1047.46643640002,52,52,[-0.08611111111111111],[-0.31203703703703706],[1],[0],[0],[6.505571099987719],['tijiao'],-0.2,0,,[],[],[],[],[],[],[],1053.9933697999804,1053.9933697999804,1053.9933697999804,1053.9933697999804,5.046296296296296,4.505316200025845,1058.5170034000184,1060.0636912999908,,,,,,,,,,,,,,,,,,,257,f,22,2023-03-23_13h36.45.542,RL,2022.2.4,60.164091539017534,
1,-0.3,-0.225,0,74,74,74,,,,,,,,,,None,1060.0636912999908,1060.0636912999908,1060.0636912999908,1060.0636912999908,1060.0636912999908,1060.0636912999908,f,0.37796690000686795,1060.4646882999805,1060.4646882999805,1060.4646882999805,1060.4646882999805,1060.4646882999805,1060.4646882999805,1060.762328199984,1060.762328199984,1062.7067481999984,1062.7067481999984,1062.7067481999984,1062.7067481999984,1062.7067481999984,1062.7067481999984,1062.7067481999984,1062.7067481999984,1062.7067481999984,1062.7067481999984,1062.7067481999984,1062.7067481999984,1062.7067481999984,1062.7067481999984,1062.7067481999984,1062.7067481999984,1062.7067481999984,65,51,37,76,51,86,None,None,1065.218691600021,1065.218691600021,1065.218691600021,1065.218691600021,1065.218691600021,1065.218691600021,1065.218691600021,1065.218691600021,0.007105799973942339,1065.218691600021,53,53,[-0.019444444444444445],[-0.32037037037037036],[1],[0],[0],[9.3301026999834],['tijiao'],-0.6,0,,[],[],[],[],[],[],[],1074.569105100003,1074.569105100003,1074.569105100003,1074.569105100003,7.944444444444445,3.691761600028258,1078.27988560003,1080.1754106000299,,,,,,,,,,,,,,,,,,,257,f,22,2023-03-23_13h36.45.542,RL,2022.2.4,60.164091539017534,
0,0.3,0.225,0,75,75,75,,,,,,,,,,q,1121.397783900029,1121.397783900029,1121.397783900029,1121.397783900029,1121.397783900029,1121.397783900029,i,1.252014700032305,1122.6767433999921,1122.6767433999921,1122.6767433999921,1122.6767433999921,1122.6767433999921,1122.6767433999921,1122.9758330000332,1122.9758330000332,1123.9564513000078,1123.9564513000078,1123.9564513000078,1123.9564513000078,1123.9564513000078,1123.9564513000078,1123.9564513000078,1123.9564513000078,1123.9564513000078,1123.9564513000078,1123.9564513000078,1123.9564513000078,1123.9564513000078,1123.9564513000078,1123.9564513000078,1123.9564513000078,1123.9564513000078,74,54,37,78,37,81,1.0,2.658555499976501,,,,,,,,,,,,,[],[],[],[],[],[],[],-0.2,3,,[],[],[],[],[],[],[],,,,,None,None,1129.1520491000265,1131.0701163000194,1126.4655604999862,1126.4655604999862,1126.4655604999862,1126.4655604999862,1126.4655604999862,,,,,,,,,,,1080.1754106000299,1080.1754106000299,41.20203759998549,257,f,22,2023-03-23_13h36.45.542,RL,2022.2.4,60.164091539017534,
1,-0.3,-0.225,0,76,76,76,,,,,,,,,,None,1131.0701163000194,1131.0701163000194,1131.0701163000194,1131.0701163000194,1131.0701163000194,1131.0701163000194,j,0.6310710000107065,1131.7197060000035,1131.7197060000035,1131.7197060000035,1131.7197060000035,1131.7197060000035,1131.7197060000035,1132.0178923000349,1132.0178923000349,1133.5634188000113,1133.5634188000113,1133.5634188000113,1133.5634188000113,1133.5634188000113,1133.5634188000113,1133.5634188000113,1133.5634188000113,1133.5634188000113,1133.5634188000113,1133.5634188000113,1133.5634188000113,1133.5634188000113,1133.5634188000113,1133.5634188000113,1133.5634188000113,1133.5634188000113,67,55,40,82,82,75,6.0,2.6749280999647453,,,,,,,,,,,,,[],[],[],[],[],[],[],0.2,3,,[],[],[],[],[],[],[],,,,,None,None,1138.7750451000175,1140.411328200018,1136.072244399984,1136.072244399984,1136.072244399984,1136.072244399984,1136.072244399984,,,,,,,,,,,,,,257,f,22,2023-03-23_13h36.45.542,RL,2022.2.4,60.164091539017534,
0,0.3,0.225,0,77,77,77,,,,,,,,,,None,1140.411328200018,1140.411328200018,1140.411328200018,1140.411328200018,1140.411328200018,1140.411328200018,j,0.39679319999413565,1140.8278836000245,1140.8278836000245,1140.8278836000245,1140.8278836000245,1140.8278836000245,1140.8278836000245,1141.1259354000213,1141.1259354000213,1142.2893893999862,1142.2893893999862,1142.2893893999862,1142.2893893999862,1142.2893893999862,1142.2893893999862,1142.2893893999862,1142.2893893999862,1142.2893893999862,1142.2893893999862,1142.2893893999862,1142.2893893999862,1142.2893893999862,1142.2893893999862,1142.2893893999862,1142.2893893999862,1142.2893893999862,71,50,56,83,83,75,7.0,2.7416811999864876,,,,,,,,,,,,,[],[],[],[],[],[],[],0.2,2,,[],[],[],[],[],[],[],,,,,None,None,1147.5687534000026,1149.3535829000175,1144.7984698000364,1144.7984698000364,1144.7984698000364,1144.7984698000364,1144.7984698000364,,,,,,,,,,,,,,257,f,22,2023-03-23_13h36.45.542,RL,2022.2.4,60.164091539017534,
1,-0.3,-0.225,0,78,78,78,,,,,,,,,,None,1149.3535829000175,1149.3535829000175,1149.3535829000175,1149.3535829000175,1149.3535829000175,1149.3535829000175,j,0.4962557000108063,1149.8692886999925,1149.8692886999925,1149.8692886999925,1149.8692886999925,1149.8692886999925,1149.8692886999925,1150.1682999000186,1150.1682999000186,1151.3981512000319,1151.3981512000319,1151.3981512000319,1151.3981512000319,1151.3981512000319,1151.3981512000319,1151.3981512000319,1151.3981512000319,1151.3981512000319,1151.3981512000319,1151.3981512000319,1151.3981512000319,1151.3981512000319,1151.3981512000319,1151.3981512000319,1151.3981512000319,1151.3981512000319,70,60,39,88,88,54,7.0,1.2627994999638759,,,,,,,,,,,,,[],[],[],[],[],[],[],0.2,3,,[],[],[],[],[],[],[],,,,,None,None,1155.1949804000324,1156.982604800025,1153.907300700026,1153.907300700026,1153.907300700026,1153.907300700026,1153.907300700026,,,,,,,,,,,,,,257,f,22,2023-03-23_13h36.45.542,RL,2022.2.4,60.164091539017534,
0,0.3,0.225,0,79,79,79,,,,,,,,,,None,1156.982604800025,1156.982604800025,1156.982604800025,1156.982604800025,1156.982604800025,1156.982604800025,j,0.5341702000005171,1157.5480961999856,1157.5480961999856,1157.5480961999856,1157.5480961999856,1157.5480961999856,1157.5480961999856,1157.846961800009,1157.846961800009,1158.7446782999905,1158.7446782999905,1158.7446782999905,1158.7446782999905,1158.7446782999905,1158.7446782999905,1158.7446782999905,1158.7446782999905,1158.7446782999905,1158.7446782999905,1158.7446782999905,1158.7446782999905,1158.7446782999905,1158.7446782999905,1158.7446782999905,1158.7446782999905,1158.7446782999905,58,50,45,87,87,50,7.0,1.2288407000014558,,,,,,,,,,,,,[],[],[],[],[],[],[],-0.6,2,,[],[],[],[],[],[],[],,,,,None,None,1162.51030850003,1164.0633635999984,1161.253976100008,1161.253976100008,1161.253976100008,1161.253976100008,1161.253976100008,,,,,,,,,,,,,,257,f,22,2023-03-23_13h36.45.542,RL,2022.2.4,60.164091539017534,
1,-0.3,-0.225,0,80,80,80,,,,,,,,,,None,1164.0633635999984,1164.0633635999984,1164.0633635999984,1164.0633635999984,1164.0633635999984,1164.0633635999984,j,0.5817486000014469,1164.6621983000077,1164.6621983000077,1164.6621983000077,1164.6621983000077,1164.6621983000077,1164.6621983000077,1164.9613363000099,1164.9613363000099,1165.8919764999882,1165.8919764999882,1165.8919764999882,1165.8919764999882,1165.8919764999882,1165.8919764999882,1165.8919764999882,1165.8919764999882,1165.8919764999882,1165.8919764999882,1165.8919764999882,1165.8919764999882,1165.8919764999882,1165.8919764999882,1165.8919764999882,1165.8919764999882,1165.8919764999882,72,49,49,69,69,56,None,None,1168.4020561000216,1168.4020561000216,1168.4020561000216,1168.4020561000216,1168.4020561000216,1168.4020561000216,1168.4020561000216,1168.4020561000216,0.006240899965632707,1168.4020561000216,78,78,[0.13703703703703704],[-0.2518518518518518],[1],[0],[0],[5.1943847999791615],['tijiao'],-0.6,0,,[],[],[],[],[],[],[],1173.6155285999994,1173.6155285999994,1173.6155285999994,1173.6155285999994,6.12037037037037,3.725468599994201,1177.359255700023,1178.8729901000042,,,,,,,,,,,,,,,,,,,257,f,22,2023-03-23_13h36.45.542,RL,2022.2.4,60.164091539017534,
0,0.3,0.225,0,81,81,81,,,,,,,,,,None,1178.8729901000042,1178.8729901000042,1178.8729901000042,1178.8729901000042,1178.8729901000042,1178.8729901000042,j,0.3704135000007227,1179.2755796000129,1179.2755796000129,1179.2755796000129,1179.2755796000129,1179.2755796000129,1179.2755796000129,1179.571374799998,1179.571374799998,1181.0340176000027,1181.0340176000027,1181.0340176000027,1181.0340176000027,1181.0340176000027,1181.0340176000027,1181.0340176000027,1181.0340176000027,1181.0340176000027,1181.0340176000027,1181.0340176000027,1181.0340176000027,1181.0340176000027,1181.0340176000027,1181.0340176000027,1181.0340176000027,1181.0340176000027,72,56,52,83,83,74,None,None,,,,,,,,,,,,,[],[],[],[],[],[],[],0.6,1,82,[0.002777777777777778],[-0.29814814814814816],[1],[0],[0],[10.61848080001073],['tijiao_random_2'],1194.1842875999864,1194.1842875999864,1194.1842875999864,1194.1842875999864,9.027777777777779,3.6514674000209197,1197.8535966000054,1199.832503099984,,,,,,1183.5529482000275,1183.5529482000275,1183.5529482000275,1183.5529482000275,1183.5529482000275,1183.5529482000275,1183.5529482000275,1183.5529482000275,0.006796700006816536,1183.5529482000275,,,,257,f,22,2023-03-23_13h36.45.542,RL,2022.2.4,60.164091539017534,
1,-0.3,-0.225,0,82,82,82,,,,,,,,,,None,1199.832503099984,1199.832503099984,1199.832503099984,1199.832503099984,1199.832503099984,1199.832503099984,j,0.3254062000196427,1200.1831034999923,1200.1831034999923,1200.1831034999923,1200.1831034999923,1200.1831034999923,1200.1831034999923,1200.4809180999873,1200.4809180999873,1201.4280428999919,1201.4280428999919,1201.4280428999919,1201.4280428999919,1201.4280428999919,1201.4280428999919,1201.4280428999919,1201.4280428999919,1201.4280428999919,1201.4280428999919,1201.4280428999919,1201.4280428999919,1201.4280428999919,1201.4280428999919,1201.4280428999919,1201.4280428999919,1201.4280428999919,69,58,56,77,77,75,5.0,2.758429999987129,,,,,,,,,,,,,[],[],[],[],[],[],[],-0.2,2,,[],[],[],[],[],[],[],,,,,None,None,1206.7246325000306,1208.6252069000038,1203.937410500017,1203.937410500017,1203.937410500017,1203.937410500017,1203.937410500017,,,,,,,,,,,,,,257,f,22,2023-03-23_13h36.45.542,RL,2022.2.4,60.164091539017534,
0,0.3,0.225,0,83,83,83,,,,,,,,,,None,1208.6252069000038,1208.6252069000038,1208.6252069000038,1208.6252069000038,1208.6252069000038,1208.6252069000038,r,0.6099716000026092,1209.25748510001,1209.25748510001,1209.25748510001,1209.25748510001,1209.25748510001,1209.25748510001,1209.5562212000368,1209.5562212000368,1211.1847660000203,1211.1847660000203,1211.1847660000203,1211.1847660000203,1211.1847660000203,1211.1847660000203,1211.1847660000203,1211.1847660000203,1211.1847660000203,1211.1847660000203,1211.1847660000203,1211.1847660000203,1211.1847660000203,1211.1847660000203,1211.1847660000203,1211.1847660000203,1211.1847660000203,68,61,50,79,68,63,None,None,1213.6963960999856,1213.6963960999856,1213.6963960999856,1213.6963960999856,1213.6963960999856,1213.6963960999856,1213.6963960999856,1213.6963960999856,0.007130499987397343,1213.6963960999856,64,64,[0.013888888888888888],[-0.3037037037037037],[1],[0],[0],[5.740097800036892],['tijiao'],-0.6,0,,[],[],[],[],[],[],[],1219.4581491000135,1219.4581491000135,1219.4581491000135,1219.4581491000135,6.138888888888888,2.7104442000272684,1222.1870291000232,1223.700572200003,,,,,,,,,,,,,,,,,,,257,f,22,2023-03-23_13h36.45.542,RL,2022.2.4,60.164091539017534,
1,-0.3,-0.225,0,84,84,84,,,,,,,,,,None,1223.700572200003,1223.700572200003,1223.700572200003,1223.700572200003,1223.700572200003,1223.700572200003,r,0.7444720000494272,1224.4664710999932,1224.4664710999932,1224.4664710999932,1224.4664710999932,1224.4664710999932,1224.4664710999932,1224.7643233999843,1224.7643233999843,1226.0108525999822,1226.0108525999822,1226.0108525999822,1226.0108525999822,1226.0108525999822,1226.0108525999822,1226.0108525999822,1226.0108525999822,1226.0108525999822,1226.0108525999822,1226.0108525999822,1226.0108525999822,1226.0108525999822,1226.0108525999822,1226.0108525999822,1226.0108525999822,1226.0108525999822,73,61,52,83,73,65,None,None,1228.5222150000045,1228.5222150000045,1228.5222150000045,1228.5222150000045,1228.5222150000045,1228.5222150000045,1228.5222150000045,1228.5222150000045,0.00660800002515316,1228.5222150000045,75,75,[0.03425925925925926],[-0.27870370370370373],[1],[0],[0],[9.397337600006722],['tijiao'],0.6,0,,[],[],[],[],[],[],[],1237.9415128999972,1237.9415128999972,1237.9415128999972,1237.9415128999972,7.138888888888889,3.025573499966413,1240.985725000035,1242.6489863999886,,,,,,,,,,,,,,,,,,,257,f,22,2023-03-23_13h36.45.542,RL,2022.2.4,60.164091539017534,
0,0.3,0.225,0,85,85,85,,,,,,,,,,None,1242.6489863999886,1242.6489863999886,1242.6489863999886,1242.6489863999886,1242.6489863999886,1242.6489863999886,r,0.2837095000431873,1242.9660169000272,1242.9660169000272,1242.9660169000272,1242.9660169000272,1242.9660169000272,1242.9660169000272,1243.264319800015,1243.264319800015,1245.0256521999836,1245.0256521999836,1245.0256521999836,1245.0256521999836,1245.0256521999836,1245.0256521999836,1245.0256521999836,1245.0256521999836,1245.0256521999836,1245.0256521999836,1245.0256521999836,1245.0256521999836,1245.0256521999836,1245.0256521999836,1245.0256521999836,1245.0256521999836,1245.0256521999836,71,59,41,101,71,67,None,None,1247.5359785000328,1247.5359785000328,1247.5359785000328,1247.5359785000328,1247.5359785000328,1247.5359785000328,1247.5359785000328,1247.5359785000328,0.0060939000104554,1247.5359785000328,74,74,[-0.023148148148148147],[-0.2935185185185185],[1],[0],[0],[6.123727699974552],['tijiao'],0.6,0,,[],[],[],[],[],[],[],1253.6809790999978,1253.6809790999978,1253.6809790999978,1253.6809790999978,7.981481481481482,3.109244799998123,1256.8096179999993,1258.4061225000187,,,,,,,,,,,,,,,,,,,257,f,22,2023-03-23_13h36.45.542,RL,2022.2.4,60.164091539017534,
1,-0.3,-0.225,0,86,86,86,,,,,,,,,,None,1258.4061225000187,1258.4061225000187,1258.4061225000187,1258.4061225000187,1258.4061225000187,1258.4061225000187,r,0.47746369999367744,1258.9057660999824,1258.9057660999824,1258.9057660999824,1258.9057660999824,1258.9057660999824,1258.9057660999824,1259.204237500031,1259.204237500031,1260.400668999995,1260.400668999995,1260.400668999995,1260.400668999995,1260.400668999995,1260.400668999995,1260.400668999995,1260.400668999995,1260.400668999995,1260.400668999995,1260.400668999995,1260.400668999995,1260.400668999995,1260.400668999995,1260.400668999995,1260.400668999995,1260.400668999995,69,52,48,87,69,61,5.0,3.6564825999666937,,,,,,,,,,,,,[],[],[],[],[],[],[],0.6,3,,[],[],[],[],[],[],[],,,,,None,None,1266.5939084999845,1268.5116565999924,1262.909810299985,1262.909810299985,1262.909810299985,1262.909810299985,1262.909810299985,,,,,,,,,,,,,,257,f,22,2023-03-23_13h36.45.542,RL,2022.2.4,60.164091539017534,
0,0.3,0.225,0,87,87,87,,,,,,,,,,None,1268.5116565999924,1268.5116565999924,1268.5116565999924,1268.5116565999924,1268.5116565999924,1268.5116565999924,i,0.8123089000000618,1269.3436611000216,1269.3436611000216,1269.3436611000216,1269.3436611000216,1269.3436611000216,1269.3436611000216,1269.642186400015,1269.642186400015,1271.5200493999873,1271.5200493999873,1271.5200493999873,1271.5200493999873,1271.5200493999873,1271.5200493999873,1271.5200493999873,1271.5200493999873,1271.5200493999873,1271.5200493999873,1271.5200493999873,1271.5200493999873,1271.5200493999873,1271.5200493999873,1271.5200493999873,1271.5200493999873,1271.5200493999873,76,57,51,87,51,66,4.0,2.6254883999936283,,,,,,,,,,,,,[],[],[],[],[],[],[],-0.6,2,,[],[],[],[],[],[],[],,,,,None,None,1276.6808791999938,1278.6005936000147,1274.0294398000115,1274.0294398000115,1274.0294398000115,1274.0294398000115,1274.0294398000115,,,,,,,,,,,,,,257,f,22,2023-03-23_13h36.45.542,RL,2022.2.4,60.164091539017534,
1,-0.3,-0.225,0,88,88,88,,,,,,,,,,None,1278.6005936000147,1278.6005936000147,1278.6005936000147,1278.6005936000147,1278.6005936000147,1278.6005936000147,i,0.3836551000131294,1279.0183128000353,1279.0183128000353,1279.0183128000353,1279.0183128000353,1279.0183128000353,1279.0183128000353,1279.3155828000163,1279.3155828000163,1280.6953242000309,1280.6953242000309,1280.712025100016,1280.712025100016,1280.712025100016,1280.712025100016,1280.712025100016,1280.712025100016,1280.712025100016,1280.712025100016,1280.712025100016,1280.712025100016,1280.712025100016,1280.712025100016,1280.712025100016,1280.712025100016,1280.712025100016,66,52,50,87,50,61,3.0,2.226302300055977,,,,,,,,,,,,,[],[],[],[],[],[],[],0.6,3,,[],[],[],[],[],[],[],,,,,None,None,1285.4745524000027,1287.1775930000003,1283.2210887999972,1283.2210887999972,1283.2210887999972,1283.2210887999972,1283.2210887999972,,,,,,,,,,,,,,257,f,22,2023-03-23_13h36.45.542,RL,2022.2.4,60.164091539017534,
0,0.3,0.225,0,89,89,89,,,,,,,,,,None,1287.1775930000003,1287.1775930000003,1287.1775930000003,1287.1775930000003,1287.1775930000003,1287.1775930000003,f,0.30976719997124746,1287.5119684999809,1287.5119684999809,1287.5119684999809,1287.5119684999809,1287.5119684999809,1287.5119684999809,1287.8090084000141,1287.8090084000141,1288.7730147999828,1288.7730147999828,1288.7898471000372,1288.7898471000372,1288.7898471000372,1288.7898471000372,1288.7898471000372,1288.7898471000372,1288.7898471000372,1288.7898471000372,1288.7898471000372,1288.7898471000372,1288.7898471000372,1288.7898471000372,1288.7898471000372,1288.7898471000372,1288.7898471000372,67,53,46,76,53,70,None,None,,,,,,,,,,,,,[],[],[],[],[],[],[],0.6,1,86,[-0.06666666666666667],[-0.29814814814814816],[1],[0],[0],[6.413198700000066],['tijiao_random_2'],1297.7361438000225,1297.7361438000225,1297.7361438000225,1297.7361438000225,4.953703703703704,3.7160354999941774,1301.4706789000193,1303.2333186999895,,,,,,1291.3098516000318,1291.3098516000318,1291.3098516000318,1291.3098516000318,1291.3098516000318,1291.3098516000318,1291.3098516000318,1291.3098516000318,0.006841700000222772,1291.3098516000318,,,,257,f,22,2023-03-23_13h36.45.542,RL,2022.2.4,60.164091539017534,
1,-0.3,-0.225,0,90,90,90,,,,,,,,,,None,1303.2333186999895,1303.2333186999895,1303.2333186999895,1303.2333186999895,1303.2333186999895,1303.2333186999895,j,0.3141948000411503,1303.567919299996,1303.567919299996,1303.567919299996,1303.567919299996,1303.567919299996,1303.567919299996,1303.8651760999928,1303.8651760999928,1305.727076500014,1305.727076500014,1305.727076500014,1305.727076500014,1305.727076500014,1305.727076500014,1305.727076500014,1305.727076500014,1305.727076500014,1305.727076500014,1305.727076500014,1305.727076500014,1305.727076500014,1305.727076500014,1305.727076500014,1305.727076500014,1305.727076500014,75,51,47,79,79,61,None,None,1308.2396402999875,1308.2396402999875,1308.2396402999875,1308.2396402999875,1308.2396402999875,1308.2396402999875,1308.2396402999875,1308.2396402999875,0.007869999972172081,1308.2396402999875,78,78,[-0.025],[-0.28425925925925927],[1],[0],[0],[6.204254100040998],['tijiao'],0.6,0,,[],[],[],[],[],[],[],1314.463780399994,1314.463780399994,1314.463780399994,1314.463780399994,7.962962962962963,2.5623784000054,1317.0449899000232,1318.7241861000075,,,,,,,,,,,,,,,,,,,257,f,22,2023-03-23_13h36.45.542,RL,2022.2.4,60.164091539017534,
0,0.3,0.225,0,91,91,91,,,,,,,,,,None,1318.7241861000075,1318.7241861000075,1318.7241861000075,1318.7241861000075,1318.7241861000075,1318.7241861000075,j,0.5051435999921523,1319.2571338000125,1319.2571338000125,1319.2571338000125,1319.2571338000125,1319.2571338000125,1319.2571338000125,1319.5557188999956,1319.5557188999956,1321.10161230003,1321.10161230003,1321.10161230003,1321.10161230003,1321.10161230003,1321.10161230003,1321.10161230003,1321.10161230003,1321.10161230003,1321.10161230003,1321.10161230003,1321.10161230003,1321.10161230003,1321.10161230003,1321.10161230003,1321.10161230003,1321.10161230003,68,57,38,74,74,57,4.0,2.2931600000010803,,,,,,,,,,,,,[],[],[],[],[],[],[],0.6,3,,[],[],[],[],[],[],[],,,,,None,None,1325.931692800019,1327.8664791000192,1323.610844800016,1323.610844800016,1323.610844800016,1323.610844800016,1323.610844800016,,,,,,,,,,,,,,257,f,22,2023-03-23_13h36.45.542,RL,2022.2.4,60.164091539017534,
