bandit0,black_x_pos_random,black_y_pos_random,trials.thisRepN,trials.thisTrialN,trials.thisN,trials.thisIndex,instru_img1.started,instru_img1.stopped,instru_resp.keys,instru_resp.rt,instru_resp.started,instru_resp.stopped,instru_img2.started,instru_img2.stopped,instru_resp2.keys,instru_resp2.rt,instru_resp2.started,instru_resp2.stopped,fixbefore_2.started,fixbefore_2.stopped,rest_image.started,rest_image.stopped,rest_response.keys,rest_response.started,rest_response.stopped,red.started,red.stopped,green.started,green.stopped,yellow.started,yellow.stopped,blue.started,blue.stopped,choose_bandit.keys,choose_bandit.rt,choose_bandit.started,choose_bandit.stopped,Fixation.started,Fixation.stopped,black.started,black.stopped,red_2.started,red_2.stopped,green_2.started,green_2.stopped,yellow_2.started,yellow_2.stopped,blue_2.started,blue_2.stopped,fixation_2.started,fixation_2.stopped,docs.started,docs.stopped,wait_playerB.started,wait_playerB.stopped,black_com.started,black_com.stopped,reward_sub.started,reward_sub.stopped,palyerb.started,palyerb.stopped,reward__sub.started,reward__sub.stopped,compare.started,compare.stopped,red_compare.started,red_compare.stopped,green_com.started,green_com.stopped,yellow_com.started,yellow_com.stopped,blue_com.started,blue_com.stopped,rewardyellow,rewardred,rewardblue,rewardgreen,subchoose,playerb,image_3.started,image_3.stopped,slider.response,slider.rt,slider.started,slider.stopped,text.started,text.stopped,image_4.started,image_4.stopped,image_5.started,image_5.stopped,expectself.text,expectself.started,expectself.stopped,value_expect_self,expect_self_black.started,expect_self_black.stopped,expect_self.started,expect_self.stopped,expect_self_red.started,expect_self_red.stopped,expect_self_green.started,expect_self_green.stopped,expect_self_yellow.started,expect_self_yellow.stopped,expect_self_blue.started,expect_self_blue.stopped,tijiao.started,tijiao.stopped,tijiao_click.started,tijiao_click.stopped,check.started,check.stopped,random_whicharm,whether_ask,jiantou_random.started,jiantou_random.stopped,expect_red.started,expect_red.stopped,expect_green.started,expect_green.stopped,expect_yellow.started,expect_yellow.stopped,expect_blue.started,expect_blue.stopped,expect_random_2.started,expect_random_2.stopped,expect_random_3.text,expect_random_3.started,expect_random_3.stopped,tijiao_random_2.started,tijiao_random_2.stopped,tijiao_random.started,tijiao_random.stopped,check_2.started,check_2.stopped,slider_2.response,slider_2.rt,slider_2.started,slider_2.stopped,image_7.started,image_7.stopped,confi.started,confi.stopped,notconfi.started,notconfi.stopped,bigx.started,bigx.stopped,intertrialfix.started,intertrialfix.stopped,tijiao_click.x,tijiao_click.y,tijiao_click.leftButton,tijiao_click.midButton,tijiao_click.rightButton,tijiao_click.time,tijiao_click.clicked_name,tijiao_random.x,tijiao_random.y,tijiao_random.leftButton,tijiao_random.midButton,tijiao_random.rightButton,tijiao_random.time,tijiao_random.clicked_name,rest_response.rt,participant,Gender,Age,date,expName,psychopyVersion,frameRate,
,,,,,,,21.825166700058617,None,space,3.9220834000734612,21.825166700058617,None,,,,,,,,,,,,,,,,,,,,,,,,,,,,,,,,,,,,,,,,,,,,,,,,,,,,,,,,,,,,,,,,,,,,,,,,,,,,,,,,,,,,,,,,,,,,,,,,,,,,,,,,,,,,,,,,,,,,,,,,,,,,,,,,,,,,,,,,,,,,,,,,,,,,,,,,,,258,f,23,2023_Mar_23_1336,RL,2021.2.3,59.96677843102567,
,,,,,,,,,,,,,25.775585400057025,None,s,53.06938939995598,25.775585400057025,None,,,,,,,,,,,,,,,,,,,,,,,,,,,,,,,,,,,,,,,,,,,,,,,,,,,,,,,,,,,,,,,,,,,,,,,,,,,,,,,,,,,,,,,,,,,,,,,,,,,,,,,,,,,,,,,,,,,,,,,,,,,,,,,,,,,,,,,,,,,,,,,,,,,,258,f,23,2023_Mar_23_1336,RL,2021.2.3,59.96677843102567,
1,-0.3,-0.225,0,0,0,0,,,,,,,,,,,,,78.87722390005365,None,None,None,None,None,None,79.96190300001763,None,79.96190300001763,None,79.96190300001763,None,79.96190300001763,None,i,0.4691065000370145,79.96190300001763,None,79.96190300001763,None,80.5490848000627,None,80.5490848000627,None,80.5490848000627,None,80.5490848000627,None,80.5490848000627,None,80.5490848000627,None,80.83483770000748,81.91873310005758,80.83483770000748,81.91873310005758,82.00721520010848,None,82.00721520010848,None,82.00721520010848,None,82.00721520010848,None,82.00721520010848,None,82.00721520010848,None,82.00721520010848,None,82.00721520010848,None,82.00721520010848,None,68,47,52,51,52,69,84.62989600002766,None,4.0,2.518818699987605,84.62989600002766,None,84.62989600002766,None,84.62989600002766,None,84.62989600002766,None,,None,None,,None,None,None,None,None,None,None,None,None,None,None,None,None,None,None,None,None,None,-0.6,3,None,None,None,None,None,None,None,None,None,None,None,None,,None,None,None,None,None,None,None,None,None,None,None,None,None,None,None,None,None,None,None,None,87.7460524000926,None,,,,,,,,,,,,,,,,258,f,23,2023_Mar_23_1336,RL,2021.2.3,59.96677843102567,
0,0.3,0.225,0,1,1,1,,,,,,,,,,,,,,,None,None,None,None,None,89.42836920008995,None,89.42836920008995,None,89.42836920008995,None,89.42836920008995,None,f,0.5526220999890938,89.42836920008995,None,89.42836920008995,None,90.02058860007674,None,90.02058860007674,None,90.02058860007674,None,90.02058860007674,None,90.02058860007674,None,90.02058860007674,None,90.30790630006231,91.89242730010301,90.30790630006231,91.89242730010301,91.92925889999606,None,91.92925889999606,None,91.92925889999606,None,91.92925889999606,None,91.92925889999606,None,91.92925889999606,None,91.92925889999606,None,91.92925889999606,None,91.92925889999606,None,66,56,47,38,56,61,None,None,None,None,None,None,None,None,None,None,None,None,73,94.52267930004746,None,73,94.52267930004746,None,94.52267930004746,None,94.52267930004746,None,94.52267930004746,None,94.52267930004746,None,94.52267930004746,None,94.52267930004746,None,0.0053229001350700855,None,94.52267930004746,None,-0.2,0,None,None,None,None,None,None,None,None,None,None,None,None,,None,None,None,None,None,None,None,None,6.9375,4.157947100000456,100.57193910004571,None,100.57193910004571,None,100.57193910004571,None,100.57193910004571,None,None,None,104.74920950003434,None,-0.006510416666666667,-0.2877604166666667,1,0,0,5.97712389996741,tijiao,,,,,,,,,258,f,23,2023_Mar_23_1336,RL,2021.2.3,59.96677843102567,
1,-0.3,-0.225,0,2,2,2,,,,,,,,,,,,,,,None,None,None,None,None,106.4898996000411,None,106.4898996000411,None,106.4898996000411,None,106.4898996000411,None,i,0.8024819999700412,106.4898996000411,None,106.4898996000411,None,107.33953160000965,None,107.33953160000965,None,107.33953160000965,None,107.33953160000965,None,107.33953160000965,None,107.33953160000965,None,107.63651560002472,None,107.63651560002472,None,108.65925530006643,None,108.65925530006643,None,108.65925530006643,None,108.65925530006643,None,108.65925530006643,None,108.65925530006643,None,108.65925530006643,None,108.65925530006643,None,108.65925530006643,None,57,49,39,34,39,41,None,None,None,None,None,None,None,None,None,None,None,None,26,111.1981086001033,None,26,111.1981086001033,None,111.1981086001033,None,111.1981086001033,None,111.1981086001033,None,111.1981086001033,None,111.1981086001033,None,111.1981086001033,None,0.00024770002346485853,None,111.1981086001033,None,0.2,0,None,None,None,None,None,None,None,None,None,None,None,None,,None,None,None,None,None,None,None,None,4.971354166666667,4.386062899953686,116.66561130003538,None,116.66561130003538,None,116.66561130003538,None,116.66561130003538,None,None,None,121.07877970009577,None,0.0234375,-0.2955729166666667,1,0,0,5.42193720000796,tijiao,,,,,,,,,258,f,23,2023_Mar_23_1336,RL,2021.2.3,59.96677843102567,
0,0.3,0.225,0,3,3,3,,,,,,,,,,,,,,,None,None,None,None,None,122.66702680010349,None,122.66702680010349,None,122.66702680010349,None,122.66702680010349,None,r,0.385087100090459,122.66702680010349,None,122.66702680010349,None,123.09969210007694,None,123.09969210007694,None,123.09969210007694,None,123.09969210007694,None,123.09969210007694,None,123.09969210007694,None,123.39769650006201,125.36583010002505,123.39769650006201,125.36583010002505,125.39955270010978,None,125.39955270010978,None,125.39955270010978,None,125.39955270010978,None,125.39955270010978,None,125.39955270010978,None,125.39955270010978,None,125.39955270010978,None,125.39955270010978,None,60,52,40,41,60,23,None,None,None,None,None,None,None,None,None,None,None,None,,None,None,,None,None,None,None,None,None,None,None,None,None,None,None,None,None,None,None,None,None,0.2,1,127.94164630002342,None,127.94164630002342,None,127.94164630002342,None,127.94164630002342,None,127.94164630002342,None,127.94164630002342,None,48,127.94164630002342,None,127.94164630002342,None,0.0010077999904751778,None,127.94164630002342,None,7.015625,3.2276521999156103,134.13339500001166,None,134.13339500001166,None,134.13339500001166,None,134.13339500001166,None,None,None,137.37350490002427,None,,,,,,,,0.06901041666666667,-0.2877604166666667,1,0,0,6.123232300044037,tijiao_random_2,,258,f,23,2023_Mar_23_1336,RL,2021.2.3,59.96677843102567,
1,-0.3,-0.225,0,4,4,4,,,,,,,,,,,,,,,None,None,None,None,None,139.2137178000994,None,139.2137178000994,None,139.2137178000994,None,139.2137178000994,None,f,1.1287550000706688,139.2137178000994,None,139.2137178000994,None,140.38030020007864,None,140.38030020007864,None,140.38030020007864,None,140.38030020007864,None,140.38030020007864,None,140.38030020007864,None,140.67634640005417,None,140.67634640005417,None,142.3937936000293,None,142.3937936000293,None,142.3937936000293,None,142.3937936000293,None,142.3937936000293,None,142.3937936000293,None,142.3937936000293,None,142.3937936000293,None,142.3937936000293,None,67,54,45,46,54,40,None,None,None,None,None,None,None,None,None,None,None,None,,None,None,,None,None,None,None,None,None,None,None,None,None,None,None,None,None,None,None,None,None,0.6,1,144.93759820004925,None,144.93759820004925,None,144.93759820004925,None,144.93759820004925,None,144.93759820004925,None,144.93759820004925,None,62,144.93759820004925,None,144.93759820004925,None,0.015921999933198094,None,144.93759820004925,None,6.013020833333334,4.598118500085548,152.43535190005787,None,152.43535190005787,None,152.43535190005787,None,152.43535190005787,None,None,None,157.05241690005641,None,,,,,,,,0.07161458333333333,-0.30078125,1,0,0,7.439827999914996,tijiao_random_2,,258,f,23,2023_Mar_23_1336,RL,2021.2.3,59.96677843102567,
0,0.3,0.225,0,5,5,5,,,,,,,,,,,,,,,None,None,None,None,None,158.7265403000638,None,158.7265403000638,None,158.7265403000638,None,158.7265403000638,None,j,0.9461794999660924,158.7265403000638,None,158.7265403000638,None,159.71504100004677,None,159.71504100004677,None,159.71504100004677,None,159.71504100004677,None,159.71504100004677,None,159.71504100004677,None,160.0064565000357,None,160.0064565000357,None,161.4433661000803,None,161.4433661000803,None,161.4433661000803,None,161.4433661000803,None,161.4433661000803,None,161.4433661000803,None,161.4433661000803,None,161.4433661000803,None,161.4433661000803,None,61,56,46,39,39,46,163.9624368000077,None,3.0,2.5870989999966696,163.9624368000077,None,163.9624368000077,None,163.9624368000077,None,163.9624368000077,None,,None,None,,None,None,None,None,None,None,None,None,None,None,None,None,None,None,None,None,None,None,-0.2,3,None,None,None,None,None,None,None,None,None,None,None,None,,None,None,None,None,None,None,None,None,None,None,None,None,None,None,None,None,None,None,None,None,166.6180426001083,None,,,,,,,,,,,,,,,,258,f,23,2023_Mar_23_1336,RL,2021.2.3,59.96677843102567,
1,-0.3,-0.225,0,6,6,6,,,,,,,,,,,,,,,None,None,None,None,None,168.16566230007447,None,168.16566230007447,None,168.16566230007447,None,168.16566230007447,None,r,0.7569597000256181,168.16566230007447,None,168.16566230007447,None,168.96920680010226,None,168.96920680010226,None,168.96920680010226,None,168.96920680010226,None,168.96920680010226,None,168.96920680010226,None,169.26283150003292,None,169.26283150003292,None,171.0939684000332,None,171.0939684000332,None,171.0939684000332,None,171.0939684000332,None,171.0939684000332,None,171.0939684000332,None,171.0939684000332,None,171.0939684000332,None,171.0939684000332,None,66,56,37,40,66,56,None,None,None,None,None,None,None,None,None,None,None,None,36,173.6294460000936,None,36,173.6294460000936,None,173.6294460000936,None,173.6294460000936,None,173.6294460000936,None,173.6294460000936,None,173.6294460000936,None,173.6294460000936,None,0.011695500114001334,None,173.6294460000936,None,-0.2,0,None,None,None,None,None,None,None,None,None,None,None,None,,None,None,None,None,None,None,None,None,7.015625,2.9295773999765515,180.79505160008557,None,180.79505160008557,None,180.79505160008557,None,180.79505160008557,None,None,None,183.73876550002024,None,-0.046875,-0.3033854166666667,1,0,0,7.1179471999639645,tijiao,,,,,,,,,258,f,23,2023_Mar_23_1336,RL,2021.2.3,59.96677843102567,
0,0.3,0.225,0,7,7,7,,,,,,,,,,,,,,,None,None,None,None,None,185.4449350000359,None,185.4449350000359,None,185.4449350000359,None,185.4449350000359,None,r,1.0878803000086918,185.4449350000359,None,185.4449350000359,None,186.58154570008628,None,186.58154570008628,None,186.58154570008628,None,186.58154570008628,None,186.58154570008628,None,186.58154570008628,None,186.8584454000229,188.59302450006362,186.8584454000229,188.59302450006362,188.62793470011093,None,188.62793470011093,None,188.62793470011093,None,188.62793470011093,None,188.62793470011093,None,188.62793470011093,None,188.62793470011093,None,188.62793470011093,None,188.62793470011093,None,65,62,42,47,65,41,191.1498375000665,None,6.0,2.666584499995224,191.1498375000665,None,191.1498375000665,None,191.1498375000665,None,191.1498375000665,None,,None,None,,None,None,None,None,None,None,None,None,None,None,None,None,None,None,None,None,None,None,0.2,3,None,None,None,None,None,None,None,None,None,None,None,None,,None,None,None,None,None,None,None,None,None,None,None,None,None,None,None,None,None,None,None,None,193.87429770000745,None,,,,,,,,,,,,,,,,258,f,23,2023_Mar_23_1336,RL,2021.2.3,59.96677843102567,
1,-0.3,-0.225,0,8,8,8,,,,,,,,,,,,,,,None,None,None,None,None,195.51881860010326,None,195.51881860010326,None,195.51881860010326,None,195.51881860010326,None,i,0.7945637999800965,195.51881860010326,None,195.51881860010326,None,196.35459770006128,None,196.35459770006128,None,196.35459770006128,None,196.35459770006128,None,196.35459770006128,None,196.35459770006128,None,196.64850050001405,None,196.64850050001405,None,197.5173823001096,None,197.5173823001096,None,197.5173823001096,None,197.5173823001096,None,197.5173823001096,None,197.5173823001096,None,197.5173823001096,None,197.5173823001096,None,197.5173823001096,None,51,57,38,41,38,60,None,None,None,None,None,None,None,None,None,None,None,None,65,200.04538690007757,None,65,200.04538690007757,None,200.04538690007757,None,200.04538690007757,None,200.04538690007757,None,200.04538690007757,None,200.04538690007757,None,200.04538690007757,None,0.013916500029154122,None,200.04538690007757,None,0.2,0,None,None,None,None,None,None,None,None,None,None,None,None,,None,None,None,None,None,None,None,None,4.880208333333333,3.4349202000303194,209.17726520006545,None,209.17726520006545,None,209.17726520006545,None,209.17726520006545,None,None,None,212.62576290010475,None,-0.029947916666666668,-0.3138020833333333,1,0,0,9.087893499992788,tijiao,,,,,,,,,258,f,23,2023_Mar_23_1336,RL,2021.2.3,59.96677843102567,
0,0.3,0.225,0,9,9,9,,,,,,,,,,,,,,,None,None,None,None,None,214.44847560010385,None,214.44847560010385,None,214.44847560010385,None,214.44847560010385,None,j,0.6245769000379369,214.44847560010385,None,214.44847560010385,None,215.11760190001223,None,215.11760190001223,None,215.11760190001223,None,215.11760190001223,None,215.11760190001223,None,215.11760190001223,None,215.41160660004243,217.2462001000531,215.41160660004243,217.2462001000531,217.2788674000185,None,217.2788674000185,None,217.2788674000185,None,217.2788674000185,None,217.2788674000185,None,217.2788674000185,None,217.2788674000185,None,217.2788674000185,None,217.2788674000185,None,58,63,38,41,41,51,None,None,None,None,None,None,None,None,None,None,None,None,52,219.8154725000495,None,52,219.8154725000495,None,219.8154725000495,None,219.8154725000495,None,219.8154725000495,None,219.8154725000495,None,219.8154725000495,None,219.8154725000495,None,0.008006799849681556,None,219.8154725000495,None,0.6,0,None,None,None,None,None,None,None,None,None,None,None,None,,None,None,None,None,None,None,None,None,5.0234375,4.5284041000995785,228.36371840001084,None,228.36371840001084,None,228.36371840001084,None,228.36371840001084,None,None,None,232.90627320006024,None,0.09765625,-0.29296875,1,0,0,8.49815540004056,tijiao,,,,,,,,,258,f,23,2023_Mar_23_1336,RL,2021.2.3,59.96677843102567,
1,-0.3,-0.225,0,10,10,10,,,,,,,,,,,,,,,None,None,None,None,None,234.57915460004006,None,234.57915460004006,None,234.57915460004006,None,234.57915460004006,None,j,0.6738555999472737,234.57915460004006,None,234.57915460004006,None,235.29970750003122,None,235.29970750003122,None,235.29970750003122,None,235.29970750003122,None,235.29970750003122,None,235.29970750003122,None,235.59216550004203,237.32706570008304,235.59216550004203,237.32706570008304,237.36082670011092,None,237.36082670011092,None,237.36082670011092,None,237.36082670011092,None,237.36082670011092,None,237.36082670011092,None,237.36082670011092,None,237.36082670011092,None,237.36082670011092,None,56,69,43,37,37,26,None,None,None,None,None,None,None,None,None,None,None,None,41,239.8871956000803,None,41,239.8871956000803,None,239.8871956000803,None,239.8871956000803,None,239.8871956000803,None,239.8871956000803,None,239.8871956000803,None,239.8871956000803,None,0.0002565000904724002,None,239.8871956000803,None,-0.6,0,None,None,None,None,None,None,None,None,None,None,None,None,,None,None,None,None,None,None,None,None,7.041666666666666,3.1981431000167504,246.82384630001616,None,246.82384630001616,None,246.82384630001616,None,246.82384630001616,None,None,None,250.03484950005077,None,0.0703125,-0.2760416666666667,1,0,0,6.889087000046857,tijiao,,,,,,,,,258,f,23,2023_Mar_23_1336,RL,2021.2.3,59.96677843102567,
0,0.3,0.225,0,11,11,11,,,,,,,,,,,,,,,None,None,None,None,None,251.77444470010232,None,251.77444470010232,None,251.77444470010232,None,251.77444470010232,None,i,0.7189350000116974,251.77444470010232,None,251.77444470010232,None,252.5424252001103,None,252.5424252001103,None,252.5424252001103,None,252.5424252001103,None,252.5424252001103,None,252.5424252001103,None,252.8375812000595,None,252.8375812000595,None,254.2701313000871,None,254.2701313000871,None,254.2701313000871,None,254.2701313000871,None,254.2701313000871,None,254.2701313000871,None,254.2701313000871,None,254.2701313000871,None,254.2701313000871,None,48,66,31,41,31,55,256.78973430010956,None,3.0,2.104693900095299,256.78973430010956,None,256.78973430010956,None,256.78973430010956,None,256.78973430010956,None,,None,None,,None,None,None,None,None,None,None,None,None,None,None,None,None,None,None,None,None,None,0.2,3,None,None,None,None,None,None,None,None,None,None,None,None,,None,None,None,None,None,None,None,None,None,None,None,None,None,None,None,None,None,None,None,None,258.95753830007743,None,,,,,,,,,,,,,,,,258,f,23,2023_Mar_23_1336,RL,2021.2.3,59.96677843102567,
1,-0.3,-0.225,0,12,12,12,,,,,,,,,,,,,,,None,None,None,None,None,260.46381600003224,None,260.46381600003224,None,260.46381600003224,None,260.46381600003224,None,f,0.7094482000684366,260.46381600003224,None,260.46381600003224,None,261.21440789999906,None,261.21440789999906,None,261.21440789999906,None,261.21440789999906,None,261.21440789999906,None,261.21440789999906,None,261.5103519000113,None,261.5103519000113,None,263.5274354000576,None,263.5274354000576,None,263.5274354000576,None,263.5274354000576,None,263.5274354000576,None,263.5274354000576,None,263.5274354000576,None,263.5274354000576,None,263.5274354000576,None,50,58,37,55,58,65,None,None,None,None,None,None,None,None,None,None,None,None,,None,None,,None,None,None,None,None,None,None,None,None,None,None,None,None,None,None,None,None,None,0.2,1,266.07177550008055,None,266.07177550008055,None,266.07177550008055,None,266.07177550008055,None,266.07177550008055,None,266.07177550008055,None,81,266.07177550008055,None,266.07177550008055,None,0.0001865000231191516,None,266.07177550008055,None,8.057291666666666,4.381153299938887,271.5757544001099,None,271.5757544001099,None,271.5757544001099,None,271.5757544001099,None,None,None,275.9696814001072,None,,,,,,,,0.049479166666666664,-0.28515625,1,0,0,5.471477200044319,tijiao_random_2,,258,f,23,2023_Mar_23_1336,RL,2021.2.3,59.96677843102567,
0,0.3,0.225,0,13,13,13,,,,,,,,,,,,,,,None,None,None,None,None,277.6424198000459,None,277.6424198000459,None,277.6424198000459,None,277.6424198000459,None,f,1.2221681999508291,277.6424198000459,None,277.6424198000459,None,278.91134109999985,None,278.91134109999985,None,278.91134109999985,None,278.91134109999985,None,278.91134109999985,None,278.91134109999985,None,279.20584800001234,None,279.20584800001234,None,280.8202947000973,None,280.8202947000973,None,280.8202947000973,None,280.8202947000973,None,280.8202947000973,None,280.8202947000973,None,280.8202947000973,None,280.8202947000973,None,280.8202947000973,None,54,57,33,50,57,61,283.34339620009996,None,4.0,1.701492300024256,283.34339620009996,None,283.34339620009996,None,283.34339620009996,None,283.34339620009996,None,,None,None,,None,None,None,None,None,None,None,None,None,None,None,None,None,None,None,None,None,None,0.6,2,None,None,None,None,None,None,None,None,None,None,None,None,,None,None,None,None,None,None,None,None,None,None,None,None,None,None,None,None,None,None,None,None,285.0983763000695,None,,,,,,,,,,,,,,,,258,f,23,2023_Mar_23_1336,RL,2021.2.3,59.96677843102567,
1,-0.3,-0.225,0,14,14,14,,,,,,,,,,,,,,,None,None,None,None,None,286.63185980007984,None,286.63185980007984,None,286.63185980007984,None,286.63185980007984,None,i,1.1426967999432236,286.63185980007984,None,286.63185980007984,None,287.8185612000525,None,287.8185612000525,None,287.8185612000525,None,287.8185612000525,None,287.8185612000525,None,287.8185612000525,None,288.1120246000355,289.94616180006415,288.1120246000355,289.94616180006415,289.97685420000926,None,289.97685420000926,None,289.97685420000926,None,289.97685420000926,None,289.97685420000926,None,289.97685420000926,None,289.97685420000926,None,289.97685420000926,None,289.97685420000926,None,57,56,40,57,40,48,None,None,None,None,None,None,None,None,None,None,None,None,29,292.5080893000122,None,29,292.5080893000122,None,292.5080893000122,None,292.5080893000122,None,292.5080893000122,None,292.5080893000122,None,292.5080893000122,None,292.5080893000122,None,0.016363800037652254,None,292.5080893000122,None,-0.2,0,None,None,None,None,None,None,None,None,None,None,None,None,,None,None,None,None,None,None,None,None,4.919270833333333,3.4139807000756264,298.95893950003665,None,298.95893950003665,None,298.95893950003665,None,298.95893950003665,None,None,None,302.4031295001041,None,0.033854166666666664,-0.28515625,1,0,0,6.404897499945946,tijiao,,,,,,,,,258,f,23,2023_Mar_23_1336,RL,2021.2.3,59.96677843102567,
0,0.3,0.225,0,15,15,15,,,,,,,,,,,,,,,None,None,None,None,None,304.394449000014,None,304.394449000014,None,304.394449000014,None,304.394449000014,None,None,,304.394449000014,None,304.394449000014,None,None,None,None,None,None,None,None,None,None,None,None,None,None,None,None,None,None,None,None,None,None,None,None,None,None,None,None,None,None,None,None,None,None,None,66,48,25,44,0,**,None,None,None,None,None,None,None,None,None,None,None,None,,None,None,,None,None,None,None,None,None,None,None,None,None,None,None,None,None,None,None,None,None,0.6,3,None,None,None,None,None,None,None,None,None,None,None,None,,None,None,None,None,None,None,None,None,None,None,None,None,None,None,None,None,None,None,306.14591820002533,None,312.14538910007104,None,,,,,,,,,,,,,,,,258,f,23,2023_Mar_23_1336,RL,2021.2.3,59.96677843102567,
1,-0.3,-0.225,0,16,16,16,,,,,,,,,,,,,,,None,None,None,None,None,314.03369589999784,None,314.03369589999784,None,314.03369589999784,None,314.03369589999784,None,i,0.5009490000084043,314.03369589999784,None,314.03369589999784,None,314.5852750000777,None,314.5852750000777,None,314.5852750000777,None,314.5852750000777,None,314.5852750000777,None,314.5852750000777,None,314.8805386000313,None,314.8805386000313,None,316.42946050001774,None,316.42946050001774,None,316.42946050001774,None,316.42946050001774,None,316.42946050001774,None,316.42946050001774,None,316.42946050001774,None,316.42946050001774,None,316.42946050001774,None,54,51,31,48,31,46,318.95070710009895,None,3.0,1.6352498000487685,318.95070710009895,None,318.95070710009895,None,318.95070710009895,None,318.95070710009895,None,,None,None,,None,None,None,None,None,None,None,None,None,None,None,None,None,None,None,None,None,None,0.2,2,None,None,None,None,None,None,None,None,None,None,None,None,,None,None,None,None,None,None,None,None,None,None,None,None,None,None,None,None,None,None,None,None,320.6382729000179,None,,,,,,,,,,,,,,,,258,f,23,2023_Mar_23_1336,RL,2021.2.3,59.96677843102567,
0,0.3,0.225,0,17,17,17,,,,,,,,,,,,,,,None,None,None,None,None,322.30672540003434,None,322.30672540003434,None,322.30672540003434,None,322.30672540003434,None,r,0.787972699967213,322.30672540003434,None,322.30672540003434,None,323.1400571000995,None,323.1400571000995,None,323.1400571000995,None,323.1400571000995,None,323.1400571000995,None,323.1400571000995,None,323.43662380008027,None,323.43662380008027,None,324.5210546000162,None,324.5210546000162,None,324.5210546000162,None,324.5210546000162,None,324.5210546000162,None,324.5210546000162,None,324.5210546000162,None,324.5210546000162,None,324.5210546000162,None,54,45,41,46,54,53,None,None,None,None,None,None,None,None,None,None,None,None,74,327.04694610007573,None,74,327.04694610007573,None,327.04694610007573,None,327.04694610007573,None,327.04694610007573,None,327.04694610007573,None,327.04694610007573,None,327.04694610007573,None,0.0011697999434545636,None,327.04694610007573,None,0.2,0,None,None,None,None,None,None,None,None,None,None,None,None,,None,None,None,None,None,None,None,None,7.966145833333334,2.3321027000201866,331.93060840002727,None,331.93060840002727,None,331.93060840002727,None,331.93060840002727,None,None,None,334.2767371000955,None,0.044270833333333336,-0.2734375,1,0,0,4.838968199910596,tijiao,,,,,,,,,258,f,23,2023_Mar_23_1336,RL,2021.2.3,59.96677843102567,
1,-0.3,-0.225,0,18,18,18,,,,,,,,,,,,,,,None,None,None,None,None,336.1999179000268,None,336.1999179000268,None,336.1999179000268,None,336.1999179000268,None,i,0.4551189000485465,336.1999179000268,None,336.1999179000268,None,336.70182890002616,None,336.70182890002616,None,336.70182890002616,None,336.70182890002616,None,336.70182890002616,None,336.70182890002616,None,336.99598260002676,338.0136240000138,336.99598260002676,338.0136240000138,338.0459930000361,None,338.0459930000361,None,338.0459930000361,None,338.0459930000361,None,338.0459930000361,None,338.0459930000361,None,338.0459930000361,None,338.0459930000361,None,338.0459930000361,None,43,48,35,45,35,45,None,None,None,None,None,None,None,None,None,None,None,None,,None,None,,None,None,None,None,None,None,None,None,None,None,None,None,None,None,None,None,None,None,-0.6,1,340.59560780005995,None,340.59560780005995,None,340.59560780005995,None,340.59560780005995,None,340.59560780005995,None,340.59560780005995,None,39,340.59560780005995,None,340.59560780005995,None,0.010583000024780631,None,340.59560780005995,None,5.0234375,2.7612192999804392,346.81227560003754,None,346.81227560003754,None,346.81227560003754,None,346.81227560003754,None,None,None,349.5876470000949,None,,,,,,,,0.08854166666666667,-0.28515625,1,0,0,6.182562600006349,tijiao_random_2,,258,f,23,2023_Mar_23_1336,RL,2021.2.3,59.96677843102567,
0,0.3,0.225,0,19,19,19,,,,,,,,,,,,,,,None,None,None,None,None,351.5270447001094,None,351.5270447001094,None,351.5270447001094,None,351.5270447001094,None,None,,351.5270447001094,None,351.5270447001094,None,None,None,None,None,None,None,None,None,None,None,None,None,None,None,None,None,None,None,None,None,None,None,None,None,None,None,None,None,None,None,None,None,None,None,44,57,46,42,0,**,None,None,None,None,None,None,None,None,None,None,None,None,,None,None,,None,None,None,None,None,None,None,None,None,None,None,None,None,None,None,None,None,None,-0.2,2,None,None,None,None,None,None,None,None,None,None,None,None,,None,None,None,None,None,None,None,None,None,None,None,None,None,None,None,None,None,None,353.1177736000391,None,359.12818450003397,None,,,,,,,,,,,,,,,,258,f,23,2023_Mar_23_1336,RL,2021.2.3,59.96677843102567,
1,-0.3,-0.225,0,20,20,20,,,,,,,,,,,,,,,None,None,None,None,None,360.96694530011155,None,360.96694530011155,None,360.96694530011155,None,360.96694530011155,None,i,0.4579820999642834,360.96694530011155,None,360.96694530011155,None,361.4694385000039,None,361.4694385000039,None,361.4694385000039,None,361.4694385000039,None,361.4694385000039,None,361.4694385000039,None,361.76319000008516,None,361.76319000008516,None,363.44453100010287,None,363.44453100010287,None,363.44453100010287,None,363.44453100010287,None,363.44453100010287,None,363.44453100010287,None,363.44453100010287,None,363.44453100010287,None,363.44453100010287,None,36,51,36,54,36,31,365.9706178000197,None,2.0,2.635462800040841,365.9706178000197,None,365.9706178000197,None,365.9706178000197,None,365.9706178000197,None,,None,None,,None,None,None,None,None,None,None,None,None,None,None,None,None,None,None,None,None,None,-0.6,2,None,None,None,None,None,None,None,None,None,None,None,None,,None,None,None,None,None,None,None,None,None,None,None,None,None,None,None,None,None,None,None,None,368.67912210000213,None,,,,,,,,,,,,,,,,258,f,23,2023_Mar_23_1336,RL,2021.2.3,59.96677843102567,
0,0.3,0.225,0,21,21,21,,,,,,,,,,,,,,,None,None,None,None,None,370.6234078000998,None,370.6234078000998,None,370.6234078000998,None,370.6234078000998,None,r,0.4017167999409139,370.6234078000998,None,370.6234078000998,None,371.07328750006855,None,371.07328750006855,None,371.07328750006855,None,371.07328750006855,None,371.07328750006855,None,371.07328750006855,None,371.3696465000976,372.7038826000644,371.3696465000976,372.7038826000644,372.74133690004237,None,372.74133690004237,None,372.74133690004237,None,372.74133690004237,None,372.74133690004237,None,372.74133690004237,None,372.74133690004237,None,372.74133690004237,None,372.74133690004237,None,38,48,35,54,38,37,375.25479700008873,None,3.0,2.0873029000358656,375.25479700008873,None,375.25479700008873,None,375.25479700008873,None,375.25479700008873,None,,None,None,,None,None,None,None,None,None,None,None,None,None,None,None,None,None,None,None,None,None,-0.2,3,None,None,None,None,None,None,None,None,None,None,None,None,,None,None,None,None,None,None,None,None,None,None,None,None,None,None,None,None,None,None,None,None,377.3981266000774,None,,,,,,,,,,,,,,,,258,f,23,2023_Mar_23_1336,RL,2021.2.3,59.96677843102567,
1,-0.3,-0.225,0,22,22,22,,,,,,,,,,,,,,,None,None,None,None,None,379.0956129000988,None,379.0956129000988,None,379.0956129000988,None,379.0956129000988,None,i,0.5295053001027554,379.0956129000988,None,379.0956129000988,None,379.6651425000746,None,379.6651425000746,None,379.6651425000746,None,379.6651425000746,None,379.6651425000746,None,379.6651425000746,None,379.95928619999904,381.8604858000763,379.95928619999904,381.8604858000763,381.89237930008676,None,381.89237930008676,None,381.89237930008676,None,381.89237930008676,None,381.89237930008676,None,381.89237930008676,None,381.89237930008676,None,381.89237930008676,None,381.89237930008676,None,47,49,38,51,38,59,None,None,None,None,None,None,None,None,None,None,None,None,70,384.42855420010164,None,70,384.42855420010164,None,384.42855420010164,None,384.42855420010164,None,384.42855420010164,None,384.42855420010164,None,384.42855420010164,None,384.42855420010164,None,0.009363400051370263,None,384.42855420010164,None,0.6,0,None,None,None,None,None,None,None,None,None,None,None,None,,None,None,None,None,None,None,None,None,6.911458333333334,2.1010427000001073,390.8217409000499,None,390.8217409000499,None,390.8217409000499,None,390.8217409000499,None,None,None,392.95090809999965,None,0.14453125,-0.3020833333333333,1,0,0,6.348547899979167,tijiao,,,,,,,,,258,f,23,2023_Mar_23_1336,RL,2021.2.3,59.96677843102567,
0,0.3,0.225,0,23,23,23,,,,,,,,,,,,,,,None,None,None,None,None,394.891391400015,None,394.891391400015,None,394.891391400015,None,394.891391400015,None,i,0.8038795000175014,394.891391400015,None,394.891391400015,None,395.7412840001052,None,395.7412840001052,None,395.7412840001052,None,395.7412840001052,None,395.7412840001052,None,395.7412840001052,None,396.03712250001263,None,396.03712250001263,None,397.40295740007423,None,397.40295740007423,None,397.40295740007423,None,397.40295740007423,None,397.40295740007423,None,397.40295740007423,None,397.40295740007423,None,397.40295740007423,None,397.40295740007423,None,46,42,37,44,37,49,None,None,None,None,None,None,None,None,None,None,None,None,,None,None,,None,None,None,None,None,None,None,None,None,None,None,None,None,None,None,None,None,None,-0.2,1,399.9531154000433,None,399.9531154000433,None,399.9531154000433,None,399.9531154000433,None,399.9531154000433,None,399.9531154000433,None,47,399.9531154000433,None,399.9531154000433,None,0.011246899957768619,None,399.9531154000433,None,5.895833333333333,1.5692645000526682,407.8718159000855,None,407.8718159000855,None,407.8718159000855,None,407.8718159000855,None,None,None,409.46075990004465,None,,,,,,,,0.053385416666666664,-0.2734375,1,0,0,7.884884699946269,tijiao_random_2,,258,f,23,2023_Mar_23_1336,RL,2021.2.3,59.96677843102567,
1,-0.3,-0.225,0,24,24,24,,,,,,,,,,,,,,,None,None,None,None,None,411.4518091001082,None,411.4518091001082,None,411.4518091001082,None,411.4518091001082,None,f,0.47349760006181896,411.4518091001082,None,411.4518091001082,None,411.97033620008733,None,411.97033620008733,None,411.97033620008733,None,411.97033620008733,None,411.97033620008733,None,411.97033620008733,None,412.26504100009333,None,412.26504100009333,None,413.31311360001564,None,413.31311360001564,None,413.31311360001564,None,413.31311360001564,None,413.31311360001564,None,413.31311360001564,None,413.31311360001564,None,413.31311360001564,None,413.31311360001564,None,42,48,40,51,48,25,None,None,None,None,None,None,None,None,None,None,None,None,57,415.84073880000506,None,57,415.84073880000506,None,415.84073880000506,None,415.84073880000506,None,415.84073880000506,None,415.84073880000506,None,415.84073880000506,None,415.84073880000506,None,0.002224800060503185,None,415.84073880000506,None,-0.6,0,None,None,None,None,None,None,None,None,None,None,None,None,,None,None,None,None,None,None,None,None,7.171875,2.0889964000089094,420.646326300106,None,420.646326300106,None,420.646326300106,None,420.646326300106,None,None,None,422.7533162001055,None,0.01953125,-0.3046875,1,0,0,4.756201900076121,tijiao,,,,,,,,,258,f,23,2023_Mar_23_1336,RL,2021.2.3,59.96677843102567,
0,0.3,0.225,0,25,25,25,,,,,,,,,,,,,,,None,None,None,None,None,424.31063910003286,None,424.31063910003286,None,424.31063910003286,None,424.31063910003286,None,i,0.2747191999806091,424.31063910003286,None,424.31063910003286,None,424.6329100000439,None,424.6329100000439,None,424.6329100000439,None,424.6329100000439,None,424.6329100000439,None,424.6329100000439,None,424.92368680005893,425.87429460010026,424.92368680005893,425.87429460010026,425.9060174000915,None,425.9060174000915,None,425.9060174000915,None,425.9060174000915,None,425.9060174000915,None,425.9060174000915,None,425.9060174000915,None,425.9060174000915,None,425.9060174000915,None,52,33,28,52,28,50,None,None,None,None,None,None,None,None,None,None,None,None,,None,None,,None,None,None,None,None,None,None,None,None,None,None,None,None,None,None,None,None,None,0.6,1,428.45704560005106,None,428.45704560005106,None,428.45704560005106,None,428.45704560005106,None,428.45704560005106,None,428.45704560005106,None,51,428.45704560005106,None,428.45704560005106,None,0.009612400084733963,None,428.45704560005106,None,6.078125,3.4777984000975266,434.6549846000271,None,434.6549846000271,None,434.6549846000271,None,434.6549846000271,None,None,None,438.1490145000862,None,,,,,,,,0.07291666666666667,-0.30078125,1,0,0,6.165509699960239,tijiao_random_2,,258,f,23,2023_Mar_23_1336,RL,2021.2.3,59.96677843102567,
1,-0.3,-0.225,0,26,26,26,,,,,,,,,,,,,,,None,None,None,None,None,439.75492450001184,None,439.75492450001184,None,439.75492450001184,None,439.75492450001184,None,j,0.331612000009045,439.75492450001184,None,439.75492450001184,None,440.1381925001042,None,440.1381925001042,None,440.1381925001042,None,440.1381925001042,None,440.1381925001042,None,440.1381925001042,None,440.43433440010995,441.26790220011026,440.43433440010995,441.26790220011026,441.299308000016,None,441.299308000016,None,441.299308000016,None,441.299308000016,None,441.299308000016,None,441.299308000016,None,441.299308000016,None,441.299308000016,None,441.299308000016,None,42,51,27,39,39,52,None,None,None,None,None,None,None,None,None,None,None,None,7,443.8305076000979,None,7,443.8305076000979,None,443.8305076000979,None,443.8305076000979,None,443.8305076000979,None,443.8305076000979,None,443.8305076000979,None,443.8305076000979,None,0.014277700101956725,None,443.8305076000979,None,-0.6,0,None,None,None,None,None,None,None,None,None,None,None,None,,None,None,None,None,None,None,None,None,7.09375,2.7680609999224544,447.97694320010487,None,447.97694320010487,None,447.97694320010487,None,447.97694320010487,None,None,None,450.7727149000857,None,0.059895833333333336,-0.28515625,1,0,0,4.101276400033385,tijiao,,,,,,,,,258,f,23,2023_Mar_23_1336,RL,2021.2.3,59.96677843102567,
0,0.3,0.225,0,27,27,27,,,,,,,,,,,,,,,None,None,None,None,None,452.7639614000218,None,452.7639614000218,None,452.7639614000218,None,452.7639614000218,None,r,0.43271740002091974,452.7639614000218,None,452.7639614000218,None,453.24757300002966,None,453.24757300002966,None,453.24757300002966,None,453.24757300002966,None,453.24757300002966,None,453.24757300002966,None,453.54347700008657,None,453.54347700008657,None,454.3731794001069,None,454.3731794001069,None,454.3731794001069,None,454.3731794001069,None,454.3731794001069,None,454.3731794001069,None,454.3731794001069,None,454.3731794001069,None,454.3731794001069,None,44,42,34,51,44,63,456.89999669999816,None,3.0,2.0828575000632554,456.89999669999816,None,456.89999669999816,None,456.89999669999816,None,456.89999669999816,None,,None,None,,None,None,None,None,None,None,None,None,None,None,None,None,None,None,None,None,None,None,0.6,2,None,None,None,None,None,None,None,None,None,None,None,None,,None,None,None,None,None,None,None,None,None,None,None,None,None,None,None,None,None,None,None,None,459.0385637000436,None,,,,,,,,,,,,,,,,258,f,23,2023_Mar_23_1336,RL,2021.2.3,59.96677843102567,
1,-0.3,-0.225,0,28,28,28,,,,,,,,,,,,,,,None,None,None,None,None,460.9530683000339,None,460.9530683000339,None,460.9530683000339,None,460.9530683000339,None,i,0.4941250999690965,460.9530683000339,None,460.9530683000339,None,461.48861880006734,None,461.48861880006734,None,461.48861880006734,None,461.48861880006734,None,461.48861880006734,None,461.48861880006734,None,461.78282550000586,None,461.78282550000586,None,463.34733820008114,None,463.34733820008114,None,463.34733820008114,None,463.34733820008114,None,463.34733820008114,None,463.34733820008114,None,463.34733820008114,None,463.34733820008114,None,463.34733820008114,None,33,40,42,51,42,61,465.8651535999961,None,3.0,1.506813499960117,465.8651535999961,None,465.8651535999961,None,465.8651535999961,None,465.8651535999961,None,,None,None,,None,None,None,None,None,None,None,None,None,None,None,None,None,None,None,None,None,None,-0.6,3,None,None,None,None,None,None,None,None,None,None,None,None,,None,None,None,None,None,None,None,None,None,None,None,None,None,None,None,None,None,None,None,None,467.42538040003274,None,,,,,,,,,,,,,,,,258,f,23,2023_Mar_23_1336,RL,2021.2.3,59.96677843102567,
0,0.3,0.225,0,29,29,29,,,,,,,,,,,,,,,None,None,None,None,None,469.0754030001117,None,469.0754030001117,None,469.0754030001117,None,469.0754030001117,None,r,0.601295700063929,469.0754030001117,None,469.0754030001117,None,469.7267907001078,None,469.7267907001078,None,469.7267907001078,None,469.7267907001078,None,469.7267907001078,None,469.7267907001078,None,470.0220274000894,None,470.0220274000894,None,471.05162620008923,None,471.05162620008923,None,471.05162620008923,None,471.05162620008923,None,471.05162620008923,None,471.05162620008923,None,471.05162620008923,None,471.05162620008923,None,471.05162620008923,None,45,38,42,52,45,43,None,None,None,None,None,None,None,None,None,None,None,None,36,473.59055000008084,None,36,473.59055000008084,None,473.59055000008084,None,473.59055000008084,None,473.59055000008084,None,473.59055000008084,None,473.59055000008084,None,473.59055000008084,None,0.009380400064401329,None,473.59055000008084,None,0.2,0,None,None,None,None,None,None,None,None,None,None,None,None,,None,None,None,None,None,None,None,None,7.966145833333334,2.132037000032142,477.47822580009233,None,477.47822580009233,None,477.47822580009233,None,477.47822580009233,None,None,None,479.6429941999959,None,0.046875,-0.2786458333333333,1,0,0,3.8466521999798715,tijiao,,,,,,,,,258,f,23,2023_Mar_23_1336,RL,2021.2.3,59.96677843102567,
1,-0.3,-0.225,0,30,30,30,,,,,,,,,,,,,,,None,None,None,None,None,481.5676913000643,None,481.5676913000643,None,481.5676913000643,None,481.5676913000643,None,i,0.5991384000517428,481.5676913000643,None,481.5676913000643,None,482.21900920011103,None,482.21900920011103,None,482.21900920011103,None,482.21900920011103,None,482.21900920011103,None,482.21900920011103,None,482.51368309999816,None,482.51368309999816,None,483.9464488000376,None,483.9464488000376,None,483.9464488000376,None,483.9464488000376,None,483.9464488000376,None,483.9464488000376,None,483.9464488000376,None,483.9464488000376,None,483.9464488000376,None,49,45,33,61,33,58,None,None,None,None,None,None,None,None,None,None,None,None,59,486.48302040004637,None,59,486.48302040004637,None,486.48302040004637,None,486.48302040004637,None,486.48302040004637,None,486.48302040004637,None,486.48302040004637,None,486.48302040004637,None,0.008380200015380979,None,486.48302040004637,None,0.6,0,None,None,None,None,None,None,None,None,None,None,None,None,,None,None,None,None,None,None,None,None,9.020833333333332,1.963764899992384,493.0252509000711,None,493.0252509000711,None,493.0252509000711,None,493.0252509000711,None,None,None,495.00492040009703,None,0.11848958333333333,-0.2721354166666667,1,0,0,6.497798500000499,tijiao,,,,,,,,,258,f,23,2023_Mar_23_1336,RL,2021.2.3,59.96677843102567,
0,0.3,0.225,0,31,31,31,,,,,,,,,,,,,,,None,None,None,None,None,496.9277142001083,None,496.9277142001083,None,496.9277142001083,None,496.9277142001083,None,i,0.5193024000618607,496.9277142001083,None,496.9277142001083,None,497.4967799000442,None,497.4967799000442,None,497.4967799000442,None,497.4967799000442,None,497.4967799000442,None,497.4967799000442,None,497.79097640002146,None,497.79097640002146,None,499.6708640001016,None,499.6708640001016,None,499.6708640001016,None,499.6708640001016,None,499.6708640001016,None,499.6708640001016,None,499.6708640001016,None,499.6708640001016,None,499.6708640001016,None,47,49,37,58,37,64,None,None,None,None,None,None,None,None,None,None,None,None,46,502.2100873000454,None,46,502.2100873000454,None,502.2100873000454,None,502.2100873000454,None,502.2100873000454,None,502.2100873000454,None,502.2100873000454,None,502.2100873000454,None,0.009548299945890903,None,502.2100873000454,None,0.2,0,None,None,None,None,None,None,None,None,None,None,None,None,,None,None,None,None,None,None,None,None,5.934895833333333,2.4480078999185935,507.3033872001106,None,507.3033872001106,None,507.3033872001106,None,507.3033872001106,None,None,None,509.7653927000938,None,0.08072916666666667,-0.2994791666666667,1,0,0,5.047487300005741,tijiao,,,,,,,,,258,f,23,2023_Mar_23_1336,RL,2021.2.3,59.96677843102567,
1,-0.3,-0.225,0,32,32,32,,,,,,,,,,,,,,,None,None,None,None,None,511.50402330001816,None,511.50402330001816,None,511.50402330001816,None,511.50402330001816,None,r,1.0930087000597268,511.50402330001816,None,511.50402330001816,None,512.6411851000739,None,512.6411851000739,None,512.6411851000739,None,512.6411851000739,None,512.6411851000739,None,512.6411851000739,None,512.9348233001074,513.8023772001034,512.9348233001074,513.8023772001034,513.8305172000546,None,513.8305172000546,None,513.8305172000546,None,513.8305172000546,None,513.8305172000546,None,513.8305172000546,None,513.8305172000546,None,513.8305172000546,None,513.8305172000546,None,44,53,26,60,44,48,None,None,None,None,None,None,None,None,None,None,None,None,,None,None,,None,None,None,None,None,None,None,None,None,None,None,None,None,None,None,None,None,None,0.6,1,516.384035199997,None,516.384035199997,None,516.384035199997,None,516.384035199997,None,516.384035199997,None,516.384035199997,None,82,516.384035199997,None,516.384035199997,None,0.010718200006522238,None,516.384035199997,None,7.041666666666666,2.1797587999608368,520.529769500019,None,520.529769500019,None,520.529769500019,None,520.529769500019,None,None,None,522.7422358000185,None,,,,,,,,0.08333333333333333,-0.3046875,1,0,0,4.1142023000866175,tijiao_random_2,,258,f,23,2023_Mar_23_1336,RL,2021.2.3,59.96677843102567,
0,0.3,0.225,0,33,33,33,,,,,,,,,,,,,,,None,None,None,None,None,524.4803146000486,None,524.4803146000486,None,524.4803146000486,None,524.4803146000486,None,i,0.4267849000170827,524.4803146000486,None,524.4803146000486,None,524.9556740000844,None,524.9556740000844,None,524.9556740000844,None,524.9556740000844,None,524.9556740000844,None,524.9556740000844,None,525.2434931000462,527.2282009000191,525.2434931000462,527.2282009000191,527.2641315000365,None,527.2641315000365,None,527.2641315000365,None,527.2641315000365,None,527.2641315000365,None,527.2641315000365,None,527.2641315000365,None,527.2641315000365,None,527.2641315000365,None,47,53,26,54,26,56,529.7806958000874,None,2.0,2.7033786000683904,529.7806958000874,None,529.7806958000874,None,529.7806958000874,None,529.7806958000874,None,,None,None,,None,None,None,None,None,None,None,None,None,None,None,None,None,None,None,None,None,None,0.6,2,None,None,None,None,None,None,None,None,None,None,None,None,,None,None,None,None,None,None,None,None,None,None,None,None,None,None,None,None,None,None,None,None,532.5349205000093,None,,,,,,,,,,,,,,,,258,f,23,2023_Mar_23_1336,RL,2021.2.3,59.96677843102567,
1,-0.3,-0.225,0,34,34,34,,,,,,,,,,,,,,,None,None,None,None,None,534.3702990000602,None,534.3702990000602,None,534.3702990000602,None,534.3702990000602,None,j,0.9668367999838665,534.3702990000602,None,534.3702990000602,None,535.3911729000974,None,535.3911729000974,None,535.3911729000974,None,535.3911729000974,None,535.3911729000974,None,535.3911729000974,None,535.6836845000507,536.9682350000367,535.6836845000507,536.9682350000367,537.0047822000924,None,537.0047822000924,None,537.0047822000924,None,537.0047822000924,None,537.0047822000924,None,537.0047822000924,None,537.0047822000924,None,537.0047822000924,None,537.0047822000924,None,48,50,41,57,57,55,None,None,None,None,None,None,None,None,None,None,None,None,28,539.5362724000588,None,28,539.5362724000588,None,539.5362724000588,None,539.5362724000588,None,539.5362724000588,None,539.5362724000588,None,539.5362724000588,None,539.5362724000588,None,0.009098300011828542,None,539.5362724000588,None,-0.2,0,None,None,None,None,None,None,None,None,None,None,None,None,,None,None,None,None,None,None,None,None,8.903645833333332,2.0492512999335304,544.6451332001016,None,544.6451332001016,None,544.6451332001016,None,544.6451332001016,None,None,None,546.7077057000715,None,-0.13932291666666666,-0.3020833333333333,1,0,0,5.063152999966405,tijiao,,,,,,,,,258,f,23,2023_Mar_23_1336,RL,2021.2.3,59.96677843102567,
0,0.3,0.225,0,35,35,35,,,,,,,,,,,,,,,None,None,None,None,None,548.3794571000617,None,548.3794571000617,None,548.3794571000617,None,548.3794571000617,None,f,0.36774190003052354,548.3794571000617,None,548.3794571000617,None,548.7980752000585,None,548.7980752000585,None,548.7980752000585,None,548.7980752000585,None,548.7980752000585,None,548.7980752000585,None,549.0932874000864,551.0445654001087,549.0932874000864,551.0445654001087,551.0825021000346,None,551.0825021000346,None,551.0825021000346,None,551.0825021000346,None,551.0825021000346,None,551.0825021000346,None,551.0825021000346,None,551.0825021000346,None,551.0825021000346,None,47,54,41,60,54,47,553.6163709000684,None,2.0,1.7336654999526218,553.6163709000684,None,553.6163709000684,None,553.6163709000684,None,553.6163709000684,None,,None,None,,None,None,None,None,None,None,None,None,None,None,None,None,None,None,None,None,None,None,0.2,2,None,None,None,None,None,None,None,None,None,None,None,None,,None,None,None,None,None,None,None,None,None,None,None,None,None,None,None,None,None,None,None,None,555.401184800081,None,,,,,,,,,,,,,,,,258,f,23,2023_Mar_23_1336,RL,2021.2.3,59.96677843102567,
1,-0.3,-0.225,0,36,36,36,,,,,,,,,,,,,,,None,None,None,None,None,557.2697201000992,None,557.2697201000992,None,557.2697201000992,None,557.2697201000992,None,r,0.3375578001141548,557.2697201000992,None,557.2697201000992,None,557.6537914000219,None,557.6537914000219,None,557.6537914000219,None,557.6537914000219,None,557.6537914000219,None,557.6537914000219,None,557.9493037000066,None,557.9493037000066,None,559.3263356001116,None,559.3263356001116,None,559.3263356001116,None,559.3263356001116,None,559.3263356001116,None,559.3263356001116,None,559.3263356001116,None,559.3263356001116,None,559.3263356001116,None,48,45,42,60,48,51,561.8556022000266,None,3.0,1.9374034000793472,561.8556022000266,None,561.8556022000266,None,561.8556022000266,None,561.8556022000266,None,,None,None,,None,None,None,None,None,None,None,None,None,None,None,None,None,None,None,None,None,None,0.2,3,None,None,None,None,None,None,None,None,None,None,None,None,,None,None,None,None,None,None,None,None,None,None,None,None,None,None,None,None,None,None,None,None,563.8501745000249,None,,,,,,,,,,,,,,,,258,f,23,2023_Mar_23_1336,RL,2021.2.3,59.96677843102567,
0,0.3,0.225,0,37,37,37,,,,,,,,,,,,,,,None,None,None,None,None,565.4754756001057,None,565.4754756001057,None,565.4754756001057,None,565.4754756001057,None,i,0.4120390999596566,565.4754756001057,None,565.4754756001057,None,565.9282775000902,None,565.9282775000902,None,565.9282775000902,None,565.9282775000902,None,565.9282775000902,None,565.9282775000902,None,566.2216322000604,567.0391801000806,566.2216322000604,567.0391801000806,567.0735515000997,None,567.0735515000997,None,567.0735515000997,None,567.0735515000997,None,567.0735515000997,None,567.0735515000997,None,567.0735515000997,None,567.0735515000997,None,567.0735515000997,None,49,59,40,61,40,56,569.5904845000478,None,3.0,1.471911899978295,569.5904845000478,None,569.5904845000478,None,569.5904845000478,None,569.5904845000478,None,,None,None,,None,None,None,None,None,None,None,None,None,None,None,None,None,None,None,None,None,None,0.6,3,None,None,None,None,None,None,None,None,None,None,None,None,,None,None,None,None,None,None,None,None,None,None,None,None,None,None,None,None,None,None,None,None,571.1309546000557,None,,,,,,,,,,,,,,,,258,f,23,2023_Mar_23_1336,RL,2021.2.3,59.96677843102567,
1,-0.3,-0.225,0,38,38,38,,,,,,,,,,,,,,,None,None,None,None,None,572.964039600105,None,572.964039600105,None,572.964039600105,None,572.964039600105,None,i,0.6133175001014024,572.964039600105,None,572.964039600105,None,573.6164451000514,None,573.6164451000514,None,573.6164451000514,None,573.6164451000514,None,573.6164451000514,None,573.6164451000514,None,573.9105261000805,575.8286107000895,573.9105261000805,575.8286107000895,575.86069770006,None,575.86069770006,None,575.86069770006,None,575.86069770006,None,575.86069770006,None,575.86069770006,None,575.86069770006,None,575.86069770006,None,575.86069770006,None,47,55,33,64,33,55,578.3847485000733,None,2.0,1.6192324999719858,578.3847485000733,None,578.3847485000733,None,578.3847485000733,None,578.3847485000733,None,,None,None,,None,None,None,None,None,None,None,None,None,None,None,None,None,None,None,None,None,None,-0.6,2,None,None,None,None,None,None,None,None,None,None,None,None,,None,None,None,None,None,None,None,None,None,None,None,None,None,None,None,None,None,None,None,None,580.0618308000267,None,,,,,,,,,,,,,,,,258,f,23,2023_Mar_23_1336,RL,2021.2.3,59.96677843102567,
0,0.3,0.225,0,39,39,39,,,,,,,,,,,,,,,None,None,None,None,None,581.919761300087,None,581.919761300087,None,581.919761300087,None,581.919761300087,None,j,0.3880653999513015,581.919761300087,None,581.919761300087,None,582.354628500063,None,582.354628500063,None,582.354628500063,None,582.354628500063,None,582.354628500063,None,582.354628500063,None,582.649991500075,None,582.649991500075,None,584.6654225999955,None,584.6654225999955,None,584.6654225999955,None,584.6654225999955,None,584.6654225999955,None,584.6654225999955,None,584.6654225999955,None,584.6654225999955,None,584.6654225999955,None,46,58,32,66,66,50,None,None,None,None,None,None,None,None,None,None,None,None,38,587.1967780000996,None,38,587.1967780000996,None,587.1967780000996,None,587.1967780000996,None,587.1967780000996,None,587.1967780000996,None,587.1967780000996,None,587.1967780000996,None,0.014899000059813261,None,587.1967780000996,None,-0.2,0,None,None,None,None,None,None,None,None,None,None,None,None,,None,None,None,None,None,None,None,None,8.916666666666668,3.517107699997723,591.0499132000841,None,591.0499132000841,None,591.0499132000841,None,591.0499132000841,None,None,None,594.5871462000068,None,-0.055989583333333336,-0.2825520833333333,1,0,0,3.8024328000610694,tijiao,,,,,,,,,258,f,23,2023_Mar_23_1336,RL,2021.2.3,59.96677843102567,
1,-0.3,-0.225,0,40,40,40,,,,,,,,,,,,,,,None,None,None,None,None,596.2302413000725,None,596.2302413000725,None,596.2302413000725,None,596.2302413000725,None,r,0.2982382000191137,596.2302413000725,None,596.2302413000725,None,596.5825928000268,None,596.5825928000268,None,596.5825928000268,None,596.5825928000268,None,596.5825928000268,None,596.5825928000268,None,596.8764244000195,None,596.8764244000195,None,598.3754026000388,None,598.3754026000388,None,598.3754026000388,None,598.3754026000388,None,598.3754026000388,None,598.3754026000388,None,598.3754026000388,None,598.3754026000388,None,598.3754026000388,None,52,63,32,56,52,49,600.8921118000289,None,4.0,1.908627700060606,600.8921118000289,None,600.8921118000289,None,600.8921118000289,None,600.8921118000289,None,,None,None,,None,None,None,None,None,None,None,None,None,None,None,None,None,None,None,None,None,None,0.6,3,None,None,None,None,None,None,None,None,None,None,None,None,,None,None,None,None,None,None,None,None,None,None,None,None,None,None,None,None,None,None,None,None,602.8626500000246,None,,,,,,,,,,,,,,,,258,f,23,2023_Mar_23_1336,RL,2021.2.3,59.96677843102567,
0,0.3,0.225,0,41,41,41,,,,,,,,,,,,,,,None,None,None,None,None,604.6026251000585,None,604.6026251000585,None,604.6026251000585,None,604.6026251000585,None,i,0.8059856999898329,604.6026251000585,None,604.6026251000585,None,605.4555654000724,None,605.4555654000724,None,605.4555654000724,None,605.4555654000724,None,605.4555654000724,None,605.4555654000724,None,605.7492120000534,607.4003760000924,605.7492120000534,607.4003760000924,607.4323467001086,None,607.4323467001086,None,607.4323467001086,None,607.4323467001086,None,607.4323467001086,None,607.4323467001086,None,607.4323467001086,None,607.4323467001086,None,607.4323467001086,None,45,57,29,68,29,41,609.9566430000123,None,3.0,1.6502165999263525,609.9566430000123,None,609.9566430000123,None,609.9566430000123,None,609.9566430000123,None,,None,None,,None,None,None,None,None,None,None,None,None,None,None,None,None,None,None,None,None,None,0.2,3,None,None,None,None,None,None,None,None,None,None,None,None,,None,None,None,None,None,None,None,None,None,None,None,None,None,None,None,None,None,None,None,None,611.6564328001114,None,,,,,,,,,,,,,,,,258,f,23,2023_Mar_23_1336,RL,2021.2.3,59.96677843102567,
1,-0.3,-0.225,0,42,42,42,,,,,,,,,,,,,,,None,None,None,None,None,613.4756868000841,None,613.4756868000841,None,613.4756868000841,None,613.4756868000841,None,f,0.30312119994778186,613.4756868000841,None,613.4756868000841,None,613.8278393000364,None,613.8278393000364,None,613.8278393000364,None,613.8278393000364,None,613.8278393000364,None,613.8278393000364,None,614.121738600079,None,614.121738600079,None,615.4238129000878,None,615.4238129000878,None,615.4238129000878,None,615.4238129000878,None,615.4238129000878,None,615.4238129000878,None,615.4238129000878,None,615.4238129000878,None,615.4238129000878,None,47,59,34,63,59,42,None,None,None,None,None,None,None,None,None,None,None,None,,None,None,,None,None,None,None,None,None,None,None,None,None,None,None,None,None,None,None,None,None,0.2,1,617.9767891000956,None,617.9767891000956,None,617.9767891000956,None,617.9767891000956,None,617.9767891000956,None,617.9767891000956,None,37,617.9767891000956,None,617.9767891000956,None,0.006069399998523295,None,617.9767891000956,None,8.981770833333332,1.570264199981466,624.3706031000474,None,624.3706031000474,None,624.3706031000474,None,624.3706031000474,None,None,None,625.9609284000471,None,,,,,,,,0.013020833333333334,-0.2864583333333333,1,0,0,6.361329999985173,tijiao_random_2,,258,f,23,2023_Mar_23_1336,RL,2021.2.3,59.96677843102567,
0,0.3,0.225,0,43,43,43,,,,,,,,,,,,,,,None,None,None,None,None,627.9676009000978,None,627.9676009000978,None,627.9676009000978,None,627.9676009000978,None,j,0.40112109994515777,627.9676009000978,None,627.9676009000978,None,628.4199658000143,None,628.4199658000143,None,628.4199658000143,None,628.4199658000143,None,628.4199658000143,None,628.4199658000143,None,628.7152070000302,None,628.7152070000302,None,630.2300808000145,None,630.2300808000145,None,630.2300808000145,None,630.2300808000145,None,630.2300808000145,None,630.2300808000145,None,630.2300808000145,None,630.2300808000145,None,630.2300808000145,None,43,60,28,64,64,37,632.7499283000361,None,6.0,2.388097000075504,632.7499283000361,None,632.7499283000361,None,632.7499283000361,None,632.7499283000361,None,,None,None,,None,None,None,None,None,None,None,None,None,None,None,None,None,None,None,None,None,None,-0.2,3,None,None,None,None,None,None,None,None,None,None,None,None,,None,None,None,None,None,None,None,None,None,None,None,None,None,None,None,None,None,None,None,None,635.2082470000023,None,,,,,,,,,,,,,,,,258,f,23,2023_Mar_23_1336,RL,2021.2.3,59.96677843102567,
1,-0.3,-0.225,0,44,44,44,,,,,,,,,,,,,,,None,None,None,None,None,636.8416654000757,None,636.8416654000757,None,636.8416654000757,None,636.8416654000757,None,j,0.6171078999759629,636.8416654000757,None,636.8416654000757,None,637.5097467000596,None,637.5097467000596,None,637.5097467000596,None,637.5097467000596,None,637.5097467000596,None,637.5097467000596,None,637.8046996000921,None,637.8046996000921,None,639.7195647000335,None,639.7195647000335,None,639.7195647000335,None,639.7195647000335,None,639.7195647000335,None,639.7195647000335,None,639.7195647000335,None,639.7195647000335,None,639.7195647000335,None,45,60,43,55,55,39,642.2430992000736,None,7.0,1.8866627000970766,642.2430992000736,None,642.2430992000736,None,642.2430992000736,None,642.2430992000736,None,,None,None,,None,None,None,None,None,None,None,None,None,None,None,None,None,None,None,None,None,None,-0.2,2,None,None,None,None,None,None,None,None,None,None,None,None,,None,None,None,None,None,None,None,None,None,None,None,None,None,None,None,None,None,None,None,None,644.1858202000149,None,,,,,,,,,,,,,,,,258,f,23,2023_Mar_23_1336,RL,2021.2.3,59.96677843102567,
0,0.3,0.225,0,45,45,45,,,,,,,,,,,,,,,None,None,None,None,None,645.9645568000851,None,645.9645568000851,None,645.9645568000851,None,645.9645568000851,None,f,0.47453290002886206,645.9645568000851,None,645.9645568000851,None,646.4858479000395,None,646.4858479000395,None,646.4858479000395,None,646.4858479000395,None,646.4858479000395,None,646.4858479000395,None,646.7777643000009,None,646.7777643000009,None,648.2138009000337,None,648.2138009000337,None,648.2138009000337,None,648.2138009000337,None,648.2138009000337,None,648.2138009000337,None,648.2138009000337,None,648.2138009000337,None,648.2138009000337,None,47,59,37,66,59,35,None,None,None,None,None,None,None,None,None,None,None,None,,None,None,,None,None,None,None,None,None,None,None,None,None,None,None,None,None,None,None,None,None,0.6,1,650.7499909000471,None,650.7499909000471,None,650.7499909000471,None,650.7499909000471,None,650.7499909000471,None,650.7499909000471,None,35,650.7499909000471,None,650.7499909000471,None,0.005904800025746226,None,650.7499909000471,None,9.958333333333332,1.4037678999593481,656.0587752000429,None,656.0587752000429,None,656.0587752000429,None,656.0587752000429,None,None,None,657.482990700053,None,,,,,,,,0.10416666666666667,-0.2721354166666667,1,0,0,5.277342700050212,tijiao_random_2,,258,f,23,2023_Mar_23_1336,RL,2021.2.3,59.96677843102567,
1,-0.3,-0.225,0,46,46,46,,,,,,,,,,,,,,,None,None,None,None,None,659.1908443000866,None,659.1908443000866,None,659.1908443000866,None,659.1908443000866,None,f,0.5081890999572352,659.1908443000866,None,659.1908443000866,None,659.7440638000844,None,659.7440638000844,None,659.7440638000844,None,659.7440638000844,None,659.7440638000844,None,659.7440638000844,None,660.0203479001066,660.9376582000405,660.0203479001066,660.9376582000405,660.986131700105,None,660.986131700105,None,660.986131700105,None,660.986131700105,None,660.986131700105,None,660.986131700105,None,660.986131700105,None,660.986131700105,None,660.986131700105,None,48,58,40,62,58,54,663.5142520000227,None,7.0,1.782995600020513,663.5142520000227,None,663.5142520000227,None,663.5142520000227,None,663.5142520000227,None,,None,None,,None,None,None,None,None,None,None,None,None,None,None,None,None,None,None,None,None,None,-0.6,2,None,None,None,None,None,None,None,None,None,None,None,None,,None,None,None,None,None,None,None,None,None,None,None,None,None,None,None,None,None,None,None,None,665.3448915000772,None,,,,,,,,,,,,,,,,258,f,23,2023_Mar_23_1336,RL,2021.2.3,59.96677843102567,
0,0.3,0.225,0,47,47,47,,,,,,,,,,,,,,,None,None,None,None,None,667.3127356000477,None,667.3127356000477,None,667.3127356000477,None,667.3127356000477,None,i,0.49634379998315126,667.3127356000477,None,667.3127356000477,None,667.847480700002,None,667.847480700002,None,667.847480700002,None,667.847480700002,None,667.847480700002,None,667.847480700002,None,668.142585500027,None,668.142585500027,None,669.9290987000568,None,669.9290987000568,None,669.9290987000568,None,669.9290987000568,None,669.9290987000568,None,669.9290987000568,None,669.9290987000568,None,669.9290987000568,None,669.9290987000568,None,45,60,35,68,35,55,672.4419042000081,None,4.0,1.6405837000347674,672.4419042000081,None,672.4419042000081,None,672.4419042000081,None,672.4419042000081,None,,None,None,,None,None,None,None,None,None,None,None,None,None,None,None,None,None,None,None,None,None,-0.2,3,None,None,None,None,None,None,None,None,None,None,None,None,,None,None,None,None,None,None,None,None,None,None,None,None,None,None,None,None,None,None,None,None,674.1457806000253,None,,,,,,,,,,,,,,,,258,f,23,2023_Mar_23_1336,RL,2021.2.3,59.96677843102567,
1,-0.3,-0.225,0,48,48,48,,,,,,,,,,,,,,,None,None,None,None,None,675.9355518000666,None,675.9355518000666,None,675.9355518000666,None,675.9355518000666,None,r,0.6035221000202,675.9355518000666,None,675.9355518000666,None,676.587007000111,None,676.587007000111,None,676.587007000111,None,676.587007000111,None,676.587007000111,None,676.587007000111,None,676.881944200024,None,676.881944200024,None,678.2301866000053,None,678.2301866000053,None,678.2301866000053,None,678.2301866000053,None,678.2301866000053,None,678.2301866000053,None,678.2301866000053,None,678.2301866000053,None,678.2301866000053,None,39,63,39,67,39,50,680.750763200107,None,3.0,1.8218696999829262,680.750763200107,None,680.750763200107,None,680.750763200107,None,680.750763200107,None,,None,None,,None,None,None,None,None,None,None,None,None,None,None,None,None,None,None,None,None,None,0.2,3,None,None,None,None,None,None,None,None,None,None,None,None,,None,None,None,None,None,None,None,None,None,None,None,None,None,None,None,None,None,None,None,None,682.6297536001075,None,,,,,,,,,,,,,,,,258,f,23,2023_Mar_23_1336,RL,2021.2.3,59.96677843102567,
0,0.3,0.225,0,49,49,49,,,,,,,,,,,,,,,None,None,None,None,None,684.5748032000847,None,684.5748032000847,None,684.5748032000847,None,684.5748032000847,None,f,0.33433680003508925,684.5748032000847,None,684.5748032000847,None,684.960131800035,None,684.960131800035,None,684.960131800035,None,684.960131800035,None,684.960131800035,None,684.960131800035,None,685.2545093001099,686.4386086000595,685.2545093001099,686.4386086000595,686.469943700009,None,686.469943700009,None,686.469943700009,None,686.469943700009,None,686.469943700009,None,686.469943700009,None,686.469943700009,None,686.469943700009,None,686.469943700009,None,42,55,42,63,55,45,688.9947062000865,None,4.0,0.7986281999619678,688.9947062000865,None,688.9947062000865,None,688.9947062000865,None,688.9947062000865,None,,None,None,,None,None,None,None,None,None,None,None,None,None,None,None,None,None,None,None,None,None,-0.6,2,None,None,None,None,None,None,None,None,None,None,None,None,,None,None,None,None,None,None,None,None,None,None,None,None,None,None,None,None,None,None,None,None,689.8452235000441,None,,,,,,,,,,,,,,,,258,f,23,2023_Mar_23_1336,RL,2021.2.3,59.96677843102567,
1,-0.3,-0.225,0,50,50,50,,,,,,,,,,,,,,,None,None,None,None,None,691.8130415000487,None,691.8130415000487,None,691.8130415000487,None,691.8130415000487,None,i,0.4661399000324309,691.8130415000487,None,691.8130415000487,None,692.3318872000091,None,692.3318872000091,None,692.3318872000091,None,692.3318872000091,None,692.3318872000091,None,692.3318872000091,None,692.6261817000341,None,692.6261817000341,None,693.8415626001079,None,693.8415626001079,None,693.8415626001079,None,693.8415626001079,None,693.8415626001079,None,693.8415626001079,None,693.8415626001079,None,693.8415626001079,None,693.8415626001079,None,41,51,33,54,33,47,696.3589239000576,None,3.0,1.0036513999802992,696.3589239000576,None,696.3589239000576,None,696.3589239000576,None,696.3589239000576,None,,None,None,,None,None,None,None,None,None,None,None,None,None,None,None,None,None,None,None,None,None,0.2,3,None,None,None,None,None,None,None,None,None,None,None,None,,None,None,None,None,None,None,None,None,None,None,None,None,None,None,None,None,None,None,None,None,697.4165498000802,None,,,,,,,,,,,,,,,,258,f,23,2023_Mar_23_1336,RL,2021.2.3,59.96677843102567,
0,0.3,0.225,0,51,51,51,,,,,,,,,,,,,,,None,None,None,None,None,698.9684871000936,None,698.9684871000936,None,698.9684871000936,None,698.9684871000936,None,r,0.5308572999201715,698.9684871000936,None,698.9684871000936,None,699.5369714000262,None,699.5369714000262,None,699.5369714000262,None,699.5369714000262,None,699.5369714000262,None,699.5369714000262,None,699.8311439000536,None,699.8311439000536,None,701.1630169000709,None,701.1630169000709,None,701.1630169000709,None,701.1630169000709,None,701.1630169000709,None,701.1630169000709,None,701.1630169000709,None,701.1630169000709,None,701.1630169000709,None,33,55,27,64,33,19,None,None,None,None,None,None,None,None,None,None,None,None,47,703.6992189000593,None,47,703.6992189000593,None,703.6992189000593,None,703.6992189000593,None,703.6992189000593,None,703.6992189000593,None,703.6992189000593,None,703.6992189000593,None,0.009683500044047832,None,703.6992189000593,None,-0.6,0,None,None,None,None,None,None,None,None,None,None,None,None,,None,None,None,None,None,None,None,None,9.932291666666668,1.7133781999582425,708.9769427001011,None,708.9769427001011,None,708.9769427001011,None,708.9769427001011,None,None,None,710.7203970000846,None,0.07291666666666667,-0.2877604166666667,1,0,0,5.231183200026862,tijiao,,,,,,,,,258,f,23,2023_Mar_23_1336,RL,2021.2.3,59.96677843102567,
1,-0.3,-0.225,0,52,52,52,,,,,,,,,,,,,,,None,None,None,None,None,712.6106701000826,None,712.6106701000826,None,712.6106701000826,None,712.6106701000826,None,i,0.5288684999104589,712.6106701000826,None,712.6106701000826,None,713.1801245000679,None,713.1801245000679,None,713.1801245000679,None,713.1801245000679,None,713.1801245000679,None,713.1801245000679,None,713.4739460001001,None,713.4739460001001,None,715.4773446000181,None,715.4773446000181,None,715.4773446000181,None,715.4773446000181,None,715.4773446000181,None,715.4773446000181,None,715.4773446000181,None,715.4773446000181,None,715.4773446000181,None,29,53,27,55,27,73,717.9969857000979,None,2.0,1.8841965000610799,717.9969857000979,None,717.9969857000979,None,717.9969857000979,None,717.9969857000979,None,,None,None,,None,None,None,None,None,None,None,None,None,None,None,None,None,None,None,None,None,None,-0.6,3,None,None,None,None,None,None,None,None,None,None,None,None,,None,None,None,None,None,None,None,None,None,None,None,None,None,None,None,None,None,None,None,None,719.9322089001071,None,,,,,,,,,,,,,,,,258,f,23,2023_Mar_23_1336,RL,2021.2.3,59.96677843102567,
0,0.3,0.225,0,53,53,53,,,,,,,,,,,,,,,None,None,None,None,None,721.4839951000176,None,721.4839951000176,None,721.4839951000176,None,721.4839951000176,None,i,1.3654628000222147,721.4839951000176,None,721.4839951000176,None,722.8873071999988,None,722.8873071999988,None,722.8873071999988,None,722.8873071999988,None,722.8873071999988,None,722.8873071999988,None,723.1808445000788,724.3484359000577,723.1808445000788,724.3484359000577,724.3804659000598,None,724.3804659000598,None,724.3804659000598,None,724.3804659000598,None,724.3804659000598,None,724.3804659000598,None,724.3804659000598,None,724.3804659000598,None,724.3804659000598,None,34,52,28,62,28,68,726.8967736000195,None,1.0,1.1400192000437528,726.8967736000195,None,726.8967736000195,None,726.8967736000195,None,726.8967736000195,None,,None,None,,None,None,None,None,None,None,None,None,None,None,None,None,None,None,None,None,None,None,0.2,3,None,None,None,None,None,None,None,None,None,None,None,None,,None,None,None,None,None,None,None,None,None,None,None,None,None,None,None,None,None,None,None,None,728.0996176000917,None,,,,,,,,,,,,,,,,258,f,23,2023_Mar_23_1336,RL,2021.2.3,59.96677843102567,
1,-0.3,-0.225,0,54,54,54,,,,,,,,,,,,,,,None,None,None,None,None,729.7894424000988,None,729.7894424000988,None,729.7894424000988,None,729.7894424000988,None,j,0.7100941000971943,729.7894424000988,None,729.7894424000988,None,730.5428679001052,None,730.5428679001052,None,730.5428679001052,None,730.5428679001052,None,730.5428679001052,None,730.5428679001052,None,730.8360568000935,None,730.8360568000935,None,731.7340455000522,None,731.7340455000522,None,731.7340455000522,None,731.7340455000522,None,731.7340455000522,None,731.7340455000522,None,731.7340455000522,None,731.7340455000522,None,731.7340455000522,None,34,46,29,44,44,35,None,None,None,None,None,None,None,None,None,None,None,None,72,734.2645782000618,None,72,734.2645782000618,None,734.2645782000618,None,734.2645782000618,None,734.2645782000618,None,734.2645782000618,None,734.2645782000618,None,734.2645782000618,None,0.015162300085648894,None,734.2645782000618,None,0.6,0,None,None,None,None,None,None,None,None,None,None,None,None,,None,None,None,None,None,None,None,None,10.049479166666668,1.977059599943459,739.2917351000942,None,739.2917351000942,None,739.2917351000942,None,739.2917351000942,None,None,None,741.2868139001075,None,-0.055989583333333336,-0.2916666666666667,1,0,0,4.970378199941479,tijiao,,,,,,,,,258,f,23,2023_Mar_23_1336,RL,2021.2.3,59.96677843102567,
0,0.3,0.225,0,55,55,55,,,,,,,,,,,,,,,None,None,None,None,None,743.1659252000973,None,743.1659252000973,None,743.1659252000973,None,743.1659252000973,None,r,0.6138372999848798,743.1659252000973,None,743.1659252000973,None,743.8195999000454,None,743.8195999000454,None,743.8195999000454,None,743.8195999000454,None,743.8195999000454,None,743.8195999000454,None,744.0953925000504,746.0468493000371,744.0953925000504,746.0468493000371,746.0960680000717,None,746.0960680000717,None,746.0960680000717,None,746.0960680000717,None,746.0960680000717,None,746.0960680000717,None,746.0960680000717,None,746.0960680000717,None,746.0960680000717,None,35,50,27,51,35,65,None,None,None,None,None,None,None,None,None,None,None,None,,None,None,,None,None,None,None,None,None,None,None,None,None,None,None,None,None,None,None,None,None,0.2,1,748.6422298999969,None,748.6422298999969,None,748.6422298999969,None,748.6422298999969,None,748.6422298999969,None,748.6422298999969,None,49,748.6422298999969,None,748.6422298999969,None,0.01428709994070232,None,748.6422298999969,None,9.958333333333332,1.750495700049214,753.6580569000216,None,753.6580569000216,None,753.6580569000216,None,753.6580569000216,None,None,None,755.4346248001093,None,,,,,,,,0.07942708333333333,-0.2903645833333333,1,0,0,4.986004599952139,tijiao_random_2,,258,f,23,2023_Mar_23_1336,RL,2021.2.3,59.96677843102567,
1,-0.3,-0.225,0,56,56,56,,,,,,,,,,,,,,,None,None,None,None,None,757.0422063000733,None,757.0422063000733,None,757.0422063000733,None,757.0422063000733,None,r,0.7984393000369892,757.0422063000733,None,757.0422063000733,None,757.8953911000863,None,757.8953911000863,None,757.8953911000863,None,757.8953911000863,None,757.8953911000863,None,757.8953911000863,None,758.1718049000483,759.9231298000086,758.1718049000483,759.9231298000086,759.9547576000914,None,759.9547576000914,None,759.9547576000914,None,759.9547576000914,None,759.9547576000914,None,759.9547576000914,None,759.9547576000914,None,759.9547576000914,None,759.9547576000914,None,30,45,33,45,30,61,762.478722400032,None,3.0,2.0669745999621227,762.478722400032,None,762.478722400032,None,762.478722400032,None,762.478722400032,None,,None,None,,None,None,None,None,None,None,None,None,None,None,None,None,None,None,None,None,None,None,-0.2,2,None,None,None,None,None,None,None,None,None,None,None,None,,None,None,None,None,None,None,None,None,None,None,None,None,None,None,None,None,None,None,None,None,764.6198289000895,None,,,,,,,,,,,,,,,,258,f,23,2023_Mar_23_1336,RL,2021.2.3,59.96677843102567,
0,0.3,0.225,0,57,57,57,,,,,,,,,,,,,,,None,None,None,None,None,766.3812555000186,None,766.3812555000186,None,766.3812555000186,None,766.3812555000186,None,i,1.1996214999817312,766.3812555000186,None,766.3812555000186,None,767.632381600095,None,767.632381600095,None,767.632381600095,None,767.632381600095,None,767.632381600095,None,767.632381600095,None,767.9285513000796,None,767.9285513000796,None,769.1442379000364,None,769.1442379000364,None,769.1442379000364,None,769.1442379000364,None,769.1442379000364,None,769.1442379000364,None,769.1442379000364,None,769.1442379000364,None,769.1442379000364,None,29,48,29,55,29,63,771.6607812000439,None,2.0,1.923514899914153,771.6607812000439,None,771.6607812000439,None,771.6607812000439,None,771.6607812000439,None,,None,None,,None,None,None,None,None,None,None,None,None,None,None,None,None,None,None,None,None,None,0.2,2,None,None,None,None,None,None,None,None,None,None,None,None,,None,None,None,None,None,None,None,None,None,None,None,None,None,None,None,None,None,None,None,None,773.6383406000677,None,,,,,,,,,,,,,,,,258,f,23,2023_Mar_23_1336,RL,2021.2.3,59.96677843102567,
1,-0.3,-0.225,0,58,58,58,,,,,,,,,,,,,,,None,None,None,None,None,775.5714361000573,None,775.5714361000573,None,775.5714361000573,None,775.5714361000573,None,j,0.699417999945581,775.5714361000573,None,775.5714361000573,None,776.3228693000274,None,776.3228693000274,None,776.3228693000274,None,776.3228693000274,None,776.3228693000274,None,776.3228693000274,None,776.6181790000992,None,776.6181790000992,None,777.9659774000756,None,777.9659774000756,None,777.9659774000756,None,777.9659774000756,None,777.9659774000756,None,777.9659774000756,None,777.9659774000756,None,777.9659774000756,None,777.9659774000756,None,21,58,35,56,56,32,None,None,None,None,None,None,None,None,None,None,None,None,41,780.5051473000785,None,41,780.5051473000785,None,780.5051473000785,None,780.5051473000785,None,780.5051473000785,None,780.5051473000785,None,780.5051473000785,None,780.5051473000785,None,0.008040999993681908,None,780.5051473000785,None,-0.6,0,None,None,None,None,None,None,None,None,None,None,None,None,,None,None,None,None,None,None,None,None,8.877604166666668,2.474274600041099,785.1208151000319,None,785.1208151000319,None,785.1208151000319,None,785.1208151000319,None,None,None,787.6233501000097,None,0.006510416666666667,-0.296875,1,0,0,4.561759100062773,tijiao,,,,,,,,,258,f,23,2023_Mar_23_1336,RL,2021.2.3,59.96677843102567,
0,0.3,0.225,0,59,59,59,,,,,,,,,,,,,,,None,None,None,None,None,789.4644501000876,None,789.4644501000876,None,789.4644501000876,None,789.4644501000876,None,i,0.5465801000827923,789.4644501000876,None,789.4644501000876,None,790.0516811000416,None,790.0516811000416,None,790.0516811000416,None,790.0516811000416,None,790.0516811000416,None,790.0516811000416,None,790.3273828000529,791.5617934000911,790.3273828000529,791.5617934000911,791.5929741000291,None,791.5929741000291,None,791.5929741000291,None,791.5929741000291,None,791.5929741000291,None,791.5929741000291,None,791.5929741000291,None,791.5929741000291,None,791.5929741000291,None,25,55,24,59,24,75,794.1158483000472,None,1.0,2.4871160000329837,794.1158483000472,None,794.1158483000472,None,794.1158483000472,None,794.1158483000472,None,,None,None,,None,None,None,None,None,None,None,None,None,None,None,None,None,None,None,None,None,None,-0.6,3,None,None,None,None,None,None,None,None,None,None,None,None,,None,None,None,None,None,None,None,None,None,None,None,None,None,None,None,None,None,None,None,None,796.6571594000561,None,,,,,,,,,,,,,,,,258,f,23,2023_Mar_23_1336,RL,2021.2.3,59.96677843102567,
1,-0.3,-0.225,0,60,60,60,,,,,,,,,,,,,,,None,None,None,None,None,798.2206547000678,None,798.2206547000678,None,798.2206547000678,None,798.2206547000678,None,j,0.7406346999341622,798.2206547000678,None,798.2206547000678,None,799.0088595000561,None,799.0088595000561,None,799.0088595000561,None,799.0088595000561,None,799.0088595000561,None,799.0088595000561,None,799.2837212000741,801.1850124000339,799.2837212000741,801.1850124000339,801.2180757001042,None,801.2180757001042,None,801.2180757001042,None,801.2180757001042,None,801.2180757001042,None,801.2180757001042,None,801.2180757001042,None,801.2180757001042,None,801.2180757001042,None,32,41,27,58,58,83,803.7338219000958,None,1.0,1.6068211999954656,803.7338219000958,None,803.7338219000958,None,803.7338219000958,None,803.7338219000958,None,,None,None,,None,None,None,None,None,None,None,None,None,None,None,None,None,None,None,None,None,None,-0.2,3,None,None,None,None,None,None,None,None,None,None,None,None,,None,None,None,None,None,None,None,None,None,None,None,None,None,None,None,None,None,None,None,None,805.3968728000764,None,,,,,,,,,,,,,,,,258,f,23,2023_Mar_23_1336,RL,2021.2.3,59.96677843102567,
0,0.3,0.225,0,61,61,61,,,,,,,,,,,,,,,None,None,None,None,None,807.3600398000563,None,807.3600398000563,None,807.3600398000563,None,807.3600398000563,None,r,0.561149200075306,807.3600398000563,None,807.3600398000563,None,807.9633813000983,None,807.9633813000983,None,807.9633813000983,None,807.9633813000983,None,807.9633813000983,None,807.9633813000983,None,808.2564844000153,810.0245381999994,808.2564844000153,810.0245381999994,810.0566154000117,None,810.0566154000117,None,810.0566154000117,None,810.0566154000117,None,810.0566154000117,None,810.0566154000117,None,810.0566154000117,None,810.0566154000117,None,810.0566154000117,None,31,49,26,69,31,43,812.5736307000043,None,1.0,1.4067567000165582,812.5736307000043,None,812.5736307000043,None,812.5736307000043,None,812.5736307000043,None,,None,None,,None,None,None,None,None,None,None,None,None,None,None,None,None,None,None,None,None,None,-0.6,3,None,None,None,None,None,None,None,None,None,None,None,None,,None,None,None,None,None,None,None,None,None,None,None,None,None,None,None,None,None,None,None,None,814.0308162000729,None,,,,,,,,,,,,,,,,258,f,23,2023_Mar_23_1336,RL,2021.2.3,59.96677843102567,
1,-0.3,-0.225,0,62,62,62,,,,,,,,,,,,,,,None,None,None,None,None,815.8658519000746,None,815.8658519000746,None,815.8658519000746,None,815.8658519000746,None,i,0.5252769999206066,815.8658519000746,None,815.8658519000746,None,816.435601400095,None,816.435601400095,None,816.435601400095,None,816.435601400095,None,816.435601400095,None,816.435601400095,None,816.728946300107,818.0637568000238,816.728946300107,818.0637568000238,818.0954502000241,None,818.0954502000241,None,818.0954502000241,None,818.0954502000241,None,818.0954502000241,None,818.0954502000241,None,818.0954502000241,None,818.0954502000241,None,818.0954502000241,None,38,49,36,66,36,76,820.612451700028,None,1.0,1.5222894999897107,820.612451700028,None,820.612451700028,None,820.612451700028,None,820.612451700028,None,,None,None,,None,None,None,None,None,None,None,None,None,None,None,None,None,None,None,None,None,None,-0.6,2,None,None,None,None,None,None,None,None,None,None,None,None,,None,None,None,None,None,None,None,None,None,None,None,None,None,None,None,None,None,None,None,None,822.1844895000104,None,,,,,,,,,,,,,,,,258,f,23,2023_Mar_23_1336,RL,2021.2.3,59.96677843102567,
0,0.3,0.225,0,63,63,63,,,,,,,,,,,,,,,None,None,None,None,None,824.1723032000009,None,824.1723032000009,None,824.1723032000009,None,824.1723032000009,None,f,0.7189118000678718,824.1723032000009,None,824.1723032000009,None,824.9413285000483,None,824.9413285000483,None,824.9413285000483,None,824.9413285000483,None,824.9413285000483,None,824.9413285000483,None,825.2350225000409,None,825.2350225000409,None,826.5514840000542,None,826.5514840000542,None,826.5514840000542,None,826.5514840000542,None,826.5514840000542,None,826.5514840000542,None,826.5514840000542,None,826.5514840000542,None,826.5514840000542,None,29,51,44,67,51,75,829.0762817000505,None,4.0,2.30099560006056,829.0762817000505,None,829.0762817000505,None,829.0762817000505,None,829.0762817000505,None,,None,None,,None,None,None,None,None,None,None,None,None,None,None,None,None,None,None,None,None,None,-0.2,3,None,None,None,None,None,None,None,None,None,None,None,None,,None,None,None,None,None,None,None,None,None,None,None,None,None,None,None,None,None,None,None,None,831.4265077000018,None,,,,,,,,,,,,,,,,258,f,23,2023_Mar_23_1336,RL,2021.2.3,59.96677843102567,
1,-0.3,-0.225,0,64,64,64,,,,,,,,,,,,,,,None,None,None,None,None,832.9444027000573,None,832.9444027000573,None,832.9444027000573,None,832.9444027000573,None,f,0.7468314000871032,832.9444027000573,None,832.9444027000573,None,833.7293182000285,None,833.7293182000285,None,833.7293182000285,None,833.7293182000285,None,833.7293182000285,None,833.7293182000285,None,834.0243947000708,835.9758679000661,834.0243947000708,835.9758679000661,836.0071105000097,None,836.0071105000097,None,836.0071105000097,None,836.0071105000097,None,836.0071105000097,None,836.0071105000097,None,836.0071105000097,None,836.0071105000097,None,836.0071105000097,None,23,48,39,55,48,75,None,None,None,None,None,None,None,None,None,None,None,None,87,838.5442164000124,None,87,838.5442164000124,None,838.5442164000124,None,838.5442164000124,None,838.5442164000124,None,838.5442164000124,None,838.5442164000124,None,838.5442164000124,None,0.009261999977752566,None,838.5442164000124,None,0.2,0,None,None,None,None,None,None,None,None,None,None,None,None,,None,None,None,None,None,None,None,None,7.015625,2.2983139000134543,842.7188305000309,None,842.7188305000309,None,842.7188305000309,None,842.7188305000309,None,None,None,845.0307764000027,None,0.09375,-0.2864583333333333,1,0,0,4.130167600000277,tijiao,,,,,,,,,258,f,23,2023_Mar_23_1336,RL,2021.2.3,59.96677843102567,
0,0.3,0.225,0,65,65,65,,,,,,,,,,,,,,,None,None,None,None,None,846.8875156000722,None,846.8875156000722,None,846.8875156000722,None,846.8875156000722,None,r,0.6137363000307232,846.8875156000722,None,846.8875156000722,None,847.5426900000311,None,847.5426900000311,None,847.5426900000311,None,847.5426900000311,None,847.5426900000311,None,847.5426900000311,None,847.8341320001055,None,847.8341320001055,None,849.4154688999988,None,849.4154688999988,None,849.4154688999988,None,849.4154688999988,None,849.4154688999988,None,849.4154688999988,None,849.4154688999988,None,849.4154688999988,None,849.4154688999988,None,30,50,36,62,30,72,None,None,None,None,None,None,None,None,None,None,None,None,8,851.9460700000636,None,8,851.9460700000636,None,851.9460700000636,None,851.9460700000636,None,851.9460700000636,None,851.9460700000636,None,851.9460700000636,None,851.9460700000636,None,0.0001343999756500125,None,851.9460700000636,None,-0.2,0,None,None,None,None,None,None,None,None,None,None,None,None,,None,None,None,None,None,None,None,None,7.067708333333334,1.76338450005278,855.5972153000766,None,855.5972153000766,None,855.5972153000766,None,855.5972153000766,None,None,None,857.3740138000576,None,0.09114583333333333,-0.3033854166666667,1,0,0,3.603398000006564,tijiao,,,,,,,,,258,f,23,2023_Mar_23_1336,RL,2021.2.3,59.96677843102567,
1,-0.3,-0.225,0,66,66,66,,,,,,,,,,,,,,,None,None,None,None,None,859.0459975000704,None,859.0459975000704,None,859.0459975000704,None,859.0459975000704,None,i,0.5256178999552503,859.0459975000704,None,859.0459975000704,None,859.6147310000379,None,859.6147310000379,None,859.6147310000379,None,859.6147310000379,None,859.6147310000379,None,859.6147310000379,None,859.9094018000178,None,859.9094018000178,None,861.0943624000065,None,861.0943624000065,None,861.0943624000065,None,861.0943624000065,None,861.0943624000065,None,861.0943624000065,None,861.0943624000065,None,861.0943624000065,None,861.0943624000065,None,29,50,37,70,37,73,863.6123226000927,None,1.0,2.3542715000221506,863.6123226000927,None,863.6123226000927,None,863.6123226000927,None,863.6123226000927,None,,None,None,,None,None,None,None,None,None,None,None,None,None,None,None,None,None,None,None,None,None,-0.2,3,None,None,None,None,None,None,None,None,None,None,None,None,,None,None,None,None,None,None,None,None,None,None,None,None,None,None,None,None,None,None,None,None,866.0183170000091,None,,,,,,,,,,,,,,,,258,f,23,2023_Mar_23_1336,RL,2021.2.3,59.96677843102567,
0,0.3,0.225,0,67,67,67,,,,,,,,,,,,,,,None,None,None,None,None,867.952398100053,None,867.952398100053,None,867.952398100053,None,867.952398100053,None,j,0.7293086000718176,867.952398100053,None,867.952398100053,None,868.7218821001006,None,868.7218821001006,None,868.7218821001006,None,868.7218821001006,None,868.7218821001006,None,868.7218821001006,None,869.0153090000385,870.9669240000658,869.0153090000385,870.9669240000658,871.0051562000299,None,871.0051562000299,None,871.0051562000299,None,871.0051562000299,None,871.0051562000299,None,871.0051562000299,None,871.0051562000299,None,871.0051562000299,None,871.0051562000299,None,26,56,36,68,68,73,None,None,None,None,None,None,None,None,None,None,None,None,,None,None,,None,None,None,None,None,None,None,None,None,None,None,None,None,None,None,None,None,None,0.6,1,873.5658213000279,None,873.5658213000279,None,873.5658213000279,None,873.5658213000279,None,873.5658213000279,None,873.5658213000279,None,38,873.5658213000279,None,873.5658213000279,None,0.011106499936431646,None,873.5658213000279,None,8.03125,1.4640952999470755,876.8267166001024,None,876.8267166001024,None,876.8267166001024,None,876.8267166001024,None,None,None,878.3042928000214,None,,,,,,,,0.06640625,-0.2864583333333333,1,0,0,3.2301962999626994,tijiao_random_2,,258,f,23,2023_Mar_23_1336,RL,2021.2.3,59.96677843102567,
1,-0.3,-0.225,0,68,68,68,,,,,,,,,,,,,,,None,None,None,None,None,879.9772746000672,None,879.9772746000672,None,879.9772746000672,None,879.9772746000672,None,f,0.36422930005937815,879.9772746000672,None,879.9772746000672,None,880.3806995000923,None,880.3806995000923,None,880.3806995000923,None,880.3806995000923,None,880.3806995000923,None,880.3806995000923,None,880.6734671000158,None,880.6734671000158,None,882.155347000109,None,882.155347000109,None,882.155347000109,None,882.155347000109,None,882.155347000109,None,882.155347000109,None,882.155347000109,None,882.155347000109,None,882.155347000109,None,28,60,38,66,60,70,None,None,None,None,None,None,None,None,None,None,None,None,,None,None,,None,None,None,None,None,None,None,None,None,None,None,None,None,None,None,None,None,None,-0.2,1,884.7066174000502,None,884.7066174000502,None,884.7066174000502,None,884.7066174000502,None,884.7066174000502,None,884.7066174000502,None,82,884.7066174000502,None,884.7066174000502,None,0.01096240000333637,None,884.7066174000502,None,9.9453125,2.100205999915488,888.5875187000493,None,888.5875187000493,None,888.5875187000493,None,888.5875187000493,None,None,None,890.7114728000015,None,,,,,,,,-0.0013020833333333333,-0.2890625,1,0,0,3.8478737000841647,tijiao_random_2,,258,f,23,2023_Mar_23_1336,RL,2021.2.3,59.96677843102567,
0,0.3,0.225,0,69,69,69,,,,,,,,,,,,,,,None,None,None,None,None,892.3521220000694,None,892.3521220000694,None,892.3521220000694,None,892.3521220000694,None,f,0.5996226000133902,892.3521220000694,None,892.3521220000694,None,893.0044149000896,None,893.0044149000896,None,893.0044149000896,None,893.0044149000896,None,893.0044149000896,None,893.0044149000896,None,893.2988590000896,None,893.2988590000896,None,894.3480937000131,None,894.3480937000131,None,894.3480937000131,None,894.3480937000131,None,894.3480937000131,None,894.3480937000131,None,894.3480937000131,None,894.3480937000131,None,894.3480937000131,None,20,63,38,66,63,34,896.8694097000407,None,5.0,1.6185128999641165,896.8694097000407,None,896.8694097000407,None,896.8694097000407,None,896.8694097000407,None,,None,None,,None,None,None,None,None,None,None,None,None,None,None,None,None,None,None,None,None,None,-0.6,3,None,None,None,None,None,None,None,None,None,None,None,None,,None,None,None,None,None,None,None,None,None,None,None,None,None,None,None,None,None,None,None,None,898.5723869000794,None,,,,,,,,,,,,,,,,258,f,23,2023_Mar_23_1336,RL,2021.2.3,59.96677843102567,
1,-0.3,-0.225,0,70,70,70,,,,,,,,,,,,,,,None,None,None,None,None,900.3414722000016,None,900.3414722000016,None,900.3414722000016,None,900.3414722000016,None,None,,900.3414722000016,None,900.3414722000016,None,None,None,None,None,None,None,None,None,None,None,None,None,None,None,None,None,None,None,None,None,None,None,None,None,None,None,None,None,None,None,None,None,None,None,30,55,46,70,0,**,None,None,None,None,None,None,None,None,None,None,None,None,,None,None,,None,None,None,None,None,None,None,None,None,None,None,None,None,None,None,None,None,None,-0.6,2,None,None,None,None,None,None,None,None,None,None,None,None,,None,None,None,None,None,None,None,None,None,None,None,None,None,None,None,None,None,None,901.9503673000727,None,907.9591825000243,None,,,,,,,,,,,,,,,,258,f,23,2023_Mar_23_1336,RL,2021.2.3,59.96677843102567,
0,0.3,0.225,0,71,71,71,,,,,,,,,,,,,,,None,None,None,None,None,909.9315082000103,None,909.9315082000103,None,909.9315082000103,None,909.9315082000103,None,j,0.33115029998589307,909.9315082000103,None,909.9315082000103,None,910.3018617000198,None,910.3018617000198,None,910.3018617000198,None,910.3018617000198,None,910.3018617000198,None,910.3018617000198,None,910.5942409000127,911.7117372000357,910.5942409000127,911.7117372000357,911.7441208000528,None,911.7441208000528,None,911.7441208000528,None,911.7441208000528,None,911.7441208000528,None,911.7441208000528,None,911.7441208000528,None,911.7441208000528,None,911.7441208000528,None,30,58,43,71,71,62,914.2604202000657,None,4.0,1.5540749999927357,914.2604202000657,None,914.2604202000657,None,914.2604202000657,None,914.2604202000657,None,,None,None,,None,None,None,None,None,None,None,None,None,None,None,None,None,None,None,None,None,None,-0.2,2,None,None,None,None,None,None,None,None,None,None,None,None,,None,None,None,None,None,None,None,None,None,None,None,None,None,None,None,None,None,None,None,None,915.868739800062,None,,,,,,,,,,,,,,,,258,f,23,2023_Mar_23_1336,RL,2021.2.3,59.96677843102567,
1,-0.3,-0.225,0,72,72,72,,,,,,,,,,,,,,,None,None,None,None,None,917.5863615000853,None,917.5863615000853,None,917.5863615000853,None,917.5863615000853,None,f,0.25641269993502647,917.5863615000853,None,917.5863615000853,None,917.8874917000066,None,917.8874917000066,None,917.8874917000066,None,917.8874917000066,None,917.8874917000066,None,917.8874917000066,None,918.1829343000427,None,918.1829343000427,None,919.2160258000949,None,919.2160258000949,None,919.2160258000949,None,919.2160258000949,None,919.2160258000949,None,919.2160258000949,None,919.2160258000949,None,919.2160258000949,None,919.2160258000949,None,25,57,39,71,57,68,None,None,None,None,None,None,None,None,None,None,None,None,,None,None,,None,None,None,None,None,None,None,None,None,None,None,None,None,None,None,None,None,None,-0.6,1,921.7558225000976,None,921.7558225000976,None,921.7558225000976,None,921.7558225000976,None,921.7558225000976,None,921.7558225000976,None,92,921.7558225000976,None,921.7558225000976,None,0.004454100038856268,None,921.7558225000976,None,10.036458333333332,3.0011124999728054,926.2976829000982,None,926.2976829000982,None,926.2976829000982,None,926.2976829000982,None,None,None,929.3233434000285,None,,,,,,,,0.044270833333333336,-0.3190104166666667,1,0,0,4.508670400013216,tijiao_random_2,,258,f,23,2023_Mar_23_1336,RL,2021.2.3,59.96677843102567,
0,0.3,0.225,0,73,73,73,,,,,,,,,,,,,,,None,None,None,None,None,930.9795195000479,None,930.9795195000479,None,930.9795195000479,None,930.9795195000479,None,r,0.3033341000555083,930.9795195000479,None,930.9795195000479,None,931.3358012000099,None,931.3358012000099,None,931.3358012000099,None,931.3358012000099,None,931.3358012000099,None,931.3358012000099,None,931.6256638000486,932.5930922999978,931.6256638000486,932.5930922999978,932.6286632000702,None,932.6286632000702,None,932.6286632000702,None,932.6286632000702,None,932.6286632000702,None,932.6286632000702,None,932.6286632000702,None,932.6286632000702,None,932.6286632000702,None,32,56,41,83,32,49,None,None,None,None,None,None,None,None,None,None,None,None,81,935.16057190008,None,81,935.16057190008,None,935.16057190008,None,935.16057190008,None,935.16057190008,None,935.16057190008,None,935.16057190008,None,935.16057190008,None,0.008873200044035912,None,935.16057190008,None,-0.6,0,None,None,None,None,None,None,None,None,None,None,None,None,,None,None,None,None,None,None,None,None,8.109375,2.016848300001584,942.3056631000945,None,942.3056631000945,None,942.3056631000945,None,942.3056631000945,None,None,None,944.3546093000332,None,-0.009114583333333334,-0.2864583333333333,1,0,0,7.09800570004154,tijiao,,,,,,,,,258,f,23,2023_Mar_23_1336,RL,2021.2.3,59.96677843102567,
1,-0.3,-0.225,0,74,74,74,,,,,,,,,,,,,,,None,None,None,None,None,946.1067596001085,None,946.1067596001085,None,946.1067596001085,None,946.1067596001085,None,r,0.2761424999916926,946.1067596001085,None,946.1067596001085,None,946.4268041000469,None,946.4268041000469,None,946.4268041000469,None,946.4268041000469,None,946.4268041000469,None,946.4268041000469,None,946.7027774000308,948.6540600000881,946.7027774000308,948.6540600000881,948.6898824000964,None,948.6898824000964,None,948.6898824000964,None,948.6898824000964,None,948.6898824000964,None,948.6898824000964,None,948.6898824000964,None,948.6898824000964,None,948.6898824000964,None,33,50,32,87,33,73,None,None,None,None,None,None,None,None,None,None,None,None,47,951.2222149000736,None,47,951.2222149000736,None,951.2222149000736,None,951.2222149000736,None,951.2222149000736,None,951.2222149000736,None,951.2222149000736,None,951.2222149000736,None,0.009456500061787665,None,951.2222149000736,None,0.6,0,None,None,None,None,None,None,None,None,None,None,None,None,,None,None,None,None,None,None,None,None,8.109375,2.003768700058572,954.7140928000445,None,954.7140928000445,None,954.7140928000445,None,954.7140928000445,None,None,None,956.7408026000485,None,0.09114583333333333,-0.2799479166666667,1,0,0,3.4460583999753,tijiao,,,,,,,,,258,f,23,2023_Mar_23_1336,RL,2021.2.3,59.96677843102567,
0,0.3,0.225,0,75,75,75,,,,,,,,,,,,,,,958.3108303000918,None,q,958.3108303000918,None,1109.8146230001003,None,1109.8146230001003,None,1109.8146230001003,None,1109.8146230001003,None,i,0.6125483000651002,1109.8146230001003,None,1109.8146230001003,None,1110.472897300031,None,1110.472897300031,None,1110.472897300031,None,1110.472897300031,None,1110.472897300031,None,1110.472897300031,None,1110.7666130000725,None,1110.7666130000725,None,1112.231592600001,None,1112.231592600001,None,1112.231592600001,None,1112.231592600001,None,1112.231592600001,None,1112.231592600001,None,1112.231592600001,None,1112.231592600001,None,1112.231592600001,None,39,45,47,73,47,75,None,None,None,None,None,None,None,None,None,None,None,None,,None,None,,None,None,None,None,None,None,None,None,None,None,None,None,None,None,None,None,None,None,0.2,1,1114.7849069000222,None,1114.7849069000222,None,1114.7849069000222,None,1114.7849069000222,None,1114.7849069000222,None,1114.7849069000222,None,39,1114.7849069000222,None,1114.7849069000222,None,0.008677299949340522,None,1114.7849069000222,None,7.809895833333334,2.523386299959384,1119.130968600046,None,1119.130968600046,None,1119.130968600046,None,1119.130968600046,None,None,None,1121.6738743000897,None,,,,,,,,0.07291666666666667,-0.3098958333333333,1,0,0,4.312670000013895,tijiao_random_2,151.46982550004032,258,f,23,2023_Mar_23_1336,RL,2021.2.3,59.96677843102567,
1,-0.3,-0.225,0,76,76,76,,,,,,,,,,,,,,,None,None,None,None,None,1123.3129845000803,None,1123.3129845000803,None,1123.3129845000803,None,1123.3129845000803,None,i,0.3641696999548003,1123.3129845000803,None,1123.3129845000803,None,1123.7168345000828,None,1123.7168345000828,None,1123.7168345000828,None,1123.7168345000828,None,1123.7168345000828,None,1123.7168345000828,None,1124.0091226000804,None,1124.0091226000804,None,1125.556982500013,None,1125.556982500013,None,1125.556982500013,None,1125.556982500013,None,1125.556982500013,None,1125.556982500013,None,1125.556982500013,None,1125.556982500013,None,1125.556982500013,None,39,51,47,73,47,72,None,None,None,None,None,None,None,None,None,None,None,None,83,1128.0888772000326,None,83,1128.0888772000326,None,1128.0888772000326,None,1128.0888772000326,None,1128.0888772000326,None,1128.0888772000326,None,1128.0888772000326,None,1128.0888772000326,None,0.014997699880041182,None,1128.0888772000326,None,0.2,0,None,None,None,None,None,None,None,None,None,None,None,None,,None,None,None,None,None,None,None,None,8.9296875,1.8627392000053078,1134.3879975000164,None,1134.3879975000164,None,1134.3879975000164,None,1134.3879975000164,None,None,None,1136.2821619000752,None,0.08984375,-0.2747395833333333,1,0,0,6.253494500066154,tijiao,,,,,,,,,258,f,23,2023_Mar_23_1336,RL,2021.2.3,59.96677843102567,
