bandit0,black_x_pos_random,black_y_pos_random,trials.thisRepN,trials.thisTrialN,trials.thisN,trials.thisIndex,instru_img1.started,instru_resp.started,instru_resp.keys,instru_resp.rt,instru_img2.started,instru_resp2.started,instru_resp2.keys,instru_resp2.rt,fixbefore_2.started,rest_response.keys,red.started,green.started,yellow.started,blue.started,choose_bandit.started,Fixation.started,choose_bandit.keys,choose_bandit.rt,black.started,red_2.started,green_2.started,yellow_2.started,blue_2.started,fixation_2.started,docs.started,wait_playerB.started,docs.stopped,wait_playerB.stopped,black.stopped,red_2.stopped,green_2.stopped,yellow_2.stopped,blue_2.stopped,fixation_2.stopped,black_com.started,reward_sub.started,palyerb.started,reward__sub.started,compare.started,red_compare.started,green_com.started,yellow_com.started,blue_com.started,rewardyellow,rewardred,rewardblue,rewardgreen,subchoose,playerb,slider.response,slider.rt,expectself.started,expect_self_black.started,expect_self.started,expect_self_red.started,expect_self_green.started,expect_self_yellow.started,expect_self_blue.started,tijiao.started,tijiao_click.started,check.started,expectself.text,value_expect_self,tijiao_click.x,tijiao_click.y,tijiao_click.leftButton,tijiao_click.midButton,tijiao_click.rightButton,tijiao_click.time,tijiao_click.clicked_name,random_whicharm,whether_ask,expect_random_3.text,tijiao_random.x,tijiao_random.y,tijiao_random.leftButton,tijiao_random.midButton,tijiao_random.rightButton,tijiao_random.time,tijiao_random.clicked_name,slider_2.started,image_7.started,confi.started,notconfi.started,slider_2.response,slider_2.rt,intertrialfix.started,intertrialfix.stopped,jiantou_random.started,expect_red.started,expect_green.started,expect_yellow.started,expect_blue.started,expect_random_2.started,expect_random_3.started,tijiao_random_2.started,tijiao_random.started,check_2.started,image_3.started,slider.started,text.started,image_4.started,image_5.started,rest_image.started,rest_response.started,rest_response.rt,participant,Gender,Age,date,expName,psychopyVersion,frameRate
,,,,,,,19.2905722,19.2905722,space,5.6853941,,,,,,,,,,,,,,,,,,,,,,,,,,,,,,,,,,,,,,,,,,,,,,,,,,,,,,,,,,,,,,,,,,,,,,,,,,,,,,,,,,,,,,,,,,,,,,,,,,,,,,,259,f,22,2023-03-26_10h39.54.249,RL,2022.2.4,60.11306065
,,,,,,,,,,,25.0074451,25.0074451,s,9.9308489,,,,,,,,,,,,,,,,,,,,,,,,,,,,,,,,,,,,,,,,,,,,,,,,,,,,,,,,,,,,,,,,,,,,,,,,,,,,,,,,,,,,,,,,,,,,,,,,,,,259,f,22,2023-03-26_10h39.54.249,RL,2022.2.4,60.11306065
1,-0.3,-0.225,0,0,0,0,,,,,,,,,34.9644737,None,36.0018574,36.0018574,36.0018574,36.0018574,36.0018574,36.0018574,j,0.6396097,36.6890867,36.6890867,36.6890867,36.6890867,36.6890867,36.6890867,36.9592194,36.9592194,37.856552,37.856552,37.896799,37.896799,37.896799,37.896799,37.896799,37.896799,37.896799,37.896799,37.896799,37.896799,37.896799,37.896799,37.896799,37.896799,37.896799,65,41,47,51,51,51,None,None,40.4259048,40.4259048,40.4259048,40.4259048,40.4259048,40.4259048,40.4259048,40.4259048,0.00731,40.4259048,30,30,[0.06481481481481481],[-0.2712962962962963],[1],[0],[0],[12.141169300011825],['tijiao'],0.6,0,,[],[],[],[],[],[],[],52.6884646,52.6884646,52.6884646,52.6884646,3.851851852,2.1767525,54.9176734,56.8713065,,,,,,,,,,,,,,,,,,,259,f,22,2023-03-26_10h39.54.249,RL,2022.2.4,60.11306065
0,0.3,0.225,0,1,1,1,,,,,,,,,,None,56.8713065,56.8713065,56.8713065,56.8713065,56.8713065,56.8713065,f,0.4353117,57.3412541,57.3412541,57.3412541,57.3412541,57.3412541,57.3412541,57.6359574,57.6359574,59.4144822,59.4144822,59.4338343,59.4338343,59.4338343,59.4338343,59.4338343,59.4338343,59.4338343,59.4338343,59.4338343,59.4338343,59.4338343,59.4338343,59.4338343,59.4338343,59.4338343,54,42,55,40,42,49,None,None,61.9422311,61.9422311,61.9422311,61.9422311,61.9422311,61.9422311,61.9422311,61.9422311,0.0066494,61.9422311,45,45,[0.04259259259259259],[-0.29259259259259257],[1],[0],[0],[7.302752399991732],['tijiao'],-0.2,0,,[],[],[],[],[],[],[],69.268316,69.268316,69.268316,69.268316,4.037037037,2.9244985,72.2116238,73.7749675,,,,,,,,,,,,,,,,,,,259,f,22,2023-03-26_10h39.54.249,RL,2022.2.4,60.11306065
1,-0.3,-0.225,0,2,2,2,,,,,,,,,,None,73.7749675,73.7749675,73.7749675,73.7749675,73.7749675,73.7749675,r,0.2968595,74.0986174,74.0986174,74.0986174,74.0986174,74.0986174,74.0986174,74.3902536,74.3902536,76.1850734,76.1850734,76.1850734,76.1850734,76.1850734,76.1850734,76.1850734,76.1850734,76.1850734,76.1850734,76.1850734,76.1850734,76.1850734,76.1850734,76.1850734,76.1850734,76.1850734,55,52,54,47,55,52,None,None,,,,,,,,,,,,,[],[],[],[],[],[],[],-0.2,1,35,[0.06111111111111111],[-0.2861111111111111],[1],[0],[0],[10.633229199971538],['tijiao_random_2'],89.35576,89.35576,89.35576,89.35576,5.916666667,1.570673,90.9437135,92.6069705,78.7109199,78.7109199,78.7109199,78.7109199,78.7109199,78.7109199,78.7109199,78.7109199,0.0074767,78.7109199,,,,,,,,,259,f,22,2023-03-26_10h39.54.249,RL,2022.2.4,60.11306065
0,0.3,0.225,0,3,3,3,,,,,,,,,,None,92.6069705,92.6069705,92.6069705,92.6069705,92.6069705,92.6069705,j,0.3319676,92.9577442,92.9577442,92.9577442,92.9577442,92.9577442,92.9577442,93.2555122,93.2555122,94.5031279,94.5031279,94.5031279,94.5031279,94.5031279,94.5031279,94.5031279,94.5031279,94.5031279,94.5031279,94.5031279,94.5031279,94.5031279,94.5031279,94.5031279,94.5031279,94.5031279,57,53,47,44,44,43,None,None,,,,,,,,,,,,,[],[],[],[],[],[],[],0.6,1,50,[0.0824074074074074],[-0.28703703703703703],[1],[0],[0],[5.929245000006631],['tijiao_random_2'],102.9630198,102.9630198,102.9630198,102.9630198,5.083333333,3.237171,106.2186984,108.1644665,97.0226696,97.0226696,97.0226696,97.0226696,97.0226696,97.0226696,97.0226696,97.0226696,0.0076747,97.0226696,,,,,,,,,259,f,22,2023-03-26_10h39.54.249,RL,2022.2.4,60.11306065
1,-0.3,-0.225,0,4,4,4,,,,,,,,,,None,108.1644665,108.1644665,108.1644665,108.1644665,108.1644665,108.1644665,j,0.3049023,108.500771,108.500771,108.500771,108.500771,108.500771,108.500771,108.7964584,108.7964584,110.0759655,110.0759655,110.0759655,110.0759655,110.0759655,110.0759655,110.0759655,110.0759655,110.0759655,110.0759655,110.0759655,110.0759655,110.0759655,110.0759655,110.0759655,110.0759655,110.0759655,59,50,51,35,35,76,3,3.2561844,,,,,,,,,,,,,[],[],[],[],[],[],[],-0.2,3,,[],[],[],[],[],[],[],,,,,None,None,115.87425,117.7384884,,,,,,,,,,,112.5857972,112.5857972,112.5857972,112.5857972,112.5857972,,,,259,f,22,2023-03-26_10h39.54.249,RL,2022.2.4,60.11306065
0,0.3,0.225,0,5,5,5,,,,,,,,,,None,117.7384884,117.7384884,117.7384884,117.7384884,117.7384884,117.7384884,i,0.3869713,118.1561497,118.1561497,118.1561497,118.1561497,118.1561497,118.1561497,118.4533442,118.4533442,119.6165601,119.6165601,119.6165601,119.6165601,119.6165601,119.6165601,119.6165601,119.6165601,119.6165601,119.6165601,119.6165601,119.6165601,119.6165601,119.6165601,119.6165601,119.6165601,119.6165601,65,51,57,31,57,56,None,None,,,,,,,,,,,,,[],[],[],[],[],[],[],0.6,1,70,[0.07222222222222222],[-0.2796296296296296],[1],[0],[0],[7.925163300009444],['tijiao_random_2'],130.0769626,130.0769626,130.0769626,130.0769626,4.046296296,1.5550208,131.6493337,133.2955331,122.1373098,122.1373098,122.1373098,122.1373098,122.1373098,122.1373098,122.1373098,122.1373098,0.0073385,122.1373098,,,,,,,,,259,f,22,2023-03-26_10h39.54.249,RL,2022.2.4,60.11306065
1,-0.3,-0.225,0,6,6,6,,,,,,,,,,None,133.2955331,133.2955331,133.2955331,133.2955331,133.2955331,133.2955331,r,0.267104,133.5954408,133.5954408,133.5954408,133.5954408,133.5954408,133.5954408,133.8945526,133.8945526,135.7727541,135.7727541,135.7727541,135.7727541,135.7727541,135.7727541,135.7727541,135.7727541,135.7727541,135.7727541,135.7727541,135.7727541,135.7727541,135.7727541,135.7727541,135.7727541,135.7727541,67,55,63,38,67,52,None,None,,,,,,,,,,,,,[],[],[],[],[],[],[],0.6,1,50,[-0.041666666666666664],[-0.2851851851851852],[1],[0],[0],[9.653614400012884],['tijiao_random_2'],147.9599078,147.9599078,147.9599078,147.9599078,3.962962963,2.3036916,150.2818361,151.8116202,138.2935906,138.2935906,138.2935906,138.2935906,138.2935906,138.2935906,138.2935906,138.2935906,0.007179,138.2935906,,,,,,,,,259,f,22,2023-03-26_10h39.54.249,RL,2022.2.4,60.11306065
0,0.3,0.225,0,7,7,7,,,,,,,,,,None,151.8116202,151.8116202,151.8116202,151.8116202,151.8116202,151.8116202,f,0.414933,152.2467757,152.2467757,152.2467757,152.2467757,152.2467757,152.2467757,152.5437309,152.5437309,154.0560279,154.0560279,154.0730006,154.0730006,154.0730006,154.0730006,154.0730006,154.0730006,154.0730006,154.0730006,154.0730006,154.0730006,154.0730006,154.0730006,154.0730006,154.0730006,154.0730006,62,45,62,38,45,59,4,3.9211173,,,,,,,,,,,,,[],[],[],[],[],[],[],0.6,3,,[],[],[],[],[],[],[],,,,,None,None,160.5322501,162.1006973,,,,,,,,,,,156.5816323,156.5816323,156.5816323,156.5816323,156.5816323,,,,259,f,22,2023-03-26_10h39.54.249,RL,2022.2.4,60.11306065
1,-0.3,-0.225,0,8,8,8,,,,,,,,,,None,162.1006973,162.1006973,162.1006973,162.1006973,162.1006973,162.1006973,i,0.8214788,162.9532411,162.9532411,162.9532411,162.9532411,162.9532411,162.9532411,163.2476086,163.2476086,164.9929934,164.9929934,164.9929934,164.9929934,164.9929934,164.9929934,164.9929934,164.9929934,164.9929934,164.9929934,164.9929934,164.9929934,164.9929934,164.9929934,164.9929934,164.9929934,164.9929934,66,53,61,43,61,63,None,None,167.5051682,167.5051682,167.5051682,167.5051682,167.5051682,167.5051682,167.5051682,167.5051682,0.0072529,167.5051682,80,80,[0.05277777777777778],[-0.28055555555555556],[1],[0],[0],[4.975521799991839],['tijiao'],0.6,0,,[],[],[],[],[],[],[],172.5003321,172.5003321,172.5003321,172.5003321,7.027777778,2.2464235,174.7651309,176.4114869,,,,,,,,,,,,,,,,,,,259,f,22,2023-03-26_10h39.54.249,RL,2022.2.4,60.11306065
0,0.3,0.225,0,9,9,9,,,,,,,,,,None,176.4114869,176.4114869,176.4114869,176.4114869,176.4114869,176.4114869,f,0.4483385,176.8795268,176.8795268,176.8795268,176.8795268,176.8795268,176.8795268,177.1762818,177.1762818,178.6721368,178.6721368,178.6889716,178.6889716,178.6889716,178.6889716,178.6889716,178.6889716,178.6889716,178.6889716,178.6889716,178.6889716,178.6889716,178.6889716,178.6889716,178.6889716,178.6889716,67,51,67,35,51,54,3,1.9775941,,,,,,,,,,,,,[],[],[],[],[],[],[],0.2,2,,[],[],[],[],[],[],[],,,,,None,None,183.200176,185.0050597,,,,,,,,,,,181.1982208,181.1982208,181.1982208,181.1982208,181.1982208,,,,259,f,22,2023-03-26_10h39.54.249,RL,2022.2.4,60.11306065
1,-0.3,-0.225,0,10,10,10,,,,,,,,,,None,185.0050597,185.0050597,185.0050597,185.0050597,185.0050597,185.0050597,i,0.6282519,185.6556046,185.6556046,185.6556046,185.6556046,185.6556046,185.6556046,185.9524021,185.9524021,186.8666341,186.8666341,186.8828619,186.8828619,186.8828619,186.8828619,186.8828619,186.8828619,186.8828619,186.8828619,186.8828619,186.8828619,186.8828619,186.8828619,186.8828619,186.8828619,186.8828619,64,39,56,31,56,49,4,1.9768791,,,,,,,,,,,,,[],[],[],[],[],[],[],-0.2,2,,[],[],[],[],[],[],[],,,,,None,None,191.3972934,192.9663202,,,,,,,,,,,189.3925735,189.3925735,189.3925735,189.3925735,189.3925735,,,,259,f,22,2023-03-26_10h39.54.249,RL,2022.2.4,60.11306065
0,0.3,0.225,0,11,11,11,,,,,,,,,,None,192.9663202,192.9663202,192.9663202,192.9663202,192.9663202,192.9663202,r,0.4300918,193.4168366,193.4168366,193.4168366,193.4168366,193.4168366,193.4168366,193.7147465,193.7147465,195.6427584,195.6427584,195.6427584,195.6427584,195.6427584,195.6427584,195.6427584,195.6427584,195.6427584,195.6427584,195.6427584,195.6427584,195.6427584,195.6427584,195.6427584,195.6427584,195.6427584,57,46,62,30,57,53,None,None,,,,,,,,,,,,,[],[],[],[],[],[],[],-0.6,1,60,[0.024074074074074074],[-0.2953703703703704],[1],[0],[0],[5.981187500001397],['tijiao_random_2'],204.1566256,204.1566256,204.1566256,204.1566256,4.907407407,3.1522352,207.3261654,209.0393322,198.162398,198.162398,198.162398,198.162398,198.162398,198.162398,198.162398,198.162398,0.0067296,198.162398,,,,,,,,,259,f,22,2023-03-26_10h39.54.249,RL,2022.2.4,60.11306065
1,-0.3,-0.225,0,12,12,12,,,,,,,,,,None,209.0393322,209.0393322,209.0393322,209.0393322,209.0393322,209.0393322,r,0.2877878,209.3567318,209.3567318,209.3567318,209.3567318,209.3567318,209.3567318,209.6547586,209.6547586,211.0837289,211.0837289,211.0837289,211.0837289,211.0837289,211.0837289,211.0837289,211.0837289,211.0837289,211.0837289,211.0837289,211.0837289,211.0837289,211.0837289,211.0837289,211.0837289,211.0837289,64,45,60,28,64,65,None,None,,,,,,,,,,,,,[],[],[],[],[],[],[],-0.6,1,70,[0.03333333333333333],[-0.2916666666666667],[1],[0],[0],[9.272221799998078],['tijiao_random_2'],222.8886543,222.8886543,222.8886543,222.8886543,6.351851852,2.2865304,225.1940822,227.0069487,213.6036255,213.6036255,213.6036255,213.6036255,213.6036255,213.6036255,213.6036255,213.6036255,0.006786,213.6036255,,,,,,,,,259,f,22,2023-03-26_10h39.54.249,RL,2022.2.4,60.11306065
0,0.3,0.225,0,13,13,13,,,,,,,,,,None,227.0069487,227.0069487,227.0069487,227.0069487,227.0069487,227.0069487,r,0.3937903,227.4247814,227.4247814,227.4247814,227.4247814,227.4247814,227.4247814,227.7215387,227.7215387,228.8353388,228.8353388,228.8353388,228.8353388,228.8353388,228.8353388,228.8353388,228.8353388,228.8353388,228.8353388,228.8353388,228.8353388,228.8353388,228.8353388,228.8353388,228.8353388,228.8353388,62,43,53,30,62,56,None,None,231.3463079,231.3463079,231.3463079,231.3463079,231.3463079,231.3463079,231.3463079,231.3463079,0.0061531,231.3463079,50,50,[-0.025],[-0.29814814814814816],[1],[0],[0],[6.456899199984036],['tijiao'],-0.2,0,,[],[],[],[],[],[],[],237.8261375,237.8261375,237.8261375,237.8261375,4.925925926,1.8605526,239.704353,241.2513958,,,,,,,,,,,,,,,,,,,259,f,22,2023-03-26_10h39.54.249,RL,2022.2.4,60.11306065
1,-0.3,-0.225,0,14,14,14,,,,,,,,,,None,241.2513958,241.2513958,241.2513958,241.2513958,241.2513958,241.2513958,j,0.3504716,241.6337256,241.6337256,241.6337256,241.6337256,241.6337256,241.6337256,241.9328311,241.9328311,243.9276942,243.9276942,243.9276942,243.9276942,243.9276942,243.9276942,243.9276942,243.9276942,243.9276942,243.9276942,243.9276942,243.9276942,243.9276942,243.9276942,243.9276942,243.9276942,243.9276942,58,45,57,35,35,57,None,None,,,,,,,,,,,,,[],[],[],[],[],[],[],0.6,1,45,[0.03518518518518519],[-0.2861111111111111],[1],[0],[0],[8.139085399976466],['tijiao_random_2'],254.6061831,254.6061831,254.6061831,254.6061831,2.87037037,2.2030962,256.8243485,258.5707816,246.4500223,246.4500223,246.4500223,246.4500223,246.4500223,246.4500223,246.4500223,246.4500223,0.0069613,246.4500223,,,,,,,,,259,f,22,2023-03-26_10h39.54.249,RL,2022.2.4,60.11306065
0,0.3,0.225,0,15,15,15,,,,,,,,,,None,258.5707816,258.5707816,258.5707816,258.5707816,258.5707816,258.5707816,f,0.2605012,258.8557587,258.8557587,258.8557587,258.8557587,258.8557587,258.8557587,259.1528832,259.1528832,260.2665562,260.2665562,260.2665562,260.2665562,260.2665562,260.2665562,260.2665562,260.2665562,260.2665562,260.2665562,260.2665562,260.2665562,260.2665562,260.2665562,260.2665562,260.2665562,260.2665562,58,45,57,29,45,56,3,1.5621758,,,,,,,,,,,,,[],[],[],[],[],[],[],-0.6,2,,[],[],[],[],[],[],[],,,,,None,None,264.3642859,266.1667224,,,,,,,,,,,262.7751895,262.7751895,262.7751895,262.7751895,262.7751895,,,,259,f,22,2023-03-26_10h39.54.249,RL,2022.2.4,60.11306065
1,-0.3,-0.225,0,16,16,16,,,,,,,,,,None,266.1667224,266.1667224,266.1667224,266.1667224,266.1667224,266.1667224,f,0.6322415,266.8322478,266.8322478,266.8322478,266.8322478,266.8322478,266.8322478,267.1306549,267.1306549,268.161506,268.161506,268.161506,268.161506,268.161506,268.161506,268.161506,268.161506,268.161506,268.161506,268.161506,268.161506,268.161506,268.161506,268.161506,268.161506,268.161506,58,47,54,30,47,35,None,None,,,,,,,,,,,,,[],[],[],[],[],[],[],0.2,1,90,[-0.04537037037037037],[-0.29259259259259257],[1],[0],[0],[10.002742299984675],['tijiao_random_2'],280.699947,280.699947,280.699947,280.699947,7.194444444,2.4516229,283.1691841,284.6827476,270.6819382,270.6819382,270.6819382,270.6819382,270.6819382,270.6819382,270.6819382,270.6819382,0.006618,270.6819382,,,,,,,,,259,f,22,2023-03-26_10h39.54.249,RL,2022.2.4,60.11306065
0,0.3,0.225,0,17,17,17,,,,,,,,,,None,284.6827476,284.6827476,284.6827476,284.6827476,284.6827476,284.6827476,i,0.3097558,285.0182379,285.0182379,285.0182379,285.0182379,285.0182379,285.0182379,285.3143334,285.3143334,286.9936426,286.9936426,286.9936426,286.9936426,286.9936426,286.9936426,286.9936426,286.9936426,286.9936426,286.9936426,286.9936426,286.9936426,286.9936426,286.9936426,286.9936426,286.9936426,286.9936426,66,48,61,32,61,54,5,1.6442592,,,,,,,,,,,,,[],[],[],[],[],[],[],-0.2,3,,[],[],[],[],[],[],[],,,,,None,None,291.1751674,293.1264194,,,,,,,,,,,289.5024067,289.5024067,289.5024067,289.5024067,289.5024067,,,,259,f,22,2023-03-26_10h39.54.249,RL,2022.2.4,60.11306065
1,-0.3,-0.225,0,18,18,18,,,,,,,,,,None,293.1264194,293.1264194,293.1264194,293.1264194,293.1264194,293.1264194,f,0.3986289,293.5424769,293.5424769,293.5424769,293.5424769,293.5424769,293.5424769,293.8412296,293.8412296,294.6561219,294.6561219,294.6561219,294.6561219,294.6561219,294.6561219,294.6561219,294.6561219,294.6561219,294.6561219,294.6561219,294.6561219,294.6561219,294.6561219,294.6561219,294.6561219,294.6561219,68,57,59,33,57,43,4,4.1217992,,,,,,,,,,,,,[],[],[],[],[],[],[],-0.6,3,,[],[],[],[],[],[],[],,,,,None,None,301.3149243,303.0161008,,,,,,,,,,,297.1645991,297.1645991,297.1645991,297.1645991,297.1645991,,,,259,f,22,2023-03-26_10h39.54.249,RL,2022.2.4,60.11306065
0,0.3,0.225,0,19,19,19,,,,,,,,,,None,303.0161008,303.0161008,303.0161008,303.0161008,303.0161008,303.0161008,f,0.7406214,303.7835043,303.7835043,303.7835043,303.7835043,303.7835043,303.7835043,304.080107,304.080107,305.0442676,305.0442676,305.0442676,305.0442676,305.0442676,305.0442676,305.0442676,305.0442676,305.0442676,305.0442676,305.0442676,305.0442676,305.0442676,305.0442676,305.0442676,305.0442676,305.0442676,64,54,50,40,54,61,3,1.8281196,,,,,,,,,,,,,[],[],[],[],[],[],[],-0.6,2,,[],[],[],[],[],[],[],,,,,None,None,309.408404,311.0273081,,,,,,,,,,,307.5528145,307.5528145,307.5528145,307.5528145,307.5528145,,,,259,f,22,2023-03-26_10h39.54.249,RL,2022.2.4,60.11306065
1,-0.3,-0.225,0,20,20,20,,,,,,,,,,None,311.0273081,311.0273081,311.0273081,311.0273081,311.0273081,311.0273081,i,0.6866281,311.7448591,311.7448591,311.7448591,311.7448591,311.7448591,311.7448591,312.0420022,312.0420022,313.2884319,313.2884319,313.2884319,313.2884319,313.2884319,313.2884319,313.2884319,313.2884319,313.2884319,313.2884319,313.2884319,313.2884319,313.2884319,313.2884319,313.2884319,313.2884319,313.2884319,74,44,54,37,54,41,None,None,315.8006585,315.8006585,315.8006585,315.8006585,315.8006585,315.8006585,315.8006585,315.8006585,0.0078447,315.8006585,60,60,[0.07685185185185185],[-0.2851851851851852],[1],[0],[0],[3.861602100019809],['tijiao'],0.2,0,,[],[],[],[],[],[],[],319.6826981,319.6826981,319.6826981,319.6826981,6.990740741,2.6612187,322.3624065,323.8925165,,,,,,,,,,,,,,,,,,,259,f,22,2023-03-26_10h39.54.249,RL,2022.2.4,60.11306065
0,0.3,0.225,0,21,21,21,,,,,,,,,,None,323.8925165,323.8925165,323.8925165,323.8925165,323.8925165,323.8925165,i,0.4747841,324.3938965,324.3938965,324.3938965,324.3938965,324.3938965,324.3938965,324.6905774,324.6905774,326.4688561,326.4688561,326.4688561,326.4688561,326.4688561,326.4688561,326.4688561,326.4688561,326.4688561,326.4688561,326.4688561,326.4688561,326.4688561,326.4688561,326.4688561,326.4688561,326.4688561,71,45,63,33,63,62,None,None,,,,,,,,,,,,,[],[],[],[],[],[],[],0.6,1,80,[0.05185185185185185],[-0.287962962962963],[1],[0],[0],[7.0937641999917105],['tijiao_random_2'],336.0981898,336.0981898,336.0981898,336.0981898,7.240740741,4.1477078,340.2638256,342.0763892,328.9898199,328.9898199,328.9898199,328.9898199,328.9898199,328.9898199,328.9898199,328.9898199,0.0068482,328.9898199,,,,,,,,,259,f,22,2023-03-26_10h39.54.249,RL,2022.2.4,60.11306065
1,-0.3,-0.225,0,22,22,22,,,,,,,,,,None,342.0763892,342.0763892,342.0763892,342.0763892,342.0763892,342.0763892,j,0.3046791,342.4113568,342.4113568,342.4113568,342.4113568,342.4113568,342.4113568,342.7078515,342.7078515,344.7025264,344.7025264,344.7197657,344.7197657,344.7197657,344.7197657,344.7197657,344.7197657,344.7197657,344.7197657,344.7197657,344.7197657,344.7197657,344.7197657,344.7197657,344.7197657,344.7197657,72,40,58,48,48,31,5,1.9606253,,,,,,,,,,,,,[],[],[],[],[],[],[],-0.2,2,,[],[],[],[],[],[],[],,,,,None,None,349.2150905,350.785598,,,,,,,,,,,347.2279616,347.2279616,347.2279616,347.2279616,347.2279616,,,,259,f,22,2023-03-26_10h39.54.249,RL,2022.2.4,60.11306065
0,0.3,0.225,0,23,23,23,,,,,,,,,,None,350.785598,350.785598,350.785598,350.785598,350.785598,350.785598,r,0.436948,351.2537868,351.2537868,351.2537868,351.2537868,351.2537868,351.2537868,351.5507582,351.5507582,352.5645418,352.5645418,352.5645418,352.5645418,352.5645418,352.5645418,352.5645418,352.5645418,352.5645418,352.5645418,352.5645418,352.5645418,352.5645418,352.5645418,352.5645418,352.5645418,352.5645418,78,51,67,36,78,64,None,None,,,,,,,,,,,,,[],[],[],[],[],[],[],0.2,1,75,[0.08333333333333333],[-0.29444444444444445],[1],[0],[0],[4.649621199991088],['tijiao_random_2'],359.7500603,359.7500603,359.7500603,359.7500603,7.305555556,2.2539122,362.0207798,363.9496403,355.0851858,355.0851858,355.0851858,355.0851858,355.0851858,355.0851858,355.0851858,355.0851858,0.0071152,355.0851858,,,,,,,,,259,f,22,2023-03-26_10h39.54.249,RL,2022.2.4,60.11306065
1,-0.3,-0.225,0,24,24,24,,,,,,,,,,None,363.9496403,363.9496403,363.9496403,363.9496403,363.9496403,363.9496403,i,0.4459136,364.4193319,364.4193319,364.4193319,364.4193319,364.4193319,364.4193319,364.714214,364.714214,366.592586,366.592586,366.592586,366.592586,366.592586,366.592586,366.592586,366.592586,366.592586,366.592586,366.592586,366.592586,366.592586,366.592586,366.592586,366.592586,366.592586,72,49,66,40,66,41,None,None,,,,,,,,,,,,,[],[],[],[],[],[],[],0.6,1,90,[0.08981481481481482],[-0.28425925925925927],[1],[0],[0],[3.5714968999964185],['tijiao_random_2'],372.6962753,372.6962753,372.6962753,372.6962753,8.018518519,2.0208718,374.7359907,376.4494347,369.1124983,369.1124983,369.1124983,369.1124983,369.1124983,369.1124983,369.1124983,369.1124983,0.0065275,369.1124983,,,,,,,,,259,f,22,2023-03-26_10h39.54.249,RL,2022.2.4,60.11306065
0,0.3,0.225,0,25,25,25,,,,,,,,,,None,376.4494347,376.4494347,376.4494347,376.4494347,376.4494347,376.4494347,j,0.3545734,376.8331508,376.8331508,376.8331508,376.8331508,376.8331508,376.8331508,377.1306107,377.1306107,378.5104242,378.5104242,378.5104242,378.5104242,378.5104242,378.5104242,378.5104242,378.5104242,378.5104242,378.5104242,378.5104242,378.5104242,378.5104242,378.5104242,378.5104242,378.5104242,378.5104242,65,44,61,45,45,45,None,None,,,,,,,,,,,,,[],[],[],[],[],[],[],0.2,1,90,[0.08703703703703704],[-0.29074074074074074],[1],[0],[0],[5.432242800015956],['tijiao_random_2'],386.4785169,386.4785169,386.4785169,386.4785169,7.472222222,2.2694708,388.7642901,390.294621,381.0305609,381.0305609,381.0305609,381.0305609,381.0305609,381.0305609,381.0305609,381.0305609,0.0072531,381.0305609,,,,,,,,,259,f,22,2023-03-26_10h39.54.249,RL,2022.2.4,60.11306065
1,-0.3,-0.225,0,26,26,26,,,,,,,,,,None,390.294621,390.294621,390.294621,390.294621,390.294621,390.294621,i,0.3464001,390.6622508,390.6622508,390.6622508,390.6622508,390.6622508,390.6622508,390.9595533,390.9595533,392.7879446,392.7879446,392.8045179,392.8045179,392.8045179,392.8045179,392.8045179,392.8045179,392.8045179,392.8045179,392.8045179,392.8045179,392.8045179,392.8045179,392.8045179,392.8045179,392.8045179,76,48,70,42,70,44,None,None,395.3166167,395.3166167,395.3166167,395.3166167,395.3166167,395.3166167,395.3166167,395.3166167,0.0075817,395.3166167,80,80,[0.04259259259259259],[-0.2898148148148148],[1],[0],[0],[8.365434799983632],['tijiao'],0.2,0,,[],[],[],[],[],[],[],403.7187718,403.7187718,403.7187718,403.7187718,3.546296296,1.826682,405.5522024,407.1154362,,,,,,,,,,,,,,,,,,,259,f,22,2023-03-26_10h39.54.249,RL,2022.2.4,60.11306065
0,0.3,0.225,0,27,27,27,,,,,,,,,,None,407.1154362,407.1154362,407.1154362,407.1154362,407.1154362,407.1154362,j,0.9438628,408.0827591,408.0827591,408.0827591,408.0827591,408.0827591,408.0827591,408.3789542,408.3789542,409.658692,409.658692,409.658692,409.658692,409.658692,409.658692,409.658692,409.658692,409.658692,409.658692,409.658692,409.658692,409.658692,409.658692,409.658692,409.658692,409.658692,66,40,66,36,36,36,None,None,,,,,,,,,,,,,[],[],[],[],[],[],[],0.2,1,80,[-0.058333333333333334],[-0.287962962962963],[1],[0],[0],[5.730464200023562],['tijiao_random_2'],417.9256046,417.9256046,417.9256046,417.9256046,5.925925926,1.9200238,419.8629955,421.6592608,412.1800039,412.1800039,412.1800039,412.1800039,412.1800039,412.1800039,412.1800039,412.1800039,0.0072632,412.1800039,,,,,,,,,259,f,22,2023-03-26_10h39.54.249,RL,2022.2.4,60.11306065
1,-0.3,-0.225,0,28,28,28,,,,,,,,,,None,421.6592608,421.6592608,421.6592608,421.6592608,421.6592608,421.6592608,i,0.3730087,422.0609801,422.0609801,422.0609801,422.0609801,422.0609801,422.0609801,422.3573951,422.3573951,423.4875635,423.4875635,423.4875635,423.4875635,423.4875635,423.4875635,423.4875635,423.4875635,423.4875635,423.4875635,423.4875635,423.4875635,423.4875635,423.4875635,423.4875635,423.4875635,423.4875635,73,40,47,25,47,49,4,1.8770753,,,,,,,,,,,,,[],[],[],[],[],[],[],0.6,2,,[],[],[],[],[],[],[],,,,,None,None,427.9034724,429.6706865,,,,,,,,,,,425.996498,425.996498,425.996498,425.996498,425.996498,,,,259,f,22,2023-03-26_10h39.54.249,RL,2022.2.4,60.11306065
0,0.3,0.225,0,29,29,29,,,,,,,,,,None,429.6706865,429.6706865,429.6706865,429.6706865,429.6706865,429.6706865,f,0.9039256,430.6021487,430.6021487,430.6021487,430.6021487,430.6021487,430.6021487,430.9009066,430.9009066,432.1307232,432.1307232,432.1307232,432.1307232,432.1307232,432.1307232,432.1307232,432.1307232,432.1307232,432.1307232,432.1307232,432.1307232,432.1307232,432.1307232,432.1307232,432.1307232,432.1307232,72,41,44,34,41,44,3,1.8600889,,,,,,,,,,,,,[],[],[],[],[],[],[],-0.6,2,,[],[],[],[],[],[],[],,,,,None,None,436.5268142,438.2137384,,,,,,,,,,,434.639809,434.639809,434.639809,434.639809,434.639809,,,,259,f,22,2023-03-26_10h39.54.249,RL,2022.2.4,60.11306065
1,-0.3,-0.225,0,30,30,30,,,,,,,,,,None,438.2137384,438.2137384,438.2137384,438.2137384,438.2137384,438.2137384,f,0.3532168,438.5971128,438.5971128,438.5971128,438.5971128,438.5971128,438.5971128,438.895894,438.895894,439.7929772,439.7929772,439.8096256,439.8096256,439.8096256,439.8096256,439.8096256,439.8096256,439.8096256,439.8096256,439.8096256,439.8096256,439.8096256,439.8096256,439.8096256,439.8096256,439.8096256,69,40,47,30,40,22,None,None,,,,,,,,,,,,,[],[],[],[],[],[],[],0.6,1,60,[-0.02962962962962963],[-0.287962962962963],[1],[0],[0],[3.5201858000364155],['tijiao_random_2'],445.8666327,445.8666327,445.8666327,445.8666327,4.990740741,3.1498008,449.0333132,450.9125217,442.3310423,442.3310423,442.3310423,442.3310423,442.3310423,442.3310423,442.3310423,442.3310423,0.0072575,442.3310423,,,,,,,,,259,f,22,2023-03-26_10h39.54.249,RL,2022.2.4,60.11306065
0,0.3,0.225,0,31,31,31,,,,,,,,,,None,450.9125217,450.9125217,450.9125217,450.9125217,450.9125217,450.9125217,j,0.3499558,451.2963874,451.2963874,451.2963874,451.2963874,451.2963874,451.2963874,451.5943481,451.5943481,452.7744028,452.7744028,452.7744028,452.7744028,452.7744028,452.7744028,452.7744028,452.7744028,452.7744028,452.7744028,452.7744028,452.7744028,452.7744028,452.7744028,452.7744028,452.7744028,452.7744028,82,37,45,34,34,66,None,None,455.2856995,455.2856995,455.2856995,455.2856995,455.2856995,455.2856995,455.2856995,455.2856995,0.0071113,455.2856995,80,80,[-0.002777777777777778],[-0.28703703703703703],[1],[0],[0],[7.452726099989377],['tijiao'],0.2,0,,[],[],[],[],[],[],[],462.7600533,462.7600533,462.7600533,462.7600533,6.981481481,2.2613406,465.0395833,466.752725,,,,,,,,,,,,,,,,,,,259,f,22,2023-03-26_10h39.54.249,RL,2022.2.4,60.11306065
1,-0.3,-0.225,0,32,32,32,,,,,,,,,,None,466.752725,466.752725,466.752725,466.752725,466.752725,466.752725,j,0.3082637,467.0874474,467.0874474,467.0874474,467.0874474,467.0874474,467.0874474,467.3845868,467.3845868,468.664375,468.664375,468.664375,468.664375,468.664375,468.664375,468.664375,468.664375,468.664375,468.664375,468.664375,468.664375,468.664375,468.664375,468.664375,468.664375,468.664375,72,38,49,31,31,65,None,None,471.1763674,471.1763674,471.1763674,471.1763674,471.1763674,471.1763674,471.1763674,471.1763674,0.0081784,471.1763674,50,50,[-0.040740740740740744],[-0.2953703703703704],[1],[0],[0],[5.090498299978208],['tijiao'],0.2,0,,[],[],[],[],[],[],[],476.290762,476.290762,476.290762,476.290762,4,3.8903991,480.1982465,481.9111832,,,,,,,,,,,,,,,,,,,259,f,22,2023-03-26_10h39.54.249,RL,2022.2.4,60.11306065
0,0.3,0.225,0,33,33,33,,,,,,,,,,None,481.9111832,481.9111832,481.9111832,481.9111832,481.9111832,481.9111832,j,0.2968237,482.2279333,482.2279333,482.2279333,482.2279333,482.2279333,482.2279333,482.5262643,482.5262643,483.3742327,483.3742327,483.3742327,483.3742327,483.3742327,483.3742327,483.3742327,483.3742327,483.3742327,483.3742327,483.3742327,483.3742327,483.3742327,483.3742327,483.3742327,483.3742327,483.3742327,71,43,51,25,25,42,3,1.992798,,,,,,,,,,,,,[],[],[],[],[],[],[],0.2,3,,[],[],[],[],[],[],[],,,,,None,None,487.9050142,489.6402435,,,,,,,,,,,485.8832027,485.8832027,485.8832027,485.8832027,485.8832027,,,,259,f,22,2023-03-26_10h39.54.249,RL,2022.2.4,60.11306065
1,-0.3,-0.225,0,34,34,34,,,,,,,,,,None,489.6402435,489.6402435,489.6402435,489.6402435,489.6402435,489.6402435,f,0.600831,490.2733558,490.2733558,490.2733558,490.2733558,490.2733558,490.2733558,490.5713249,490.5713249,491.6680992,491.6680992,491.6680992,491.6680992,491.6680992,491.6680992,491.6680992,491.6680992,491.6680992,491.6680992,491.6680992,491.6680992,491.6680992,491.6680992,491.6680992,491.6680992,491.6680992,80,39,51,32,39,54,None,None,,,,,,,,,,,,,[],[],[],[],[],[],[],-0.6,1,40,[0.10740740740740741],[-0.28888888888888886],[1],[0],[0],[6.210836999991443],['tijiao_random_2'],500.4108104,500.4108104,500.4108104,500.4108104,2.648148148,2.0083765,502.4375663,504.3169018,494.1905069,494.1905069,494.1905069,494.1905069,494.1905069,494.1905069,494.1905069,494.1905069,0.0067765,494.1905069,,,,,,,,,259,f,22,2023-03-26_10h39.54.249,RL,2022.2.4,60.11306065
0,0.3,0.225,0,35,35,35,,,,,,,,,,None,504.3169018,504.3169018,504.3169018,504.3169018,504.3169018,504.3169018,j,1.0387512,505.3838162,505.3838162,505.3838162,505.3838162,505.3838162,505.3838162,505.6796893,505.6796893,507.5414036,507.5414036,507.558428,507.558428,507.558428,507.558428,507.558428,507.558428,507.558428,507.558428,507.558428,507.558428,507.558428,507.558428,507.558428,507.558428,507.558428,69,36,47,27,27,71,2,1.3618186,,,,,,,,,,,,,[],[],[],[],[],[],[],-0.6,2,,[],[],[],[],[],[],[],,,,,None,None,511.4558957,513.2092424,,,,,,,,,,,510.0669563,510.0669563,510.0669563,510.0669563,510.0669563,,,,259,f,22,2023-03-26_10h39.54.249,RL,2022.2.4,60.11306065
1,-0.3,-0.225,0,36,36,36,,,,,,,,,,None,513.2092424,513.2092424,513.2092424,513.2092424,513.2092424,513.2092424,i,0.3538552,513.594401,513.594401,513.594401,513.594401,513.594401,513.594401,513.8910043,513.8910043,515.3535121,515.3535121,515.3535121,515.3535121,515.3535121,515.3535121,515.3535121,515.3535121,515.3535121,515.3535121,515.3535121,515.3535121,515.3535121,515.3535121,515.3535121,515.3535121,515.3535121,72,43,42,23,42,67,None,None,517.8667688,517.8667688,517.8667688,517.8667688,517.8667688,517.8667688,517.8667688,517.8667688,0.0085342,517.8667688,90,90,[0.03888888888888889],[-0.2972222222222222],[1],[0],[0],[4.9569662999711],['tijiao'],0.2,0,,[],[],[],[],[],[],[],522.8457748,522.8457748,522.8457748,522.8457748,6.009259259,1.9783133,524.8433801,526.6393629,,,,,,,,,,,,,,,,,,,259,f,22,2023-03-26_10h39.54.249,RL,2022.2.4,60.11306065
0,0.3,0.225,0,37,37,37,,,,,,,,,,None,526.6393629,526.6393629,526.6393629,526.6393629,526.6393629,526.6393629,i,0.3215126,526.9910202,526.9910202,526.9910202,526.9910202,526.9910202,526.9910202,527.2875091,527.2875091,529.0165319,529.0165319,529.0165319,529.0165319,529.0165319,529.0165319,529.0165319,529.0165319,529.0165319,529.0165319,529.0165319,529.0165319,529.0165319,529.0165319,529.0165319,529.0165319,529.0165319,75,39,49,22,49,68,None,None,531.5280346,531.5280346,531.5280346,531.5280346,531.5280346,531.5280346,531.5280346,531.5280346,0.0076888,531.5280346,80,80,[0.07037037037037037],[-0.29444444444444445],[1],[0],[0],[8.282946899998933],['tijiao'],0.2,0,,[],[],[],[],[],[],[],539.8345151,539.8345151,539.8345151,539.8345151,3.787037037,2.8082855,542.660965,544.4403909,,,,,,,,,,,,,,,,,,,259,f,22,2023-03-26_10h39.54.249,RL,2022.2.4,60.11306065
1,-0.3,-0.225,0,38,38,38,,,,,,,,,,None,544.4403909,544.4403909,544.4403909,544.4403909,544.4403909,544.4403909,i,0.280138,544.740955,544.740955,544.740955,544.740955,544.740955,544.740955,545.0393912,545.0393912,545.9368081,545.9368081,545.9368081,545.9368081,545.9368081,545.9368081,545.9368081,545.9368081,545.9368081,545.9368081,545.9368081,545.9368081,545.9368081,545.9368081,545.9368081,545.9368081,545.9368081,77,34,55,20,55,51,3,1.5279181,,,,,,,,,,,,,[],[],[],[],[],[],[],-0.6,2,,[],[],[],[],[],[],[],,,,,None,None,550.0014802,551.7206147,,,,,,,,,,,548.4458217,548.4458217,548.4458217,548.4458217,548.4458217,,,,259,f,22,2023-03-26_10h39.54.249,RL,2022.2.4,60.11306065
0,0.3,0.225,0,39,39,39,,,,,,,,,,None,551.7206147,551.7206147,551.7206147,551.7206147,551.7206147,551.7206147,r,0.6725067,552.422249,552.422249,552.422249,552.422249,552.422249,552.422249,552.7184008,552.7184008,554.0311408,554.0311408,554.0311408,554.0311408,554.0311408,554.0311408,554.0311408,554.0311408,554.0311408,554.0311408,554.0311408,554.0311408,554.0311408,554.0311408,554.0311408,554.0311408,554.0311408,67,41,50,19,67,51,None,None,,,,,,,,,,,,,[],[],[],[],[],[],[],0.6,1,55,[-0.022222222222222223],[-0.2935185185185185],[1],[0],[0],[6.481205100018997],['tijiao_random_2'],563.0446325,563.0446325,563.0446325,563.0446325,4.518518519,2.2702656,565.3324956,567.2450305,556.5499424,556.5499424,556.5499424,556.5499424,556.5499424,556.5499424,556.5499424,556.5499424,0.006619,556.5499424,,,,,,,,,259,f,22,2023-03-26_10h39.54.249,RL,2022.2.4,60.11306065
1,-0.3,-0.225,0,40,40,40,,,,,,,,,,None,567.2450305,567.2450305,567.2450305,567.2450305,567.2450305,567.2450305,j,0.2940498,567.5644501,567.5644501,567.5644501,567.5644501,567.5644501,567.5644501,567.8604393,567.8604393,568.973868,568.973868,568.973868,568.973868,568.973868,568.973868,568.973868,568.973868,568.973868,568.973868,568.973868,568.973868,568.973868,568.973868,568.973868,568.973868,568.973868,73,37,45,24,24,30,4,2.2434682,,,,,,,,,,,,,[],[],[],[],[],[],[],-0.2,3,,[],[],[],[],[],[],[],,,,,None,None,573.7556784,575.5058156,,,,,,,,,,,571.4830922,571.4830922,571.4830922,571.4830922,571.4830922,,,,259,f,22,2023-03-26_10h39.54.249,RL,2022.2.4,60.11306065
0,0.3,0.225,0,41,41,41,,,,,,,,,,None,575.5058156,575.5058156,575.5058156,575.5058156,575.5058156,575.5058156,f,0.3154158,575.8394309,575.8394309,575.8394309,575.8394309,575.8394309,575.8394309,576.1378076,576.1378076,578.0321791,578.0321791,578.0321791,578.0321791,578.0321791,578.0321791,578.0321791,578.0321791,578.0321791,578.0321791,578.0321791,578.0321791,578.0321791,578.0321791,578.0321791,578.0321791,578.0321791,68,43,49,26,43,58,3,2.1759024,,,,,,,,,,,,,[],[],[],[],[],[],[],-0.2,2,,[],[],[],[],[],[],[],,,,,None,None,582.7469965,584.4982324,,,,,,,,,,,580.5415342,580.5415342,580.5415342,580.5415342,580.5415342,,,,259,f,22,2023-03-26_10h39.54.249,RL,2022.2.4,60.11306065
1,-0.3,-0.225,0,42,42,42,,,,,,,,,,None,584.4982324,584.4982324,584.4982324,584.4982324,584.4982324,584.4982324,f,0.6291551,585.1478568,585.1478568,585.1478568,585.1478568,585.1478568,585.1478568,585.445623,585.445623,586.8418305,586.8418305,586.8418305,586.8418305,586.8418305,586.8418305,586.8418305,586.8418305,586.8418305,586.8418305,586.8418305,586.8418305,586.8418305,586.8418305,586.8418305,586.8418305,586.8418305,75,39,53,19,39,40,None,None,589.3522361,589.3522361,589.3522361,589.3522361,589.3522361,589.3522361,589.3522361,589.3522361,0.006311,589.3522361,60,60,[0.012962962962962963],[-0.3037037037037037],[1],[0],[0],[6.140069200017024],['tijiao'],0.6,0,,[],[],[],[],[],[],[],595.5132576,595.5132576,595.5132576,595.5132576,3.601851852,1.4806366,597.0127787,598.6757427,,,,,,,,,,,,,,,,,,,259,f,22,2023-03-26_10h39.54.249,RL,2022.2.4,60.11306065
0,0.3,0.225,0,43,43,43,,,,,,,,,,None,598.6757427,598.6757427,598.6757427,598.6757427,598.6757427,598.6757427,f,0.6889428,599.3920752,599.3920752,599.3920752,599.3920752,599.3920752,599.3920752,599.6899477,599.6899477,601.3357108,601.3357108,601.3357108,601.3357108,601.3357108,601.3357108,601.3357108,601.3357108,601.3357108,601.3357108,601.3357108,601.3357108,601.3357108,601.3357108,601.3357108,601.3357108,601.3357108,76,42,50,25,42,64,None,None,,,,,,,,,,,,,[],[],[],[],[],[],[],-0.6,1,66,[-0.030555555555555555],[-0.2962962962962963],[1],[0],[0],[7.659676699957345],['tijiao_random_2'],611.5302287,611.5302287,611.5302287,611.5302287,1.990740741,1.9372811,613.4842517,615.280556,603.85582,603.85582,603.85582,603.85582,603.85582,603.85582,603.85582,603.85582,0.0064219,603.85582,,,,,,,,,259,f,22,2023-03-26_10h39.54.249,RL,2022.2.4,60.11306065
1,-0.3,-0.225,0,44,44,44,,,,,,,,,,None,615.280556,615.280556,615.280556,615.280556,615.280556,615.280556,r,0.2393132,615.5491695,615.5491695,615.5491695,615.5491695,615.5491695,615.5491695,615.8459162,615.8459162,617.574948,617.574948,617.5914779,617.5914779,617.5914779,617.5914779,617.5914779,617.5914779,617.5914779,617.5914779,617.5914779,617.5914779,617.5914779,617.5914779,617.5914779,617.5914779,617.5914779,68,33,46,26,68,33,5,1.777254,,,,,,,,,,,,,[],[],[],[],[],[],[],0.6,2,,[],[],[],[],[],[],[],,,,,None,None,621.9043526,623.5913164,,,,,,,,,,,620.1001294,620.1001294,620.1001294,620.1001294,620.1001294,,,,259,f,22,2023-03-26_10h39.54.249,RL,2022.2.4,60.11306065
0,0.3,0.225,0,45,45,45,,,,,,,,,,None,623.5913164,623.5913164,623.5913164,623.5913164,623.5913164,623.5913164,f,0.5765374,624.1918367,624.1918367,624.1918367,624.1918367,624.1918367,624.1918367,624.4892624,624.4892624,626.2505267,626.2505267,626.2505267,626.2505267,626.2505267,626.2505267,626.2505267,626.2505267,626.2505267,626.2505267,626.2505267,626.2505267,626.2505267,626.2505267,626.2505267,626.2505267,626.2505267,75,49,44,23,49,45,5,1.3620559,,,,,,,,,,,,,[],[],[],[],[],[],[],0.2,2,,[],[],[],[],[],[],[],,,,,None,None,630.150056,632.0685444,,,,,,,,,,,628.7597222,628.7597222,628.7597222,628.7597222,628.7597222,,,,259,f,22,2023-03-26_10h39.54.249,RL,2022.2.4,60.11306065
1,-0.3,-0.225,0,46,46,46,,,,,,,,,,None,632.0685444,632.0685444,632.0685444,632.0685444,632.0685444,632.0685444,j,0.2760063,632.3707806,632.3707806,632.3707806,632.3707806,632.3707806,632.3707806,632.6668063,632.6668063,633.8134297,633.8134297,633.8134297,633.8134297,633.8134297,633.8134297,633.8134297,633.8134297,633.8134297,633.8134297,633.8134297,633.8134297,633.8134297,633.8134297,633.8134297,633.8134297,633.8134297,76,44,47,19,19,68,None,None,636.3259421,636.3259421,636.3259421,636.3259421,636.3259421,636.3259421,636.3259421,636.3259421,0.0071914,636.3259421,70,70,[0.05740740740740741],[-0.2935185185185185],[1],[0],[0],[5.274703099974431],['tijiao'],-0.2,0,,[],[],[],[],[],[],[],641.6210442,641.6210442,641.6210442,641.6210442,5.407407407,1.8624818,643.5025056,645.0993688,,,,,,,,,,,,,,,,,,,259,f,22,2023-03-26_10h39.54.249,RL,2022.2.4,60.11306065
0,0.3,0.225,0,47,47,47,,,,,,,,,,None,645.0993688,645.0993688,645.0993688,645.0993688,645.0993688,645.0993688,j,0.6319791,645.764662,645.764662,645.764662,645.764662,645.764662,645.764662,646.0638924,646.0638924,647.2434995,647.2434995,647.2434995,647.2434995,647.2434995,647.2434995,647.2434995,647.2434995,647.2434995,647.2434995,647.2434995,647.2434995,647.2434995,647.2434995,647.2434995,647.2434995,647.2434995,84,50,54,20,20,50,3,2.4254108,,,,,,,,,,,,,[],[],[],[],[],[],[],0.6,2,,[],[],[],[],[],[],[],,,,,None,None,652.2075476,653.97461,,,,,,,,,,,649.7524214,649.7524214,649.7524214,649.7524214,649.7524214,,,,259,f,22,2023-03-26_10h39.54.249,RL,2022.2.4,60.11306065
1,-0.3,-0.225,0,48,48,48,,,,,,,,,,None,653.97461,653.97461,653.97461,653.97461,653.97461,653.97461,i,0.3638618,654.3592347,654.3592347,654.3592347,654.3592347,654.3592347,654.3592347,654.656617,654.656617,655.8869058,655.8869058,655.8869058,655.8869058,655.8869058,655.8869058,655.8869058,655.8869058,655.8869058,655.8869058,655.8869058,655.8869058,655.8869058,655.8869058,655.8869058,655.8869058,655.8869058,82,44,57,24,57,43,4,2.0926899,,,,,,,,,,,,,[],[],[],[],[],[],[],-0.2,2,,[],[],[],[],[],[],[],,,,,None,None,660.5156054,662.2025647,,,,,,,,,,,658.3957051,658.3957051,658.3957051,658.3957051,658.3957051,,,,259,f,22,2023-03-26_10h39.54.249,RL,2022.2.4,60.11306065
0,0.3,0.225,0,49,49,49,,,,,,,,,,None,662.2025647,662.2025647,662.2025647,662.2025647,662.2025647,662.2025647,i,0.5370534,662.7711205,662.7711205,662.7711205,662.7711205,662.7711205,662.7711205,663.0669694,663.0669694,664.1309983,664.1309983,664.1309983,664.1309983,664.1309983,664.1309983,664.1309983,664.1309983,664.1309983,664.1309983,664.1309983,664.1309983,664.1309983,664.1309983,664.1309983,664.1309983,664.1309983,85,43,50,20,50,40,5,3.2240988,,,,,,,,,,,,,[],[],[],[],[],[],[],-0.2,3,,[],[],[],[],[],[],[],,,,,None,None,669.890472,671.5600629,,,,,,,,,,,666.6397757,666.6397757,666.6397757,666.6397757,666.6397757,,,,259,f,22,2023-03-26_10h39.54.249,RL,2022.2.4,60.11306065
1,-0.3,-0.225,0,50,50,50,,,,,,,,,,None,671.5600629,671.5600629,671.5600629,671.5600629,671.5600629,671.5600629,i,0.7109598,672.2926205,672.2926205,672.2926205,672.2926205,672.2926205,672.2926205,672.5911017,672.5911017,673.6549898,673.6549898,673.6549898,673.6549898,673.6549898,673.6549898,673.6549898,673.6549898,673.6549898,673.6549898,673.6549898,673.6549898,673.6549898,673.6549898,673.6549898,673.6549898,673.6549898,71,49,52,27,52,70,3,2.0602073,,,,,,,,,,,,,[],[],[],[],[],[],[],0.6,2,,[],[],[],[],[],[],[],,,,,None,None,678.2516803,679.9044298,,,,,,,,,,,676.1640716,676.1640716,676.1640716,676.1640716,676.1640716,,,,259,f,22,2023-03-26_10h39.54.249,RL,2022.2.4,60.11306065
0,0.3,0.225,0,51,51,51,,,,,,,,,,None,679.9044298,679.9044298,679.9044298,679.9044298,679.9044298,679.9044298,j,0.3745035,680.3042926,680.3042926,680.3042926,680.3042926,680.3042926,680.3042926,680.6028845,680.6028845,681.4504544,681.4504544,681.4504544,681.4504544,681.4504544,681.4504544,681.4504544,681.4504544,681.4504544,681.4504544,681.4504544,681.4504544,681.4504544,681.4504544,681.4504544,681.4504544,681.4504544,75,39,61,18,18,40,None,None,,,,,,,,,,,,,[],[],[],[],[],[],[],0.6,1,75,[0.03611111111111111],[-0.2833333333333333],[1],[0],[0],[13.112262600043323],['tijiao_random_2'],697.0970538,697.0970538,697.0970538,697.0970538,2.037037037,1.9530445,699.0678531,700.598247,683.9696681,683.9696681,683.9696681,683.9696681,683.9696681,683.9696681,683.9696681,683.9696681,0.0060159,683.9696681,,,,,,,,,259,f,22,2023-03-26_10h39.54.249,RL,2022.2.4,60.11306065
1,-0.3,-0.225,0,52,52,52,,,,,,,,,,None,700.598247,700.598247,700.598247,700.598247,700.598247,700.598247,j,0.3402568,700.9667968,700.9667968,700.9667968,700.9667968,700.9667968,700.9667968,701.26264,701.26264,702.7752632,702.7752632,702.7917419,702.7917419,702.7917419,702.7917419,702.7917419,702.7917419,702.7917419,702.7917419,702.7917419,702.7917419,702.7917419,702.7917419,702.7917419,702.7917419,702.7917419,67,44,56,27,27,66,2,1.4948247,,,,,,,,,,,,,[],[],[],[],[],[],[],0.6,3,,[],[],[],[],[],[],[],,,,,None,None,706.8227979,708.625987,,,,,,,,,,,705.301018,705.301018,705.301018,705.301018,705.301018,,,,259,f,22,2023-03-26_10h39.54.249,RL,2022.2.4,60.11306065
0,0.3,0.225,0,53,53,53,,,,,,,,,,None,708.625987,708.625987,708.625987,708.625987,708.625987,708.625987,r,0.3246233,708.9774908,708.9774908,708.9774908,708.9774908,708.9774908,708.9774908,709.2746008,709.2746008,710.2050329,710.2050329,710.2050329,710.2050329,710.2050329,710.2050329,710.2050329,710.2050329,710.2050329,710.2050329,710.2050329,710.2050329,710.2050329,710.2050329,710.2050329,710.2050329,710.2050329,64,39,56,28,64,71,3,2.109475,,,,,,,,,,,,,[],[],[],[],[],[],[],0.2,2,,[],[],[],[],[],[],[],,,,,None,None,714.8520935,716.6203881,,,,,,,,,,,712.7144481,712.7144481,712.7144481,712.7144481,712.7144481,,,,259,f,22,2023-03-26_10h39.54.249,RL,2022.2.4,60.11306065
1,-0.3,-0.225,0,54,54,54,,,,,,,,,,None,716.6203881,716.6203881,716.6203881,716.6203881,716.6203881,716.6203881,j,0.4084223,717.0544962,717.0544962,717.0544962,717.0544962,717.0544962,717.0544962,717.3526076,717.3526076,718.4824813,718.4824813,718.4824813,718.4824813,718.4824813,718.4824813,718.4824813,718.4824813,718.4824813,718.4824813,718.4824813,718.4824813,718.4824813,718.4824813,718.4824813,718.4824813,718.4824813,66,33,52,24,24,39,3,2.0268373,,,,,,,,,,,,,[],[],[],[],[],[],[],0.6,2,,[],[],[],[],[],[],[],,,,,None,None,723.0436133,724.947784,,,,,,,,,,,720.9917189,720.9917189,720.9917189,720.9917189,720.9917189,,,,259,f,22,2023-03-26_10h39.54.249,RL,2022.2.4,60.11306065
0,0.3,0.225,0,55,55,55,,,,,,,,,,None,724.947784,724.947784,724.947784,724.947784,724.947784,724.947784,i,0.3623216,725.3319625,725.3319625,725.3319625,725.3319625,725.3319625,725.3319625,725.629968,725.629968,727.507777,727.507777,727.507777,727.507777,727.507777,727.507777,727.507777,727.507777,727.507777,727.507777,727.507777,727.507777,727.507777,727.507777,727.507777,727.507777,727.507777,58,43,45,16,45,27,None,None,730.0217987,730.0217987,730.0217987,730.0217987,730.0217987,730.0217987,730.0217987,730.0217987,0.0089254,730.0217987,40,40,[-0.01574074074074074],[-0.31851851851851853],[1],[0],[0],[6.968127099971753],['tijiao'],0.2,0,,[],[],[],[],[],[],[],737.0105463,737.0105463,737.0105463,737.0105463,4.444444444,1.8632314,738.8921884,740.6051642,,,,,,,,,,,,,,,,,,,259,f,22,2023-03-26_10h39.54.249,RL,2022.2.4,60.11306065
1,-0.3,-0.225,0,56,56,56,,,,,,,,,,None,740.6051642,740.6051642,740.6051642,740.6051642,740.6051642,740.6051642,i,0.2594053,740.8898032,740.8898032,740.8898032,740.8898032,740.8898032,740.8898032,741.1873506,741.1873506,742.5664734,742.5664734,742.5664734,742.5664734,742.5664734,742.5664734,742.5664734,742.5664734,742.5664734,742.5664734,742.5664734,742.5664734,742.5664734,742.5664734,742.5664734,742.5664734,742.5664734,51,42,44,19,44,63,None,None,745.0802267,745.0802267,745.0802267,745.0802267,745.0802267,745.0802267,745.0802267,745.0802267,0.0073094,745.0802267,65,65,[0.03611111111111111],[-0.29444444444444445],[1],[0],[0],[4.826511799998116],['tijiao'],0.6,0,,[],[],[],[],[],[],[],749.927321,749.927321,749.927321,749.927321,3.314814815,1.9440902,751.8901619,753.7361846,,,,,,,,,,,,,,,,,,,259,f,22,2023-03-26_10h39.54.249,RL,2022.2.4,60.11306065
0,0.3,0.225,0,57,57,57,,,,,,,,,,None,753.7361846,753.7361846,753.7361846,753.7361846,753.7361846,753.7361846,i,0.3327414,754.1036956,754.1036956,754.1036956,754.1036956,754.1036956,754.1036956,754.4014067,754.4014067,756.0629172,756.0629172,756.0629172,756.0629172,756.0629172,756.0629172,756.0629172,756.0629172,756.0629172,756.0629172,756.0629172,756.0629172,756.0629172,756.0629172,756.0629172,756.0629172,756.0629172,53,30,53,21,53,43,None,None,,,,,,,,,,,,,[],[],[],[],[],[],[],0.2,1,80,[0.000925925925925926],[-0.2962962962962963],[1],[0],[0],[8.64034810004523],['tijiao_random_2'],767.2383411,767.2383411,767.2383411,767.2383411,4.981481481,2.5347959,769.7916624,771.4545695,758.5837088,758.5837088,758.5837088,758.5837088,758.5837088,758.5837088,758.5837088,758.5837088,0.0064986,758.5837088,,,,,,,,,259,f,22,2023-03-26_10h39.54.249,RL,2022.2.4,60.11306065
1,-0.3,-0.225,0,58,58,58,,,,,,,,,,None,771.4545695,771.4545695,771.4545695,771.4545695,771.4545695,771.4545695,f,0.466552,771.9540017,771.9540017,771.9540017,771.9540017,771.9540017,771.9540017,772.2526088,772.2526088,773.7646193,773.7646193,773.7646193,773.7646193,773.7646193,773.7646193,773.7646193,773.7646193,773.7646193,773.7646193,773.7646193,773.7646193,773.7646193,773.7646193,773.7646193,773.7646193,773.7646193,56,39,41,18,39,74,None,None,,,,,,,,,,,,,[],[],[],[],[],[],[],-0.2,1,60,[0.06481481481481481],[-0.30648148148148147],[1],[0],[0],[9.48758529999759],['tijiao_random_2'],785.78869,785.78869,785.78869,785.78869,3.675925926,1.3226304,787.1271676,788.9232957,776.2859949,776.2859949,776.2859949,776.2859949,776.2859949,776.2859949,776.2859949,776.2859949,0.0071492,776.2859949,,,,,,,,,259,f,22,2023-03-26_10h39.54.249,RL,2022.2.4,60.11306065
0,0.3,0.225,0,59,59,59,,,,,,,,,,None,788.9232957,788.9232957,788.9232957,788.9232957,788.9232957,788.9232957,f,0.336609,789.2905809,789.2905809,789.2905809,789.2905809,789.2905809,789.2905809,789.5887212,789.5887212,790.535866,790.535866,790.5526107,790.5526107,790.5526107,790.5526107,790.5526107,790.5526107,790.5526107,790.5526107,790.5526107,790.5526107,790.5526107,790.5526107,790.5526107,790.5526107,790.5526107,54,49,46,18,49,74,None,None,793.0625544,793.0625544,793.0625544,793.0625544,793.0625544,793.0625544,793.0625544,793.0625544,0.0054959,793.0625544,90,90,[0.027777777777777776],[-0.28055555555555556],[1],[0],[0],[5.42631969996728],['tijiao'],-0.6,0,,[],[],[],[],[],[],[],798.5120536,798.5120536,798.5120536,798.5120536,3.064814815,1.7772533,800.3082561,801.888302,,,,,,,,,,,,,,,,,,,259,f,22,2023-03-26_10h39.54.249,RL,2022.2.4,60.11306065
1,-0.3,-0.225,0,60,60,60,,,,,,,,,,None,801.888302,801.888302,801.888302,801.888302,801.888302,801.888302,f,0.2796797,802.18876,802.18876,802.18876,802.18876,802.18876,802.18876,802.4867178,802.4867178,804.2156616,804.2156616,804.2156616,804.2156616,804.2156616,804.2156616,804.2156616,804.2156616,804.2156616,804.2156616,804.2156616,804.2156616,804.2156616,804.2156616,804.2156616,804.2156616,804.2156616,45,45,63,7,45,72,None,None,806.7272857,806.7272857,806.7272857,806.7272857,806.7272857,806.7272857,806.7272857,806.7272857,0.0079798,806.7272857,30,30,[0.05462962962962963],[-0.30277777777777776],[1],[0],[0],[4.178799999994226],['tijiao'],0.2,0,,[],[],[],[],[],[],[],810.9288299,810.9288299,810.9288299,810.9288299,6.527777778,1.9435806,812.8904216,814.6200576,,,,,,,,,,,,,,,,,,,259,f,22,2023-03-26_10h39.54.249,RL,2022.2.4,60.11306065
0,0.3,0.225,0,61,61,61,,,,,,,,,,None,814.6200576,814.6200576,814.6200576,814.6200576,814.6200576,814.6200576,i,0.2500892,814.9026768,814.9026768,814.9026768,814.9026768,814.9026768,814.9026768,815.2019127,815.2019127,816.7312084,816.7312084,816.7312084,816.7312084,816.7312084,816.7312084,816.7312084,816.7312084,816.7312084,816.7312084,816.7312084,816.7312084,816.7312084,816.7312084,816.7312084,816.7312084,816.7312084,53,46,56,21,56,29,4,1.7774758,,,,,,,,,,,,,[],[],[],[],[],[],[],0.2,2,,[],[],[],[],[],[],[],,,,,None,None,821.0462337,822.6481329,,,,,,,,,,,819.2402565,819.2402565,819.2402565,819.2402565,819.2402565,,,,259,f,22,2023-03-26_10h39.54.249,RL,2022.2.4,60.11306065
1,-0.3,-0.225,0,62,62,62,,,,,,,,,,None,822.6481329,822.6481329,822.6481329,822.6481329,822.6481329,822.6481329,j,0.8395356,823.5129139,823.5129139,823.5129139,823.5129139,823.5129139,823.5129139,823.8117178,823.8117178,825.8063367,825.8063367,825.8063367,825.8063367,825.8063367,825.8063367,825.8063367,825.8063367,825.8063367,825.8063367,825.8063367,825.8063367,825.8063367,825.8063367,825.8063367,825.8063367,825.8063367,53,42,61,22,22,69,3,1.8442228,,,,,,,,,,,,,[],[],[],[],[],[],[],-0.2,2,,[],[],[],[],[],[],[],,,,,None,None,830.1891574,832.0058525,,,,,,,,,,,828.3150539,828.3150539,828.3150539,828.3150539,828.3150539,,,,259,f,22,2023-03-26_10h39.54.249,RL,2022.2.4,60.11306065
0,0.3,0.225,0,63,63,63,,,,,,,,,,None,832.0058525,832.0058525,832.0058525,832.0058525,832.0058525,832.0058525,i,0.3885396,832.4246652,832.4246652,832.4246652,832.4246652,832.4246652,832.4246652,832.7209343,832.7209343,833.934243,833.934243,833.934243,833.934243,833.934243,833.934243,833.934243,833.934243,833.934243,833.934243,833.934243,833.934243,833.934243,833.934243,833.934243,833.934243,833.934243,42,35,57,15,57,74,None,None,,,,,,,,,,,,,[],[],[],[],[],[],[],-0.2,1,40,[0.030555555555555555],[-0.2861111111111111],[1],[0],[0],[3.7720956999692135],['tijiao_random_2'],840.2380632,840.2380632,840.2380632,840.2380632,3.564814815,2.1700179,842.426537,844.2559233,836.4530232,836.4530232,836.4530232,836.4530232,836.4530232,836.4530232,836.4530232,836.4530232,0.0064571,836.4530232,,,,,,,,,259,f,22,2023-03-26_10h39.54.249,RL,2022.2.4,60.11306065
1,-0.3,-0.225,0,64,64,64,,,,,,,,,,None,844.2559233,844.2559233,844.2559233,844.2559233,844.2559233,844.2559233,r,0.3265333,844.6074785,844.6074785,844.6074785,844.6074785,844.6074785,844.6074785,844.9044032,844.9044032,846.4666311,846.4666311,846.4829915,846.4829915,846.4829915,846.4829915,846.4829915,846.4829915,846.4829915,846.4829915,846.4829915,846.4829915,846.4829915,846.4829915,846.4829915,846.4829915,846.4829915,46,44,50,22,46,89,2,1.9767812,,,,,,,,,,,,,[],[],[],[],[],[],[],0.6,2,,[],[],[],[],[],[],[],,,,,None,None,850.9955633,852.965329,,,,,,,,,,,848.9921092,848.9921092,848.9921092,848.9921092,848.9921092,,,,259,f,22,2023-03-26_10h39.54.249,RL,2022.2.4,60.11306065
0,0.3,0.225,0,65,65,65,,,,,,,,,,None,852.965329,852.965329,852.965329,852.965329,852.965329,852.965329,i,0.5391405,853.5323898,853.5323898,853.5323898,853.5323898,853.5323898,853.5323898,853.8301179,853.8301179,855.7411137,855.7411137,855.7411137,855.7411137,855.7411137,855.7411137,855.7411137,855.7411137,855.7411137,855.7411137,855.7411137,855.7411137,855.7411137,855.7411137,855.7411137,855.7411137,855.7411137,43,46,53,22,53,41,None,None,,,,,,,,,,,,,[],[],[],[],[],[],[],0.2,1,55,[0.032407407407407406],[-0.3037037037037037],[1],[0],[0],[11.56519809999736],['tijiao_random_2'],869.8391247,869.8391247,869.8391247,869.8391247,5.166666667,2.1046827,871.9624845,873.8916191,858.262511,858.262511,858.262511,858.262511,858.262511,858.262511,858.262511,858.262511,0.0069578,858.262511,,,,,,,,,259,f,22,2023-03-26_10h39.54.249,RL,2022.2.4,60.11306065
1,-0.3,-0.225,0,66,66,66,,,,,,,,,,None,873.8916191,873.8916191,873.8916191,873.8916191,873.8916191,873.8916191,j,0.2886223,874.2104912,874.2104912,874.2104912,874.2104912,874.2104912,874.2104912,874.5065588,874.5065588,875.7031338,875.7031338,875.7200724,875.7200724,875.7200724,875.7200724,875.7200724,875.7200724,875.7200724,875.7200724,875.7200724,875.7200724,875.7200724,875.7200724,875.7200724,875.7200724,875.7200724,49,39,57,38,38,59,4,1.3950726,,,,,,,,,,,,,[],[],[],[],[],[],[],-0.6,3,,[],[],[],[],[],[],[],,,,,None,None,879.6536205,881.2714617,,,,,,,,,,,878.2289701,878.2289701,878.2289701,878.2289701,878.2289701,,,,259,f,22,2023-03-26_10h39.54.249,RL,2022.2.4,60.11306065
0,0.3,0.225,0,67,67,67,,,,,,,,,,None,881.2714617,881.2714617,881.2714617,881.2714617,881.2714617,881.2714617,f,0.2869888,881.5903528,881.5903528,881.5903528,881.5903528,881.5903528,881.5903528,881.8867209,881.8867209,883.6152266,883.6152266,883.6152266,883.6152266,883.6152266,883.6152266,883.6152266,883.6152266,883.6152266,883.6152266,883.6152266,883.6152266,883.6152266,883.6152266,883.6152266,883.6152266,883.6152266,48,35,53,27,35,75,5,1.8942859,,,,,,,,,,,,,[],[],[],[],[],[],[],0.2,3,,[],[],[],[],[],[],[],,,,,None,None,888.0484015,889.8316573,,,,,,,,,,,886.1241228,886.1241228,886.1241228,886.1241228,886.1241228,,,,259,f,22,2023-03-26_10h39.54.249,RL,2022.2.4,60.11306065
1,-0.3,-0.225,0,68,68,68,,,,,,,,,,None,889.8316573,889.8316573,889.8316573,889.8316573,889.8316573,889.8316573,r,0.9929881,890.847991,890.847991,890.847991,890.847991,890.847991,890.847991,891.1444561,891.1444561,892.8235922,892.8235922,892.8235922,892.8235922,892.8235922,892.8235922,892.8235922,892.8235922,892.8235922,892.8235922,892.8235922,892.8235922,892.8235922,892.8235922,892.8235922,892.8235922,892.8235922,45,45,56,31,45,73,3,1.8271705,,,,,,,,,,,,,[],[],[],[],[],[],[],-0.2,2,,[],[],[],[],[],[],[],,,,,None,None,897.1871449,899.072902,,,,,,,,,,,895.3324797,895.3324797,895.3324797,895.3324797,895.3324797,,,,259,f,22,2023-03-26_10h39.54.249,RL,2022.2.4,60.11306065
0,0.3,0.225,0,69,69,69,,,,,,,,,,None,899.072902,899.072902,899.072902,899.072902,899.072902,899.072902,i,0.3691858,899.4742183,899.4742183,899.4742183,899.4742183,899.4742183,899.4742183,899.7714565,899.7714565,900.6190282,900.6190282,900.6190282,900.6190282,900.6190282,900.6190282,900.6190282,900.6190282,900.6190282,900.6190282,900.6190282,900.6190282,900.6190282,900.6190282,900.6190282,900.6190282,900.6190282,48,39,51,41,51,69,3,1.6617016,,,,,,,,,,,,,[],[],[],[],[],[],[],-0.6,3,,[],[],[],[],[],[],[],,,,,None,None,904.8154477,906.8018726,,,,,,,,,,,903.1279888,903.1279888,903.1279888,903.1279888,903.1279888,,,,259,f,22,2023-03-26_10h39.54.249,RL,2022.2.4,60.11306065
1,-0.3,-0.225,0,70,70,70,,,,,,,,,,None,906.8018726,906.8018726,906.8018726,906.8018726,906.8018726,906.8018726,j,0.3524998,907.1850081,907.1850081,907.1850081,907.1850081,907.1850081,907.1850081,907.4834789,907.4834789,908.7632975,908.7632975,908.7632975,908.7632975,908.7632975,908.7632975,908.7632975,908.7632975,908.7632975,908.7632975,908.7632975,908.7632975,908.7632975,908.7632975,908.7632975,908.7632975,908.7632975,52,47,66,31,31,73,None,None,911.2748689,911.2748689,911.2748689,911.2748689,911.2748689,911.2748689,911.2748689,911.2748689,0.0068111,911.2748689,40,40,[0.05925925925925926],[-0.3111111111111111],[1],[0],[0],[5.4084480999736115],['tijiao'],0.2,0,,[],[],[],[],[],[],[],916.7068654,916.7068654,916.7068654,916.7068654,2.611111111,2.740899,919.4659932,921.0130156,,,,,,,,,,,,,,,,,,,259,f,22,2023-03-26_10h39.54.249,RL,2022.2.4,60.11306065
0,0.3,0.225,0,71,71,71,,,,,,,,,,None,921.0130156,921.0130156,921.0130156,921.0130156,921.0130156,921.0130156,j,0.2882614,921.3324193,921.3324193,921.3324193,921.3324193,921.3324193,921.3324193,921.6279973,921.6279973,923.29028,923.29028,923.29028,923.29028,923.29028,923.29028,923.29028,923.29028,923.29028,923.29028,923.29028,923.29028,923.29028,923.29028,923.29028,923.29028,923.29028,45,42,75,29,29,38,None,None,925.801649,925.801649,925.801649,925.801649,925.801649,925.801649,925.801649,925.801649,0.0067656,925.801649,10,10,[-0.05092592592592592],[-0.29907407407407405],[1],[0],[0],[4.376967399963178],['tijiao'],-0.2,0,,[],[],[],[],[],[],[],930.1990772,930.1990772,930.1990772,930.1990772,3.324074074,2.1678402,932.3778557,934.2104704,,,,,,,,,,,,,,,,,,,259,f,22,2023-03-26_10h39.54.249,RL,2022.2.4,60.11306065
1,-0.3,-0.225,0,72,72,72,,,,,,,,,,None,934.2104704,934.2104704,934.2104704,934.2104704,934.2104704,934.2104704,j,0.2589336,934.496148,934.496148,934.496148,934.496148,934.496148,934.496148,934.7924133,934.7924133,936.5870118,936.5870118,936.5870118,936.5870118,936.5870118,936.5870118,936.5870118,936.5870118,936.5870118,936.5870118,936.5870118,936.5870118,936.5870118,936.5870118,936.5870118,936.5870118,936.5870118,46,43,77,33,33,71,1,1.8114869,,,,,,,,,,,,,[],[],[],[],[],[],[],-0.2,2,,[],[],[],[],[],[],[],,,,,None,None,940.9335051,942.5702737,,,,,,,,,,,939.096128,939.096128,939.096128,939.096128,939.096128,,,,259,f,22,2023-03-26_10h39.54.249,RL,2022.2.4,60.11306065
0,0.3,0.225,0,73,73,73,,,,,,,,,,None,942.5702737,942.5702737,942.5702737,942.5702737,942.5702737,942.5702737,f,0.5263325,943.121243,943.121243,943.121243,943.121243,943.121243,943.121243,943.4186646,943.4186646,944.7815537,944.7815537,944.7815537,944.7815537,944.7815537,944.7815537,944.7815537,944.7815537,944.7815537,944.7815537,944.7815537,944.7815537,944.7815537,944.7815537,944.7815537,944.7815537,944.7815537,45,45,66,24,45,66,1,1.1629209,,,,,,,,,,,,,[],[],[],[],[],[],[],-0.2,2,,[],[],[],[],[],[],[],,,,,None,None,948.4802537,950.1170773,,,,,,,,,,,947.2905062,947.2905062,947.2905062,947.2905062,947.2905062,,,,259,f,22,2023-03-26_10h39.54.249,RL,2022.2.4,60.11306065
1,-0.3,-0.225,0,74,74,74,,,,,,,,,,None,950.1170773,950.1170773,950.1170773,950.1170773,950.1170773,950.1170773,r,0.3284426,950.4671947,950.4671947,950.4671947,950.4671947,950.4671947,950.4671947,950.7653461,950.7653461,952.2777229,952.2777229,952.2777229,952.2777229,952.2777229,952.2777229,952.2777229,952.2777229,952.2777229,952.2777229,952.2777229,952.2777229,952.2777229,952.2777229,952.2777229,952.2777229,952.2777229,39,33,71,20,39,68,1,0.7806458,,,,,,,,,,,,,[],[],[],[],[],[],[],-0.2,3,,[],[],[],[],[],[],[],,,,,None,None,955.5972189,957.4965571,,,,,,,,,,,954.7864897,954.7864897,954.7864897,954.7864897,954.7864897,,,,259,f,22,2023-03-26_10h39.54.249,RL,2022.2.4,60.11306065
0,0.3,0.225,0,75,75,75,,,,,,,,,,q,1013.245752,1013.245752,1013.245752,1013.245752,1013.245752,1013.245752,f,1.2411747,1014.511403,1014.511403,1014.511403,1014.511403,1014.511403,1014.511403,1014.80708,1014.80708,1015.904357,1015.904357,1015.904357,1015.904357,1015.904357,1015.904357,1015.904357,1015.904357,1015.904357,1015.904357,1015.904357,1015.904357,1015.904357,1015.904357,1015.904357,1015.904357,1015.904357,48,38,71,34,38,70,None,None,,,,,,,,,,,,,[],[],[],[],[],[],[],0.6,1,80,[-0.03981481481481482],[-0.28055555555555556],[1],[0],[0],[3.7701904999557883],['tijiao_random_2'],1022.207422,1022.207422,1022.207422,1022.207422,3.712962963,2.3541999,1024.579303,1026.226028,1018.424607,1018.424607,1018.424607,1018.424607,1018.424607,1018.424607,1018.424607,1018.424607,0.007186,1018.424607,,,,,,957.4965571,957.4965571,55.716446,259,f,22,2023-03-26_10h39.54.249,RL,2022.2.4,60.11306065
1,-0.3,-0.225,0,76,76,76,,,,,,,,,,None,1026.226028,1026.226028,1026.226028,1026.226028,1026.226028,1026.226028,j,0.2688655,1026.529068,1026.529068,1026.529068,1026.529068,1026.529068,1026.529068,1026.824604,1026.824604,1028.10395,1028.10395,1028.10395,1028.10395,1028.10395,1028.10395,1028.10395,1028.10395,1028.10395,1028.10395,1028.10395,1028.10395,1028.10395,1028.10395,1028.10395,1028.10395,1028.10395,34,41,68,26,26,67,None,None,1030.616449,1030.616449,1030.616449,1030.616449,1030.616449,1030.616449,1030.616449,1030.616449,0.0076339,1030.616449,60,60,[0.017592592592592594],[-0.3111111111111111],[1],[0],[0],[5.706569199974183],['tijiao'],-0.2,0,,[],[],[],[],[],[],[],1036.345484,1036.345484,1036.345484,1036.345484,2.259259259,2.0274721,1038.391592,1040.221007,,,,,,,,,,,,,,,,,,,259,f,22,2023-03-26_10h39.54.249,RL,2022.2.4,60.11306065
0,0.3,0.225,0,77,77,77,,,,,,,,,,None,1040.221007,1040.221007,1040.221007,1040.221007,1040.221007,1040.221007,j,0.2651644,1040.506631,1040.506631,1040.506631,1040.506631,1040.506631,1040.506631,1040.802781,1040.802781,1042.547909,1042.547909,1042.547909,1042.547909,1042.547909,1042.547909,1042.547909,1042.547909,1042.547909,1042.547909,1042.547909,1042.547909,1042.547909,1042.547909,1042.547909,1042.547909,1042.547909,42,40,72,36,36,37,None,None,1045.060141,1045.060141,1045.060141,1045.060141,1045.060141,1045.060141,1045.060141,1045.060141,0.0074056,1045.060141,20,20,[0.027777777777777776],[-0.287962962962963],[1],[0],[0],[11.07502350001596],['tijiao'],-0.2,0,,[],[],[],[],[],[],[],1056.156767,1056.156767,1056.156767,1056.156767,3.833333333,2.3280063,1058.503426,1060.282937,,,,,,,,,,,,,,,,,,,259,f,22,2023-03-26_10h39.54.249,RL,2022.2.4,60.11306065
1,-0.3,-0.225,0,78,78,78,,,,,,,,,,None,1060.282937,1060.282937,1060.282937,1060.282937,1060.282937,1060.282937,f,0.308515,1060.618136,1060.618136,1060.618136,1060.618136,1060.618136,1060.618136,1060.914511,1060.914511,1062.609911,1062.609911,1062.609911,1062.609911,1062.609911,1062.609911,1062.609911,1062.609911,1062.609911,1062.609911,1062.609911,1062.609911,1062.609911,1062.609911,1062.609911,1062.609911,1062.609911,42,41,74,33,41,65,3,2.1926985,,,,,,,,,,,,,[],[],[],[],[],[],[],0.2,2,,[],[],[],[],[],[],[],,,,,None,None,1067.33735,1069.009134,,,,,,,,,,,1065.119006,1065.119006,1065.119006,1065.119006,1065.119006,,,,259,f,22,2023-03-26_10h39.54.249,RL,2022.2.4,60.11306065
0,0.3,0.225,0,79,79,79,,,,,,,,,,None,1069.009134,1069.009134,1069.009134,1069.009134,1069.009134,1069.009134,r,0.4137026,1069.442708,1069.442708,1069.442708,1069.442708,1069.442708,1069.442708,1069.740752,1069.740752,1071.685526,1071.685526,1071.685526,1071.685526,1071.685526,1071.685526,1071.685526,1071.685526,1071.685526,1071.685526,1071.685526,1071.685526,1071.685526,1071.685526,1071.685526,1071.685526,1071.685526,40,36,69,35,40,72,None,None,1074.195514,1074.195514,1074.195514,1074.195514,1074.195514,1074.195514,1074.195514,1074.195514,0.0056516,1074.195514,50,50,[-0.03518518518518519],[-0.3],[1],[0],[0],[5.144261799985543],['tijiao'],0.6,0,,[],[],[],[],[],[],[],1079.361177,1079.361177,1079.361177,1079.361177,4.805555556,2.6595822,1082.039188,1083.951724,,,,,,,,,,,,,,,,,,,259,f,22,2023-03-26_10h39.54.249,RL,2022.2.4,60.11306065
1,-0.3,-0.225,0,80,80,80,,,,,,,,,,None,1083.951724,1083.951724,1083.951724,1083.951724,1083.951724,1083.951724,i,0.3066818,1084.28801,1084.28801,1084.28801,1084.28801,1084.28801,1084.28801,1084.583718,1084.583718,1086.52842,1086.52842,1086.52842,1086.52842,1086.52842,1086.52842,1086.52842,1086.52842,1086.52842,1086.52842,1086.52842,1086.52842,1086.52842,1086.52842,1086.52842,1086.52842,1086.52842,40,43,64,37,64,66,None,None,1089.041042,1089.041042,1089.041042,1089.041042,1089.041042,1089.041042,1089.041042,1089.041042,0.0084697,1089.041042,80,80,[0.06481481481481481],[-0.29814814814814816],[1],[0],[0],[4.243388400005642],['tijiao'],0.6,0,,[],[],[],[],[],[],[],1093.3086,1093.3086,1093.3086,1093.3086,5.111111111,2.0596528,1095.385883,1097.016271,,,,,,,,,,,,,,,,,,,259,f,22,2023-03-26_10h39.54.249,RL,2022.2.4,60.11306065
0,0.3,0.225,0,81,81,81,,,,,,,,,,None,1097.016271,1097.016271,1097.016271,1097.016271,1097.016271,1097.016271,i,0.3743187,1097.417966,1097.417966,1097.417966,1097.417966,1097.417966,1097.417966,1097.71464,1097.71464,1098.911171,1098.911171,1098.911171,1098.911171,1098.911171,1098.911171,1098.911171,1098.911171,1098.911171,1098.911171,1098.911171,1098.911171,1098.911171,1098.911171,1098.911171,1098.911171,1098.911171,34,32,67,30,67,76,4,1.6105153,,,,,,,,,,,,,[],[],[],[],[],[],[],-0.6,2,,[],[],[],[],[],[],[],,,,,None,None,1103.05702,1105.044307,,,,,,,,,,,1101.419893,1101.419893,1101.419893,1101.419893,1101.419893,,,,259,f,22,2023-03-26_10h39.54.249,RL,2022.2.4,60.11306065
1,-0.3,-0.225,0,82,82,82,,,,,,,,,,None,1105.044307,1105.044307,1105.044307,1105.044307,1105.044307,1105.044307,f,0.3528094,1105.428345,1105.428345,1105.428345,1105.428345,1105.428345,1105.428345,1105.725848,1105.725848,1106.972538,1106.972538,1106.972538,1106.972538,1106.972538,1106.972538,1106.972538,1106.972538,1106.972538,1106.972538,1106.972538,1106.972538,1106.972538,1106.972538,1106.972538,1106.972538,1106.972538,30,37,53,32,37,71,3,1.7612968,,,,,,,,,,,,,[],[],[],[],[],[],[],0.2,3,,[],[],[],[],[],[],[],,,,,None,None,1111.271067,1113.172317,,,,,,,,,,,1109.481218,1109.481218,1109.481218,1109.481218,1109.481218,,,,259,f,22,2023-03-26_10h39.54.249,RL,2022.2.4,60.11306065
0,0.3,0.225,0,83,83,83,,,,,,,,,,None,1113.172317,1113.172317,1113.172317,1113.172317,1113.172317,1113.172317,r,0.332175,1113.523985,1113.523985,1113.523985,1113.523985,1113.523985,1113.523985,1113.820414,1113.820414,1115.166599,1115.166599,1115.166599,1115.166599,1115.166599,1115.166599,1115.166599,1115.166599,1115.166599,1115.166599,1115.166599,1115.166599,1115.166599,1115.166599,1115.166599,1115.166599,1115.166599,39,47,61,32,39,66,None,None,1117.678865,1117.678865,1117.678865,1117.678865,1117.678865,1117.678865,1117.678865,1117.678865,0.0077037,1117.678865,25,25,[0.09166666666666666],[-0.2759259259259259],[1],[0],[0],[5.88984940003138],['tijiao'],0.2,0,,[],[],[],[],[],[],[],1123.589054,1123.589054,1123.589054,1123.589054,3.62037037,2.3269668,1125.919858,1127.848385,,,,,,,,,,,,,,,,,,,259,f,22,2023-03-26_10h39.54.249,RL,2022.2.4,60.11306065
1,-0.3,-0.225,0,84,84,84,,,,,,,,,,None,1127.848385,1127.848385,1127.848385,1127.848385,1127.848385,1127.848385,i,0.2776471,1128.151158,1128.151158,1128.151158,1128.151158,1128.151158,1128.151158,1128.447155,1128.447155,1129.82668,1129.82668,1129.82668,1129.82668,1129.82668,1129.82668,1129.82668,1129.82668,1129.82668,1129.82668,1129.82668,1129.82668,1129.82668,1129.82668,1129.82668,1129.82668,1129.82668,30,40,51,29,51,33,None,None,1132.338724,1132.338724,1132.338724,1132.338724,1132.338724,1132.338724,1132.338724,1132.338724,0.0074312,1132.338724,60,60,[0.028703703703703703],[-0.2916666666666667],[1],[0],[0],[3.2966322999564],['tijiao'],0.6,0,,[],[],[],[],[],[],[],1135.656815,1135.656815,1135.656815,1135.656815,5.907407407,2.1127549,1137.786976,1139.533055,,,,,,,,,,,,,,,,,,,259,f,22,2023-03-26_10h39.54.249,RL,2022.2.4,60.11306065
0,0.3,0.225,0,85,85,85,,,,,,,,,,None,1139.533055,1139.533055,1139.533055,1139.533055,1139.533055,1139.533055,i,0.2566835,1139.81926,1139.81926,1139.81926,1139.81926,1139.81926,1139.81926,1140.115523,1140.115523,1141.893744,1141.893744,1141.893744,1141.893744,1141.893744,1141.893744,1141.893744,1141.893744,1141.893744,1141.893744,1141.893744,1141.893744,1141.893744,1141.893744,1141.893744,1141.893744,1141.893744,40,41,56,45,56,70,None,None,1144.406538,1144.406538,1144.406538,1144.406538,1144.406538,1144.406538,1144.406538,1144.406538,0.0084432,1144.406538,80,80,[0.09166666666666666],[-0.28703703703703703],[1],[0],[0],[4.5423960000043735],['tijiao'],-0.2,0,,[],[],[],[],[],[],[],1148.973037,1148.973037,1148.973037,1148.973037,4.148148148,1.6125677,1150.602121,1152.481312,,,,,,,,,,,,,,,,,,,259,f,22,2023-03-26_10h39.54.249,RL,2022.2.4,60.11306065
1,-0.3,-0.225,0,86,86,86,,,,,,,,,,None,1152.481312,1152.481312,1152.481312,1152.481312,1152.481312,1152.481312,i,0.2705752,1152.782786,1152.782786,1152.782786,1152.782786,1152.782786,1152.782786,1153.079778,1153.079778,1154.808542,1154.808542,1154.808542,1154.808542,1154.808542,1154.808542,1154.808542,1154.808542,1154.808542,1154.808542,1154.808542,1154.808542,1154.808542,1154.808542,1154.808542,1154.808542,1154.808542,41,32,58,45,58,44,None,None,1157.319841,1157.319841,1157.319841,1157.319841,1157.319841,1157.319841,1157.319841,1157.319841,0.006673,1157.319841,40,40,[0.03981481481481482],[-0.3101851851851852],[1],[0],[0],[4.993070300028194],['tijiao'],-0.2,0,,[],[],[],[],[],[],[],1162.334774,1162.334774,1162.334774,1162.334774,5.009259259,2.8254845,1165.178969,1166.792298,,,,,,,,,,,,,,,,,,,259,f,22,2023-03-26_10h39.54.249,RL,2022.2.4,60.11306065
0,0.3,0.225,0,87,87,87,,,,,,,,,,None,1166.792298,1166.792298,1166.792298,1166.792298,1166.792298,1166.792298,j,0.2850118,1167.109838,1167.109838,1167.109838,1167.109838,1167.109838,1167.109838,1167.407582,1167.407582,1169.318585,1169.318585,1169.335719,1169.335719,1169.335719,1169.335719,1169.335719,1169.335719,1169.335719,1169.335719,1169.335719,1169.335719,1169.335719,1169.335719,1169.335719,1169.335719,1169.335719,33,41,63,42,42,77,3,2.4920868,,,,,,,,,,,,,[],[],[],[],[],[],[],-0.6,2,,[],[],[],[],[],[],[],,,,,None,None,1174.366808,1175.950608,,,,,,,,,,,1171.844755,1171.844755,1171.844755,1171.844755,1171.844755,,,,259,f,22,2023-03-26_10h39.54.249,RL,2022.2.4,60.11306065
1,-0.3,-0.225,0,88,88,88,,,,,,,,,,None,1175.950608,1175.950608,1175.950608,1175.950608,1175.950608,1175.950608,i,0.3483893,1176.318207,1176.318207,1176.318207,1176.318207,1176.318207,1176.318207,1176.615936,1176.615936,1178.526844,1178.526844,1178.526844,1178.526844,1178.526844,1178.526844,1178.526844,1178.526844,1178.526844,1178.526844,1178.526844,1178.526844,1178.526844,1178.526844,1178.526844,1178.526844,1178.526844,31,43,55,35,55,70,None,None,1181.041203,1181.041203,1181.041203,1181.041203,1181.041203,1181.041203,1181.041203,1181.041203,0.0091375,1181.041203,60,60,[-0.000925925925925926],[-0.3],[1],[0],[0],[3.1289982000016607],['tijiao'],0.6,0,,[],[],[],[],[],[],[],1184.19253,1184.19253,1184.19253,1184.19253,3.481481481,1.8121975,1186.009711,1187.652128,,,,,,,,,,,,,,,,,,,259,f,22,2023-03-26_10h39.54.249,RL,2022.2.4,60.11306065
0,0.3,0.225,0,89,89,89,,,,,,,,,,None,1187.652128,1187.652128,1187.652128,1187.652128,1187.652128,1187.652128,i,0.3107211,1187.986507,1187.986507,1187.986507,1187.986507,1187.986507,1187.986507,1188.284118,1188.284118,1189.430745,1189.430745,1189.430745,1189.430745,1189.430745,1189.430745,1189.430745,1189.430745,1189.430745,1189.430745,1189.430745,1189.430745,1189.430745,1189.430745,1189.430745,1189.430745,1189.430745,35,47,50,34,50,68,None,None,,,,,,,,,,,,,[],[],[],[],[],[],[],0.2,1,70,[-0.023148148148148147],[-0.3055555555555556],[1],[0],[0],[3.7534356000251137],['tijiao_random_2'],1195.718096,1195.718096,1195.718096,1195.718096,5.324074074,1.0398156,1196.776144,1198.588976,1191.951274,1191.951274,1191.951274,1191.951274,1191.951274,1191.951274,1191.951274,1191.951274,0.0067305,1191.951274,,,,,,,,,259,f,22,2023-03-26_10h39.54.249,RL,2022.2.4,60.11306065
1,-0.3,-0.225,0,90,90,90,,,,,,,,,,None,1198.588976,1198.588976,1198.588976,1198.588976,1198.588976,1198.588976,i,0.3331482,1198.957555,1198.957555,1198.957555,1198.957555,1198.957555,1198.957555,1199.253812,1199.253812,1200.566873,1200.566873,1200.566873,1200.566873,1200.566873,1200.566873,1200.566873,1200.566873,1200.566873,1200.566873,1200.566873,1200.566873,1200.566873,1200.566873,1200.566873,1200.566873,1200.566873,42,50,52,39,52,71,None,None,,,,,,,,,,,,,[],[],[],[],[],[],[],-0.2,1,60,[0.024074074074074074],[-0.29814814814814816],[1],[0],[0],[3.8376612000283785],['tijiao_random_2'],1206.937566,1206.937566,1206.937566,1206.937566,2.564814815,2.3866737,1209.341781,1211.254109,1203.086251,1203.086251,1203.086251,1203.086251,1203.086251,1203.086251,1203.086251,1203.086251,0.0070277,1203.086251,,,,,,,,,259,f,22,2023-03-26_10h39.54.249,RL,2022.2.4,60.11306065
0,0.3,0.225,0,91,91,91,,,,,,,,,,None,1211.254109,1211.254109,1211.254109,1211.254109,1211.254109,1211.254109,f,0.3019144,1211.590122,1211.590122,1211.590122,1211.590122,1211.590122,1211.590122,1211.886611,1211.886611,1213.581679,1213.581679,1213.581679,1213.581679,1213.581679,1213.581679,1213.581679,1213.581679,1213.581679,1213.581679,1213.581679,1213.581679,1213.581679,1213.581679,1213.581679,1213.581679,1213.581679,39,48,64,40,48,40,4,1.678363,,,,,,,,,,,,,[],[],[],[],[],[],[],-0.2,3,,[],[],[],[],[],[],[],,,,,None,None,1217.795099,1219.581767,,,,,,,,,,,1216.090475,1216.090475,1216.090475,1216.090475,1216.090475,,,,259,f,22,2023-03-26_10h39.54.249,RL,2022.2.4,60.11306065
1,-0.3,-0.225,0,92,92,92,,,,,,,,,,None,1219.581767,1219.581767,1219.581767,1219.581767,1219.581767,1219.581767,f,0.4659918,1220.080461,1220.080461,1220.080461,1220.080461,1220.080461,1220.080461,1220.379188,1220.379188,1222.257937,1222.257937,1222.257937,1222.257937,1222.257937,1222.257937,1222.257937,1222.257937,1222.257937,1222.257937,1222.257937,1222.257937,1222.257937,1222.257937,1222.257937,1222.257937,1222.257937,35,48,47,44,48,69,4,1.8935754,,,,,,,,,,,,,[],[],[],[],[],[],[],0.6,3,,[],[],[],[],[],[],[],,,,,None,None,1226.685971,1228.623396,,,,,,,,,,,1224.766989,1224.766989,1224.766989,1224.766989,1224.766989,,,,259,f,22,2023-03-26_10h39.54.249,RL,2022.2.4,60.11306065
0,0.3,0.225,0,93,93,93,,,,,,,,,,None,1228.623396,1228.623396,1228.623396,1228.623396,1228.623396,1228.623396,r,0.8403161,1229.489892,1229.489892,1229.489892,1229.489892,1229.489892,1229.489892,1229.787364,1229.787364,1230.834398,1230.834398,1230.850819,1230.850819,1230.850819,1230.850819,1230.850819,1230.850819,1230.850819,1230.850819,1230.850819,1230.850819,1230.850819,1230.850819,1230.850819,1230.850819,1230.850819,36,43,53,47,36,73,None,None,,,,,,,,,,,,,[],[],[],[],[],[],[],0.2,1,60,[0.08703703703703704],[-0.275],[1],[0],[0],[7.510334499995224],['tijiao_random_2'],1240.893924,1240.893924,1240.893924,1240.893924,3.972222222,1.9546747,1242.866913,1244.67977,1233.37119,1233.37119,1233.37119,1233.37119,1233.37119,1233.37119,1233.37119,1233.37119,0.0059253,1233.37119,,,,,,,,,259,f,22,2023-03-26_10h39.54.249,RL,2022.2.4,60.11306065
1,-0.3,-0.225,0,94,94,94,,,,,,,,,,None,1244.67977,1244.67977,1244.67977,1244.67977,1244.67977,1244.67977,i,0.3035249,1245.01508,1245.01508,1245.01508,1245.01508,1245.01508,1245.01508,1245.311682,1245.311682,1246.191759,1246.191759,1246.208399,1246.208399,1246.208399,1246.208399,1246.208399,1246.208399,1246.208399,1246.208399,1246.208399,1246.208399,1246.208399,1246.208399,1246.208399,1246.208399,1246.208399,37,41,53,44,53,62,None,None,,,,,,,,,,,,,[],[],[],[],[],[],[],0.6,1,70,[-0.016666666666666666],[-0.2935185185185185],[1],[0],[0],[5.033144099987112],['tijiao_random_2'],1253.775756,1253.775756,1253.775756,1253.775756,2.111111111,2.1542265,1255.948006,1257.86041,1248.729227,1248.729227,1248.729227,1248.729227,1248.729227,1248.729227,1248.729227,1248.729227,0.0065686,1248.729227,,,,,,,,,259,f,22,2023-03-26_10h39.54.249,RL,2022.2.4,60.11306065
0,0.3,0.225,0,95,95,95,,,,,,,,,,None,1257.86041,1257.86041,1257.86041,1257.86041,1257.86041,1257.86041,j,0.283956,1258.177137,1258.177137,1258.177137,1258.177137,1258.177137,1258.177137,1258.475786,1258.475786,1260.420138,1260.420138,1260.420138,1260.420138,1260.420138,1260.420138,1260.420138,1260.420138,1260.420138,1260.420138,1260.420138,1260.420138,1260.420138,1260.420138,1260.420138,1260.420138,1260.420138,33,43,49,43,43,69,2,1.7610664,,,,,,,,,,,,,[],[],[],[],[],[],[],-0.2,3,,[],[],[],[],[],[],[],,,,,None,None,1264.718719,1266.636454,,,,,,,,,,,1262.928981,1262.928981,1262.928981,1262.928981,1262.928981,,,,259,f,22,2023-03-26_10h39.54.249,RL,2022.2.4,60.11306065
1,-0.3,-0.225,0,96,96,96,,,,,,,,,,None,1266.636454,1266.636454,1266.636454,1266.636454,1266.636454,1266.636454,f,0.5048868,1267.17112,1267.17112,1267.17112,1267.17112,1267.17112,1267.17112,1267.468021,1267.468021,1268.980153,1268.980153,1268.997128,1268.997128,1268.997128,1268.997128,1268.997128,1268.997128,1268.997128,1268.997128,1268.997128,1268.997128,1268.997128,1268.997128,1268.997128,1268.997128,1268.997128,36,44,46,41,44,53,3,2.0436993,,,,,,,,,,,,,[],[],[],[],[],[],[],-0.2,3,,[],[],[],[],[],[],[],,,,,None,None,1273.577405,1275.396066,,,,,,,,,,,1271.505862,1271.505862,1271.505862,1271.505862,1271.505862,,,,259,f,22,2023-03-26_10h39.54.249,RL,2022.2.4,60.11306065
0,0.3,0.225,0,97,97,97,,,,,,,,,,None,1275.396066,1275.396066,1275.396066,1275.396066,1275.396066,1275.396066,f,0.631209,1276.045078,1276.045078,1276.045078,1276.045078,1276.045078,1276.045078,1276.343636,1276.343636,1277.772972,1277.772972,1277.772972,1277.772972,1277.772972,1277.772972,1277.772972,1277.772972,1277.772972,1277.772972,1277.772972,1277.772972,1277.772972,1277.772972,1277.772972,1277.772972,1277.772972,31,41,48,48,41,45,3,1.5780228,,,,,,,,,,,,,[],[],[],[],[],[],[],0.6,3,,[],[],[],[],[],[],[],,,,,None,None,1281.885807,1283.773278,,,,,,,,,,,1280.281758,1280.281758,1280.281758,1280.281758,1280.281758,,,,259,f,22,2023-03-26_10h39.54.249,RL,2022.2.4,60.11306065
1,-0.3,-0.225,0,98,98,98,,,,,,,,,,None,1283.773278,1283.773278,1283.773278,1283.773278,1283.773278,1283.773278,i,0.3011352,1284.10571,1284.10571,1284.10571,1284.10571,1284.10571,1284.10571,1284.405011,1284.405011,1286.366156,1286.366156,1286.366156,1286.366156,1286.366156,1286.366156,1286.366156,1286.366156,1286.366156,1286.366156,1286.366156,1286.366156,1286.366156,1286.366156,1286.366156,1286.366156,1286.366156,29,40,48,43,48,63,None,None,1288.877895,1288.877895,1288.877895,1288.877895,1288.877895,1288.877895,1288.877895,1288.877895,0.0071189,1288.877895,50,50,[0.04351851851851852],[-0.31666666666666665],[1],[0],[0],[7.021027999988291],['tijiao'],0.2,0,,[],[],[],[],[],[],[],1295.921503,1295.921503,1295.921503,1295.921503,4.990740741,1.6939091,1297.63436,1299.54681,,,,,,,,,,,,,,,,,,,259,f,22,2023-03-26_10h39.54.249,RL,2022.2.4,60.11306065
0,0.3,0.225,0,99,99,99,,,,,,,,,,None,1299.54681,1299.54681,1299.54681,1299.54681,1299.54681,1299.54681,i,0.3130526,1299.881555,1299.881555,1299.881555,1299.881555,1299.881555,1299.881555,1300.178624,1300.178624,1301.408643,1301.408643,1301.408643,1301.408643,1301.408643,1301.408643,1301.408643,1301.408643,1301.408643,1301.408643,1301.408643,1301.408643,1301.408643,1301.408643,1301.408643,1301.408643,1301.408643,30,51,58,43,58,70,3,1.7443577,,,,,,,,,,,,,[],[],[],[],[],[],[],0.6,2,,[],[],[],[],[],[],[],,,,,None,None,1305.690324,1307.308659,,,,,,,,,,,1303.917606,1303.917606,1303.917606,1303.917606,1303.917606,,,,259,f,22,2023-03-26_10h39.54.249,RL,2022.2.4,60.11306065
1,-0.3,-0.225,0,100,100,100,,,,,,,,,,None,1307.308659,1307.308659,1307.308659,1307.308659,1307.308659,1307.308659,j,0.47329,1307.808765,1307.808765,1307.808765,1307.808765,1307.808765,1307.808765,1308.106906,1308.106906,1309.070749,1309.070749,1309.087728,1309.087728,1309.087728,1309.087728,1309.087728,1309.087728,1309.087728,1309.087728,1309.087728,1309.087728,1309.087728,1309.087728,1309.087728,1309.087728,1309.087728,32,47,54,42,42,30,None,None,,,,,,,,,,,,,[],[],[],[],[],[],[],-0.2,1,60,[-0.03888888888888889],[-0.2824074074074074],[1],[0],[0],[5.396313500008546],['tijiao_random_2'],1317.016967,1317.016967,1317.016967,1317.016967,4.944444444,2.023832,1319.059417,1320.954885,1311.609823,1311.609823,1311.609823,1311.609823,1311.609823,1311.609823,1311.609823,1311.609823,0.0068244,1311.609823,,,,,,,,,259,f,22,2023-03-26_10h39.54.249,RL,2022.2.4,60.11306065
0,0.3,0.225,0,101,101,101,,,,,,,,,,None,1320.954885,1320.954885,1320.954885,1320.954885,1320.954885,1320.954885,f,0.3092064,1321.291049,1321.291049,1321.291049,1321.291049,1321.291049,1321.291049,1321.586985,1321.586985,1322.600572,1322.600572,1322.600572,1322.600572,1322.600572,1322.600572,1322.600572,1322.600572,1322.600572,1322.600572,1322.600572,1322.600572,1322.600572,1322.600572,1322.600572,1322.600572,1322.600572,36,53,55,36,53,72,3,1.3448517,,,,,,,,,,,,,[],[],[],[],[],[],[],-0.6,3,,[],[],[],[],[],[],[],,,,,None,None,1326.483855,1328.002453,,,,,,,,,,,1325.109796,1325.109796,1325.109796,1325.109796,1325.109796,,,,259,f,22,2023-03-26_10h39.54.249,RL,2022.2.4,60.11306065
1,-0.3,-0.225,0,102,102,102,,,,,,,,,,None,1328.002453,1328.002453,1328.002453,1328.002453,1328.002453,1328.002453,r,0.6236461,1328.652346,1328.652346,1328.652346,1328.652346,1328.652346,1328.652346,1328.949817,1328.949817,1329.880881,1329.880881,1329.880881,1329.880881,1329.880881,1329.880881,1329.880881,1329.880881,1329.880881,1329.880881,1329.880881,1329.880881,1329.880881,1329.880881,1329.880881,1329.880881,1329.880881,27,51,55,45,27,27,5,4.4869624,,,,,,,,,,,,,[],[],[],[],[],[],[],0.2,2,,[],[],[],[],[],[],[],,,,,None,None,1336.905458,1338.424134,,,,,,,,,,,1332.389922,1332.389922,1332.389922,1332.389922,1332.389922,,,,259,f,22,2023-03-26_10h39.54.249,RL,2022.2.4,60.11306065
0,0.3,0.225,0,103,103,103,,,,,,,,,,None,1338.424134,1338.424134,1338.424134,1338.424134,1338.424134,1338.424134,f,0.5775017,1339.023497,1339.023497,1339.023497,1339.023497,1339.023497,1339.023497,1339.321852,1339.321852,1340.252427,1340.252427,1340.252427,1340.252427,1340.252427,1340.252427,1340.252427,1340.252427,1340.252427,1340.252427,1340.252427,1340.252427,1340.252427,1340.252427,1340.252427,1340.252427,1340.252427,39,52,50,44,52,66,4,1.3283337,,,,,,,,,,,,,[],[],[],[],[],[],[],-0.6,2,,[],[],[],[],[],[],[],,,,,None,None,1344.116622,1345.886956,,,,,,,,,,,1342.761696,1342.761696,1342.761696,1342.761696,1342.761696,,,,259,f,22,2023-03-26_10h39.54.249,RL,2022.2.4,60.11306065
1,-0.3,-0.225,0,104,104,104,,,,,,,,,,None,1345.886956,1345.886956,1345.886956,1345.886956,1345.886956,1345.886956,j,0.4161999,1346.339625,1346.339625,1346.339625,1346.339625,1346.339625,1346.339625,1346.635061,1346.635061,1348.264025,1348.264025,1348.264025,1348.264025,1348.264025,1348.264025,1348.264025,1348.264025,1348.264025,1348.264025,1348.264025,1348.264025,1348.264025,1348.264025,1348.264025,1348.264025,1348.264025,40,54,49,42,42,65,4,2.2430679,,,,,,,,,,,,,[],[],[],[],[],[],[],-0.2,2,,[],[],[],[],[],[],[],,,,,None,None,1353.044862,1354.596259,,,,,,,,,,,1350.772707,1350.772707,1350.772707,1350.772707,1350.772707,,,,259,f,22,2023-03-26_10h39.54.249,RL,2022.2.4,60.11306065
0,0.3,0.225,0,105,105,105,,,,,,,,,,None,1354.596259,1354.596259,1354.596259,1354.596259,1354.596259,1354.596259,i,0.303651,1354.931766,1354.931766,1354.931766,1354.931766,1354.931766,1354.931766,1355.228079,1355.228079,1356.3086,1356.3086,1356.3086,1356.3086,1356.3086,1356.3086,1356.3086,1356.3086,1356.3086,1356.3086,1356.3086,1356.3086,1356.3086,1356.3086,1356.3086,1356.3086,1356.3086,39,44,54,46,54,70,None,None,,,,,,,,,,,,,[],[],[],[],[],[],[],-0.6,1,40,[0.07314814814814814],[-0.28425925925925927],[1],[0],[0],[5.1131048000534065],['tijiao_random_2'],1363.956934,1363.956934,1363.956934,1363.956934,3.611111111,1.5410486,1365.515522,1367.245183,1358.831236,1358.831236,1358.831236,1358.831236,1358.831236,1358.831236,1358.831236,1358.831236,0.0082165,1358.831236,,,,,,,,,259,f,22,2023-03-26_10h39.54.249,RL,2022.2.4,60.11306065
1,-0.3,-0.225,0,106,106,106,,,,,,,,,,None,1367.245183,1367.245183,1367.245183,1367.245183,1367.245183,1367.245183,f,0.6317648,1367.896182,1367.896182,1367.896182,1367.896182,1367.896182,1367.896182,1368.192999,1368.192999,1369.688711,1369.688711,1369.688711,1369.688711,1369.688711,1369.688711,1369.688711,1369.688711,1369.688711,1369.688711,1369.688711,1369.688711,1369.688711,1369.688711,1369.688711,1369.688711,1369.688711,44,59,50,39,59,61,4,2.043878,,,,,,,,,,,,,[],[],[],[],[],[],[],-0.6,3,,[],[],[],[],[],[],[],,,,,None,None,1374.270052,1376.120953,,,,,,,,,,,1372.197938,1372.197938,1372.197938,1372.197938,1372.197938,,,,259,f,22,2023-03-26_10h39.54.249,RL,2022.2.4,60.11306065
0,0.3,0.225,0,107,107,107,,,,,,,,,,None,1376.120953,1376.120953,1376.120953,1376.120953,1376.120953,1376.120953,i,0.2942445,1376.439738,1376.439738,1376.439738,1376.439738,1376.439738,1376.439738,1376.736513,1376.736513,1377.982744,1377.982744,1377.982744,1377.982744,1377.982744,1377.982744,1377.982744,1377.982744,1377.982744,1377.982744,1377.982744,1377.982744,1377.982744,1377.982744,1377.982744,1377.982744,1377.982744,43,62,45,41,45,55,None,None,,,,,,,,,,,,,[],[],[],[],[],[],[],0.2,1,70,[0.10092592592592593],[-0.28425925925925927],[1],[0],[0],[11.415250899968669],['tijiao_random_2'],1391.93134,1391.93134,1391.93134,1391.93134,1.962962963,3.4115191,1395.35132,1397.213465,1380.503539,1380.503539,1380.503539,1380.503539,1380.503539,1380.503539,1380.503539,1380.503539,0.0066256,1380.503539,,,,,,,,,259,f,22,2023-03-26_10h39.54.249,RL,2022.2.4,60.11306065
1,-0.3,-0.225,0,108,108,108,,,,,,,,,,None,1397.213465,1397.213465,1397.213465,1397.213465,1397.213465,1397.213465,r,0.3345672,1397.581955,1397.581955,1397.581955,1397.581955,1397.581955,1397.581955,1397.878458,1397.878458,1399.008787,1399.008787,1399.008787,1399.008787,1399.008787,1399.008787,1399.008787,1399.008787,1399.008787,1399.008787,1399.008787,1399.008787,1399.008787,1399.008787,1399.008787,1399.008787,1399.008787,40,52,50,44,40,56,None,None,,,,,,,,,,,,,[],[],[],[],[],[],[],-0.6,1,85,[-0.06481481481481481],[-0.2953703703703704],[1],[0],[0],[11.267253900005016],['tijiao_random_2'],1412.812003,1412.812003,1412.812003,1412.812003,2.185185185,1.9197168,1414.748019,1416.327654,1401.528605,1401.528605,1401.528605,1401.528605,1401.528605,1401.528605,1401.528605,1401.528605,0.0066796,1401.528605,,,,,,,,,259,f,22,2023-03-26_10h39.54.249,RL,2022.2.4,60.11306065
0,0.3,0.225,0,109,109,109,,,,,,,,,,None,1416.327654,1416.327654,1416.327654,1416.327654,1416.327654,1416.327654,i,0.4572816,1416.812002,1416.812002,1416.812002,1416.812002,1416.812002,1416.812002,1417.1095,1417.1095,1418.139821,1418.139821,1418.139821,1418.139821,1418.139821,1418.139821,1418.139821,1418.139821,1418.139821,1418.139821,1418.139821,1418.139821,1418.139821,1418.139821,1418.139821,1418.139821,1418.139821,45,50,42,46,42,61,None,None,1420.651636,1420.651636,1420.651636,1420.651636,1420.651636,1420.651636,1420.651636,1420.651636,0.0070558,1420.651636,50,50,[-0.013888888888888888],[-0.30833333333333335],[1],[0],[0],[3.745905000017956],['tijiao'],0.6,0,,[],[],[],[],[],[],[],1424.419034,1424.419034,1424.419034,1424.419034,4.25,2.5938977,1427.031422,1428.927008,,,,,,,,,,,,,,,,,,,259,f,22,2023-03-26_10h39.54.249,RL,2022.2.4,60.11306065
1,-0.3,-0.225,0,110,110,110,,,,,,,,,,None,1428.927008,1428.927008,1428.927008,1428.927008,1428.927008,1428.927008,i,0.2799158,1429.229015,1429.229015,1429.229015,1429.229015,1429.229015,1429.229015,1429.525628,1429.525628,1430.48955,1430.48955,1430.48955,1430.48955,1430.48955,1430.48955,1430.48955,1430.48955,1430.48955,1430.48955,1430.48955,1430.48955,1430.48955,1430.48955,1430.48955,1430.48955,1430.48955,34,40,46,40,46,58,None,None,,,,,,,,,,,,,[],[],[],[],[],[],[],0.6,1,65,[0.10092592592592593],[-0.2935185185185185],[1],[0],[0],[3.802554499998223],['tijiao_random_2'],1436.825221,1436.825221,1436.825221,1436.825221,5.324074074,2.0386076,1438.882078,1440.628028,1433.010523,1433.010523,1433.010523,1433.010523,1433.010523,1433.010523,1433.010523,1433.010523,0.0068846,1433.010523,,,,,,,,,259,f,22,2023-03-26_10h39.54.249,RL,2022.2.4,60.11306065
0,0.3,0.225,0,111,111,111,,,,,,,,,,None,1440.628028,1440.628028,1440.628028,1440.628028,1440.628028,1440.628028,j,0.2791465,1440.930596,1440.930596,1440.930596,1440.930596,1440.930596,1440.930596,1441.22688,1441.22688,1442.93884,1442.93884,1442.93884,1442.93884,1442.93884,1442.93884,1442.93884,1442.93884,1442.93884,1442.93884,1442.93884,1442.93884,1442.93884,1442.93884,1442.93884,1442.93884,1442.93884,45,53,52,48,48,50,4,2.0435584,,,,,,,,,,,,,[],[],[],[],[],[],[],-0.2,2,,[],[],[],[],[],[],[],,,,,None,None,1447.5187,1449.254517,,,,,,,,,,,1445.447986,1445.447986,1445.447986,1445.447986,1445.447986,,,,259,f,22,2023-03-26_10h39.54.249,RL,2022.2.4,60.11306065
1,-0.3,-0.225,0,112,112,112,,,,,,,,,,None,1449.254517,1449.254517,1449.254517,1449.254517,1449.254517,1449.254517,f,0.4390031,1449.724201,1449.724201,1449.724201,1449.724201,1449.724201,1449.724201,1450.019554,1450.019554,1451.232695,1451.232695,1451.232695,1451.232695,1451.232695,1451.232695,1451.232695,1451.232695,1451.232695,1451.232695,1451.232695,1451.232695,1451.232695,1451.232695,1451.232695,1451.232695,1451.232695,41,40,49,48,40,60,4,2.0597841,,,,,,,,,,,,,[],[],[],[],[],[],[],-0.6,2,,[],[],[],[],[],[],[],,,,,None,None,1455.827659,1457.748478,,,,,,,,,,,1453.741727,1453.741727,1453.741727,1453.741727,1453.741727,,,,259,f,22,2023-03-26_10h39.54.249,RL,2022.2.4,60.11306065
0,0.3,0.225,0,113,113,113,,,,,,,,,,None,1457.748478,1457.748478,1457.748478,1457.748478,1457.748478,1457.748478,j,0.546185,1458.316776,1458.316776,1458.316776,1458.316776,1458.316776,1458.316776,1458.612994,1458.612994,1459.427372,1459.427372,1459.427372,1459.427372,1459.427372,1459.427372,1459.427372,1459.427372,1459.427372,1459.427372,1459.427372,1459.427372,1459.427372,1459.427372,1459.427372,1459.427372,1459.427372,32,33,45,40,40,66,None,None,,,,,,,,,,,,,[],[],[],[],[],[],[],0.6,1,70,[0.03981481481481482],[-0.27685185185185185],[1],[0],[0],[13.60988920001546],['tijiao_random_2'],1475.569558,1475.569558,1475.569558,1475.569558,2.685185185,1.7061166,1477.293989,1478.923923,1461.94647,1461.94647,1461.94647,1461.94647,1461.94647,1461.94647,1461.94647,1461.94647,0.0059383,1461.94647,,,,,,,,,259,f,22,2023-03-26_10h39.54.249,RL,2022.2.4,60.11306065
1,-0.3,-0.225,0,114,114,114,,,,,,,,,,None,1478.923923,1478.923923,1478.923923,1478.923923,1478.923923,1478.923923,j,0.3962627,1479.34161,1479.34161,1479.34161,1479.34161,1479.34161,1479.34161,1479.638629,1479.638629,1480.602649,1480.602649,1480.602649,1480.602649,1480.602649,1480.602649,1480.602649,1480.602649,1480.602649,1480.602649,1480.602649,1480.602649,1480.602649,1480.602649,1480.602649,1480.602649,1480.602649,30,38,51,44,44,55,None,None,1483.115125,1483.115125,1483.115125,1483.115125,1483.115125,1483.115125,1483.115125,1483.115125,0.0073073,1483.115125,60,60,[0.023148148148148147],[-0.2777777777777778],[1],[0],[0],[5.409249300020747],['tijiao'],-0.2,0,,[],[],[],[],[],[],[],1488.547517,1488.547517,1488.547517,1488.547517,3.814814815,1.3609757,1489.926092,1491.688851,,,,,,,,,,,,,,,,,,,259,f,22,2023-03-26_10h39.54.249,RL,2022.2.4,60.11306065
0,0.3,0.225,0,115,115,115,,,,,,,,,,None,1491.688851,1491.688851,1491.688851,1491.688851,1491.688851,1491.688851,j,0.363488,1492.074703,1492.074703,1492.074703,1492.074703,1492.074703,1492.074703,1492.370941,1492.370941,1493.617034,1493.617034,1493.617034,1493.617034,1493.617034,1493.617034,1493.617034,1493.617034,1493.617034,1493.617034,1493.617034,1493.617034,1493.617034,1493.617034,1493.617034,1493.617034,1493.617034,31,37,50,43,43,27,5,2.4258172,,,,,,,,,,,,,[],[],[],[],[],[],[],-0.2,2,,[],[],[],[],[],[],[],,,,,None,None,1498.577515,1500.365399,,,,,,,,,,,1496.126419,1496.126419,1496.126419,1496.126419,1496.126419,,,,259,f,22,2023-03-26_10h39.54.249,RL,2022.2.4,60.11306065
1,-0.3,-0.225,0,116,116,116,,,,,,,,,,None,1500.365399,1500.365399,1500.365399,1500.365399,1500.365399,1500.365399,r,0.653706,1501.049612,1501.049612,1501.049612,1501.049612,1501.049612,1501.049612,1501.346362,1501.346362,1503.290804,1503.290804,1503.290804,1503.290804,1503.290804,1503.290804,1503.290804,1503.290804,1503.290804,1503.290804,1503.290804,1503.290804,1503.290804,1503.290804,1503.290804,1503.290804,1503.290804,32,41,45,33,32,41,None,None,1505.802626,1505.802626,1505.802626,1505.802626,1505.802626,1505.802626,1505.802626,1505.802626,0.0070764,1505.802626,40,40,[0.08055555555555556],[-0.2851851851851852],[1],[0],[0],[6.172839400009252],['tijiao'],0.6,0,,[],[],[],[],[],[],[],1511.997672,1511.997672,1511.997672,1511.997672,4.462962963,1.3796573,1513.395563,1515.308079,,,,,,,,,,,,,,,,,,,259,f,22,2023-03-26_10h39.54.249,RL,2022.2.4,60.11306065
0,0.3,0.225,0,117,117,117,,,,,,,,,,None,1515.308079,1515.308079,1515.308079,1515.308079,1515.308079,1515.308079,r,0.3455174,1515.673759,1515.673759,1515.673759,1515.673759,1515.673759,1515.673759,1515.972926,1515.972926,1517.501869,1517.501869,1517.51872,1517.51872,1517.51872,1517.51872,1517.51872,1517.51872,1517.51872,1517.51872,1517.51872,1517.51872,1517.51872,1517.51872,1517.51872,1517.51872,1517.51872,24,37,50,37,24,68,2,1.7107026,,,,,,,,,,,,,[],[],[],[],[],[],[],0.6,2,,[],[],[],[],[],[],[],,,,,None,None,1521.767049,1523.551897,,,,,,,,,,,1520.02795,1520.02795,1520.02795,1520.02795,1520.02795,,,,259,f,22,2023-03-26_10h39.54.249,RL,2022.2.4,60.11306065
1,-0.3,-0.225,0,118,118,118,,,,,,,,,,None,1523.551897,1523.551897,1523.551897,1523.551897,1523.551897,1523.551897,j,0.428094,1524.003695,1524.003695,1524.003695,1524.003695,1524.003695,1524.003695,1524.300278,1524.300278,1525.862922,1525.862922,1525.862922,1525.862922,1525.862922,1525.862922,1525.862922,1525.862922,1525.862922,1525.862922,1525.862922,1525.862922,1525.862922,1525.862922,1525.862922,1525.862922,1525.862922,32,39,50,41,41,55,None,None,1528.37426,1528.37426,1528.37426,1528.37426,1528.37426,1528.37426,1528.37426,1528.37426,0.0074125,1528.37426,65,65,[-0.07592592592592592],[-0.2851851851851852],[1],[0],[0],[7.2863834000309],['tijiao'],-0.2,0,,[],[],[],[],[],[],[],1535.681845,1535.681845,1535.681845,1535.681845,2.101851852,2.0286277,1537.728989,1539.708424,,,,,,,,,,,,,,,,,,,259,f,22,2023-03-26_10h39.54.249,RL,2022.2.4,60.11306065
0,0.3,0.225,0,119,119,119,,,,,,,,,,None,1539.708424,1539.708424,1539.708424,1539.708424,1539.708424,1539.708424,j,0.2953819,1540.025353,1540.025353,1540.025353,1540.025353,1540.025353,1540.025353,1540.323208,1540.323208,1541.83601,1541.83601,1541.83601,1541.83601,1541.83601,1541.83601,1541.83601,1541.83601,1541.83601,1541.83601,1541.83601,1541.83601,1541.83601,1541.83601,1541.83601,1541.83601,1541.83601,41,45,51,45,45,56,None,None,1544.346934,1544.346934,1544.346934,1544.346934,1544.346934,1544.346934,1544.346934,1544.346934,0.007448,1544.346934,80,80,[0.018518518518518517],[-0.30277777777777776],[1],[0],[0],[11.209148399997503],['tijiao'],0.6,0,,[],[],[],[],[],[],[],1555.580543,1555.580543,1555.580543,1555.580543,3.388888889,2.092753,1557.691318,1559.620309,,,,,,,,,,,,,,,,,,,259,f,22,2023-03-26_10h39.54.249,RL,2022.2.4,60.11306065
1,-0.3,-0.225,0,120,120,120,,,,,,,,,,None,1559.620309,1559.620309,1559.620309,1559.620309,1559.620309,1559.620309,j,0.239351,1559.888824,1559.888824,1559.888824,1559.888824,1559.888824,1559.888824,1560.185881,1560.185881,1561.548598,1561.548598,1561.548598,1561.548598,1561.548598,1561.548598,1561.548598,1561.548598,1561.548598,1561.548598,1561.548598,1561.548598,1561.548598,1561.548598,1561.548598,1561.548598,1561.548598,39,36,50,54,54,43,5,3.2235219,,,,,,,,,,,,,[],[],[],[],[],[],[],0.6,2,,[],[],[],[],[],[],[],,,,,None,None,1567.307223,1568.91174,,,,,,,,,,,1564.057483,1564.057483,1564.057483,1564.057483,1564.057483,,,,259,f,22,2023-03-26_10h39.54.249,RL,2022.2.4,60.11306065
0,0.3,0.225,0,121,121,121,,,,,,,,,,None,1568.91174,1568.91174,1568.91174,1568.91174,1568.91174,1568.91174,f,0.67356,1569.612241,1569.612241,1569.612241,1569.612241,1569.612241,1569.612241,1569.909379,1569.909379,1570.923058,1570.923058,1570.923058,1570.923058,1570.923058,1570.923058,1570.923058,1570.923058,1570.923058,1570.923058,1570.923058,1570.923058,1570.923058,1570.923058,1570.923058,1570.923058,1570.923058,46,34,47,51,34,56,4,2.2263903,,,,,,,,,,,,,[],[],[],[],[],[],[],0.2,2,,[],[],[],[],[],[],[],,,,,None,None,1575.684709,1577.538011,,,,,,,,,,,1573.432058,1573.432058,1573.432058,1573.432058,1573.432058,,,,259,f,22,2023-03-26_10h39.54.249,RL,2022.2.4,60.11306065
1,-0.3,-0.225,0,122,122,122,,,,,,,,,,None,1577.538011,1577.538011,1577.538011,1577.538011,1577.538011,1577.538011,i,0.3177097,1577.889023,1577.889023,1577.889023,1577.889023,1577.889023,1577.889023,1578.186693,1578.186693,1579.316661,1579.316661,1579.316661,1579.316661,1579.316661,1579.316661,1579.316661,1579.316661,1579.316661,1579.316661,1579.316661,1579.316661,1579.316661,1579.316661,1579.316661,1579.316661,1579.316661,49,35,48,48,48,38,None,None,1581.827947,1581.827947,1581.827947,1581.827947,1581.827947,1581.827947,1581.827947,1581.827947,0.0071854,1581.827947,50,50,[0.022222222222222223],[-0.26296296296296295],[1],[0],[0],[3.7292274000355974],['tijiao'],-0.2,0,,[],[],[],[],[],[],[],1585.581305,1585.581305,1585.581305,1585.581305,5.398148148,1.395881,1586.994399,1588.956927,,,,,,,,,,,,,,,,,,,259,f,22,2023-03-26_10h39.54.249,RL,2022.2.4,60.11306065
0,0.3,0.225,0,123,123,123,,,,,,,,,,None,1588.956927,1588.956927,1588.956927,1588.956927,1588.956927,1588.956927,i,0.3576641,1589.341751,1589.341751,1589.341751,1589.341751,1589.341751,1589.341751,1589.638733,1589.638733,1591.018223,1591.018223,1591.034769,1591.034769,1591.034769,1591.034769,1591.034769,1591.034769,1591.034769,1591.034769,1591.034769,1591.034769,1591.034769,1591.034769,1591.034769,1591.034769,1591.034769,63,34,46,54,46,25,5,1.8437024,,,,,,,,,,,,,[],[],[],[],[],[],[],0.2,3,,[],[],[],[],[],[],[],,,,,None,None,1595.414612,1597.167634,,,,,,,,,,,1593.543426,1593.543426,1593.543426,1593.543426,1593.543426,,,,259,f,22,2023-03-26_10h39.54.249,RL,2022.2.4,60.11306065
1,-0.3,-0.225,0,124,124,124,,,,,,,,,,None,1597.167634,1597.167634,1597.167634,1597.167634,1597.167634,1597.167634,i,0.8286642,1598.018308,1598.018308,1598.018308,1598.018308,1598.018308,1598.018308,1598.315045,1598.315045,1599.511628,1599.511628,1599.511628,1599.511628,1599.511628,1599.511628,1599.511628,1599.511628,1599.511628,1599.511628,1599.511628,1599.511628,1599.511628,1599.511628,1599.511628,1599.511628,1599.511628,48,37,50,53,50,55,5,1.9267417,,,,,,,,,,,,,[],[],[],[],[],[],[],-0.6,3,,[],[],[],[],[],[],[],,,,,None,None,1603.974403,1605.84432,,,,,,,,,,,1602.020638,1602.020638,1602.020638,1602.020638,1602.020638,,,,259,f,22,2023-03-26_10h39.54.249,RL,2022.2.4,60.11306065
0,0.3,0.225,0,125,125,125,,,,,,,,,,None,1605.84432,1605.84432,1605.84432,1605.84432,1605.84432,1605.84432,j,0.3037276,1606.178805,1606.178805,1606.178805,1606.178805,1606.178805,1606.178805,1606.476037,1606.476037,1607.705886,1607.705886,1607.705886,1607.705886,1607.705886,1607.705886,1607.705886,1607.705886,1607.705886,1607.705886,1607.705886,1607.705886,1607.705886,1607.705886,1607.705886,1607.705886,1607.705886,61,30,49,50,50,61,None,None,,,,,,,,,,,,,[],[],[],[],[],[],[],-0.6,1,60,[0.053703703703703705],[-0.29444444444444445],[1],[0],[0],[4.036524700000882],['tijiao_random_2'],1614.278067,1614.278067,1614.278067,1614.278067,4.731481481,2.0033105,1616.297879,1618.093824,1610.226225,1610.226225,1610.226225,1610.226225,1610.226225,1610.226225,1610.226225,1610.226225,0.0066179,1610.226225,,,,,,,,,259,f,22,2023-03-26_10h39.54.249,RL,2022.2.4,60.11306065
