bandit0,black_x_pos_random,black_y_pos_random,trials.thisRepN,trials.thisTrialN,trials.thisN,trials.thisIndex,instru_img1.started,instru_img1.stopped,instru_resp.keys,instru_resp.rt,instru_resp.started,instru_resp.stopped,instru_img2.started,instru_img2.stopped,instru_resp2.keys,instru_resp2.rt,instru_resp2.started,instru_resp2.stopped,fixbefore_2.started,fixbefore_2.stopped,rest_image.started,rest_image.stopped,rest_response.keys,rest_response.started,rest_response.stopped,red.started,red.stopped,green.started,green.stopped,yellow.started,yellow.stopped,blue.started,blue.stopped,choose_bandit.keys,choose_bandit.rt,choose_bandit.started,choose_bandit.stopped,Fixation.started,Fixation.stopped,black.started,black.stopped,red_2.started,red_2.stopped,green_2.started,green_2.stopped,yellow_2.started,yellow_2.stopped,blue_2.started,blue_2.stopped,fixation_2.started,fixation_2.stopped,docs.started,docs.stopped,wait_playerB.started,wait_playerB.stopped,black_com.started,black_com.stopped,reward_sub.started,reward_sub.stopped,palyerb.started,palyerb.stopped,reward__sub.started,reward__sub.stopped,compare.started,compare.stopped,red_compare.started,red_compare.stopped,green_com.started,green_com.stopped,yellow_com.started,yellow_com.stopped,blue_com.started,blue_com.stopped,rewardyellow,rewardred,rewardblue,rewardgreen,subchoose,playerb,image_3.started,image_3.stopped,slider.response,slider.rt,slider.started,slider.stopped,text.started,text.stopped,image_4.started,image_4.stopped,image_5.started,image_5.stopped,expectself.text,expectself.started,expectself.stopped,value_expect_self,expect_self_black.started,expect_self_black.stopped,expect_self.started,expect_self.stopped,expect_self_red.started,expect_self_red.stopped,expect_self_green.started,expect_self_green.stopped,expect_self_yellow.started,expect_self_yellow.stopped,expect_self_blue.started,expect_self_blue.stopped,tijiao.started,tijiao.stopped,tijiao_click.x,tijiao_click.y,tijiao_click.leftButton,tijiao_click.midButton,tijiao_click.rightButton,tijiao_click.time,tijiao_click.clicked_name,tijiao_click.started,tijiao_click.stopped,check.started,check.stopped,random_whicharm,whether_ask,jiantou_random.started,jiantou_random.stopped,expect_red.started,expect_red.stopped,expect_green.started,expect_green.stopped,expect_yellow.started,expect_yellow.stopped,expect_blue.started,expect_blue.stopped,expect_random_2.started,expect_random_2.stopped,expect_random_3.text,expect_random_3.started,expect_random_3.stopped,tijiao_random_2.started,tijiao_random_2.stopped,tijiao_random.started,tijiao_random.stopped,check_2.started,check_2.stopped,slider_2.response,slider_2.rt,slider_2.started,slider_2.stopped,image_7.started,image_7.stopped,confi.started,confi.stopped,notconfi.started,notconfi.stopped,bigx.started,bigx.stopped,intertrialfix.started,intertrialfix.stopped,tijiao_random.x,tijiao_random.y,tijiao_random.leftButton,tijiao_random.midButton,tijiao_random.rightButton,tijiao_random.time,tijiao_random.clicked_name,rest_response.rt,participant,Gender,Age,date,expName,psychopyVersion,frameRate
,,,,,,,18.0635424,None,space,16.7199443,18.0635424,None,,,,,,,,,,,,,,,,,,,,,,,,,,,,,,,,,,,,,,,,,,,,,,,,,,,,,,,,,,,,,,,,,,,,,,,,,,,,,,,,,,,,,,,,,,,,,,,,,,,,,,,,,,,,,,,,,,,,,,,,,,,,,,,,,,,,,,,,,,,,,,,,,,,,,,,,,,260,f,22,2023_Mar_26_1036,RL,2021.2.3,59.95484203
,,,,,,,,,,,,,34.8226357,None,s,206.1172203,34.8226357,None,,,,,,,,,,,,,,,,,,,,,,,,,,,,,,,,,,,,,,,,,,,,,,,,,,,,,,,,,,,,,,,,,,,,,,,,,,,,,,,,,,,,,,,,,,,,,,,,,,,,,,,,,,,,,,,,,,,,,,,,,,,,,,,,,,,,,,,,,,,,,,,,,,,,260,f,22,2023_Mar_26_1036,RL,2021.2.3,59.95484203
1,-0.3,-0.225,0,0,0,0,,,,,,,,,,,,,241.0015177,None,None,None,None,None,None,242.0988862,None,242.0988862,None,242.0988862,None,242.0988862,None,r,0.8979429,242.0988862,None,242.0988862,None,243.1175573,None,243.1175573,None,243.1175573,None,243.1175573,None,243.1175573,None,243.1175573,None,243.4038202,244.3214505,243.4038202,244.3214505,244.419319,None,244.419319,None,244.419319,None,244.419319,None,244.419319,None,244.419319,None,244.419319,None,244.419319,None,244.419319,None,56,51,50,20,56,62,None,None,None,None,None,None,None,None,None,None,None,None,50,247.1549882,None,50,247.1549882,None,247.1549882,None,247.1549882,None,247.1549882,None,247.1549882,None,247.1549882,None,247.1549882,None,0.0546875,-0.28515625,1,0,0,11.0949593,tijiao,0.00254908,None,247.1549882,None,0.2,0,None,None,None,None,None,None,None,None,None,None,None,None,,None,None,None,None,None,None,None,None,2.875,3.1289924,258.6202325,None,258.6202325,None,258.6202325,None,258.6202325,None,None,None,261.8396679,None,,,,,,,,,260,f,22,2023_Mar_26_1036,RL,2021.2.3,59.95484203
0,0.3,0.225,0,1,1,1,,,,,,,,,,,,,,,None,None,None,None,None,263.6554415,None,263.6554415,None,263.6554415,None,263.6554415,None,f,0.8926568,263.6554415,None,263.6554415,None,264.595701,None,264.595701,None,264.595701,None,264.595701,None,264.595701,None,264.595701,None,264.8856448,266.4365701,264.8856448,266.4365701,266.4733128,None,266.4733128,None,266.4733128,None,266.4733128,None,266.4733128,None,266.4733128,None,266.4733128,None,266.4733128,None,266.4733128,None,59,54,48,18,54,36,268.9867298,None,4,3.6569913,268.9867298,None,268.9867298,None,268.9867298,None,268.9867298,None,,None,None,,None,None,None,None,None,None,None,None,None,None,None,None,None,None,,,,,,,,None,None,None,None,-0.2,3,None,None,None,None,None,None,None,None,None,None,None,None,,None,None,None,None,None,None,None,None,None,None,None,None,None,None,None,None,None,None,None,None,272.8160131,None,,,,,,,,,260,f,22,2023_Mar_26_1036,RL,2021.2.3,59.95484203
1,-0.3,-0.225,0,2,2,2,,,,,,,,,,,,,,,None,None,None,None,None,274.7464288,None,274.7464288,None,274.7464288,None,274.7464288,None,i,1.161826,274.7464288,None,274.7464288,None,275.9541172,None,275.9541172,None,275.9541172,None,275.9541172,None,275.9541172,None,275.9541172,None,276.2435377,278.078025,276.2435377,278.078025,278.1119276,None,278.1119276,None,278.1119276,None,278.1119276,None,278.1119276,None,278.1119276,None,278.1119276,None,278.1119276,None,278.1119276,None,58,52,51,21,51,34,None,None,None,None,None,None,None,None,None,None,None,None,50,280.6398554,None,50,280.6398554,None,280.6398554,None,280.6398554,None,280.6398554,None,280.6398554,None,280.6398554,None,280.6398554,None,0.0234375,-0.27734375,1,0,0,5.9203095,tijiao,0.01565441,None,280.6398554,None,-0.6,0,None,None,None,None,None,None,None,None,None,None,None,None,,None,None,None,None,None,None,None,None,8.122395833,2.548517,286.6056784,None,286.6056784,None,286.6056784,None,286.6056784,None,None,None,289.1683015,None,,,,,,,,,260,f,22,2023_Mar_26_1036,RL,2021.2.3,59.95484203
0,0.3,0.225,0,3,3,3,,,,,,,,,,,,,,,None,None,None,None,None,291.1581758,None,291.1581758,None,291.1581758,None,291.1581758,None,j,0.6499405,291.1581758,None,291.1581758,None,291.8559462,None,291.8559462,None,291.8559462,None,291.8559462,None,291.8559462,None,291.8559462,None,292.1538224,None,292.1538224,None,293.6910915,None,293.6910915,None,293.6910915,None,293.6910915,None,293.6910915,None,293.6910915,None,293.6910915,None,293.6910915,None,293.6910915,None,56,55,63,25,25,70,None,None,None,None,None,None,None,None,None,None,None,None,,None,None,,None,None,None,None,None,None,None,None,None,None,None,None,None,None,,,,,,,,None,None,None,None,0.6,1,296.2368232,None,296.2368232,None,296.2368232,None,296.2368232,None,296.2368232,None,296.2368232,None,20,296.2368232,None,296.2368232,None,0.01320028,None,296.2368232,None,3.916666667,1.1812166,301.2148143,None,301.2148143,None,301.2148143,None,301.2148143,None,None,None,302.4110073,None,-0.052083333,-0.290364583,1,0,0,4.9174193,tijiao_random_2,,260,f,22,2023_Mar_26_1036,RL,2021.2.3,59.95484203
1,-0.3,-0.225,0,4,4,4,,,,,,,,,,,,,,,None,None,None,None,None,304.2672857,None,304.2672857,None,304.2672857,None,304.2672857,None,f,1.0509097,304.2672857,None,304.2672857,None,305.3683123,None,305.3683123,None,305.3683123,None,305.3683123,None,305.3683123,None,305.3683123,None,305.6638917,None,305.6638917,None,307.4977116,None,307.4977116,None,307.4977116,None,307.4977116,None,307.4977116,None,307.4977116,None,307.4977116,None,307.4977116,None,307.4977116,None,64,45,55,35,45,69,310.0191172,None,3,2.0686723,310.0191172,None,310.0191172,None,310.0191172,None,310.0191172,None,,None,None,,None,None,None,None,None,None,None,None,None,None,None,None,None,None,,,,,,,,None,None,None,None,-0.2,3,None,None,None,None,None,None,None,None,None,None,None,None,,None,None,None,None,None,None,None,None,None,None,None,None,None,None,None,None,None,None,None,None,312.1533721,None,,,,,,,,,260,f,22,2023_Mar_26_1036,RL,2021.2.3,59.95484203
0,0.3,0.225,0,5,5,5,,,,,,,,,,,,,,,None,None,None,None,None,314.1412125,None,314.1412125,None,314.1412125,None,314.1412125,None,r,1.2271029,314.1412125,None,314.1412125,None,315.4103761,None,315.4103761,None,315.4103761,None,315.4103761,None,315.4103761,None,315.4103761,None,315.7040924,None,315.7040924,None,317.3239743,None,317.3239743,None,317.3239743,None,317.3239743,None,317.3239743,None,317.3239743,None,317.3239743,None,317.3239743,None,317.3239743,None,57,46,59,32,57,33,319.8370361,None,4,2.4564868,319.8370361,None,319.8370361,None,319.8370361,None,319.8370361,None,,None,None,,None,None,None,None,None,None,None,None,None,None,None,None,None,None,,,,,,,,None,None,None,None,-0.6,2,None,None,None,None,None,None,None,None,None,None,None,None,,None,None,None,None,None,None,None,None,None,None,None,None,None,None,None,None,None,None,None,None,322.350606,None,,,,,,,,,260,f,22,2023_Mar_26_1036,RL,2021.2.3,59.95484203
1,-0.3,-0.225,0,6,6,6,,,,,,,,,,,,,,,None,None,None,None,None,323.9472306,None,323.9472306,None,323.9472306,None,323.9472306,None,r,0.5310893,323.9472306,None,323.9472306,None,324.5180212,None,324.5180212,None,324.5180212,None,324.5180212,None,324.5180212,None,324.5180212,None,324.7936784,326.6951134,324.7936784,326.6951134,326.7289863,None,326.7289863,None,326.7289863,None,326.7289863,None,326.7289863,None,326.7289863,None,326.7289863,None,326.7289863,None,326.7289863,None,72,47,62,34,72,20,None,None,None,None,None,None,None,None,None,None,None,None,50,329.264215,None,50,329.264215,None,329.264215,None,329.264215,None,329.264215,None,329.264215,None,329.264215,None,329.264215,None,0.046875,-0.2734375,1,0,0,4.9625512,tijiao,0.00800191,None,329.264215,None,0.2,0,None,None,None,None,None,None,None,None,None,None,None,None,,None,None,None,None,None,None,None,None,5.075520833,2.1769585,334.2735709,None,334.2735709,None,334.2735709,None,334.2735709,None,None,None,336.484031,None,,,,,,,,,260,f,22,2023_Mar_26_1036,RL,2021.2.3,59.95484203
0,0.3,0.225,0,7,7,7,,,,,,,,,,,,,,,None,None,None,None,None,338.2736555,None,338.2736555,None,338.2736555,None,338.2736555,None,r,0.7648397,338.2736555,None,338.2736555,None,339.0767745,None,339.0767745,None,339.0767745,None,339.0767745,None,339.0767745,None,339.0767745,None,339.3706342,None,339.3706342,None,340.767668,None,340.767668,None,340.767668,None,340.767668,None,340.767668,None,340.767668,None,340.767668,None,340.767668,None,340.767668,None,71,53,65,35,71,73,343.2907688,None,4,2.2884362,343.2907688,None,343.2907688,None,343.2907688,None,343.2907688,None,,None,None,,None,None,None,None,None,None,None,None,None,None,None,None,None,None,,,,,,,,None,None,None,None,0.2,3,None,None,None,None,None,None,None,None,None,None,None,None,,None,None,None,None,None,None,None,None,None,None,None,None,None,None,None,None,None,None,None,None,345.6328837,None,,,,,,,,,260,f,22,2023_Mar_26_1036,RL,2021.2.3,59.95484203
1,-0.3,-0.225,0,8,8,8,,,,,,,,,,,,,,,None,None,None,None,None,347.4747307,None,347.4747307,None,347.4747307,None,347.4747307,None,f,0.6940546,347.4747307,None,347.4747307,None,348.2168189,None,348.2168189,None,348.2168189,None,348.2168189,None,348.2168189,None,348.2168189,None,348.5100488,349.8778598,348.5100488,349.8778598,349.9097414,None,349.9097414,None,349.9097414,None,349.9097414,None,349.9097414,None,349.9097414,None,349.9097414,None,349.9097414,None,349.9097414,None,68,59,65,35,59,43,352.4273661,None,4,1.9878272,352.4273661,None,352.4273661,None,352.4273661,None,352.4273661,None,,None,None,,None,None,None,None,None,None,None,None,None,None,None,None,None,None,,,,,,,,None,None,None,None,0.2,3,None,None,None,None,None,None,None,None,None,None,None,None,,None,None,None,None,None,None,None,None,None,None,None,None,None,None,None,None,None,None,None,None,354.469446,None,,,,,,,,,260,f,22,2023_Mar_26_1036,RL,2021.2.3,59.95484203
0,0.3,0.225,0,9,9,9,,,,,,,,,,,,,,,None,None,None,None,None,356.2361723,None,356.2361723,None,356.2361723,None,356.2361723,None,f,0.892399,356.2361723,None,356.2361723,None,357.1723264,None,357.1723264,None,357.1723264,None,357.1723264,None,357.1723264,None,357.1723264,None,357.4667861,None,357.4667861,None,359.0132789,None,359.0132789,None,359.0132789,None,359.0132789,None,359.0132789,None,359.0132789,None,359.0132789,None,359.0132789,None,359.0132789,None,84,53,64,29,53,19,361.5407403,None,4,3.7620498,361.5407403,None,361.5407403,None,361.5407403,None,361.5407403,None,,None,None,,None,None,None,None,None,None,None,None,None,None,None,None,None,None,,,,,,,,None,None,None,None,-0.6,3,None,None,None,None,None,None,None,None,None,None,None,None,,None,None,None,None,None,None,None,None,None,None,None,None,None,None,None,None,None,None,None,None,365.3595011,None,,,,,,,,,260,f,22,2023_Mar_26_1036,RL,2021.2.3,59.95484203
1,-0.3,-0.225,0,10,10,10,,,,,,,,,,,,,,,None,None,None,None,None,366.927377,None,366.927377,None,366.927377,None,366.927377,None,f,1.2312087,366.927377,None,366.927377,None,368.2011696,None,368.2011696,None,368.2011696,None,368.2011696,None,368.2011696,None,368.2011696,None,368.4907646,370.2085852,368.4907646,370.2085852,370.24033,None,370.24033,None,370.24033,None,370.24033,None,370.24033,None,370.24033,None,370.24033,None,370.24033,None,370.24033,None,80,66,57,26,66,64,None,None,None,None,None,None,None,None,None,None,None,None,70,372.7773407,None,70,372.7773407,None,372.7773407,None,372.7773407,None,372.7773407,None,372.7773407,None,372.7773407,None,372.7773407,None,0.020833333,-0.296875,1,0,0,6.1307055,tijiao,0.00836201,None,372.7773407,None,-0.6,0,None,None,None,None,None,None,None,None,None,None,None,None,,None,None,None,None,None,None,None,None,4.020833333,1.2460428,378.9545761,None,378.9545761,None,378.9545761,None,378.9545761,None,None,None,380.2155232,None,,,,,,,,,260,f,22,2023_Mar_26_1036,RL,2021.2.3,59.95484203
0,0.3,0.225,0,11,11,11,,,,,,,,,,,,,,,None,None,None,None,None,382.0544436,None,382.0544436,None,382.0544436,None,382.0544436,None,r,0.8942092,382.0544436,None,382.0544436,None,382.9942703,None,382.9942703,None,382.9942703,None,382.9942703,None,382.9942703,None,382.9942703,None,383.2842282,384.4355988,383.2842282,384.4355988,384.4702838,None,384.4702838,None,384.4702838,None,384.4702838,None,384.4702838,None,384.4702838,None,384.4702838,None,384.4702838,None,384.4702838,None,79,69,52,35,79,40,386.9842124,None,4,3.0910477,386.9842124,None,386.9842124,None,386.9842124,None,386.9842124,None,,None,None,,None,None,None,None,None,None,None,None,None,None,None,None,None,None,,,,,,,,None,None,None,None,-0.2,2,None,None,None,None,None,None,None,None,None,None,None,None,,None,None,None,None,None,None,None,None,None,None,None,None,None,None,None,None,None,None,None,None,390.1307047,None,,,,,,,,,260,f,22,2023_Mar_26_1036,RL,2021.2.3,59.95484203
1,-0.3,-0.225,0,12,12,12,,,,,,,,,,,,,,,None,None,None,None,None,392.0949313,None,392.0949313,None,392.0949313,None,392.0949313,None,r,0.6240293,392.0949313,None,392.0949313,None,392.7623787,None,392.7623787,None,392.7623787,None,392.7623787,None,392.7623787,None,392.7623787,None,393.0578201,394.4754943,393.0578201,394.4754943,394.5078951,None,394.5078951,None,394.5078951,None,394.5078951,None,394.5078951,None,394.5078951,None,394.5078951,None,394.5078951,None,394.5078951,None,78,69,55,27,78,29,397.026793,None,4,5.1237333,397.026793,None,397.026793,None,397.026793,None,397.026793,None,,None,None,,None,None,None,None,None,None,None,None,None,None,None,None,None,None,,,,,,,,None,None,None,None,-0.6,3,None,None,None,None,None,None,None,None,None,None,None,None,,None,None,None,None,None,None,None,None,None,None,None,None,None,None,None,None,None,None,None,None,402.2045604,None,,,,,,,,,260,f,22,2023_Mar_26_1036,RL,2021.2.3,59.95484203
0,0.3,0.225,0,13,13,13,,,,,,,,,,,,,,,None,None,None,None,None,403.852588,None,403.852588,None,403.852588,None,403.852588,None,f,1.1762939,403.852588,None,403.852588,None,405.0719236,None,405.0719236,None,405.0719236,None,405.0719236,None,405.0719236,None,405.0719236,None,405.3664647,None,405.3664647,None,406.6012999,None,406.6012999,None,406.6012999,None,406.6012999,None,406.6012999,None,406.6012999,None,406.6012999,None,406.6012999,None,406.6012999,None,79,62,54,25,62,70,409.1193521,None,4,2.5690809,409.1193521,None,409.1193521,None,409.1193521,None,409.1193521,None,,None,None,,None,None,None,None,None,None,None,None,None,None,None,None,None,None,,,,,,,,None,None,None,None,-0.6,2,None,None,None,None,None,None,None,None,None,None,None,None,,None,None,None,None,None,None,None,None,None,None,None,None,None,None,None,None,None,None,None,None,411.7418728,None,,,,,,,,,260,f,22,2023_Mar_26_1036,RL,2021.2.3,59.95484203
1,-0.3,-0.225,0,14,14,14,,,,,,,,,,,,,,,None,None,None,None,None,413.5099887,None,413.5099887,None,413.5099887,None,413.5099887,None,r,0.7988985,413.5099887,None,413.5099887,None,414.3616401,None,414.3616401,None,414.3616401,None,414.3616401,None,414.3616401,None,414.3616401,None,414.6563927,None,414.6563927,None,415.9881879,None,415.9881879,None,415.9881879,None,415.9881879,None,415.9881879,None,415.9881879,None,415.9881879,None,415.9881879,None,415.9881879,None,86,61,54,28,86,77,418.5041707,None,4,2.2878165,418.5041707,None,418.5041707,None,418.5041707,None,418.5041707,None,,None,None,,None,None,None,None,None,None,None,None,None,None,None,None,None,None,,,,,,,,None,None,None,None,0.6,2,None,None,None,None,None,None,None,None,None,None,None,None,,None,None,None,None,None,None,None,None,None,None,None,None,None,None,None,None,None,None,None,None,420.8480032,None,,,,,,,,,260,f,22,2023_Mar_26_1036,RL,2021.2.3,59.95484203
0,0.3,0.225,0,15,15,15,,,,,,,,,,,,,,,None,None,None,None,None,422.4989068,None,422.4989068,None,422.4989068,None,422.4989068,None,r,0.5510994,422.4989068,None,422.4989068,None,423.1037895,None,423.1037895,None,423.1037895,None,423.1037895,None,423.1037895,None,423.1037895,None,423.3955495,None,423.3955495,None,424.4447255,None,424.4447255,None,424.4447255,None,424.4447255,None,424.4447255,None,424.4447255,None,424.4447255,None,424.4447255,None,424.4447255,None,80,54,63,29,80,74,None,None,None,None,None,None,None,None,None,None,None,None,,None,None,,None,None,None,None,None,None,None,None,None,None,None,None,None,None,,,,,,,,None,None,None,None,0.2,1,426.9957286,None,426.9957286,None,426.9957286,None,426.9957286,None,426.9957286,None,426.9957286,None,40,426.9957286,None,426.9957286,None,0.01152818,None,426.9957286,None,3.96875,1.6909219,435.4436623,None,435.4436623,None,435.4436623,None,435.4436623,None,None,None,437.1561667,None,0.13671875,-0.28125,1,0,0,8.4180047,tijiao_random_2,,260,f,22,2023_Mar_26_1036,RL,2021.2.3,59.95484203
1,-0.3,-0.225,0,16,16,16,,,,,,,,,,,,,,,None,None,None,None,None,438.6923165,None,438.6923165,None,438.6923165,None,438.6923165,None,i,1.3783585,438.6923165,None,438.6923165,None,440.1132707,None,440.1132707,None,440.1132707,None,440.1132707,None,440.1132707,None,440.1132707,None,440.4072907,None,440.4072907,None,441.7729299,None,441.7729299,None,441.7729299,None,441.7729299,None,441.7729299,None,441.7729299,None,441.7729299,None,441.7729299,None,441.7729299,None,74,55,57,21,57,65,None,None,None,None,None,None,None,None,None,None,None,None,,None,None,,None,None,None,None,None,None,None,None,None,None,None,None,None,None,,,,,,,,None,None,None,None,0.6,1,444.3220061,None,444.3220061,None,444.3220061,None,444.3220061,None,444.3220061,None,444.3220061,None,50,444.3220061,None,444.3220061,None,0.01327698,None,444.3220061,None,2.888020833,2.8618364,452.640627,None,452.640627,None,452.640627,None,452.640627,None,None,None,455.5173612,None,0.059895833,-0.299479167,1,0,0,8.287006,tijiao_random_2,,260,f,22,2023_Mar_26_1036,RL,2021.2.3,59.95484203
0,0.3,0.225,0,17,17,17,,,,,,,,,,,,,,,None,None,None,None,None,457.3564862,None,457.3564862,None,457.3564862,None,457.3564862,None,r,0.8637915,457.3564862,None,457.3564862,None,458.2589479,None,458.2589479,None,458.2589479,None,458.2589479,None,458.2589479,None,458.2589479,None,458.5533028,None,458.5533028,None,460.451664,None,460.451664,None,460.451664,None,460.451664,None,460.451664,None,460.451664,None,460.451664,None,460.451664,None,460.451664,None,78,52,56,14,78,40,None,None,None,None,None,None,None,None,None,None,None,None,,None,None,,None,None,None,None,None,None,None,None,None,None,None,None,None,None,,,,,,,,None,None,None,None,0.6,1,463.004848,None,463.004848,None,463.004848,None,463.004848,None,463.004848,None,463.004848,None,20,463.004848,None,463.004848,None,0.00955168,None,463.004848,None,4.0859375,0.8771119,468.5023347,None,468.5023347,None,468.5023347,None,468.5023347,None,None,None,469.3935637,None,0.01953125,-0.295572917,1,0,0,5.4647316,tijiao_random_2,,260,f,22,2023_Mar_26_1036,RL,2021.2.3,59.95484203
1,-0.3,-0.225,0,18,18,18,,,,,,,,,,,,,,,None,None,None,None,None,471.2661299,None,471.2661299,None,471.2661299,None,471.2661299,None,r,0.5942336,471.2661299,None,471.2661299,None,471.9029936,None,471.9029936,None,471.9029936,None,471.9029936,None,471.9029936,None,471.9029936,None,472.1962428,None,472.1962428,None,473.3438084,None,473.3438084,None,473.3438084,None,473.3438084,None,473.3438084,None,473.3438084,None,473.3438084,None,473.3438084,None,473.3438084,None,81,47,59,18,81,70,475.8730925,None,4,2.1506957,475.8730925,None,475.8730925,None,475.8730925,None,475.8730925,None,,None,None,,None,None,None,None,None,None,None,None,None,None,None,None,None,None,,,,,,,,None,None,None,None,-0.2,3,None,None,None,None,None,None,None,None,None,None,None,None,,None,None,None,None,None,None,None,None,None,None,None,None,None,None,None,None,None,None,None,None,478.0728035,None,,,,,,,,,260,f,22,2023_Mar_26_1036,RL,2021.2.3,59.95484203
0,0.3,0.225,0,19,19,19,,,,,,,,,,,,,,,None,None,None,None,None,479.972606,None,479.972606,None,479.972606,None,479.972606,None,r,0.7178174,479.972606,None,479.972606,None,480.7405624,None,480.7405624,None,480.7405624,None,480.7405624,None,480.7405624,None,480.7405624,None,481.0356016,482.0863858,481.0356016,482.0863858,482.1200395,None,482.1200395,None,482.1200395,None,482.1200395,None,482.1200395,None,482.1200395,None,482.1200395,None,482.1200395,None,482.1200395,None,82,41,57,21,82,47,484.6407454,None,5,2.1345293,484.6407454,None,484.6407454,None,484.6407454,None,484.6407454,None,,None,None,,None,None,None,None,None,None,None,None,None,None,None,None,None,None,,,,,,,,None,None,None,None,-0.6,2,None,None,None,None,None,None,None,None,None,None,None,None,,None,None,None,None,None,None,None,None,None,None,None,None,None,None,None,None,None,None,None,None,486.8430287,None,,,,,,,,,260,f,22,2023_Mar_26_1036,RL,2021.2.3,59.95484203
1,-0.3,-0.225,0,20,20,20,,,,,,,,,,,,,,,None,None,None,None,None,488.6781989,None,488.6781989,None,488.6781989,None,488.6781989,None,f,0.742312,488.6781989,None,488.6781989,None,489.4633886,None,489.4633886,None,489.4633886,None,489.4633886,None,489.4633886,None,489.4633886,None,489.7583014,491.5596666,489.7583014,491.5596666,491.5956976,None,491.5956976,None,491.5956976,None,491.5956976,None,491.5956976,None,491.5956976,None,491.5956976,None,491.5956976,None,491.5956976,None,85,33,58,20,33,61,494.1133575,None,3,2.4198857,494.1133575,None,494.1133575,None,494.1133575,None,494.1133575,None,,None,None,,None,None,None,None,None,None,None,None,None,None,None,None,None,None,,,,,,,,None,None,None,None,-0.6,2,None,None,None,None,None,None,None,None,None,None,None,None,,None,None,None,None,None,None,None,None,None,None,None,None,None,None,None,None,None,None,None,None,496.584929,None,,,,,,,,,260,f,22,2023_Mar_26_1036,RL,2021.2.3,59.95484203
0,0.3,0.225,0,21,21,21,,,,,,,,,,,,,,,None,None,None,None,None,498.4517322,None,498.4517322,None,498.4517322,None,498.4517322,None,r,0.6289652,498.4517322,None,498.4517322,None,499.1223761,None,499.1223761,None,499.1223761,None,499.1223761,None,499.1223761,None,499.1223761,None,499.4152872,None,499.4152872,None,500.2834962,None,500.2834962,None,500.2834962,None,500.2834962,None,500.2834962,None,500.2834962,None,500.2834962,None,500.2834962,None,500.2834962,None,77,47,56,29,77,53,None,None,None,None,None,None,None,None,None,None,None,None,,None,None,,None,None,None,None,None,None,None,None,None,None,None,None,None,None,,,,,,,,None,None,None,None,0.6,1,502.825517,None,502.825517,None,502.825517,None,502.825517,None,502.825517,None,502.825517,None,20,502.825517,None,502.825517,None,0.00082581,None,502.825517,None,3.044270833,1.5941259,506.5128454,None,506.5128454,None,506.5128454,None,506.5128454,None,None,None,508.1205851,None,0.111979167,-0.294270833,1,0,0,3.6542588,tijiao_random_2,,260,f,22,2023_Mar_26_1036,RL,2021.2.3,59.95484203
1,-0.3,-0.225,0,22,22,22,,,,,,,,,,,,,,,None,None,None,None,None,509.9931406,None,509.9931406,None,509.9931406,None,509.9931406,None,j,0.5174906,509.9931406,None,509.9931406,None,510.563998,None,510.563998,None,510.563998,None,510.563998,None,510.563998,None,510.563998,None,510.8562038,None,510.8562038,None,511.7713917,None,511.7713917,None,511.7713917,None,511.7713917,None,511.7713917,None,511.7713917,None,511.7713917,None,511.7713917,None,511.7713917,None,90,50,60,33,33,31,None,None,None,None,None,None,None,None,None,None,None,None,,None,None,,None,None,None,None,None,None,None,None,None,None,None,None,None,None,,,,,,,,None,None,None,None,-0.6,1,514.3212078,None,514.3212078,None,514.3212078,None,514.3212078,None,514.3212078,None,514.3212078,None,70,514.3212078,None,514.3212078,None,0.01195398,None,514.3212078,None,7.145833333,1.1581401,517.6387649,None,517.6387649,None,517.6387649,None,517.6387649,None,None,None,518.8111291,None,-0.014322917,-0.256510417,1,0,0,3.2820243,tijiao_random_2,,260,f,22,2023_Mar_26_1036,RL,2021.2.3,59.95484203
0,0.3,0.225,0,23,23,23,,,,,,,,,,,,,,,None,None,None,None,None,520.3506145,None,520.3506145,None,520.3506145,None,520.3506145,None,r,0.6403042,520.3506145,None,520.3506145,None,521.0363196,None,521.0363196,None,521.0363196,None,521.0363196,None,521.0363196,None,521.0363196,None,521.3304642,522.6310666,521.3304642,522.6310666,522.666756,None,522.666756,None,522.666756,None,522.666756,None,522.666756,None,522.666756,None,522.666756,None,522.666756,None,522.666756,None,83,54,54,23,83,59,None,None,None,None,None,None,None,None,None,None,None,None,,None,None,,None,None,None,None,None,None,None,None,None,None,None,None,None,None,,,,,,,,None,None,None,None,-0.6,1,525.2149674,None,525.2149674,None,525.2149674,None,525.2149674,None,525.2149674,None,525.2149674,None,75,525.2149674,None,525.2149674,None,0.00885238,None,525.2149674,None,7.028645833,1.3280373,529.7770985,None,529.7770985,None,529.7770985,None,529.7770985,None,None,None,531.1196654,None,0.016927083,-0.286458333,1,0,0,4.5294897,tijiao_random_2,,260,f,22,2023_Mar_26_1036,RL,2021.2.3,59.95484203
1,-0.3,-0.225,0,24,24,24,,,,,,,,,,,,,,,None,None,None,None,None,532.9426148,None,532.9426148,None,532.9426148,None,532.9426148,None,r,0.4681548,532.9426148,None,532.9426148,None,533.461305,None,533.461305,None,533.461305,None,533.461305,None,533.461305,None,533.461305,None,533.7557134,None,533.7557134,None,534.7932611,None,534.7932611,None,534.7932611,None,534.7932611,None,534.7932611,None,534.7932611,None,534.7932611,None,534.7932611,None,534.7932611,None,84,55,57,20,84,63,None,None,None,None,None,None,None,None,None,None,None,None,,None,None,,None,None,None,None,None,None,None,None,None,None,None,None,None,None,,,,,,,,None,None,None,None,0.6,1,537.3382906,None,537.3382906,None,537.3382906,None,537.3382906,None,537.3382906,None,537.3382906,None,30,537.3382906,None,537.3382906,None,0.01079228,None,537.3382906,None,7.002604167,3.2560403,541.1671753,None,541.1671753,None,541.1671753,None,541.1671753,None,None,None,544.4447955,None,0.08984375,-0.295572917,1,0,0,3.7980335,tijiao_random_2,,260,f,22,2023_Mar_26_1036,RL,2021.2.3,59.95484203
0,0.3,0.225,0,25,25,25,,,,,,,,,,,,,,,None,None,None,None,None,546.002037,None,546.002037,None,546.002037,None,546.002037,None,j,0.6091249,546.002037,None,546.002037,None,546.6542521,None,546.6542521,None,546.6542521,None,546.6542521,None,546.6542521,None,546.6542521,None,546.9482474,None,546.9482474,None,548.4186301,None,548.4186301,None,548.4186301,None,548.4186301,None,548.4186301,None,548.4186301,None,548.4186301,None,548.4186301,None,548.4186301,None,73,59,49,35,35,25,None,None,None,None,None,None,None,None,None,None,None,None,70,550.9468334,None,70,550.9468334,None,550.9468334,None,550.9468334,None,550.9468334,None,550.9468334,None,550.9468334,None,550.9468334,None,0.127604167,-0.311197917,1,0,0,7.7363623,tijiao,0.01297011,None,550.9468334,None,-0.2,0,None,None,None,None,None,None,None,None,None,None,None,None,,None,None,None,None,None,None,None,None,8.0703125,2.7195207,558.7277409,None,558.7277409,None,558.7277409,None,558.7277409,None,None,None,561.4741403,None,,,,,,,,,260,f,22,2023_Mar_26_1036,RL,2021.2.3,59.95484203
1,-0.3,-0.225,0,26,26,26,,,,,,,,,,,,,,,None,None,None,None,None,563.2467746,None,563.2467746,None,563.2467746,None,563.2467746,None,r,0.584181,563.2467746,None,563.2467746,None,563.8813285,None,563.8813285,None,563.8813285,None,563.8813285,None,563.8813285,None,563.8813285,None,564.1767372,None,564.1767372,None,565.2276797,None,565.2276797,None,565.2276797,None,565.2276797,None,565.2276797,None,565.2276797,None,565.2276797,None,565.2276797,None,565.2276797,None,86,55,47,26,86,31,None,None,None,None,None,None,None,None,None,None,None,None,83,567.7608044,None,83,567.7608044,None,567.7608044,None,567.7608044,None,567.7608044,None,567.7608044,None,567.7608044,None,567.7608044,None,0.020833333,-0.26171875,1,0,0,10.6855802,tijiao,0.01023411,None,567.7608044,None,-0.6,0,None,None,None,None,None,None,None,None,None,None,None,None,,None,None,None,None,None,None,None,None,8.8125,0.9959182,578.4933005,None,578.4933005,None,578.4933005,None,578.4933005,None,None,None,579.5034537,None,,,,,,,,,260,f,22,2023_Mar_26_1036,RL,2021.2.3,59.95484203
0,0.3,0.225,0,27,27,27,,,,,,,,,,,,,,,None,None,None,None,None,581.4598244,None,581.4598244,None,581.4598244,None,581.4598244,None,r,0.7213541,581.4598244,None,581.4598244,None,582.2289775,None,582.2289775,None,582.2289775,None,582.2289775,None,582.2289775,None,582.2289775,None,582.522359,584.140433,582.522359,584.140433,584.1729863,None,584.1729863,None,584.1729863,None,584.1729863,None,584.1729863,None,584.1729863,None,584.1729863,None,584.1729863,None,584.1729863,None,78,59,52,30,78,71,586.6897245,None,5,2.4063725,586.6897245,None,586.6897245,None,586.6897245,None,586.6897245,None,,None,None,,None,None,None,None,None,None,None,None,None,None,None,None,None,None,,,,,,,,None,None,None,None,-0.6,2,None,None,None,None,None,None,None,None,None,None,None,None,,None,None,None,None,None,None,None,None,None,None,None,None,None,None,None,None,None,None,None,None,589.1532904,None,,,,,,,,,260,f,22,2023_Mar_26_1036,RL,2021.2.3,59.95484203
1,-0.3,-0.225,0,28,28,28,,,,,,,,,,,,,,,None,None,None,None,None,591.032931,None,591.032931,None,591.032931,None,591.032931,None,None,,591.032931,None,591.032931,None,None,None,None,None,None,None,None,None,None,None,None,None,None,None,None,None,None,None,None,None,None,None,None,None,None,None,None,None,None,None,None,None,None,None,80,59,52,21,0,**,None,None,None,None,None,None,None,None,None,None,None,None,,None,None,,None,None,None,None,None,None,None,None,None,None,None,None,None,None,,,,,,,,None,None,None,None,0.6,1,None,None,None,None,None,None,None,None,None,None,None,None,,None,None,None,None,None,None,None,None,None,None,None,None,None,None,None,None,None,None,592.7784879,None,598.7843373,None,,,,,,,,,260,f,22,2023_Mar_26_1036,RL,2021.2.3,59.95484203
0,0.3,0.225,0,29,29,29,,,,,,,,,,,,,,,None,None,None,None,None,600.7733542,None,600.7733542,None,600.7733542,None,600.7733542,None,f,0.7488828,600.7733542,None,600.7733542,None,601.5741064,None,601.5741064,None,601.5741064,None,601.5741064,None,601.5741064,None,601.5741064,None,601.8694422,603.8041972,601.8694422,603.8041972,603.835047,None,603.835047,None,603.835047,None,603.835047,None,603.835047,None,603.835047,None,603.835047,None,603.835047,None,603.835047,None,72,63,54,27,63,67,None,None,None,None,None,None,None,None,None,None,None,None,,None,None,,None,None,None,None,None,None,None,None,None,None,None,None,None,None,,,,,,,,None,None,None,None,-0.6,1,606.389206,None,606.389206,None,606.389206,None,606.389206,None,606.389206,None,606.389206,None,83,606.389206,None,606.389206,None,0.00760888,None,606.389206,None,5.973958333,1.124899,611.3008484,None,611.3008484,None,611.3008484,None,611.3008484,None,None,None,612.442797,None,0.045572917,-0.299479167,1,0,0,4.8784439,tijiao_random_2,,260,f,22,2023_Mar_26_1036,RL,2021.2.3,59.95484203
1,-0.3,-0.225,0,30,30,30,,,,,,,,,,,,,,,None,None,None,None,None,614.0153592,None,614.0153592,None,614.0153592,None,614.0153592,None,r,0.3469031,614.0153592,None,614.0153592,None,614.4023952,None,614.4023952,None,614.4023952,None,614.4023952,None,614.4023952,None,614.4023952,None,614.6949924,None,614.6949924,None,615.8600675,None,615.8600675,None,615.8600675,None,615.8600675,None,615.8600675,None,615.8600675,None,615.8600675,None,615.8600675,None,615.8600675,None,74,58,49,23,74,26,None,None,None,None,None,None,None,None,None,None,None,None,74,618.389896,None,74,618.389896,None,618.389896,None,618.389896,None,618.389896,None,618.389896,None,618.389896,None,618.389896,None,0.05859375,-0.2734375,1,0,0,4.0861661,tijiao,0.01596591,None,618.389896,None,0.6,0,None,None,None,None,None,None,None,None,None,None,None,None,,None,None,None,None,None,None,None,None,7.666666667,1.5092618,622.5279807,None,622.5279807,None,622.5279807,None,622.5279807,None,None,None,624.0511765,None,,,,,,,,,260,f,22,2023_Mar_26_1036,RL,2021.2.3,59.95484203
0,0.3,0.225,0,31,31,31,,,,,,,,,,,,,,,None,None,None,None,None,625.8072032,None,625.8072032,None,625.8072032,None,625.8072032,None,r,0.7651277,625.8072032,None,625.8072032,None,626.6259559,None,626.6259559,None,626.6259559,None,626.6259559,None,626.6259559,None,626.6259559,None,626.9202105,None,626.9202105,None,628.3848687,None,628.3848687,None,628.3848687,None,628.3848687,None,628.3848687,None,628.3848687,None,628.3848687,None,628.3848687,None,628.3848687,None,80,61,48,21,80,31,None,None,None,None,None,None,None,None,None,None,None,None,70,630.9231079,None,70,630.9231079,None,630.9231079,None,630.9231079,None,630.9231079,None,630.9231079,None,630.9231079,None,630.9231079,None,0.104166667,-0.270833333,1,0,0,5.1971107,tijiao,0.00926821,None,630.9231079,None,-0.6,0,None,None,None,None,None,None,None,None,None,None,None,None,,None,None,None,None,None,None,None,None,7.2109375,1.8829651,636.171034,None,636.171034,None,636.171034,None,636.171034,None,None,None,638.0808581,None,,,,,,,,,260,f,22,2023_Mar_26_1036,RL,2021.2.3,59.95484203
1,-0.3,-0.225,0,32,32,32,,,,,,,,,,,,,,,None,None,None,None,None,639.766885,None,639.766885,None,639.766885,None,639.766885,None,r,0.7958498,639.766885,None,639.766885,None,640.6033809,None,640.6033809,None,640.6033809,None,640.6033809,None,640.6033809,None,640.6033809,None,640.8968593,None,640.8968593,None,642.1116317,None,642.1116317,None,642.1116317,None,642.1116317,None,642.1116317,None,642.1116317,None,642.1116317,None,642.1116317,None,642.1116317,None,80,67,39,21,80,69,None,None,None,None,None,None,None,None,None,None,None,None,75,644.6449215,None,75,644.6449215,None,644.6449215,None,644.6449215,None,644.6449215,None,644.6449215,None,644.6449215,None,644.6449215,None,-0.09765625,-0.248697917,1,0,0,4.733002,tijiao,0.01225511,None,644.6449215,None,-0.6,0,None,None,None,None,None,None,None,None,None,None,None,None,,None,None,None,None,None,None,None,None,6.052083333,1.3790034,649.9427671,None,649.9427671,None,649.9427671,None,649.9427671,None,None,None,651.337569,None,,,,,,,,,260,f,22,2023_Mar_26_1036,RL,2021.2.3,59.95484203
0,0.3,0.225,0,33,33,33,,,,,,,,,,,,,,,None,None,None,None,None,653.0088321,None,653.0088321,None,653.0088321,None,653.0088321,None,r,0.6239314,653.0088321,None,653.0088321,None,653.6800052,None,653.6800052,None,653.6800052,None,653.6800052,None,653.6800052,None,653.6800052,None,653.9724059,655.2232906,653.9724059,655.2232906,655.2547086,None,655.2547086,None,655.2547086,None,655.2547086,None,655.2547086,None,655.2547086,None,655.2547086,None,655.2547086,None,655.2547086,None,79,54,44,31,79,35,657.7772545,None,5,4.2380353,657.7772545,None,657.7772545,None,657.7772545,None,657.7772545,None,,None,None,,None,None,None,None,None,None,None,None,None,None,None,None,None,None,,,,,,,,None,None,None,None,-0.2,3,None,None,None,None,None,None,None,None,None,None,None,None,,None,None,None,None,None,None,None,None,None,None,None,None,None,None,None,None,None,None,None,None,662.0697568,None,,,,,,,,,260,f,22,2023_Mar_26_1036,RL,2021.2.3,59.95484203
1,-0.3,-0.225,0,34,34,34,,,,,,,,,,,,,,,None,None,None,None,None,663.600133,None,663.600133,None,663.600133,None,663.600133,None,f,1.0626931,663.600133,None,663.600133,None,664.704372,None,664.704372,None,664.704372,None,664.704372,None,664.704372,None,664.704372,None,664.9967567,666.2810016,664.9967567,666.2810016,666.3124068,None,666.3124068,None,666.3124068,None,666.3124068,None,666.3124068,None,666.3124068,None,666.3124068,None,666.3124068,None,666.3124068,None,74,58,43,26,58,68,None,None,None,None,None,None,None,None,None,None,None,None,30,668.8503643,None,30,668.8503643,None,668.8503643,None,668.8503643,None,668.8503643,None,668.8503643,None,668.8503643,None,668.8503643,None,0.044270833,-0.30859375,1,0,0,4.0604405,tijiao,0.00704551,None,668.8503643,None,-0.6,0,None,None,None,None,None,None,None,None,None,None,None,None,,None,None,None,None,None,None,None,None,4.0078125,2.8640997,672.9568054,None,672.9568054,None,672.9568054,None,672.9568054,None,None,None,675.8467502,None,,,,,,,,,260,f,22,2023_Mar_26_1036,RL,2021.2.3,59.95484203
0,0.3,0.225,0,35,35,35,,,,,,,,,,,,,,,None,None,None,None,None,677.4076673,None,677.4076673,None,677.4076673,None,677.4076673,None,i,0.4851383,677.4076673,None,677.4076673,None,677.9442587,None,677.9442587,None,677.9442587,None,677.9442587,None,677.9442587,None,677.9442587,None,678.2393385,None,678.2393385,None,679.5703957,None,679.5703957,None,679.5703957,None,679.5703957,None,679.5703957,None,679.5703957,None,679.5703957,None,679.5703957,None,679.5703957,None,78,51,46,26,46,59,None,None,None,None,None,None,None,None,None,None,None,None,40,682.1100659,None,40,682.1100659,None,682.1100659,None,682.1100659,None,682.1100659,None,682.1100659,None,682.1100659,None,682.1100659,None,-0.092447917,-0.252604167,1,0,0,11.5488289,tijiao,0.00720541,None,682.1100659,None,0.6,0,None,None,None,None,None,None,None,None,None,None,None,None,,None,None,None,None,None,None,None,None,3.825520833,2.3981717,693.706836,None,693.706836,None,693.706836,None,693.706836,None,None,None,696.1336459,None,,,,,,,,,260,f,22,2023_Mar_26_1036,RL,2021.2.3,59.95484203
1,-0.3,-0.225,0,36,36,36,,,,,,,,,,,,,,,None,None,None,None,None,697.7732805,None,697.7732805,None,697.7732805,None,697.7732805,None,i,0.4696333,697.7732805,None,697.7732805,None,698.2918042,None,698.2918042,None,698.2918042,None,698.2918042,None,698.2918042,None,698.2918042,None,698.5866766,None,698.5866766,None,699.835992,None,699.835992,None,699.835992,None,699.835992,None,699.835992,None,699.835992,None,699.835992,None,699.835992,None,699.835992,None,71,52,44,27,44,67,702.3581008,None,4,2.2187322,702.3581008,None,702.3581008,None,702.3581008,None,702.3581008,None,,None,None,,None,None,None,None,None,None,None,None,None,None,None,None,None,None,,,,,,,,None,None,None,None,-0.2,2,None,None,None,None,None,None,None,None,None,None,None,None,,None,None,None,None,None,None,None,None,None,None,None,None,None,None,None,None,None,None,None,None,704.6286316,None,,,,,,,,,260,f,22,2023_Mar_26_1036,RL,2021.2.3,59.95484203
0,0.3,0.225,0,37,37,37,,,,,,,,,,,,,,,None,None,None,None,None,706.6294276,None,706.6294276,None,706.6294276,None,706.6294276,None,i,0.6735263,706.6294276,None,706.6294276,None,707.3495872,None,707.3495872,None,707.3495872,None,707.3495872,None,707.3495872,None,707.3495872,None,707.6429088,708.5439294,707.6429088,708.5439294,708.575093,None,708.575093,None,708.575093,None,708.575093,None,708.575093,None,708.575093,None,708.575093,None,708.575093,None,708.575093,None,63,52,39,19,39,67,None,None,None,None,None,None,None,None,None,None,None,None,,None,None,,None,None,None,None,None,None,None,None,None,None,None,None,None,None,,,,,,,,None,None,None,None,0.2,1,711.1254178,None,711.1254178,None,711.1254178,None,711.1254178,None,711.1254178,None,711.1254178,None,39,711.1254178,None,711.1254178,None,0.01216248,None,711.1254178,None,5.9609375,1.7134134,719.1592618,None,719.1592618,None,719.1592618,None,719.1592618,None,None,None,720.9026842,None,0.072916667,-0.291666667,1,0,0,8.0023658,tijiao_random_2,,260,f,22,2023_Mar_26_1036,RL,2021.2.3,59.95484203
1,-0.3,-0.225,0,38,38,38,,,,,,,,,,,,,,,None,None,None,None,None,722.539335,None,722.539335,None,722.539335,None,722.539335,None,i,0.7337567,722.539335,None,722.539335,None,723.3236195,None,723.3236195,None,723.3236195,None,723.3236195,None,723.3236195,None,723.3236195,None,723.6206885,724.70459,723.6206885,724.70459,724.7416661,None,724.7416661,None,724.7416661,None,724.7416661,None,724.7416661,None,724.7416661,None,724.7416661,None,724.7416661,None,724.7416661,None,74,54,36,27,36,28,None,None,None,None,None,None,None,None,None,None,None,None,,None,None,,None,None,None,None,None,None,None,None,None,None,None,None,None,None,,,,,,,,None,None,None,None,0.2,1,727.2879238,None,727.2879238,None,727.2879238,None,727.2879238,None,727.2879238,None,727.2879238,None,30,727.2879238,None,727.2879238,None,0.01030118,None,727.2879238,None,6.859375,1.1247977,734.3700531,None,734.3700531,None,734.3700531,None,734.3700531,None,None,None,735.5255528,None,0.069010417,-0.29296875,1,0,0,7.0497274,tijiao_random_2,,260,f,22,2023_Mar_26_1036,RL,2021.2.3,59.95484203
0,0.3,0.225,0,39,39,39,,,,,,,,,,,,,,,None,None,None,None,None,737.4848907,None,737.4848907,None,737.4848907,None,737.4848907,None,i,0.6886333,737.4848907,None,737.4848907,None,738.2198709,None,738.2198709,None,738.2198709,None,738.2198709,None,738.2198709,None,738.2198709,None,738.5145773,None,738.5145773,None,739.9295772,None,739.9295772,None,739.9295772,None,739.9295772,None,739.9295772,None,739.9295772,None,739.9295772,None,739.9295772,None,739.9295772,None,74,49,25,26,25,35,742.4485096,None,4,1.9731354,742.4485096,None,742.4485096,None,742.4485096,None,742.4485096,None,,None,None,,None,None,None,None,None,None,None,None,None,None,None,None,None,None,,,,,,,,None,None,None,None,0.6,3,None,None,None,None,None,None,None,None,None,None,None,None,,None,None,None,None,None,None,None,None,None,None,None,None,None,None,None,None,None,None,None,None,744.4884996,None,,,,,,,,,260,f,22,2023_Mar_26_1036,RL,2021.2.3,59.95484203
1,-0.3,-0.225,0,40,40,40,,,,,,,,,,,,,,,None,None,None,None,None,746.3903942,None,746.3903942,None,746.3903942,None,746.3903942,None,r,0.4329061,746.3903942,None,746.3903942,None,746.8783196,None,746.8783196,None,746.8783196,None,746.8783196,None,746.8783196,None,746.8783196,None,747.1539444,748.2711152,747.1539444,748.2711152,748.3256418,None,748.3256418,None,748.3256418,None,748.3256418,None,748.3256418,None,748.3256418,None,748.3256418,None,748.3256418,None,748.3256418,None,64,55,35,20,64,65,None,None,None,None,None,None,None,None,None,None,None,None,,None,None,,None,None,None,None,None,None,None,None,None,None,None,None,None,None,,,,,,,,None,None,None,None,0.2,1,750.8873056,None,750.8873056,None,750.8873056,None,750.8873056,None,750.8873056,None,750.8873056,None,30,750.8873056,None,750.8873056,None,0.01110638,None,750.8873056,None,5.973958333,1.077543,754.3505135,None,754.3505135,None,754.3505135,None,754.3505135,None,None,None,755.4424726,None,0.061197917,-0.296875,1,0,0,3.4321111,tijiao_random_2,,260,f,22,2023_Mar_26_1036,RL,2021.2.3,59.95484203
0,0.3,0.225,0,41,41,41,,,,,,,,,,,,,,,None,None,None,None,None,757.298042,None,757.298042,None,757.298042,None,757.298042,None,r,0.3662783,757.298042,None,757.298042,None,757.7170667,None,757.7170667,None,757.7170667,None,757.7170667,None,757.7170667,None,757.7170667,None,758.0112055,None,758.0112055,None,759.775422,None,759.775422,None,759.775422,None,759.775422,None,759.775422,None,759.775422,None,759.775422,None,759.775422,None,759.775422,None,64,51,31,26,64,68,762.2946171,None,4,2.0046505,762.2946171,None,762.2946171,None,762.2946171,None,762.2946171,None,,None,None,,None,None,None,None,None,None,None,None,None,None,None,None,None,None,,,,,,,,None,None,None,None,0.6,2,None,None,None,None,None,None,None,None,None,None,None,None,,None,None,None,None,None,None,None,None,None,None,None,None,None,None,None,None,None,None,None,None,764.3546575,None,,,,,,,,,260,f,22,2023_Mar_26_1036,RL,2021.2.3,59.95484203
1,-0.3,-0.225,0,42,42,42,,,,,,,,,,,,,,,None,None,None,None,None,766.238037,None,766.238037,None,766.238037,None,766.238037,None,r,0.4463125,766.238037,None,766.238037,None,766.7273041,None,766.7273041,None,766.7273041,None,766.7273041,None,766.7273041,None,766.7273041,None,767.0173947,768.1516122,767.0173947,768.1516122,768.1886142,None,768.1886142,None,768.1886142,None,768.1886142,None,768.1886142,None,768.1886142,None,768.1886142,None,768.1886142,None,768.1886142,None,60,52,33,25,60,30,None,None,None,None,None,None,None,None,None,None,None,None,60,770.7184717,None,60,770.7184717,None,770.7184717,None,770.7184717,None,770.7184717,None,770.7184717,None,770.7184717,None,770.7184717,None,-0.07421875,-0.268229167,1,0,0,5.6804016,tijiao,0.00980691,None,770.7184717,None,0.6,0,None,None,None,None,None,None,None,None,None,None,None,None,,None,None,None,None,None,None,None,None,6.078125,2.0661317,776.4443845,None,776.4443845,None,776.4443845,None,776.4443845,None,None,None,778.525037,None,,,,,,,,,260,f,22,2023_Mar_26_1036,RL,2021.2.3,59.95484203
0,0.3,0.225,0,43,43,43,,,,,,,,,,,,,,,None,None,None,None,None,780.2142252,None,780.2142252,None,780.2142252,None,780.2142252,None,f,0.8202848,780.2142252,None,780.2142252,None,781.0823208,None,781.0823208,None,781.0823208,None,781.0823208,None,781.0823208,None,781.0823208,None,781.3774688,None,781.3774688,None,783.2257107,None,783.2257107,None,783.2257107,None,783.2257107,None,783.2257107,None,783.2257107,None,783.2257107,None,783.2257107,None,783.2257107,None,71,55,36,29,55,73,785.7462455,None,4,2.0037678,785.7462455,None,785.7462455,None,785.7462455,None,785.7462455,None,,None,None,,None,None,None,None,None,None,None,None,None,None,None,None,None,None,,,,,,,,None,None,None,None,0.2,3,None,None,None,None,None,None,None,None,None,None,None,None,,None,None,None,None,None,None,None,None,None,None,None,None,None,None,None,None,None,None,None,None,787.8048901,None,,,,,,,,,260,f,22,2023_Mar_26_1036,RL,2021.2.3,59.95484203
1,-0.3,-0.225,0,44,44,44,,,,,,,,,,,,,,,None,None,None,None,None,789.6543499,None,789.6543499,None,789.6543499,None,789.6543499,None,r,0.4301393,789.6543499,None,789.6543499,None,790.1216856,None,790.1216856,None,790.1216856,None,790.1216856,None,790.1216856,None,790.1216856,None,790.4163211,None,790.4163211,None,792.1810561,None,792.1810561,None,792.1810561,None,792.1810561,None,792.1810561,None,792.1810561,None,792.1810561,None,792.1810561,None,792.1810561,None,67,54,38,34,67,68,794.7064684,None,4,1.7160638,794.7064684,None,794.7064684,None,794.7064684,None,794.7064684,None,,None,None,,None,None,None,None,None,None,None,None,None,None,None,None,None,None,,,,,,,,None,None,None,None,-0.6,3,None,None,None,None,None,None,None,None,None,None,None,None,,None,None,None,None,None,None,None,None,None,None,None,None,None,None,None,None,None,None,None,None,796.4771965,None,,,,,,,,,260,f,22,2023_Mar_26_1036,RL,2021.2.3,59.95484203
0,0.3,0.225,0,45,45,45,,,,,,,,,,,,,,,None,None,None,None,None,798.2102271,None,798.2102271,None,798.2102271,None,798.2102271,None,r,0.504382,798.2102271,None,798.2102271,None,798.7603534,None,798.7603534,None,798.7603534,None,798.7603534,None,798.7603534,None,798.7603534,None,799.0565449,None,799.0565449,None,799.9043157,None,799.9043157,None,799.9043157,None,799.9043157,None,799.9043157,None,799.9043157,None,799.9043157,None,799.9043157,None,799.9043157,None,71,47,37,31,71,62,None,None,None,None,None,None,None,None,None,None,None,None,60,802.442663,None,60,802.442663,None,802.442663,None,802.442663,None,802.442663,None,802.442663,None,802.442663,None,802.442663,None,-0.016927083,-0.283854167,1,0,0,3.9279418,tijiao,0.00827511,None,802.442663,None,0.2,0,None,None,None,None,None,None,None,None,None,None,None,None,,None,None,None,None,None,None,None,None,6.3515625,0.7970121,806.4202646,None,806.4202646,None,806.4202646,None,806.4202646,None,None,None,807.2282655,None,,,,,,,,,260,f,22,2023_Mar_26_1036,RL,2021.2.3,59.95484203
1,-0.3,-0.225,0,46,46,46,,,,,,,,,,,,,,,None,None,None,None,None,808.9672581,None,808.9672581,None,808.9672581,None,808.9672581,None,r,0.4174009,808.9672581,None,808.9672581,None,809.435853,None,809.435853,None,809.435853,None,809.435853,None,809.435853,None,809.435853,None,809.7304283,811.3149932,809.7304283,811.3149932,811.3470353,None,811.3470353,None,811.3470353,None,811.3470353,None,811.3470353,None,811.3470353,None,811.3470353,None,811.3470353,None,811.3470353,None,69,44,31,31,69,31,None,None,None,None,None,None,None,None,None,None,None,None,,None,None,,None,None,None,None,None,None,None,None,None,None,None,None,None,None,,,,,,,,None,None,None,None,0.2,1,813.8913022,None,813.8913022,None,813.8913022,None,813.8913022,None,813.8913022,None,813.8913022,None,30,813.8913022,None,813.8913022,None,0.01638768,None,813.8913022,None,5.466145833,1.0785225,817.3418503,None,817.3418503,None,817.3418503,None,817.3418503,None,None,None,818.4519056,None,0.063802083,-0.270833333,1,0,0,3.4200844,tijiao_random_2,,260,f,22,2023_Mar_26_1036,RL,2021.2.3,59.95484203
0,0.3,0.225,0,47,47,47,,,,,,,,,,,,,,,None,None,None,None,None,820.1418967,None,820.1418967,None,820.1418967,None,820.1418967,None,r,0.4729738,820.1418967,None,820.1418967,None,820.6618496,None,820.6618496,None,820.6618496,None,820.6618496,None,820.6618496,None,820.6618496,None,820.9549519,None,820.9549519,None,822.2933098,None,822.2933098,None,822.2933098,None,822.2933098,None,822.2933098,None,822.2933098,None,822.2933098,None,822.2933098,None,822.2933098,None,57,64,21,19,57,67,None,None,None,None,None,None,None,None,None,None,None,None,,None,None,,None,None,None,None,None,None,None,None,None,None,None,None,None,None,,,,,,,,None,None,None,None,0.6,1,824.8388762,None,824.8388762,None,824.8388762,None,824.8388762,None,824.8388762,None,824.8388762,None,20,824.8388762,None,824.8388762,None,0.01054748,None,824.8388762,None,3.239583333,1.6091975,828.4223684,None,828.4223684,None,828.4223684,None,828.4223684,None,None,None,830.0441384,None,-0.087239583,-0.295572917,1,0,0,3.5477159,tijiao_random_2,,260,f,22,2023_Mar_26_1036,RL,2021.2.3,59.95484203
1,-0.3,-0.225,0,48,48,48,,,,,,,,,,,,,,,None,None,None,None,None,831.933486,None,831.933486,None,831.933486,None,831.933486,None,j,0.4217201,831.933486,None,831.933486,None,832.4007918,None,832.4007918,None,832.4007918,None,832.4007918,None,832.4007918,None,832.4007918,None,832.6964377,833.930626,832.6964377,833.930626,833.9610513,None,833.9610513,None,833.9610513,None,833.9610513,None,833.9610513,None,833.9610513,None,833.9610513,None,833.9610513,None,833.9610513,None,61,64,34,24,24,39,836.478272,None,4,1.7569914,836.478272,None,836.478272,None,836.478272,None,836.478272,None,,None,None,,None,None,None,None,None,None,None,None,None,None,None,None,None,None,,,,,,,,None,None,None,None,-0.2,3,None,None,None,None,None,None,None,None,None,None,None,None,,None,None,None,None,None,None,None,None,None,None,None,None,None,None,None,None,None,None,None,None,838.2951005,None,,,,,,,,,260,f,22,2023_Mar_26_1036,RL,2021.2.3,59.95484203
0,0.3,0.225,0,49,49,49,,,,,,,,,,,,,,,None,None,None,None,None,840.1221697,None,840.1221697,None,840.1221697,None,840.1221697,None,j,0.4829369,840.1221697,None,840.1221697,None,840.657699,None,840.657699,None,840.657699,None,840.657699,None,840.657699,None,840.657699,None,840.9521014,None,840.9521014,None,842.5508095,None,842.5508095,None,842.5508095,None,842.5508095,None,842.5508095,None,842.5508095,None,842.5508095,None,842.5508095,None,842.5508095,None,61,76,36,28,28,65,None,None,None,None,None,None,None,None,None,None,None,None,,None,None,,None,None,None,None,None,None,None,None,None,None,None,None,None,None,,,,,,,,None,None,None,None,0.2,1,845.1012223,None,845.1012223,None,845.1012223,None,845.1012223,None,845.1012223,None,845.1012223,None,35,845.1012223,None,845.1012223,None,0.01160508,None,845.1012223,None,5.947916667,1.863338,848.5643421,None,848.5643421,None,848.5643421,None,848.5643421,None,None,None,850.4413028,None,0.104166667,-0.299479167,1,0,0,3.4311718,tijiao_random_2,,260,f,22,2023_Mar_26_1036,RL,2021.2.3,59.95484203
1,-0.3,-0.225,0,50,50,50,,,,,,,,,,,,,,,None,None,None,None,None,851.9630856,None,851.9630856,None,851.9630856,None,851.9630856,None,i,0.4218803,851.9630856,None,851.9630856,None,852.4336345,None,852.4336345,None,852.4336345,None,852.4336345,None,852.4336345,None,852.4336345,None,852.7270077,None,852.7270077,None,853.7081587,None,853.7081587,None,853.7081587,None,853.7081587,None,853.7081587,None,853.7081587,None,853.7081587,None,853.7081587,None,853.7081587,None,68,65,26,19,26,66,856.2330745,None,3,1.7855404,856.2330745,None,856.2330745,None,856.2330745,None,856.2330745,None,,None,None,,None,None,None,None,None,None,None,None,None,None,None,None,None,None,,,,,,,,None,None,None,None,-0.6,3,None,None,None,None,None,None,None,None,None,None,None,None,,None,None,None,None,None,None,None,None,None,None,None,None,None,None,None,None,None,None,None,None,858.0731445,None,,,,,,,,,260,f,22,2023_Mar_26_1036,RL,2021.2.3,59.95484203
0,0.3,0.225,0,51,51,51,,,,,,,,,,,,,,,None,None,None,None,None,859.9693762,None,859.9693762,None,859.9693762,None,859.9693762,None,r,0.6655941,859.9693762,None,859.9693762,None,860.6863321,None,860.6863321,None,860.6863321,None,860.6863321,None,860.6863321,None,860.6863321,None,860.982898,None,860.982898,None,862.7646324,None,862.7646324,None,862.7646324,None,862.7646324,None,862.7646324,None,862.7646324,None,862.7646324,None,862.7646324,None,862.7646324,None,60,67,19,28,60,35,865.2825129,None,4,1.8077203,865.2825129,None,865.2825129,None,865.2825129,None,865.2825129,None,,None,None,,None,None,None,None,None,None,None,None,None,None,None,None,None,None,,,,,,,,None,None,None,None,0.6,3,None,None,None,None,None,None,None,None,None,None,None,None,,None,None,None,None,None,None,None,None,None,None,None,None,None,None,None,None,None,None,None,None,867.1421739,None,,,,,,,,,260,f,22,2023_Mar_26_1036,RL,2021.2.3,59.95484203
1,-0.3,-0.225,0,52,52,52,,,,,,,,,,,,,,,None,None,None,None,None,868.9759832,None,868.9759832,None,868.9759832,None,868.9759832,None,r,0.9791273,868.9759832,None,868.9759832,None,869.9944143,None,869.9944143,None,869.9944143,None,869.9944143,None,869.9944143,None,869.9944143,None,870.2895393,871.0900157,870.2895393,871.0900157,871.1217376,None,871.1217376,None,871.1217376,None,871.1217376,None,871.1217376,None,871.1217376,None,871.1217376,None,871.1217376,None,871.1217376,None,61,60,24,19,61,60,None,None,None,None,None,None,None,None,None,None,None,None,65,873.6547905,None,65,873.6547905,None,873.6547905,None,873.6547905,None,873.6547905,None,873.6547905,None,873.6547905,None,873.6547905,None,0.106770833,-0.2734375,1,0,0,6.0348788,tijiao,0.01257621,None,873.6547905,None,-0.2,0,None,None,None,None,None,None,None,None,None,None,None,None,,None,None,None,None,None,None,None,None,7.901041667,1.3841757,879.7344522,None,879.7344522,None,879.7344522,None,879.7344522,None,None,None,881.1454848,None,,,,,,,,,260,f,22,2023_Mar_26_1036,RL,2021.2.3,59.95484203
0,0.3,0.225,0,53,53,53,,,,,,,,,,,,,,,None,None,None,None,None,882.9857836,None,882.9857836,None,882.9857836,None,882.9857836,None,r,0.359678,882.9857836,None,882.9857836,None,883.3918667,None,883.3918667,None,883.3918667,None,883.3918667,None,883.3918667,None,883.3918667,None,883.6818056,884.7157668,883.6818056,884.7157668,884.7484809,None,884.7484809,None,884.7484809,None,884.7484809,None,884.7484809,None,884.7484809,None,884.7484809,None,884.7484809,None,884.7484809,None,59,66,29,26,59,60,None,None,None,None,None,None,None,None,None,None,None,None,,None,None,,None,None,None,None,None,None,None,None,None,None,None,None,None,None,,,,,,,,None,None,None,None,0.6,1,887.2997717,None,887.2997717,None,887.2997717,None,887.2997717,None,887.2997717,None,887.2997717,None,20,887.2997717,None,887.2997717,None,0.00878668,None,887.2997717,None,7.223958333,0.8909421,891.2320981,None,891.2320981,None,891.2320981,None,891.2320981,None,None,None,892.1372048,None,0.092447917,-0.278645833,1,0,0,3.8956618,tijiao_random_2,,260,f,22,2023_Mar_26_1036,RL,2021.2.3,59.95484203
1,-0.3,-0.225,0,54,54,54,,,,,,,,,,,,,,,None,None,None,None,None,894.0100751,None,894.0100751,None,894.0100751,None,894.0100751,None,r,0.4351509,894.0100751,None,894.0100751,None,894.4945988,None,894.4945988,None,894.4945988,None,894.4945988,None,894.4945988,None,894.4945988,None,894.7896695,895.7568802,894.7896695,895.7568802,895.7885782,None,895.7885782,None,895.7885782,None,895.7885782,None,895.7885782,None,895.7885782,None,895.7885782,None,895.7885782,None,895.7885782,None,68,72,15,25,68,66,None,None,None,None,None,None,None,None,None,None,None,None,60,898.3234007,None,60,898.3234007,None,898.3234007,None,898.3234007,None,898.3234007,None,898.3234007,None,898.3234007,None,898.3234007,None,-0.022135417,-0.303385417,1,0,0,4.5318855,tijiao,0.01135401,None,898.3234007,None,0.2,0,None,None,None,None,None,None,None,None,None,None,None,None,,None,None,None,None,None,None,None,None,7.067708333,1.2925779,902.9091991,None,902.9091991,None,902.9091991,None,902.9091991,None,None,None,904.2280754,None,,,,,,,,,260,f,22,2023_Mar_26_1036,RL,2021.2.3,59.95484203
0,0.3,0.225,0,55,55,55,,,,,,,,,,,,,,,None,None,None,None,None,905.7515917,None,905.7515917,None,905.7515917,None,905.7515917,None,r,0.3637427,905.7515917,None,905.7515917,None,906.1547203,None,906.1547203,None,906.1547203,None,906.1547203,None,906.1547203,None,906.1547203,None,906.447669,907.7652302,906.447669,907.7652302,907.8024724,None,907.8024724,None,907.8024724,None,907.8024724,None,907.8024724,None,907.8024724,None,907.8024724,None,907.8024724,None,907.8024724,None,70,64,16,35,70,50,None,None,None,None,None,None,None,None,None,None,None,None,,None,None,,None,None,None,None,None,None,None,None,None,None,None,None,None,None,,,,,,,,None,None,None,None,0.2,1,910.3471943,None,910.3471943,None,910.3471943,None,910.3471943,None,910.3471943,None,910.3471943,None,35,910.3471943,None,910.3471943,None,0.01095468,None,910.3471943,None,7.041666667,1.6097726,914.4568073,None,914.4568073,None,914.4568073,None,914.4568073,None,None,None,916.078576,None,0.138020833,-0.282552083,1,0,0,4.0645258,tijiao_random_2,,260,f,22,2023_Mar_26_1036,RL,2021.2.3,59.95484203
1,-0.3,-0.225,0,56,56,56,,,,,,,,,,,,,,,None,None,None,None,None,917.626692,None,917.626692,None,917.626692,None,917.626692,None,r,0.9097432,917.626692,None,917.626692,None,918.5803534,None,918.5803534,None,918.5803534,None,918.5803534,None,918.5803534,None,918.5803534,None,918.87319,920.4909767,918.87319,920.4909767,920.5248048,None,920.5248048,None,920.5248048,None,920.5248048,None,920.5248048,None,920.5248048,None,920.5248048,None,920.5248048,None,920.5248048,None,69,64,21,27,69,52,None,None,None,None,None,None,None,None,None,None,None,None,50,923.0532197,None,50,923.0532197,None,923.0532197,None,923.0532197,None,923.0532197,None,923.0532197,None,923.0532197,None,923.0532197,None,0.041666667,-0.2578125,1,0,0,9.0382387,tijiao,0.01479711,None,923.0532197,None,-0.2,0,None,None,None,None,None,None,None,None,None,None,None,None,,None,None,None,None,None,None,None,None,6,0.8700933,932.135583,None,932.135583,None,932.135583,None,932.135583,None,None,None,933.0364124,None,,,,,,,,,260,f,22,2023_Mar_26_1036,RL,2021.2.3,59.95484203
0,0.3,0.225,0,57,57,57,,,,,,,,,,,,,,,None,None,None,None,None,934.8875183,None,934.8875183,None,934.8875183,None,934.8875183,None,f,0.3893618,934.8875183,None,934.8875183,None,935.3280178,None,935.3280178,None,935.3280178,None,935.3280178,None,935.3280178,None,935.3280178,None,935.6181573,937.0523643,935.6181573,937.0523643,937.0843704,None,937.0843704,None,937.0843704,None,937.0843704,None,937.0843704,None,937.0843704,None,937.0843704,None,937.0843704,None,937.0843704,None,66,57,21,31,57,41,None,None,None,None,None,None,None,None,None,None,None,None,50,939.614862,None,50,939.614862,None,939.614862,None,939.614862,None,939.614862,None,939.614862,None,939.614862,None,939.614862,None,0.130208333,-0.28515625,1,0,0,3.2003279,tijiao,0.01373291,None,939.614862,None,0.2,0,None,None,None,None,None,None,None,None,None,None,None,None,,None,None,None,None,None,None,None,None,6.052083333,0.9641552,942.8617174,None,942.8617174,None,942.8617174,None,942.8617174,None,None,None,943.8526587,None,,,,,,,,,260,f,22,2023_Mar_26_1036,RL,2021.2.3,59.95484203
1,-0.3,-0.225,0,58,58,58,,,,,,,,,,,,,,,None,None,None,None,None,945.5122369,None,945.5122369,None,945.5122369,None,945.5122369,None,f,0.4443572,945.5122369,None,945.5122369,None,946.0033667,None,946.0033667,None,946.0033667,None,946.0033667,None,946.0033667,None,946.0033667,None,946.2921813,947.7429702,946.2921813,947.7429702,947.7808503,None,947.7808503,None,947.7808503,None,947.7808503,None,947.7808503,None,947.7808503,None,947.7808503,None,947.7808503,None,947.7808503,None,75,49,32,22,49,46,None,None,None,None,None,None,None,None,None,None,None,None,65,950.3050779,None,65,950.3050779,None,950.3050779,None,950.3050779,None,950.3050779,None,950.3050779,None,950.3050779,None,950.3050779,None,0.158854167,-0.27734375,1,0,0,4.9859979,tijiao,0.01504261,None,950.3050779,None,0.6,0,None,None,None,None,None,None,None,None,None,None,None,None,,None,None,None,None,None,None,None,None,6.182291667,0.7140949,955.3395269,None,955.3395269,None,955.3395269,None,955.3395269,None,None,None,956.0859554,None,,,,,,,,,260,f,22,2023_Mar_26_1036,RL,2021.2.3,59.95484203
0,0.3,0.225,0,59,59,59,,,,,,,,,,,,,,,None,None,None,None,None,957.9881776,None,957.9881776,None,957.9881776,None,957.9881776,None,r,0.3587913,957.9881776,None,957.9881776,None,958.3922541,None,958.3922541,None,958.3922541,None,958.3922541,None,958.3922541,None,958.3922541,None,958.6841137,959.5679158,958.6841137,959.5679158,959.6019931,None,959.6019931,None,959.6019931,None,959.6019931,None,959.6019931,None,959.6019931,None,959.6019931,None,959.6019931,None,959.6019931,None,71,60,40,28,71,52,None,None,None,None,None,None,None,None,None,None,None,None,70,962.128368,None,70,962.128368,None,962.128368,None,962.128368,None,962.128368,None,962.128368,None,962.128368,None,962.128368,None,0.022135417,-0.272135417,1,0,0,3.9868309,tijiao,0.01622861,None,962.128368,None,0.6,0,None,None,None,None,None,None,None,None,None,None,None,None,,None,None,None,None,None,None,None,None,9.072916667,0.9486823,966.1626281,None,966.1626281,None,966.1626281,None,966.1626281,None,None,None,967.138368,None,,,,,,,,,260,f,22,2023_Mar_26_1036,RL,2021.2.3,59.95484203
1,-0.3,-0.225,0,60,60,60,,,,,,,,,,,,,,,None,None,None,None,None,968.6614817,None,968.6614817,None,968.6614817,None,968.6614817,None,r,0.4652448,968.6614817,None,968.6614817,None,969.1803486,None,969.1803486,None,969.1803486,None,969.1803486,None,969.1803486,None,969.1803486,None,969.4747472,970.6087809,969.4747472,970.6087809,970.6438423,None,970.6438423,None,970.6438423,None,970.6438423,None,970.6438423,None,970.6438423,None,970.6438423,None,970.6438423,None,970.6438423,None,61,46,32,21,61,48,973.1588435,None,5,2.0072808,973.1588435,None,973.1588435,None,973.1588435,None,973.1588435,None,,None,None,,None,None,None,None,None,None,None,None,None,None,None,None,None,None,,,,,,,,None,None,None,None,-0.6,2,None,None,None,None,None,None,None,None,None,None,None,None,,None,None,None,None,None,None,None,None,None,None,None,None,None,None,None,None,None,None,None,None,975.2280417,None,,,,,,,,,260,f,22,2023_Mar_26_1036,RL,2021.2.3,59.95484203
0,0.3,0.225,0,61,61,61,,,,,,,,,,,,,,,None,None,None,None,None,977.0169338,None,977.0169338,None,977.0169338,None,977.0169338,None,r,1.3198607,977.0169338,None,977.0169338,None,978.3873036,None,978.3873036,None,978.3873036,None,978.3873036,None,978.3873036,None,978.3873036,None,978.6811393,None,978.6811393,None,979.6688022,None,979.6688022,None,979.6688022,None,979.6688022,None,979.6688022,None,979.6688022,None,979.6688022,None,979.6688022,None,979.6688022,None,78,45,37,31,78,47,982.1787956,None,5,1.2402926,982.1787956,None,982.1787956,None,982.1787956,None,982.1787956,None,,None,None,,None,None,None,None,None,None,None,None,None,None,None,None,None,None,,,,,,,,None,None,None,None,-0.2,3,None,None,None,None,None,None,None,None,None,None,None,None,,None,None,None,None,None,None,None,None,None,None,None,None,None,None,None,None,None,None,None,None,983.4743187,None,,,,,,,,,260,f,22,2023_Mar_26_1036,RL,2021.2.3,59.95484203
1,-0.3,-0.225,0,62,62,62,,,,,,,,,,,,,,,None,None,None,None,None,985.4730193,None,985.4730193,None,985.4730193,None,985.4730193,None,r,0.643827,985.4730193,None,985.4730193,None,986.1580858,None,986.1580858,None,986.1580858,None,986.1580858,None,986.1580858,None,986.1580858,None,986.453141,None,986.453141,None,988.1837602,None,988.1837602,None,988.1837602,None,988.1837602,None,988.1837602,None,988.1837602,None,988.1837602,None,988.1837602,None,988.1837602,None,71,45,24,17,71,48,None,None,None,None,None,None,None,None,None,None,None,None,70,990.7211451,None,70,990.7211451,None,990.7211451,None,990.7211451,None,990.7211451,None,990.7211451,None,990.7211451,None,990.7211451,None,-0.020833333,-0.291666667,1,0,0,3.6804839,tijiao,0.01055561,None,990.7211451,None,-0.6,0,None,None,None,None,None,None,None,None,None,None,None,None,,None,None,None,None,None,None,None,None,8.916666667,1.046414,994.4596855,None,994.4596855,None,994.4596855,None,994.4596855,None,None,None,995.5249081,None,,,,,,,,,260,f,22,2023_Mar_26_1036,RL,2021.2.3,59.95484203
0,0.3,0.225,0,63,63,63,,,,,,,,,,,,,,,None,None,None,None,None,997.1977358,None,997.1977358,None,997.1977358,None,997.1977358,None,r,0.8392745,997.1977358,None,997.1977358,None,998.0840048,None,998.0840048,None,998.0840048,None,998.0840048,None,998.0840048,None,998.0840048,None,998.3779935,None,998.3779935,None,1000.393834,None,1000.393834,None,1000.393834,None,1000.393834,None,1000.393834,None,1000.393834,None,1000.393834,None,1000.393834,None,1000.393834,None,73,42,26,23,73,32,1002.911374,None,5,1.1538281,1002.911374,None,1002.911374,None,1002.911374,None,1002.911374,None,,None,None,,None,None,None,None,None,None,None,None,None,None,None,None,None,None,,,,,,,,None,None,None,None,0.6,2,None,None,None,None,None,None,None,None,None,None,None,None,,None,None,None,None,None,None,None,None,None,None,None,None,None,None,None,None,None,None,None,None,1004.120951,None,,,,,,,,,260,f,22,2023_Mar_26_1036,RL,2021.2.3,59.95484203
1,-0.3,-0.225,0,64,64,64,,,,,,,,,,,,,,,None,None,None,None,None,1006.053826,None,1006.053826,None,1006.053826,None,1006.053826,None,r,0.643185,1006.053826,None,1006.053826,None,1006.74174,None,1006.74174,None,1006.74174,None,1006.74174,None,1006.74174,None,1006.74174,None,1007.034128,None,1007.034128,None,1008.782728,None,1008.782728,None,1008.782728,None,1008.782728,None,1008.782728,None,1008.782728,None,1008.782728,None,1008.782728,None,1008.782728,None,72,55,39,25,72,30,1011.307149,None,5,1.0839966,1011.307149,None,1011.307149,None,1011.307149,None,1011.307149,None,,None,None,,None,None,None,None,None,None,None,None,None,None,None,None,None,None,,,,,,,,None,None,None,None,-0.6,2,None,None,None,None,None,None,None,None,None,None,None,None,,None,None,None,None,None,None,None,None,None,None,None,None,None,None,None,None,None,None,None,None,1012.467246,None,,,,,,,,,260,f,22,2023_Mar_26_1036,RL,2021.2.3,59.95484203
0,0.3,0.225,0,65,65,65,,,,,,,,,,,,,,,None,None,None,None,None,1014.426163,None,1014.426163,None,1014.426163,None,1014.426163,None,r,0.591099,1014.426163,None,1014.426163,None,1015.06167,None,1015.06167,None,1015.06167,None,1015.06167,None,1015.06167,None,1015.06167,None,1015.356653,1016.707626,1015.356653,1016.707626,1016.738423,None,1016.738423,None,1016.738423,None,1016.738423,None,1016.738423,None,1016.738423,None,1016.738423,None,1016.738423,None,1016.738423,None,72,55,37,32,72,41,None,None,None,None,None,None,None,None,None,None,None,None,70,1019.274901,None,70,1019.274901,None,1019.274901,None,1019.274901,None,1019.274901,None,1019.274901,None,1019.274901,None,1019.274901,None,0.092447917,-0.272135417,1,0,0,3.5975128,tijiao,0.01040851,None,1019.274901,None,0.2,0,None,None,None,None,None,None,None,None,None,None,None,None,,None,None,None,None,None,None,None,None,9.190104167,0.8472667,1022.919097,None,1022.919097,None,1022.919097,None,1022.919097,None,None,None,1023.779001,None,,,,,,,,,260,f,22,2023_Mar_26_1036,RL,2021.2.3,59.95484203
1,-0.3,-0.225,0,66,66,66,,,,,,,,,,,,,,,None,None,None,None,None,1025.317109,None,1025.317109,None,1025.317109,None,1025.317109,None,r,0.7700608,1025.317109,None,1025.317109,None,1026.13682,None,1026.13682,None,1026.13682,None,1026.13682,None,1026.13682,None,1026.13682,None,1026.430988,None,1026.430988,None,1028.112555,None,1028.112555,None,1028.112555,None,1028.112555,None,1028.112555,None,1028.112555,None,1028.112555,None,1028.112555,None,1028.112555,None,84,58,36,25,84,35,1030.630779,None,5,1.1878139,1030.630779,None,1030.630779,None,1030.630779,None,1030.630779,None,,None,None,,None,None,None,None,None,None,None,None,None,None,None,None,None,None,,,,,,,,None,None,None,None,0.2,3,None,None,None,None,None,None,None,None,None,None,None,None,,None,None,None,None,None,None,None,None,None,None,None,None,None,None,None,None,None,None,None,None,1031.87387,None,,,,,,,,,260,f,22,2023_Mar_26_1036,RL,2021.2.3,59.95484203
0,0.3,0.225,0,67,67,67,,,,,,,,,,,,,,,None,None,None,None,None,1033.53919,None,1033.53919,None,1033.53919,None,1033.53919,None,r,0.5680787,1033.53919,None,1033.53919,None,1034.157776,None,1034.157776,None,1034.157776,None,1034.157776,None,1034.157776,None,1034.157776,None,1034.453033,None,1034.453033,None,1036.252632,None,1036.252632,None,1036.252632,None,1036.252632,None,1036.252632,None,1036.252632,None,1036.252632,None,1036.252632,None,1036.252632,None,77,58,32,34,77,38,1038.771941,None,5,1.3529899,1038.771941,None,1038.771941,None,1038.771941,None,1038.771941,None,,None,None,,None,None,None,None,None,None,None,None,None,None,None,None,None,None,,,,,,,,None,None,None,None,0.2,2,None,None,None,None,None,None,None,None,None,None,None,None,,None,None,None,None,None,None,None,None,None,None,None,None,None,None,None,None,None,None,None,None,1040.190943,None,,,,,,,,,260,f,22,2023_Mar_26_1036,RL,2021.2.3,59.95484203
1,-0.3,-0.225,0,68,68,68,,,,,,,,,,,,,,,None,None,None,None,None,1042.078984,None,1042.078984,None,1042.078984,None,1042.078984,None,r,0.6282529,1042.078984,None,1042.078984,None,1042.748836,None,1042.748836,None,1042.748836,None,1042.748836,None,1042.748836,None,1042.748836,None,1043.042581,1043.859714,1043.042581,1043.859714,1043.891036,None,1043.891036,None,1043.891036,None,1043.891036,None,1043.891036,None,1043.891036,None,1043.891036,None,1043.891036,None,1043.891036,None,86,51,36,37,86,50,1046.416705,None,5,1.4318803,1046.416705,None,1046.416705,None,1046.416705,None,1046.416705,None,,None,None,,None,None,None,None,None,None,None,None,None,None,None,None,None,None,,,,,,,,None,None,None,None,-0.2,2,None,None,None,None,None,None,None,None,None,None,None,None,,None,None,None,None,None,None,None,None,None,None,None,None,None,None,None,None,None,None,None,None,1047.901474,None,,,,,,,,,260,f,22,2023_Mar_26_1036,RL,2021.2.3,59.95484203
0,0.3,0.225,0,69,69,69,,,,,,,,,,,,,,,None,None,None,None,None,1049.801001,None,1049.801001,None,1049.801001,None,1049.801001,None,j,0.4363224,1049.801001,None,1049.801001,None,1050.28515,None,1050.28515,None,1050.28515,None,1050.28515,None,1050.28515,None,1050.28515,None,1050.580984,None,1050.580984,None,1051.680871,None,1051.680871,None,1051.680871,None,1051.680871,None,1051.680871,None,1051.680871,None,1051.680871,None,1051.680871,None,1051.680871,None,93,54,43,26,26,41,1054.202107,None,5,2.1677676,1054.202107,None,1054.202107,None,1054.202107,None,1054.202107,None,,None,None,,None,None,None,None,None,None,None,None,None,None,None,None,None,None,,,,,,,,None,None,None,None,0.6,2,None,None,None,None,None,None,None,None,None,None,None,None,,None,None,None,None,None,None,None,None,None,None,None,None,None,None,None,None,None,None,None,None,1056.425569,None,,,,,,,,,260,f,22,2023_Mar_26_1036,RL,2021.2.3,59.95484203
1,-0.3,-0.225,0,70,70,70,,,,,,,,,,,,,,,None,None,None,None,None,1058.407023,None,1058.407023,None,1058.407023,None,1058.407023,None,f,1.4404242,1058.407023,None,1058.407023,None,1059.895583,None,1059.895583,None,1059.895583,None,1059.895583,None,1059.895583,None,1059.895583,None,1060.171045,1061.772104,1060.171045,1061.772104,1061.803418,None,1061.803418,None,1061.803418,None,1061.803418,None,1061.803418,None,1061.803418,None,1061.803418,None,1061.803418,None,1061.803418,None,90,59,29,23,59,50,1064.32079,None,5,1.2389127,1064.32079,None,1064.32079,None,1064.32079,None,1064.32079,None,,None,None,,None,None,None,None,None,None,None,None,None,None,None,None,None,None,,,,,,,,None,None,None,None,-0.2,2,None,None,None,None,None,None,None,None,None,None,None,None,,None,None,None,None,None,None,None,None,None,None,None,None,None,None,None,None,None,None,None,None,1065.615866,None,,,,,,,,,260,f,22,2023_Mar_26_1036,RL,2021.2.3,59.95484203
0,0.3,0.225,0,71,71,71,,,,,,,,,,,,,,,None,None,None,None,None,1067.613764,None,1067.613764,None,1067.613764,None,1067.613764,None,r,0.3636918,1067.613764,None,1067.613764,None,1068.017657,None,1068.017657,None,1068.017657,None,1068.017657,None,1068.017657,None,1068.017657,None,1068.309921,1069.928026,1068.309921,1069.928026,1069.960109,None,1069.960109,None,1069.960109,None,1069.960109,None,1069.960109,None,1069.960109,None,1069.960109,None,1069.960109,None,1069.960109,None,84,66,34,34,84,49,1072.475711,None,5,1.4063634,1072.475711,None,1072.475711,None,1072.475711,None,1072.475711,None,,None,None,,None,None,None,None,None,None,None,None,None,None,None,None,None,None,,,,,,,,None,None,None,None,0.2,3,None,None,None,None,None,None,None,None,None,None,None,None,,None,None,None,None,None,None,None,None,None,None,None,None,None,None,None,None,None,None,None,None,1073.96007,None,,,,,,,,,260,f,22,2023_Mar_26_1036,RL,2021.2.3,59.95484203
1,-0.3,-0.225,0,72,72,72,,,,,,,,,,,,,,,None,None,None,None,None,1075.518688,None,1075.518688,None,1075.518688,None,1075.518688,None,i,1.2498328,1075.518688,None,1075.518688,None,1076.820496,None,1076.820496,None,1076.820496,None,1076.820496,None,1076.820496,None,1076.820496,None,1077.116118,None,1077.116118,None,1078.849261,None,1078.849261,None,1078.849261,None,1078.849261,None,1078.849261,None,1078.849261,None,1078.849261,None,1078.849261,None,1078.849261,None,84,49,30,16,30,46,1081.372382,None,5,1.5006533,1081.372382,None,1081.372382,None,1081.372382,None,1081.372382,None,,None,None,,None,None,None,None,None,None,None,None,None,None,None,None,None,None,,,,,,,,None,None,None,None,0.2,2,None,None,None,None,None,None,None,None,None,None,None,None,,None,None,None,None,None,None,None,None,None,None,None,None,None,None,None,None,None,None,None,None,1082.925599,None,,,,,,,,,260,f,22,2023_Mar_26_1036,RL,2021.2.3,59.95484203
0,0.3,0.225,0,73,73,73,,,,,,,,,,,,,,,None,None,None,None,None,1084.6421,None,1084.6421,None,1084.6421,None,1084.6421,None,r,0.3364595,1084.6421,None,1084.6421,None,1085.026712,None,1085.026712,None,1085.026712,None,1085.026712,None,1085.026712,None,1085.026712,None,1085.321822,None,1085.321822,None,1086.47015,None,1086.47015,None,1086.47015,None,1086.47015,None,1086.47015,None,1086.47015,None,1086.47015,None,1086.47015,None,1086.47015,None,82,47,28,30,82,45,None,None,None,None,None,None,None,None,None,None,None,None,40,1089.001465,None,40,1089.001465,None,1089.001465,None,1089.001465,None,1089.001465,None,1089.001465,None,1089.001465,None,1089.001465,None,0.091145833,-0.283854167,1,0,0,5.5530684,tijiao,0.01553681,None,1089.001465,None,-0.6,0,None,None,None,None,None,None,None,None,None,None,None,None,,None,None,None,None,None,None,None,None,6.833333333,1.5538781,1094.599481,None,1094.599481,None,1094.599481,None,1094.599481,None,None,None,1096.179263,None,,,,,,,,,260,f,22,2023_Mar_26_1036,RL,2021.2.3,59.95484203
1,-0.3,-0.225,0,74,74,74,,,,,,,,,,,,,,,None,None,None,None,None,1098.068459,None,1098.068459,None,1098.068459,None,1098.068459,None,i,0.3401523,1098.068459,None,1098.068459,None,1098.459538,None,1098.459538,None,1098.459538,None,1098.459538,None,1098.459538,None,1098.459538,None,1098.747825,None,1098.747825,None,1100.196606,None,1100.196606,None,1100.196606,None,1100.196606,None,1100.196606,None,1100.196606,None,1100.196606,None,1100.196606,None,1100.196606,None,80,49,31,31,31,46,1102.717699,None,5,1.7374701,1102.717699,None,1102.717699,None,1102.717699,None,1102.717699,None,,None,None,,None,None,None,None,None,None,None,None,None,None,None,None,None,None,,,,,,,,None,None,None,None,0.6,2,None,None,None,None,None,None,None,None,None,None,None,None,,None,None,None,None,None,None,None,None,None,None,None,None,None,None,None,None,None,None,None,None,1104.50905,None,,,,,,,,,260,f,22,2023_Mar_26_1036,RL,2021.2.3,59.95484203
0,0.3,0.225,0,75,75,75,,,,,,,,,,,,,,,1106.069744,None,q,1106.069744,None,1220.029814,None,1220.029814,None,1220.029814,None,1220.029814,None,r,0.9547112,1220.029814,None,1220.029814,None,1221.022133,None,1221.022133,None,1221.022133,None,1221.022133,None,1221.022133,None,1221.022133,None,1221.316446,None,1221.316446,None,1222.949353,None,1222.949353,None,1222.949353,None,1222.949353,None,1222.949353,None,1222.949353,None,1222.949353,None,1222.949353,None,1222.949353,None,85,47,27,29,85,39,None,None,None,None,None,None,None,None,None,None,None,None,,None,None,,None,None,None,None,None,None,None,None,None,None,None,None,None,None,,,,,,,,None,None,None,None,-0.6,1,1225.495439,None,1225.495439,None,1225.495439,None,1225.495439,None,1225.495439,None,1225.495439,None,80,1225.495439,None,1225.495439,None,0.01503828,None,1225.495439,None,8.2265625,1.3802912,1229.097402,None,1229.097402,None,1229.097402,None,1229.097402,None,None,None,1230.488891,None,0.122395833,-0.317708333,1,0,0,3.5688298,tijiao_random_2,113.9267776,260,f,22,2023_Mar_26_1036,RL,2021.2.3,59.95484203
1,-0.3,-0.225,0,76,76,76,,,,,,,,,,,,,,,None,None,None,None,None,1232.47791,None,1232.47791,None,1232.47791,None,1232.47791,None,r,0.4767582,1232.47791,None,1232.47791,None,1232.99856,None,1232.99856,None,1232.99856,None,1232.99856,None,1232.99856,None,1232.99856,None,1233.291524,1234.141845,1233.291524,1234.141845,1234.172089,None,1234.172089,None,1234.172089,None,1234.172089,None,1234.172089,None,1234.172089,None,1234.172089,None,1234.172089,None,1234.172089,None,78,45,29,25,78,53,1236.695805,None,5,1.200366,1236.695805,None,1236.695805,None,1236.695805,None,1236.695805,None,,None,None,,None,None,None,None,None,None,None,None,None,None,None,None,None,None,,,,,,,,None,None,None,None,0.2,2,None,None,None,None,None,None,None,None,None,None,None,None,,None,None,None,None,None,None,None,None,None,None,None,None,None,None,None,None,None,None,None,None,1237.948729,None,,,,,,,,,260,f,22,2023_Mar_26_1036,RL,2021.2.3,59.95484203
0,0.3,0.225,0,77,77,77,,,,,,,,,,,,,,,None,None,None,None,None,1239.633681,None,1239.633681,None,1239.633681,None,1239.633681,None,r,0.7010103,1239.633681,None,1239.633681,None,1240.383538,None,1240.383538,None,1240.383538,None,1240.383538,None,1240.383538,None,1240.383538,None,1240.679775,1241.914242,1240.679775,1241.914242,1241.948208,None,1241.948208,None,1241.948208,None,1241.948208,None,1241.948208,None,1241.948208,None,1241.948208,None,1241.948208,None,1241.948208,None,83,39,41,26,83,36,1244.468948,None,5,1.3506097,1244.468948,None,1244.468948,None,1244.468948,None,1244.468948,None,,None,None,,None,None,None,None,None,None,None,None,None,None,None,None,None,None,,,,,,,,None,None,None,None,0.2,3,None,None,None,None,None,None,None,None,None,None,None,None,,None,None,None,None,None,None,None,None,None,None,None,None,None,None,None,None,None,None,None,None,1245.879501,None,,,,,,,,,260,f,22,2023_Mar_26_1036,RL,2021.2.3,59.95484203
1,-0.3,-0.225,0,78,78,78,,,,,,,,,,,,,,,None,None,None,None,None,1247.471289,None,1247.471289,None,1247.471289,None,1247.471289,None,r,0.8734578,1247.471289,None,1247.471289,None,1248.392195,None,1248.392195,None,1248.392195,None,1248.392195,None,1248.392195,None,1248.392195,None,1248.685259,1250.436586,1248.685259,1250.436586,1250.472638,None,1250.472638,None,1250.472638,None,1250.472638,None,1250.472638,None,1250.472638,None,1250.472638,None,1250.472638,None,1250.472638,None,90,44,41,33,90,40,None,None,None,None,None,None,None,None,None,None,None,None,,None,None,,None,None,None,None,None,None,None,None,None,None,None,None,None,None,,,,,,,,None,None,None,None,0.6,1,1253.015539,None,1253.015539,None,1253.015539,None,1253.015539,None,1253.015539,None,1253.015539,None,20,1253.015539,None,1253.015539,None,0.01401868,None,1253.015539,None,6.950520833,1.2416714,1256.686739,None,1256.686739,None,1256.686739,None,1256.686739,None,None,None,1257.941353,None,0.083333333,-0.298177083,1,0,0,3.6345075,tijiao_random_2,,260,f,22,2023_Mar_26_1036,RL,2021.2.3,59.95484203
0,0.3,0.225,0,79,79,79,,,,,,,,,,,,,,,None,None,None,None,None,1259.73065,None,1259.73065,None,1259.73065,None,1259.73065,None,r,0.5540841,1259.73065,None,1259.73065,None,1260.33388,None,1260.33388,None,1260.33388,None,1260.33388,None,1260.33388,None,1260.33388,None,1260.62693,None,1260.62693,None,1262.374628,None,1262.374628,None,1262.374628,None,1262.374628,None,1262.374628,None,1262.374628,None,1262.374628,None,1262.374628,None,1262.374628,None,94,55,51,33,94,59,1264.893431,None,5,1.8709751,1264.893431,None,1264.893431,None,1264.893431,None,1264.893431,None,,None,None,,None,None,None,None,None,None,None,None,None,None,None,None,None,None,,,,,,,,None,None,None,None,0.6,2,None,None,None,None,None,None,None,None,None,None,None,None,,None,None,None,None,None,None,None,None,None,None,None,None,None,None,None,None,None,None,None,None,1266.820022,None,,,,,,,,,260,f,22,2023_Mar_26_1036,RL,2021.2.3,59.95484203
1,-0.3,-0.225,0,80,80,80,,,,,,,,,,,,,,,None,None,None,None,None,1268.736632,None,1268.736632,None,1268.736632,None,1268.736632,None,r,0.8082897,1268.736632,None,1268.736632,None,1269.589985,None,1269.589985,None,1269.589985,None,1269.589985,None,1269.589985,None,1269.589985,None,1269.883389,None,1269.883389,None,1271.014757,None,1271.014757,None,1271.014757,None,1271.014757,None,1271.014757,None,1271.014757,None,1271.014757,None,1271.014757,None,1271.014757,None,92,56,44,37,92,61,1273.534383,None,6,1.4361578,1273.534383,None,1273.534383,None,1273.534383,None,1273.534383,None,,None,None,,None,None,None,None,None,None,None,None,None,None,None,None,None,None,,,,,,,,None,None,None,None,-0.6,3,None,None,None,None,None,None,None,None,None,None,None,None,,None,None,None,None,None,None,None,None,None,None,None,None,None,None,None,None,None,None,None,None,1275.024979,None,,,,,,,,,260,f,22,2023_Mar_26_1036,RL,2021.2.3,59.95484203
0,0.3,0.225,0,81,81,81,,,,,,,,,,,,,,,None,None,None,None,None,1276.592156,None,1276.592156,None,1276.592156,None,1276.592156,None,r,0.5828041,1276.592156,None,1276.592156,None,1277.228421,None,1277.228421,None,1277.228421,None,1277.228421,None,1277.228421,None,1277.228421,None,1277.522044,None,1277.522044,None,1278.702467,None,1278.702467,None,1278.702467,None,1278.702467,None,1278.702467,None,1278.702467,None,1278.702467,None,1278.702467,None,1278.702467,None,96,53,36,39,96,57,1281.221038,None,6,0.9059648,1281.221038,None,1281.221038,None,1281.221038,None,1281.221038,None,,None,None,,None,None,None,None,None,None,None,None,None,None,None,None,None,None,,,,,,,,None,None,None,None,-0.2,3,None,None,None,None,None,None,None,None,None,None,None,None,,None,None,None,None,None,None,None,None,None,None,None,None,None,None,None,None,None,None,None,None,1282.178517,None,,,,,,,,,260,f,22,2023_Mar_26_1036,RL,2021.2.3,59.95484203
1,-0.3,-0.225,0,82,82,82,,,,,,,,,,,,,,,None,None,None,None,None,1283.863534,None,1283.863534,None,1283.863534,None,1283.863534,None,r,0.652402,1283.863534,None,1283.863534,None,1284.5639,None,1284.5639,None,1284.5639,None,1284.5639,None,1284.5639,None,1284.5639,None,1284.8604,1286.244764,1284.8604,1286.244764,1286.278527,None,1286.278527,None,1286.278527,None,1286.278527,None,1286.278527,None,1286.278527,None,1286.278527,None,1286.278527,None,1286.278527,None,97,51,41,40,97,67,1288.794671,None,7,0.8891377,1288.794671,None,1288.794671,None,1288.794671,None,1288.794671,None,,None,None,,None,None,None,None,None,None,None,None,None,None,None,None,None,None,,,,,,,,None,None,None,None,-0.2,2,None,None,None,None,None,None,None,None,None,None,None,None,,None,None,None,None,None,None,None,None,None,None,None,None,None,None,None,None,None,None,None,None,1289.739389,None,,,,,,,,,260,f,22,2023_Mar_26_1036,RL,2021.2.3,59.95484203
0,0.3,0.225,0,83,83,83,,,,,,,,,,,,,,,None,None,None,None,None,1291.55247,None,1291.55247,None,1291.55247,None,1291.55247,None,r,0.5736951,1291.55247,None,1291.55247,None,1292.172145,None,1292.172145,None,1292.172145,None,1292.172145,None,1292.172145,None,1292.172145,None,1292.465644,None,1292.465644,None,1293.925579,None,1293.925579,None,1293.925579,None,1293.925579,None,1293.925579,None,1293.925579,None,1293.925579,None,1293.925579,None,1293.925579,None,92,50,48,43,92,66,1296.451773,None,6,1.1376156,1296.451773,None,1296.451773,None,1296.451773,None,1296.451773,None,,None,None,,None,None,None,None,None,None,None,None,None,None,None,None,None,None,,,,,,,,None,None,None,None,-0.2,3,None,None,None,None,None,None,None,None,None,None,None,None,,None,None,None,None,None,None,None,None,None,None,None,None,None,None,None,None,None,None,None,None,1297.639103,None,,,,,,,,,260,f,22,2023_Mar_26_1036,RL,2021.2.3,59.95484203
1,-0.3,-0.225,0,84,84,84,,,,,,,,,,,,,,,None,None,None,None,None,1299.508244,None,1299.508244,None,1299.508244,None,1299.508244,None,r,0.4580093,1299.508244,None,1299.508244,None,1300.010671,None,1300.010671,None,1300.010671,None,1300.010671,None,1300.010671,None,1300.010671,None,1300.304527,1301.705469,1300.304527,1301.705469,1301.738031,None,1301.738031,None,1301.738031,None,1301.738031,None,1301.738031,None,1301.738031,None,1301.738031,None,1301.738031,None,1301.738031,None,84,53,41,44,84,43,1304.253283,None,7,0.9385328,1304.253283,None,1304.253283,None,1304.253283,None,1304.253283,None,,None,None,,None,None,None,None,None,None,None,None,None,None,None,None,None,None,,,,,,,,None,None,None,None,-0.2,2,None,None,None,None,None,None,None,None,None,None,None,None,,None,None,None,None,None,None,None,None,None,None,None,None,None,None,None,None,None,None,None,None,1305.255596,None,,,,,,,,,260,f,22,2023_Mar_26_1036,RL,2021.2.3,59.95484203
0,0.3,0.225,0,85,85,85,,,,,,,,,,,,,,,None,None,None,None,None,1307.147176,None,1307.147176,None,1307.147176,None,1307.147176,None,r,0.4591221,1307.147176,None,1307.147176,None,1307.648284,None,1307.648284,None,1307.648284,None,1307.648284,None,1307.648284,None,1307.648284,None,1307.942955,1309.7278,1307.942955,1309.7278,1309.764368,None,1309.764368,None,1309.764368,None,1309.764368,None,1309.764368,None,1309.764368,None,1309.764368,None,1309.764368,None,1309.764368,None,95,54,38,47,95,62,None,None,None,None,None,None,None,None,None,None,None,None,90,1312.301247,None,90,1312.301247,None,1312.301247,None,1312.301247,None,1312.301247,None,1312.301247,None,1312.301247,None,1312.301247,None,0.1328125,-0.28125,1,0,0,3.7083329,tijiao,0.00403141,None,1312.301247,None,0.2,0,None,None,None,None,None,None,None,None,None,None,None,None,,None,None,None,None,None,None,None,None,9.59375,0.9138651,1316.056564,None,1316.056564,None,1316.056564,None,1316.056564,None,None,None,1316.999407,None,,,,,,,,,260,f,22,2023_Mar_26_1036,RL,2021.2.3,59.95484203
1,-0.3,-0.225,0,86,86,86,,,,,,,,,,,,,,,None,None,None,None,None,1318.654693,None,1318.654693,None,1318.654693,None,1318.654693,None,r,0.7120995,1318.654693,None,1318.654693,None,1319.409084,None,1319.409084,None,1319.409084,None,1319.409084,None,1319.409084,None,1319.409084,None,1319.701237,1320.785417,1319.701237,1320.785417,1320.816793,None,1320.816793,None,1320.816793,None,1320.816793,None,1320.816793,None,1320.816793,None,1320.816793,None,1320.816793,None,1320.816793,None,96,51,49,52,96,66,1323.335035,None,6,2.0705915,1323.335035,None,1323.335035,None,1323.335035,None,1323.335035,None,,None,None,,None,None,None,None,None,None,None,None,None,None,None,None,None,None,,,,,,,,None,None,None,None,-0.2,3,None,None,None,None,None,None,None,None,None,None,None,None,,None,None,None,None,None,None,None,None,None,None,None,None,None,None,None,None,None,None,None,None,1325.470973,None,,,,,,,,,260,f,22,2023_Mar_26_1036,RL,2021.2.3,59.95484203
0,0.3,0.225,0,87,87,87,,,,,,,,,,,,,,,None,None,None,None,None,1327.159839,None,1327.159839,None,1327.159839,None,1327.159839,None,r,0.3663797,1327.159839,None,1327.159839,None,1327.577863,None,1327.577863,None,1327.577863,None,1327.577863,None,1327.577863,None,1327.577863,None,1327.873625,None,1327.873625,None,1328.755686,None,1328.755686,None,1328.755686,None,1328.755686,None,1328.755686,None,1328.755686,None,1328.755686,None,1328.755686,None,1328.755686,None,100,41,40,43,100,42,None,None,None,None,None,None,None,None,None,None,None,None,,None,None,,None,None,None,None,None,None,None,None,None,None,None,None,None,None,,,,,,,,None,None,None,None,-0.6,1,1331.305717,None,1331.305717,None,1331.305717,None,1331.305717,None,1331.305717,None,1331.305717,None,90,1331.305717,None,1331.305717,None,0.01207448,None,1331.305717,None,9.90625,1.7255852,1335.205477,None,1335.205477,None,1335.205477,None,1335.205477,None,None,None,1336.945818,None,0.053385417,-0.2890625,1,0,0,3.8653263,tijiao_random_2,,260,f,22,2023_Mar_26_1036,RL,2021.2.3,59.95484203
1,-0.3,-0.225,0,88,88,88,,,,,,,,,,,,,,,None,None,None,None,None,1338.768967,None,1338.768967,None,1338.768967,None,1338.768967,None,r,1.0474739,1338.768967,None,1338.768967,None,1339.855781,None,1339.855781,None,1339.855781,None,1339.855781,None,1339.855781,None,1339.855781,None,1340.148808,None,1340.148808,None,1340.995781,None,1340.995781,None,1340.995781,None,1340.995781,None,1340.995781,None,1340.995781,None,1340.995781,None,1340.995781,None,1340.995781,None,102,56,52,38,102,28,1343.522507,None,7,1.4667015,1343.522507,None,1343.522507,None,1343.522507,None,1343.522507,None,,None,None,,None,None,None,None,None,None,None,None,None,None,None,None,None,None,,,,,,,,None,None,None,None,0.6,2,None,None,None,None,None,None,None,None,None,None,None,None,,None,None,None,None,None,None,None,None,None,None,None,None,None,None,None,None,None,None,None,None,1345.065059,None,,,,,,,,,260,f,22,2023_Mar_26_1036,RL,2021.2.3,59.95484203
0,0.3,0.225,0,89,89,89,,,,,,,,,,,,,,,None,None,None,None,None,1346.924488,None,1346.924488,None,1346.924488,None,1346.924488,None,r,0.6219216,1346.924488,None,1346.924488,None,1347.591594,None,1347.591594,None,1347.591594,None,1347.591594,None,1347.591594,None,1347.591594,None,1347.887691,None,1347.887691,None,1349.902885,None,1349.902885,None,1349.902885,None,1349.902885,None,1349.902885,None,1349.902885,None,1349.902885,None,1349.902885,None,1349.902885,None,96,50,46,46,96,38,None,None,None,None,None,None,None,None,None,None,None,None,,None,None,,None,None,None,None,None,None,None,None,None,None,None,None,None,None,,,,,,,,None,None,None,None,0.2,1,1352.455142,None,1352.455142,None,1352.455142,None,1352.455142,None,1352.455142,None,1352.455142,None,30,1352.455142,None,1352.455142,None,0.00985298,None,1352.455142,None,7.080729167,1.8473945,1356.182756,None,1356.182756,None,1356.182756,None,1356.182756,None,None,None,1358.043934,None,0.114583333,-0.294270833,1,0,0,3.6964779,tijiao_random_2,,260,f,22,2023_Mar_26_1036,RL,2021.2.3,59.95484203
1,-0.3,-0.225,0,90,90,90,,,,,,,,,,,,,,,None,None,None,None,None,1359.766287,None,1359.766287,None,1359.766287,None,1359.766287,None,None,,1359.766287,None,1359.766287,None,None,None,None,None,None,None,None,None,None,None,None,None,None,None,None,None,None,None,None,None,None,None,None,None,None,None,None,None,None,None,None,None,None,None,102,46,38,49,0,**,None,None,None,None,None,None,None,None,None,None,None,None,,None,None,,None,None,None,None,None,None,None,None,None,None,None,None,None,None,,,,,,,,None,None,None,None,0.6,2,None,None,None,None,None,None,None,None,None,None,None,None,,None,None,None,None,None,None,None,None,None,None,None,None,None,None,None,None,None,None,1361.361144,None,1367.368082,None,,,,,,,,,260,f,22,2023_Mar_26_1036,RL,2021.2.3,59.95484203
0,0.3,0.225,0,91,91,91,,,,,,,,,,,,,,,None,None,None,None,None,1369.239447,None,1369.239447,None,1369.239447,None,1369.239447,None,r,0.477015,1369.239447,None,1369.239447,None,1369.758746,None,1369.758746,None,1369.758746,None,1369.758746,None,1369.758746,None,1369.758746,None,1370.053186,1371.253956,1370.053186,1371.253956,1371.28593,None,1371.28593,None,1371.28593,None,1371.28593,None,1371.28593,None,1371.28593,None,1371.28593,None,1371.28593,None,1371.28593,None,109,46,40,51,109,54,None,None,None,None,None,None,None,None,None,None,None,None,90,1373.821395,None,90,1373.821395,None,1373.821395,None,1373.821395,None,1373.821395,None,1373.821395,None,1373.821395,None,1373.821395,None,0.166666667,-0.34375,1,0,0,6.0978538,tijiao,0.00970381,None,1373.821395,None,0.6,0,None,None,None,None,None,None,None,None,None,None,None,None,,None,None,None,None,None,None,None,None,7.705729167,1.4861919,1379.966619,None,1379.966619,None,1379.966619,None,1379.966619,None,None,None,1381.476856,None,,,,,,,,,260,f,22,2023_Mar_26_1036,RL,2021.2.3,59.95484203
1,-0.3,-0.225,0,92,92,92,,,,,,,,,,,,,,,None,None,None,None,None,1383.282989,None,1383.282989,None,1383.282989,None,1383.282989,None,r,0.2738367,1383.282989,None,1383.282989,None,1383.602075,None,1383.602075,None,1383.602075,None,1383.602075,None,1383.602075,None,1383.602075,None,1383.895559,None,1383.895559,None,1385.660623,None,1385.660623,None,1385.660623,None,1385.660623,None,1385.660623,None,1385.660623,None,1385.660623,None,1385.660623,None,1385.660623,None,105,56,52,49,105,46,None,None,None,None,None,None,None,None,None,None,None,None,,None,None,,None,None,None,None,None,None,None,None,None,None,None,None,None,None,,,,,,,,None,None,None,None,0.6,1,1388.211451,None,1388.211451,None,1388.211451,None,1388.211451,None,1388.211451,None,1388.211451,None,20,1388.211451,None,1388.211451,None,0.01259648,None,1388.211451,None,6.703125,2.1149059,1391.424133,None,1391.424133,None,1391.424133,None,1391.424133,None,None,None,1393.57008,None,0.03515625,-0.276041667,1,0,0,3.1818484,tijiao_random_2,,260,f,22,2023_Mar_26_1036,RL,2021.2.3,59.95484203
0,0.3,0.225,0,93,93,93,,,,,,,,,,,,,,,None,None,None,None,None,1395.391413,None,1395.391413,None,1395.391413,None,1395.391413,None,j,0.3152991,1395.391413,None,1395.391413,None,1395.759852,None,1395.759852,None,1395.759852,None,1395.759852,None,1395.759852,None,1395.759852,None,1396.053976,None,1396.053976,None,1397.818006,None,1397.818006,None,1397.818006,None,1397.818006,None,1397.818006,None,1397.818006,None,1397.818006,None,1397.818006,None,1397.818006,None,103,47,42,49,49,63,1400.342806,None,5,1.6842445,1400.342806,None,1400.342806,None,1400.342806,None,1400.342806,None,,None,None,,None,None,None,None,None,None,None,None,None,None,None,None,None,None,,,,,,,,None,None,None,None,0.2,2,None,None,None,None,None,None,None,None,None,None,None,None,,None,None,None,None,None,None,None,None,None,None,None,None,None,None,None,None,None,None,None,None,1402.096485,None,,,,,,,,,260,f,22,2023_Mar_26_1036,RL,2021.2.3,59.95484203
1,-0.3,-0.225,0,94,94,94,,,,,,,,,,,,,,,None,None,None,None,None,1403.71336,None,1403.71336,None,1403.71336,None,1403.71336,None,r,0.583393,1403.71336,None,1403.71336,None,1404.350434,None,1404.350434,None,1404.350434,None,1404.350434,None,1404.350434,None,1404.350434,None,1404.643599,1405.627565,1404.643599,1405.627565,1405.659695,None,1405.659695,None,1405.659695,None,1405.659695,None,1405.659695,None,1405.659695,None,1405.659695,None,1405.659695,None,1405.659695,None,97,48,46,47,97,43,1408.176704,None,6,1.1720552,1408.176704,None,1408.176704,None,1408.176704,None,1408.176704,None,,None,None,,None,None,None,None,None,None,None,None,None,None,None,None,None,None,,,,,,,,None,None,None,None,-0.2,2,None,None,None,None,None,None,None,None,None,None,None,None,,None,None,None,None,None,None,None,None,None,None,None,None,None,None,None,None,None,None,None,None,1409.418022,None,,,,,,,,,260,f,22,2023_Mar_26_1036,RL,2021.2.3,59.95484203
0,0.3,0.225,0,95,95,95,,,,,,,,,,,,,,,None,None,None,None,None,1411.085025,None,1411.085025,None,1411.085025,None,1411.085025,None,r,0.4423041,1411.085025,None,1411.085025,None,1411.571386,None,1411.571386,None,1411.571386,None,1411.571386,None,1411.571386,None,1411.571386,None,1411.865206,None,1411.865206,None,1413.720621,None,1413.720621,None,1413.720621,None,1413.720621,None,1413.720621,None,1413.720621,None,1413.720621,None,1413.720621,None,1413.720621,None,92,47,46,44,92,41,None,None,None,None,None,None,None,None,None,None,None,None,90,1416.245,None,90,1416.245,None,1416.245,None,1416.245,None,1416.245,None,1416.245,None,1416.245,None,1416.245,None,0.069010417,-0.282552083,1,0,0,6.7377618,tijiao,0.01508511,None,1416.245,None,-0.2,0,None,None,None,None,None,None,None,None,None,None,None,None,,None,None,None,None,None,None,None,None,10.11458333,1.4808278,1423.029284,None,1423.029284,None,1423.029284,None,1423.029284,None,None,None,1424.523675,None,,,,,,,,,260,f,22,2023_Mar_26_1036,RL,2021.2.3,59.95484203
1,-0.3,-0.225,0,96,96,96,,,,,,,,,,,,,,,None,None,None,None,None,1426.245733,None,1426.245733,None,1426.245733,None,1426.245733,None,r,0.3814357,1426.245733,None,1426.245733,None,1426.680863,None,1426.680863,None,1426.680863,None,1426.680863,None,1426.680863,None,1426.680863,None,1426.975763,None,1426.975763,None,1428.591647,None,1428.591647,None,1428.591647,None,1428.591647,None,1428.591647,None,1428.591647,None,1428.591647,None,1428.591647,None,1428.591647,None,89,45,47,49,89,60,None,None,None,None,None,None,None,None,None,None,None,None,90,1431.125806,None,90,1431.125806,None,1431.125806,None,1431.125806,None,1431.125806,None,1431.125806,None,1431.125806,None,1431.125806,None,0.098958333,-0.311197917,1,0,0,3.1309945,tijiao,0.01155711,None,1431.125806,None,-0.2,0,None,None,None,None,None,None,None,None,None,None,None,None,,None,None,None,None,None,None,None,None,9.255208333,2.2542106,1434.299968,None,1434.299968,None,1434.299968,None,1434.299968,None,None,None,1436.580967,None,,,,,,,,,260,f,22,2023_Mar_26_1036,RL,2021.2.3,59.95484203
