bandit0,black_x_pos_random,black_y_pos_random,trials.thisRepN,trials.thisTrialN,trials.thisN,trials.thisIndex,instru_img1.started,instru_img1.stopped,instru_resp.keys,instru_resp.rt,instru_resp.started,instru_resp.stopped,instru_img2.started,instru_img2.stopped,instru_resp2.keys,instru_resp2.rt,instru_resp2.started,instru_resp2.stopped,fixbefore_2.started,fixbefore_2.stopped,rest_image.started,rest_image.stopped,rest_response.keys,rest_response.started,rest_response.stopped,red.started,red.stopped,green.started,green.stopped,yellow.started,yellow.stopped,blue.started,blue.stopped,choose_bandit.keys,choose_bandit.rt,choose_bandit.started,choose_bandit.stopped,Fixation.started,Fixation.stopped,black.started,black.stopped,red_2.started,red_2.stopped,green_2.started,green_2.stopped,yellow_2.started,yellow_2.stopped,blue_2.started,blue_2.stopped,fixation_2.started,fixation_2.stopped,docs.started,docs.stopped,wait_playerB.started,wait_playerB.stopped,black_com.started,black_com.stopped,reward_sub.started,reward_sub.stopped,palyerb.started,palyerb.stopped,reward__sub.started,reward__sub.stopped,compare.started,compare.stopped,red_compare.started,red_compare.stopped,green_com.started,green_com.stopped,yellow_com.started,yellow_com.stopped,blue_com.started,blue_com.stopped,rewardyellow,rewardred,rewardblue,rewardgreen,subchoose,playerb,image_3.started,image_3.stopped,slider.response,slider.rt,slider.started,slider.stopped,text.started,text.stopped,image_4.started,image_4.stopped,image_5.started,image_5.stopped,expectself.text,expectself.started,expectself.stopped,value_expect_self,expect_self_black.started,expect_self_black.stopped,expect_self.started,expect_self.stopped,expect_self_red.started,expect_self_red.stopped,expect_self_green.started,expect_self_green.stopped,expect_self_yellow.started,expect_self_yellow.stopped,expect_self_blue.started,expect_self_blue.stopped,tijiao.started,tijiao.stopped,tijiao_click.started,tijiao_click.stopped,check.started,check.stopped,random_whicharm,whether_ask,jiantou_random.started,jiantou_random.stopped,expect_red.started,expect_red.stopped,expect_green.started,expect_green.stopped,expect_yellow.started,expect_yellow.stopped,expect_blue.started,expect_blue.stopped,expect_random_2.started,expect_random_2.stopped,expect_random_3.text,expect_random_3.started,expect_random_3.stopped,tijiao_random_2.started,tijiao_random_2.stopped,tijiao_random.x,tijiao_random.y,tijiao_random.leftButton,tijiao_random.midButton,tijiao_random.rightButton,tijiao_random.time,tijiao_random.clicked_name,tijiao_random.started,tijiao_random.stopped,check_2.started,check_2.stopped,slider_2.response,slider_2.rt,slider_2.started,slider_2.stopped,image_7.started,image_7.stopped,confi.started,confi.stopped,notconfi.started,notconfi.stopped,bigx.started,bigx.stopped,intertrialfix.started,intertrialfix.stopped,tijiao_click.x,tijiao_click.y,tijiao_click.leftButton,tijiao_click.midButton,tijiao_click.rightButton,tijiao_click.time,tijiao_click.clicked_name,rest_response.rt,participant,Gender,Age,date,expName,psychopyVersion,frameRate,
,,,,,,,95.25294789997861,None,space,85.93668749998324,95.25294789997861,None,,,,,,,,,,,,,,,,,,,,,,,,,,,,,,,,,,,,,,,,,,,,,,,,,,,,,,,,,,,,,,,,,,,,,,,,,,,,,,,,,,,,,,,,,,,,,,,,,,,,,,,,,,,,,,,,,,,,,,,,,,,,,,,,,,,,,,,,,,,,,,,,,,,,,,,,,,261,f,18,2023_Mar_26_1157,RL,2021.2.3,60.0209112630417,
,,,,,,,,,,,,,181.2308531999588,None,s,6.176378200063482,181.2308531999588,None,,,,,,,,,,,,,,,,,,,,,,,,,,,,,,,,,,,,,,,,,,,,,,,,,,,,,,,,,,,,,,,,,,,,,,,,,,,,,,,,,,,,,,,,,,,,,,,,,,,,,,,,,,,,,,,,,,,,,,,,,,,,,,,,,,,,,,,,,,,,,,,,,,,,261,f,18,2023_Mar_26_1157,RL,2021.2.3,60.0209112630417,
1,-0.3,-0.225,0,0,0,0,,,,,,,,,,,,,187.43493930005934,None,None,None,None,None,None,188.5206685999874,None,188.5206685999874,None,188.5206685999874,None,188.5206685999874,None,f,0.7062796999234706,188.5206685999874,None,188.5206685999874,None,189.34216420003213,None,189.34216420003213,None,189.34216420003213,None,189.34216420003213,None,189.34216420003213,None,189.34216420003213,None,189.62596199999098,190.86013549997006,189.62596199999098,190.86013549997006,190.9536100999685,None,190.9536100999685,None,190.9536100999685,None,190.9536100999685,None,190.9536100999685,None,190.9536100999685,None,190.9536100999685,None,190.9536100999685,None,190.9536100999685,None,47,61,65,35,61,32,None,None,None,None,None,None,None,None,None,None,None,None,,None,None,,None,None,None,None,None,None,None,None,None,None,None,None,None,None,None,None,None,None,-0.6,1,193.85182750003878,None,193.85182750003878,None,193.85182750003878,None,193.85182750003878,None,193.85182750003878,None,193.85182750003878,None,50,193.85182750003878,None,193.85182750003878,None,0.01171875,-0.2916666666666667,1,0,0,6.4923734000185505,tijiao_random_2,0.0026040399679914117,None,193.85182750003878,None,6.169270833333334,2.973822700092569,200.518016200047,None,200.518016200047,None,200.518016200047,None,200.518016200047,None,None,None,203.58279620006215,None,,,,,,,,,261,f,18,2023_Mar_26_1157,RL,2021.2.3,60.0209112630417,
0,0.3,0.225,0,1,1,1,,,,,,,,,,,,,,,None,None,None,None,None,205.55766369996127,None,205.55766369996127,None,205.55766369996127,None,205.55766369996127,None,f,0.8991620999295264,205.55766369996127,None,205.55766369996127,None,206.50907440006267,None,206.50907440006267,None,206.50907440006267,None,206.50907440006267,None,206.50907440006267,None,206.50907440006267,None,206.80466260004323,208.33895650005434,206.80466260004323,208.33895650005434,208.37717969994992,None,208.37717969994992,None,208.37717969994992,None,208.37717969994992,None,208.37717969994992,None,208.37717969994992,None,208.37717969994992,None,208.37717969994992,None,208.37717969994992,None,44,60,52,43,60,48,None,None,None,None,None,None,None,None,None,None,None,None,,None,None,,None,None,None,None,None,None,None,None,None,None,None,None,None,None,None,None,None,None,0.2,1,210.91655960003845,None,210.91655960003845,None,210.91655960003845,None,210.91655960003845,None,210.91655960003845,None,210.91655960003845,None,60,210.91655960003845,None,210.91655960003845,None,0.046875,-0.2955729166666667,1,0,0,5.269511100021191,tijiao_random_2,0.015631539979949594,None,210.91655960003845,None,5.518229166666667,3.3945055999793112,216.21700609999243,None,216.21700609999243,None,216.21700609999243,None,216.21700609999243,None,None,None,219.62839410000015,None,,,,,,,,,261,f,18,2023_Mar_26_1157,RL,2021.2.3,60.0209112630417,
1,-0.3,-0.225,0,2,2,2,,,,,,,,,,,,,,,None,None,None,None,None,221.5017414999893,None,221.5017414999893,None,221.5017414999893,None,221.5017414999893,None,i,0.3054524000035599,221.5017414999893,None,221.5017414999893,None,221.8527876000153,None,221.8527876000153,None,221.8527876000153,None,221.8527876000153,None,221.8527876000153,None,221.8527876000153,None,222.14838539995253,None,222.14838539995253,None,223.73534949996974,None,223.73534949996974,None,223.73534949996974,None,223.73534949996974,None,223.73534949996974,None,223.73534949996974,None,223.73534949996974,None,223.73534949996974,None,223.73534949996974,None,39,55,50,40,50,27,226.2548064000439,None,7.0,3.12055530003272,226.2548064000439,None,226.2548064000439,None,226.2548064000439,None,226.2548064000439,None,,None,None,,None,None,None,None,None,None,None,None,None,None,None,None,None,None,None,None,None,None,0.2,2,None,None,None,None,None,None,None,None,None,None,None,None,,None,None,None,None,,,,,,,,None,None,None,None,None,None,None,None,None,None,None,None,None,None,None,None,229.55770310002845,None,,,,,,,,,261,f,18,2023_Mar_26_1157,RL,2021.2.3,60.0209112630417,
0,0.3,0.225,0,3,3,3,,,,,,,,,,,,,,,None,None,None,None,None,231.50942839996424,None,231.50942839996424,None,231.50942839996424,None,231.50942839996424,None,r,0.6976035000989214,231.50942839996424,None,231.50942839996424,None,232.2514622999588,None,232.2514622999588,None,232.2514622999588,None,232.2514622999588,None,232.2514622999588,None,232.2514622999588,None,232.52223919995595,234.17343009996694,232.52223919995595,234.17343009996694,234.2244344999781,None,234.2244344999781,None,234.2244344999781,None,234.2244344999781,None,234.2244344999781,None,234.2244344999781,None,234.2244344999781,None,234.2244344999781,None,234.2244344999781,None,45,57,68,35,45,39,None,None,None,None,None,None,None,None,None,None,None,None,50,236.7633482000092,None,50,236.7633482000092,None,236.7633482000092,None,236.7633482000092,None,236.7633482000092,None,236.7633482000092,None,236.7633482000092,None,236.7633482000092,None,0.005762730026617646,None,236.7633482000092,None,0.2,0,None,None,None,None,None,None,None,None,None,None,None,None,,None,None,None,None,,,,,,,,None,None,None,None,5.986979166666667,2.563361700042151,241.5121181999566,None,241.5121181999566,None,241.5121181999566,None,241.5121181999566,None,None,None,244.0954385000514,None,-0.061197916666666664,-0.28125,1,0,0,4.6763510999735445,tijiao,,261,f,18,2023_Mar_26_1157,RL,2021.2.3,60.0209112630417,
1,-0.3,-0.225,0,4,4,4,,,,,,,,,,,,,,,None,None,None,None,None,245.86900569999125,None,245.86900569999125,None,245.86900569999125,None,245.86900569999125,None,j,0.458078800002113,245.86900569999125,None,245.86900569999125,None,246.3767103999853,None,246.3767103999853,None,246.3767103999853,None,246.3767103999853,None,246.3767103999853,None,246.3767103999853,None,246.66552010003943,248.2000618999591,246.66552010003943,248.2000618999591,248.23409569996875,None,248.23409569996875,None,248.23409569996875,None,248.23409569996875,None,248.23409569996875,None,248.23409569996875,None,248.23409569996875,None,248.23409569996875,None,248.23409569996875,None,56,64,64,51,51,63,None,None,None,None,None,None,None,None,None,None,None,None,,None,None,,None,None,None,None,None,None,None,None,None,None,None,None,None,None,None,None,None,None,-0.6,1,250.77630200004205,None,250.77630200004205,None,250.77630200004205,None,250.77630200004205,None,250.77630200004205,None,250.77630200004205,None,55,250.77630200004205,None,250.77630200004205,None,0.041666666666666664,-0.30859375,1,0,0,3.587245399947278,tijiao_random_2,0.0004360299790278077,None,250.77630200004205,None,6.013020833333334,2.1985375999938697,254.39339920005295,None,254.39339920005295,None,254.39339920005295,None,254.39339920005295,None,None,None,256.60494130000006,None,,,,,,,,,261,f,18,2023_Mar_26_1157,RL,2021.2.3,60.0209112630417,
0,0.3,0.225,0,5,5,5,,,,,,,,,,,,,,,None,None,None,None,None,258.3940658000065,None,258.3940658000065,None,258.3940658000065,None,258.3940658000065,None,r,0.3231411000015214,258.3940658000065,None,258.3940658000065,None,258.7650412999792,None,258.7650412999792,None,258.7650412999792,None,258.7650412999792,None,258.7650412999792,None,258.7650412999792,None,259.0406252000248,260.9418735000072,259.0406252000248,260.9418735000072,260.9741657000268,None,260.9741657000268,None,260.9741657000268,None,260.9741657000268,None,260.9741657000268,None,260.9741657000268,None,260.9741657000268,None,260.9741657000268,None,260.9741657000268,None,45,52,57,36,45,38,None,None,None,None,None,None,None,None,None,None,None,None,,None,None,,None,None,None,None,None,None,None,None,None,None,None,None,None,None,None,None,None,None,-0.6,1,263.5265817999607,None,263.5265817999607,None,263.5265817999607,None,263.5265817999607,None,263.5265817999607,None,263.5265817999607,None,55,263.5265817999607,None,263.5265817999607,None,-0.020833333333333332,-0.28125,1,0,0,4.596361499978229,tijiao_random_2,0.008938739891164005,None,263.5265817999607,None,5.986979166666667,2.4471427000826225,268.1541198999621,None,268.1541198999621,None,268.1541198999621,None,268.1541198999621,None,None,None,270.6149744000286,None,,,,,,,,,261,f,18,2023_Mar_26_1157,RL,2021.2.3,60.0209112630417,
1,-0.3,-0.225,0,6,6,6,,,,,,,,,,,,,,,None,None,None,None,None,272.4205059000524,None,272.4205059000524,None,272.4205059000524,None,272.4205059000524,None,f,0.49775069998577237,272.4205059000524,None,272.4205059000524,None,272.9573085999582,None,272.9573085999582,None,272.9573085999582,None,272.9573085999582,None,272.9573085999582,None,272.9573085999582,None,273.25081280001905,274.8683005999774,273.25081280001905,274.8683005999774,274.89995400002226,None,274.89995400002226,None,274.89995400002226,None,274.89995400002226,None,274.89995400002226,None,274.89995400002226,None,274.89995400002226,None,274.89995400002226,None,274.89995400002226,None,41,57,62,31,57,42,None,None,None,None,None,None,None,None,None,None,None,None,65,277.4303069000598,None,65,277.4303069000598,None,277.4303069000598,None,277.4303069000598,None,277.4303069000598,None,277.4303069000598,None,277.4303069000598,None,277.4303069000598,None,0.01531853002961725,None,277.4303069000598,None,-0.2,0,None,None,None,None,None,None,None,None,None,None,None,None,,None,None,None,None,,,,,,,,None,None,None,None,6.0,1.2524617000017315,281.8311426000437,None,281.8311426000437,None,281.8311426000437,None,281.8311426000437,None,None,None,283.1060318000382,None,0.029947916666666668,-0.2877604166666667,1,0,0,4.352214200072922,tijiao,,261,f,18,2023_Mar_26_1157,RL,2021.2.3,60.0209112630417,
0,0.3,0.225,0,7,7,7,,,,,,,,,,,,,,,None,None,None,None,None,284.6619613999501,None,284.6619613999501,None,284.6619613999501,None,284.6619613999501,None,i,0.3465099000604823,284.6619613999501,None,284.6619613999501,None,285.0497732999502,None,285.0497732999502,None,285.0497732999502,None,285.0497732999502,None,285.0497732999502,None,285.0497732999502,None,285.34218459995463,286.80999069998506,285.34218459995463,286.80999069998506,286.84712930000387,None,286.84712930000387,None,286.84712930000387,None,286.84712930000387,None,286.84712930000387,None,286.84712930000387,None,286.84712930000387,None,286.84712930000387,None,286.84712930000387,None,45,62,63,35,63,35,None,None,None,None,None,None,None,None,None,None,None,None,,None,None,,None,None,None,None,None,None,None,None,None,None,None,None,None,None,None,None,None,None,0.2,1,289.39450239995494,None,289.39450239995494,None,289.39450239995494,None,289.39450239995494,None,289.39450239995494,None,289.39450239995494,None,70,289.39450239995494,None,289.39450239995494,None,0.03515625,-0.27734375,1,0,0,5.063482400029898,tijiao_random_2,0.008981939987279475,None,289.39450239995494,None,5.947916666666667,1.4085513000609353,294.49385720002465,None,294.49385720002465,None,294.49385720002465,None,294.49385720002465,None,None,None,295.91582660004497,None,,,,,,,,,261,f,18,2023_Mar_26_1157,RL,2021.2.3,60.0209112630417,
1,-0.3,-0.225,0,8,8,8,,,,,,,,,,,,,,,None,None,None,None,None,297.5211570999818,None,297.5211570999818,None,297.5211570999818,None,297.5211570999818,None,j,0.3473004999104887,297.5211570999818,None,297.5211570999818,None,297.9082888000412,None,297.9082888000412,None,297.9082888000412,None,297.9082888000412,None,297.9082888000412,None,297.9082888000412,None,298.2012937000254,None,298.2012937000254,None,299.41440230002627,None,299.41440230002627,None,299.41440230002627,None,299.41440230002627,None,299.41440230002627,None,299.41440230002627,None,299.41440230002627,None,299.41440230002627,None,299.41440230002627,None,39,58,55,36,36,59,301.9404384000227,None,6.0,2.9693088999483734,301.9404384000227,None,301.9404384000227,None,301.9404384000227,None,301.9404384000227,None,,None,None,,None,None,None,None,None,None,None,None,None,None,None,None,None,None,None,None,None,None,-0.2,3,None,None,None,None,None,None,None,None,None,None,None,None,,None,None,None,None,,,,,,,,None,None,None,None,None,None,None,None,None,None,None,None,None,None,None,None,304.9634500000393,None,,,,,,,,,261,f,18,2023_Mar_26_1157,RL,2021.2.3,60.0209112630417,
0,0.3,0.225,0,9,9,9,,,,,,,,,,,,,,,None,None,None,None,None,306.57783099997323,None,306.57783099997323,None,306.57783099997323,None,306.57783099997323,None,r,0.3806435000151396,306.57783099997323,None,306.57783099997323,None,306.99701779999305,None,306.99701779999305,None,306.99701779999305,None,306.99701779999305,None,306.99701779999305,None,306.99701779999305,None,307.29077770002186,None,307.29077770002186,None,309.2070139000425,None,309.2070139000425,None,309.2070139000425,None,309.2070139000425,None,309.2070139000425,None,309.2070139000425,None,309.2070139000425,None,309.2070139000425,None,309.2070139000425,None,38,59,59,43,38,54,None,None,None,None,None,None,None,None,None,None,None,None,,None,None,,None,None,None,None,None,None,None,None,None,None,None,None,None,None,None,None,None,None,0.2,1,311.75384939997457,None,311.75384939997457,None,311.75384939997457,None,311.75384939997457,None,311.75384939997457,None,311.75384939997457,None,50,311.75384939997457,None,311.75384939997457,None,0.055989583333333336,-0.2734375,1,0,0,4.052386199939065,tijiao_random_2,0.014794939896091819,None,311.75384939997457,None,6.0,1.7934186999918893,315.8384502000408,None,315.8384502000408,None,315.8384502000408,None,315.8384502000408,None,None,None,317.64775750006083,None,,,,,,,,,261,f,18,2023_Mar_26_1157,RL,2021.2.3,60.0209112630417,
1,-0.3,-0.225,0,10,10,10,,,,,,,,,,,,,,,None,None,None,None,None,319.5032157000387,None,319.5032157000387,None,319.5032157000387,None,319.5032157000387,None,f,0.31546830001752824,319.5032157000387,None,319.5032157000387,None,319.8720437999582,None,319.8720437999582,None,319.8720437999582,None,319.8720437999582,None,319.8720437999582,None,319.8720437999582,None,320.16650789999403,321.85100480006076,320.16650789999403,321.85100480006076,321.885105399997,None,321.885105399997,None,321.885105399997,None,321.885105399997,None,321.885105399997,None,321.885105399997,None,321.885105399997,None,321.885105399997,None,321.885105399997,None,36,59,80,41,59,56,324.40246160002425,None,7.0,3.8222013999475166,324.40246160002425,None,324.40246160002425,None,324.40246160002425,None,324.40246160002425,None,,None,None,,None,None,None,None,None,None,None,None,None,None,None,None,None,None,None,None,None,None,0.6,3,None,None,None,None,None,None,None,None,None,None,None,None,,None,None,None,None,,,,,,,,None,None,None,None,None,None,None,None,None,None,None,None,None,None,None,None,328.2851565000601,None,,,,,,,,,261,f,18,2023_Mar_26_1157,RL,2021.2.3,60.0209112630417,
0,0.3,0.225,0,11,11,11,,,,,,,,,,,,,,,None,None,None,None,None,329.8103603000054,None,329.8103603000054,None,329.8103603000054,None,329.8103603000054,None,i,0.33839849999640137,329.8103603000054,None,329.8103603000054,None,330.20094949996565,None,330.20094949996565,None,330.20094949996565,None,330.20094949996565,None,330.20094949996565,None,330.20094949996565,None,330.4903952999739,331.6913610000629,330.4903952999739,331.6913610000629,331.7223211999517,None,331.7223211999517,None,331.7223211999517,None,331.7223211999517,None,331.7223211999517,None,331.7223211999517,None,331.7223211999517,None,331.7223211999517,None,331.7223211999517,None,44,58,62,39,62,16,None,None,None,None,None,None,None,None,None,None,None,None,,None,None,,None,None,None,None,None,None,None,None,None,None,None,None,None,None,None,None,None,None,-0.6,1,334.2677872000495,None,334.2677872000495,None,334.2677872000495,None,334.2677872000495,None,334.2677872000495,None,334.2677872000495,None,60,334.2677872000495,None,334.2677872000495,None,-0.0859375,-0.2825520833333333,1,0,0,5.556811499991454,tijiao_random_2,0.0004512299783527851,None,334.2677872000495,None,6.013020833333334,2.611568499938585,339.85495169996284,None,339.85495169996284,None,339.85495169996284,None,339.85495169996284,None,None,None,342.4815086000599,None,,,,,,,,,261,f,18,2023_Mar_26_1157,RL,2021.2.3,60.0209112630417,
1,-0.3,-0.225,0,12,12,12,,,,,,,,,,,,,,,None,None,None,None,None,344.17076730006374,None,344.17076730006374,None,344.17076730006374,None,344.17076730006374,None,j,0.2980855000205338,344.17076730006374,None,344.17076730006374,None,344.5228905000258,None,344.5228905000258,None,344.5228905000258,None,344.5228905000258,None,344.5228905000258,None,344.5228905000258,None,344.8001915999921,346.41821729997173,344.8001915999921,346.41821729997173,346.4659358999925,None,346.4659358999925,None,346.4659358999925,None,346.4659358999925,None,346.4659358999925,None,346.4659358999925,None,346.4659358999925,None,346.4659358999925,None,346.4659358999925,None,43,56,63,33,33,46,348.98201989999507,None,4.0,2.589472100022249,348.98201989999507,None,348.98201989999507,None,348.98201989999507,None,348.98201989999507,None,,None,None,,None,None,None,None,None,None,None,None,None,None,None,None,None,None,None,None,None,None,-0.2,3,None,None,None,None,None,None,None,None,None,None,None,None,,None,None,None,None,,,,,,,,None,None,None,None,None,None,None,None,None,None,None,None,None,None,None,None,351.6285118999658,None,,,,,,,,,261,f,18,2023_Mar_26_1157,RL,2021.2.3,60.0209112630417,
0,0.3,0.225,0,13,13,13,,,,,,,,,,,,,,,None,None,None,None,None,353.5607950000558,None,353.5607950000558,None,353.5607950000558,None,353.5607950000558,None,r,0.328028800082393,353.5607950000558,None,353.5607950000558,None,353.928594200057,None,353.928594200057,None,353.928594200057,None,353.928594200057,None,353.928594200057,None,353.928594200057,None,354.2234053000575,None,354.2234053000575,None,355.4547590999864,None,355.4547590999864,None,355.4547590999864,None,355.4547590999864,None,355.4547590999864,None,355.4547590999864,None,355.4547590999864,None,355.4547590999864,None,355.4547590999864,None,40,57,69,36,40,56,None,None,None,None,None,None,None,None,None,None,None,None,50,357.9864170999499,None,50,357.9864170999499,None,357.9864170999499,None,357.9864170999499,None,357.9864170999499,None,357.9864170999499,None,357.9864170999499,None,357.9864170999499,None,0.015808229916729033,None,357.9864170999499,None,0.6,0,None,None,None,None,None,None,None,None,None,None,None,None,,None,None,None,None,,,,,,,,None,None,None,None,5.986979166666667,1.4340954000363126,362.21746790001635,None,362.21746790001635,None,362.21746790001635,None,362.21746790001635,None,None,None,363.67853350006044,None,-0.02734375,-0.2838541666666667,1,0,0,4.185638400027528,tijiao,,261,f,18,2023_Mar_26_1157,RL,2021.2.3,60.0209112630417,
1,-0.3,-0.225,0,14,14,14,,,,,,,,,,,,,,,None,None,None,None,None,365.31754970003385,None,365.31754970003385,None,365.31754970003385,None,365.31754970003385,None,f,0.5713586999336258,365.31754970003385,None,365.31754970003385,None,365.9375808000332,None,365.9375808000332,None,365.9375808000332,None,365.9375808000332,None,365.9375808000332,None,365.9375808000332,None,366.2318894000491,367.1660297999624,366.2318894000491,367.1660297999624,367.1984608999919,None,367.1984608999919,None,367.1984608999919,None,367.1984608999919,None,367.1984608999919,None,367.1984608999919,None,367.1984608999919,None,367.1984608999919,None,367.1984608999919,None,51,56,53,31,56,51,None,None,None,None,None,None,None,None,None,None,None,None,55,369.7258601000067,None,55,369.7258601000067,None,369.7258601000067,None,369.7258601000067,None,369.7258601000067,None,369.7258601000067,None,369.7258601000067,None,369.7258601000067,None,0.00011012004688382149,None,369.7258601000067,None,-0.2,0,None,None,None,None,None,None,None,None,None,None,None,None,,None,None,None,None,,,,,,,,None,None,None,None,5.947916666666667,1.5972029999829829,374.543053100002,None,374.543053100002,None,374.543053100002,None,374.543053100002,None,None,None,376.1546582999872,None,-0.03125,-0.3059895833333333,1,0,0,4.770601999945939,tijiao,,261,f,18,2023_Mar_26_1157,RL,2021.2.3,60.0209112630417,
0,0.3,0.225,0,15,15,15,,,,,,,,,,,,,,,None,None,None,None,None,378.1101887000259,None,378.1101887000259,None,378.1101887000259,None,378.1101887000259,None,i,0.28888739994727075,378.1101887000259,None,378.1101887000259,None,378.44697910000104,None,378.44697910000104,None,378.44697910000104,None,378.44697910000104,None,378.44697910000104,None,378.44697910000104,None,378.74056069995277,None,378.74056069995277,None,380.6242172999773,None,380.6242172999773,None,380.6242172999773,None,380.6242172999773,None,380.6242172999773,None,380.6242172999773,None,380.6242172999773,None,380.6242172999773,None,380.6242172999773,None,52,54,63,39,63,52,None,None,None,None,None,None,None,None,None,None,None,None,70,383.1563625000417,None,70,383.1563625000417,None,383.1563625000417,None,383.1563625000417,None,383.1563625000417,None,383.1563625000417,None,383.1563625000417,None,383.1563625000417,None,0.01264392992015928,None,383.1563625000417,None,-0.2,0,None,None,None,None,None,None,None,None,None,None,None,None,,None,None,None,None,,,,,,,,None,None,None,None,5.947916666666667,1.5792980000842363,388.3233896000311,None,388.3233896000311,None,388.3233896000311,None,388.3233896000311,None,None,None,389.930008299998,None,0.0013020833333333333,-0.30859375,1,0,0,5.066923100035638,tijiao,,261,f,18,2023_Mar_26_1157,RL,2021.2.3,60.0209112630417,
1,-0.3,-0.225,0,16,16,16,,,,,,,,,,,,,,,None,None,None,None,None,391.88577299995814,None,391.88577299995814,None,391.88577299995814,None,391.88577299995814,None,i,0.31363089999649674,391.88577299995814,None,391.88577299995814,None,392.2411414999515,None,392.2411414999515,None,392.2411414999515,None,392.2411414999515,None,392.2411414999515,None,392.2411414999515,None,392.5167036000639,394.31798020005226,392.5167036000639,394.31798020005226,394.3667066000635,None,394.3667066000635,None,394.3667066000635,None,394.3667066000635,None,394.3667066000635,None,394.3667066000635,None,394.3667066000635,None,394.3667066000635,None,394.3667066000635,None,54,52,61,46,61,16,396.883487300016,None,7.0,2.0898196999914944,396.883487300016,None,396.883487300016,None,396.883487300016,None,396.883487300016,None,,None,None,,None,None,None,None,None,None,None,None,None,None,None,None,None,None,None,None,None,None,0.2,3,None,None,None,None,None,None,None,None,None,None,None,None,,None,None,None,None,,,,,,,,None,None,None,None,None,None,None,None,None,None,None,None,None,None,None,None,399.0283308000071,None,,,,,,,,,261,f,18,2023_Mar_26_1157,RL,2021.2.3,60.0209112630417,
0,0.3,0.225,0,17,17,17,,,,,,,,,,,,,,,None,None,None,None,None,401.0268553000642,None,401.0268553000642,None,401.0268553000642,None,401.0268553000642,None,i,0.30237619997933507,401.0268553000642,None,401.0268553000642,None,401.3765111999819,None,401.3765111999819,None,401.3765111999819,None,401.3765111999819,None,401.3765111999819,None,401.3765111999819,None,401.67307050002273,403.6744178000372,401.67307050002273,403.6744178000372,403.7063128000591,None,403.7063128000591,None,403.7063128000591,None,403.7063128000591,None,403.7063128000591,None,403.7063128000591,None,403.7063128000591,None,403.7063128000591,None,403.7063128000591,None,48,58,60,51,60,45,None,None,None,None,None,None,None,None,None,None,None,None,,None,None,,None,None,None,None,None,None,None,None,None,None,None,None,None,None,None,None,None,None,-0.2,1,406.2520352000138,None,406.2520352000138,None,406.2520352000138,None,406.2520352000138,None,406.2520352000138,None,406.2520352000138,None,50,406.2520352000138,None,406.2520352000138,None,0.016927083333333332,-0.2760416666666667,1,0,0,3.986515500000678,tijiao_random_2,0.016049240017309785,None,406.2520352000138,None,5.921875,1.6293352999491617,410.2683304999955,None,410.2683304999955,None,410.2683304999955,None,410.2683304999955,None,None,None,411.9131303000031,None,,,,,,,,,261,f,18,2023_Mar_26_1157,RL,2021.2.3,60.0209112630417,
1,-0.3,-0.225,0,18,18,18,,,,,,,,,,,,,,,None,None,None,None,None,413.4855077000102,None,413.4855077000102,None,413.4855077000102,None,413.4855077000102,None,r,0.3739316000137478,413.4855077000102,None,413.4855077000102,None,413.90921249997336,None,413.90921249997336,None,413.90921249997336,None,413.90921249997336,None,413.90921249997336,None,413.90921249997336,None,414.19842949998565,415.2157420000294,414.19842949998565,415.2157420000294,415.24762060004286,None,415.24762060004286,None,415.24762060004286,None,415.24762060004286,None,415.24762060004286,None,415.24762060004286,None,415.24762060004286,None,415.24762060004286,None,415.24762060004286,None,45,50,61,56,45,42,417.76982070005033,None,5.0,3.803110699984245,417.76982070005033,None,417.76982070005033,None,417.76982070005033,None,417.76982070005033,None,,None,None,,None,None,None,None,None,None,None,None,None,None,None,None,None,None,None,None,None,None,0.6,3,None,None,None,None,None,None,None,None,None,None,None,None,,None,None,None,None,,,,,,,,None,None,None,None,None,None,None,None,None,None,None,None,None,None,None,None,421.625108600012,None,,,,,,,,,261,f,18,2023_Mar_26_1157,RL,2021.2.3,60.0209112630417,
0,0.3,0.225,0,19,19,19,,,,,,,,,,,,,,,None,None,None,None,None,423.25844590005,None,423.25844590005,None,423.25844590005,None,423.25844590005,None,f,0.5109439000952989,423.25844590005,None,423.25844590005,None,423.8127891999902,None,423.8127891999902,None,423.8127891999902,None,423.8127891999902,None,423.8127891999902,None,423.8127891999902,None,424.0888232999714,425.95647720003035,424.0888232999714,425.95647720003035,426.0048682000488,None,426.0048682000488,None,426.0048682000488,None,426.0048682000488,None,426.0048682000488,None,426.0048682000488,None,426.0048682000488,None,426.0048682000488,None,426.0048682000488,None,42,55,56,42,55,32,None,None,None,None,None,None,None,None,None,None,None,None,,None,None,,None,None,None,None,None,None,None,None,None,None,None,None,None,None,None,None,None,None,-0.2,1,428.55751139996573,None,428.55751139996573,None,428.55751139996573,None,428.55751139996573,None,428.55751139996573,None,428.55751139996573,None,65,428.55751139996573,None,428.55751139996573,None,-0.009114583333333334,-0.28125,1,0,0,5.113720700028352,tijiao_random_2,0.00938114000018686,None,428.55751139996573,None,6.013020833333334,1.450829799985513,433.70647069998085,None,433.70647069998085,None,433.70647069998085,None,433.70647069998085,None,None,None,435.1779639000306,None,,,,,,,,,261,f,18,2023_Mar_26_1157,RL,2021.2.3,60.0209112630417,
1,-0.3,-0.225,0,20,20,20,,,,,,,,,,,,,,,None,None,None,None,None,437.1184192999499,None,437.1184192999499,None,437.1184192999499,None,437.1184192999499,None,j,0.8509866000385955,437.1184192999499,None,437.1184192999499,None,438.02035819995217,None,438.02035819995217,None,438.02035819995217,None,438.02035819995217,None,438.02035819995217,None,438.02035819995217,None,438.3151560999686,None,438.3151560999686,None,439.26308750000317,None,439.26308750000317,None,439.26308750000317,None,439.26308750000317,None,439.26308750000317,None,439.26308750000317,None,439.26308750000317,None,439.26308750000317,None,439.26308750000317,None,51,47,51,45,45,58,None,None,None,None,None,None,None,None,None,None,None,None,45,441.7954253000207,None,45,441.7954253000207,None,441.7954253000207,None,441.7954253000207,None,441.7954253000207,None,441.7954253000207,None,441.7954253000207,None,441.7954253000207,None,0.013801529887132347,None,441.7954253000207,None,-0.2,0,None,None,None,None,None,None,None,None,None,None,None,None,,None,None,None,None,,,,,,,,None,None,None,None,5.947916666666667,1.2631337998900563,445.87748569995165,None,445.87748569995165,None,445.87748569995165,None,445.87748569995165,None,None,None,447.15412780002225,None,0.048177083333333336,-0.28125,1,0,0,4.034019600017928,tijiao,,261,f,18,2023_Mar_26_1157,RL,2021.2.3,60.0209112630417,
0,0.3,0.225,0,21,21,21,,,,,,,,,,,,,,,None,None,None,None,None,449.1440096000442,None,449.1440096000442,None,449.1440096000442,None,449.1440096000442,None,i,0.4065616999287158,449.1440096000442,None,449.1440096000442,None,449.6000699000433,None,449.6000699000433,None,449.6000699000433,None,449.6000699000433,None,449.6000699000433,None,449.6000699000433,None,449.890637399978,451.07417409995105,449.890637399978,451.07417409995105,451.1105861000251,None,451.1105861000251,None,451.1105861000251,None,451.1105861000251,None,451.1105861000251,None,451.1105861000251,None,451.1105861000251,None,451.1105861000251,None,451.1105861000251,None,53,54,44,40,44,51,None,None,None,None,None,None,None,None,None,None,None,None,50,453.64020480006,None,50,453.64020480006,None,453.64020480006,None,453.64020480006,None,453.64020480006,None,453.64020480006,None,453.64020480006,None,453.64020480006,None,0.010011529899202287,None,453.64020480006,None,-0.2,0,None,None,None,None,None,None,None,None,None,None,None,None,,None,None,None,None,,,,,,,,None,None,None,None,5.856770833333333,1.4101346000097692,459.20602859999053,None,459.20602859999053,None,459.20602859999053,None,459.20602859999053,None,None,None,460.6298459999962,None,0.07552083333333333,-0.29296875,1,0,0,5.514727200032212,tijiao,,261,f,18,2023_Mar_26_1157,RL,2021.2.3,60.0209112630417,
1,-0.3,-0.225,0,22,22,22,,,,,,,,,,,,,,,None,None,None,None,None,462.5693956000032,None,462.5693956000032,None,462.5693956000032,None,462.5693956000032,None,f,0.3111602000426501,462.5693956000032,None,462.5693956000032,None,462.9246860999847,None,462.9246860999847,None,462.9246860999847,None,462.9246860999847,None,462.9246860999847,None,462.9246860999847,None,463.19910530000925,464.18310020002536,463.19910530000925,464.18310020002536,464.21442209999077,None,464.21442209999077,None,464.21442209999077,None,464.21442209999077,None,464.21442209999077,None,464.21442209999077,None,464.21442209999077,None,464.21442209999077,None,464.21442209999077,None,53,52,64,46,52,58,466.73100450006314,None,4.0,0.9399539999430999,466.73100450006314,None,466.73100450006314,None,466.73100450006314,None,466.73100450006314,None,,None,None,,None,None,None,None,None,None,None,None,None,None,None,None,None,None,None,None,None,None,0.6,2,None,None,None,None,None,None,None,None,None,None,None,None,,None,None,None,None,,,,,,,,None,None,None,None,None,None,None,None,None,None,None,None,None,None,None,None,467.72340999997687,None,,,,,,,,,261,f,18,2023_Mar_26_1157,RL,2021.2.3,60.0209112630417,
0,0.3,0.225,0,23,23,23,,,,,,,,,,,,,,,None,None,None,None,None,469.65784210001584,None,469.65784210001584,None,469.65784210001584,None,469.65784210001584,None,i,0.3630056999390945,469.65784210001584,None,469.65784210001584,None,470.05919279996306,None,470.05919279996306,None,470.05919279996306,None,470.05919279996306,None,470.05919279996306,None,470.05919279996306,None,470.35438769997563,None,470.35438769997563,None,471.88472850003745,None,471.88472850003745,None,471.88472850003745,None,471.88472850003745,None,471.88472850003745,None,471.88472850003745,None,471.88472850003745,None,471.88472850003745,None,471.88472850003745,None,52,54,51,37,51,59,474.40346860000864,None,2.0,1.9700339999981225,474.40346860000864,None,474.40346860000864,None,474.40346860000864,None,474.40346860000864,None,,None,None,,None,None,None,None,None,None,None,None,None,None,None,None,None,None,None,None,None,None,-0.6,2,None,None,None,None,None,None,None,None,None,None,None,None,,None,None,None,None,,,,,,,,None,None,None,None,None,None,None,None,None,None,None,None,None,None,None,None,476.43044210004155,None,,,,,,,,,261,f,18,2023_Mar_26_1157,RL,2021.2.3,60.0209112630417,
1,-0.3,-0.225,0,24,24,24,,,,,,,,,,,,,,,None,None,None,None,None,478.2640838000225,None,478.2640838000225,None,478.2640838000225,None,478.2640838000225,None,r,0.32669060002081096,478.2640838000225,None,478.2640838000225,None,478.6318410000531,None,478.6318410000531,None,478.6318410000531,None,478.6318410000531,None,478.6318410000531,None,478.6318410000531,None,478.9268482000334,480.27757080004085,478.9268482000334,480.27757080004085,480.3098379999865,None,480.3098379999865,None,480.3098379999865,None,480.3098379999865,None,480.3098379999865,None,480.3098379999865,None,480.3098379999865,None,480.3098379999865,None,480.3098379999865,None,51,48,46,54,51,54,482.83083580003586,None,2.0,1.3513785999966785,482.83083580003586,None,482.83083580003586,None,482.83083580003586,None,482.83083580003586,None,,None,None,,None,None,None,None,None,None,None,None,None,None,None,None,None,None,None,None,None,None,0.2,3,None,None,None,None,None,None,None,None,None,None,None,None,,None,None,None,None,,,,,,,,None,None,None,None,None,None,None,None,None,None,None,None,None,None,None,None,484.23697219998576,None,,,,,,,,,261,f,18,2023_Mar_26_1157,RL,2021.2.3,60.0209112630417,
0,0.3,0.225,0,25,25,25,,,,,,,,,,,,,,,None,None,None,None,None,486.035903400043,None,486.035903400043,None,486.035903400043,None,486.035903400043,None,f,0.36484059994108975,486.035903400043,None,486.035903400043,None,486.4536526000593,None,486.4536526000593,None,486.4536526000593,None,486.4536526000593,None,486.4536526000593,None,486.4536526000593,None,486.7488753000507,488.13319560000673,486.7488753000507,488.13319560000673,488.16714280005544,None,488.16714280005544,None,488.16714280005544,None,488.16714280005544,None,488.16714280005544,None,488.16714280005544,None,488.16714280005544,None,488.16714280005544,None,488.16714280005544,None,55,54,64,43,54,22,None,None,None,None,None,None,None,None,None,None,None,None,,None,None,,None,None,None,None,None,None,None,None,None,None,None,None,None,None,None,None,None,None,-0.6,1,490.70924510003533,None,490.70924510003533,None,490.70924510003533,None,490.70924510003533,None,490.70924510003533,None,490.70924510003533,None,50,490.70924510003533,None,490.70924510003533,None,-0.009114583333333334,-0.3046875,1,0,0,5.154789500054903,tijiao_random_2,0.0003673300379887223,None,490.70924510003533,None,6.0,1.7809837999520823,495.8979808000149,None,495.8979808000149,None,495.8979808000149,None,495.8979808000149,None,None,None,497.6899180000182,None,,,,,,,,,261,f,18,2023_Mar_26_1157,RL,2021.2.3,60.0209112630417,
1,-0.3,-0.225,0,26,26,26,,,,,,,,,,,,,,,None,None,None,None,None,499.2786721000448,None,499.2786721000448,None,499.2786721000448,None,499.2786721000448,None,i,0.4521502999123186,499.2786721000448,None,499.2786721000448,None,499.7807115999749,None,499.7807115999749,None,499.7807115999749,None,499.7807115999749,None,499.7807115999749,None,499.7807115999749,None,500.07467560004443,501.49236410006415,500.07467560004443,501.49236410006415,501.5247759000631,None,501.5247759000631,None,501.5247759000631,None,501.5247759000631,None,501.5247759000631,None,501.5247759000631,None,501.5247759000631,None,501.5247759000631,None,501.5247759000631,None,53,53,51,51,51,54,None,None,None,None,None,None,None,None,None,None,None,None,,None,None,,None,None,None,None,None,None,None,None,None,None,None,None,None,None,None,None,None,None,0.2,1,504.0768194999546,None,504.0768194999546,None,504.0768194999546,None,504.0768194999546,None,504.0768194999546,None,504.0768194999546,None,60,504.0768194999546,None,504.0768194999546,None,0.033854166666666664,-0.2994791666666667,1,0,0,6.346724100061692,tijiao_random_2,0.008325639995746315,None,504.0768194999546,None,7.002604166666666,2.7840157001046464,510.45405679999385,None,510.45405679999385,None,510.45405679999385,None,510.45405679999385,None,None,None,513.2500061000464,None,,,,,,,,,261,f,18,2023_Mar_26_1157,RL,2021.2.3,60.0209112630417,
0,0.3,0.225,0,27,27,27,,,,,,,,,,,,,,,None,None,None,None,None,515.222309499979,None,515.222309499979,None,515.222309499979,None,515.222309499979,None,f,0.2687273999908939,515.222309499979,None,515.222309499979,None,515.5401241000509,None,515.5401241000509,None,515.5401241000509,None,515.5401241000509,None,515.5401241000509,None,515.5401241000509,None,515.8359192999778,None,515.8359192999778,None,517.4718086000066,None,517.4718086000066,None,517.4718086000066,None,517.4718086000066,None,517.4718086000066,None,517.4718086000066,None,517.4718086000066,None,517.4718086000066,None,517.4718086000066,None,54,61,49,47,61,53,519.9851677999832,None,5.0,4.10694520000834,519.9851677999832,None,519.9851677999832,None,519.9851677999832,None,519.9851677999832,None,,None,None,,None,None,None,None,None,None,None,None,None,None,None,None,None,None,None,None,None,None,-0.2,2,None,None,None,None,None,None,None,None,None,None,None,None,,None,None,None,None,,,,,,,,None,None,None,None,None,None,None,None,None,None,None,None,None,None,None,None,524.1473869000329,None,,,,,,,,,261,f,18,2023_Mar_26_1157,RL,2021.2.3,60.0209112630417,
1,-0.3,-0.225,0,28,28,28,,,,,,,,,,,,,,,None,None,None,None,None,525.8622315999819,None,525.8622315999819,None,525.8622315999819,None,525.8622315999819,None,j,0.398797900066711,525.8622315999819,None,525.8622315999819,None,526.3146335000638,None,526.3146335000638,None,526.3146335000638,None,526.3146335000638,None,526.3146335000638,None,526.3146335000638,None,526.6099867000012,None,526.6099867000012,None,527.857477499987,None,527.857477499987,None,527.857477499987,None,527.857477499987,None,527.857477499987,None,527.857477499987,None,527.857477499987,None,527.857477499987,None,527.857477499987,None,53,54,45,54,54,48,None,None,None,None,None,None,None,None,None,None,None,None,50,530.3892017999897,None,50,530.3892017999897,None,530.3892017999897,None,530.3892017999897,None,530.3892017999897,None,530.3892017999897,None,530.3892017999897,None,530.3892017999897,None,0.014854829991236329,None,530.3892017999897,None,-0.6,0,None,None,None,None,None,None,None,None,None,None,None,None,,None,None,None,None,,,,,,,,None,None,None,None,5.986979166666667,2.4785703000379726,535.2903376000468,None,535.2903376000468,None,535.2903376000468,None,535.2903376000468,None,None,None,537.783379200031,None,0.1015625,-0.2721354166666667,1,0,0,4.852804700029083,tijiao,,261,f,18,2023_Mar_26_1157,RL,2021.2.3,60.0209112630417,
0,0.3,0.225,0,29,29,29,,,,,,,,,,,,,,,None,None,None,None,None,539.3215680000139,None,539.3215680000139,None,539.3215680000139,None,539.3215680000139,None,r,1.1497698000166565,539.3215680000139,None,539.3215680000139,None,540.5246515000472,None,540.5246515000472,None,540.5246515000472,None,540.5246515000472,None,540.5246515000472,None,540.5246515000472,None,540.8197322000051,542.8040434999857,540.8197322000051,542.8040434999857,542.8353696999839,None,542.8353696999839,None,542.8353696999839,None,542.8353696999839,None,542.8353696999839,None,542.8353696999839,None,542.8353696999839,None,542.8353696999839,None,542.8353696999839,None,60,50,47,44,60,56,None,None,None,None,None,None,None,None,None,None,None,None,,None,None,,None,None,None,None,None,None,None,None,None,None,None,None,None,None,None,None,None,None,0.2,1,545.3830239999807,None,545.3830239999807,None,545.3830239999807,None,545.3830239999807,None,545.3830239999807,None,545.3830239999807,None,70,545.3830239999807,None,545.3830239999807,None,0.061197916666666664,-0.2825520833333333,1,0,0,5.201915799989365,tijiao_random_2,0.014012039988301694,None,545.3830239999807,None,5.986979166666667,10.60085419996176,550.6192474999698,None,550.6192474999698,None,550.6192474999698,None,550.6192474999698,None,None,None,561.2531562000513,None,,,,,,,,,261,f,18,2023_Mar_26_1157,RL,2021.2.3,60.0209112630417,
1,-0.3,-0.225,0,30,30,30,,,,,,,,,,,,,,,None,None,None,None,None,563.2059913000558,None,563.2059913000558,None,563.2059913000558,None,563.2059913000558,None,i,1.4056383999995887,563.2059913000558,None,563.2059913000558,None,564.6572557999752,None,564.6572557999752,None,564.6572557999752,None,564.6572557999752,None,564.6572557999752,None,564.6572557999752,None,564.9531045999611,None,564.9531045999611,None,565.8186688000569,None,565.8186688000569,None,565.8186688000569,None,565.8186688000569,None,565.8186688000569,None,565.8186688000569,None,565.8186688000569,None,565.8186688000569,None,565.8186688000569,None,55,61,45,41,45,35,568.3402648000047,None,5.0,3.688222899916582,568.3402648000047,None,568.3402648000047,None,568.3402648000047,None,568.3402648000047,None,,None,None,,None,None,None,None,None,None,None,None,None,None,None,None,None,None,None,None,None,None,0.2,3,None,None,None,None,None,None,None,None,None,None,None,None,,None,None,None,None,,,,,,,,None,None,None,None,None,None,None,None,None,None,None,None,None,None,None,None,572.0823416999774,None,,,,,,,,,261,f,18,2023_Mar_26_1157,RL,2021.2.3,60.0209112630417,
0,0.3,0.225,0,31,31,31,,,,,,,,,,,,,,,None,None,None,None,None,573.6469174999511,None,573.6469174999511,None,573.6469174999511,None,573.6469174999511,None,j,0.3951178001007065,573.6469174999511,None,573.6469174999511,None,574.0841687000357,None,574.0841687000357,None,574.0841687000357,None,574.0841687000357,None,574.0841687000357,None,574.0841687000357,None,574.3763035000302,None,574.3763035000302,None,576.3749256000156,None,576.3749256000156,None,576.3749256000156,None,576.3749256000156,None,576.3749256000156,None,576.3749256000156,None,576.3749256000156,None,576.3749256000156,None,576.3749256000156,None,62,61,41,57,57,49,None,None,None,None,None,None,None,None,None,None,None,None,,None,None,,None,None,None,None,None,None,None,None,None,None,None,None,None,None,None,None,None,None,-0.2,1,578.9285630000522,None,578.9285630000522,None,578.9285630000522,None,578.9285630000522,None,578.9285630000522,None,578.9285630000522,None,50,578.9285630000522,None,578.9285630000522,None,-0.03125,-0.27734375,1,0,0,4.88056720001623,tijiao_random_2,0.008989440044388175,None,578.9285630000522,None,6.0,2.181031599990092,583.8412218999583,None,583.8412218999583,None,583.8412218999583,None,583.8412218999583,None,None,None,586.0496487000491,None,,,,,,,,,261,f,18,2023_Mar_26_1157,RL,2021.2.3,60.0209112630417,
1,-0.3,-0.225,0,32,32,32,,,,,,,,,,,,,,,None,None,None,None,None,587.822670100024,None,587.822670100024,None,587.822670100024,None,587.822670100024,None,f,0.3294192999601364,587.822670100024,None,587.822670100024,None,588.1949816000415,None,588.1949816000415,None,588.1949816000415,None,588.1949816000415,None,588.1949816000415,None,588.1949816000415,None,588.4862451000372,589.8205215999624,588.4862451000372,589.8205215999624,589.8514930000529,None,589.8514930000529,None,589.8514930000529,None,589.8514930000529,None,589.8514930000529,None,589.8514930000529,None,589.8514930000529,None,589.8514930000529,None,589.8514930000529,None,62,50,57,38,50,61,None,None,None,None,None,None,None,None,None,None,None,None,55,592.3908866000129,None,55,592.3908866000129,None,592.3908866000129,None,592.3908866000129,None,592.3908866000129,None,592.3908866000129,None,592.3908866000129,None,592.3908866000129,None,0.007723030052147806,None,592.3908866000129,None,0.2,0,None,None,None,None,None,None,None,None,None,None,None,None,,None,None,None,None,,,,,,,,None,None,None,None,6.0,2.5155077999224886,596.5959458999569,None,596.5959458999569,None,596.5959458999569,None,596.5959458999569,None,None,None,599.1262928999495,None,0.048177083333333336,-0.2760416666666667,1,0,0,4.161709500011057,tijiao,,261,f,18,2023_Mar_26_1157,RL,2021.2.3,60.0209112630417,
0,0.3,0.225,0,33,33,33,,,,,,,,,,,,,,,None,None,None,None,None,600.8988844000269,None,600.8988844000269,None,600.8988844000269,None,600.8988844000269,None,r,0.2928927999455482,600.8988844000269,None,600.8988844000269,None,601.2356191000436,None,601.2356191000436,None,601.2356191000436,None,601.2356191000436,None,601.2356191000436,None,601.2356191000436,None,601.5284623999614,None,601.5284623999614,None,603.1966799000511,None,603.1966799000511,None,603.1966799000511,None,603.1966799000511,None,603.1966799000511,None,603.1966799000511,None,603.1966799000511,None,603.1966799000511,None,603.1966799000511,None,60,53,47,41,60,60,605.7123107999796,None,6.0,3.1048984000226483,605.7123107999796,None,605.7123107999796,None,605.7123107999796,None,605.7123107999796,None,,None,None,,None,None,None,None,None,None,None,None,None,None,None,None,None,None,None,None,None,None,-0.2,2,None,None,None,None,None,None,None,None,None,None,None,None,,None,None,None,None,,,,,,,,None,None,None,None,None,None,None,None,None,None,None,None,None,None,None,None,608.8731786999851,None,,,,,,,,,261,f,18,2023_Mar_26_1157,RL,2021.2.3,60.0209112630417,
1,-0.3,-0.225,0,34,34,34,,,,,,,,,,,,,,,None,None,None,None,None,610.7049869999755,None,610.7049869999755,None,610.7049869999755,None,610.7049869999755,None,f,0.38754389993846416,610.7049869999755,None,610.7049869999755,None,611.1400382999564,None,611.1400382999564,None,611.1400382999564,None,611.1400382999564,None,611.1400382999564,None,611.1400382999564,None,611.4353148000082,None,611.4353148000082,None,613.0832641000161,None,613.0832641000161,None,613.0832641000161,None,613.0832641000161,None,613.0832641000161,None,613.0832641000161,None,613.0832641000161,None,613.0832641000161,None,613.0832641000161,None,73,55,45,38,55,57,None,None,None,None,None,None,None,None,None,None,None,None,,None,None,,None,None,None,None,None,None,None,None,None,None,None,None,None,None,None,None,None,None,-0.2,1,615.6296532000415,None,615.6296532000415,None,615.6296532000415,None,615.6296532000415,None,615.6296532000415,None,615.6296532000415,None,56,615.6296532000415,None,615.6296532000415,None,0.0390625,-0.3111979166666667,1,0,0,4.370815300033428,tijiao_random_2,0.016379740089178085,None,615.6296532000415,None,6.0390625,1.9722081000218168,620.03147669998,None,620.03147669998,None,620.03147669998,None,620.03147669998,None,None,None,622.0416816000361,None,,,,,,,,,261,f,18,2023_Mar_26_1157,RL,2021.2.3,60.0209112630417,
0,0.3,0.225,0,35,35,35,,,,,,,,,,,,,,,None,None,None,None,None,623.7315091000637,None,623.7315091000637,None,623.7315091000637,None,623.7315091000637,None,i,0.311893800040707,623.7315091000637,None,623.7315091000637,None,624.0856555000646,None,624.0856555000646,None,624.0856555000646,None,624.0856555000646,None,624.0856555000646,None,624.0856555000646,None,624.3776071000611,None,624.3776071000611,None,625.391210700036,None,625.391210700036,None,625.391210700036,None,625.391210700036,None,625.391210700036,None,625.391210700036,None,625.391210700036,None,625.391210700036,None,625.391210700036,None,69,35,57,36,57,30,None,None,None,None,None,None,None,None,None,None,None,None,40,627.9219037999865,None,40,627.9219037999865,None,627.9219037999865,None,627.9219037999865,None,627.9219037999865,None,627.9219037999865,None,627.9219037999865,None,627.9219037999865,None,0.00036522001028060913,None,627.9219037999865,None,-0.2,0,None,None,None,None,None,None,None,None,None,None,None,None,,None,None,None,None,,,,,,,,None,None,None,None,6.065104166666666,1.4384320999961346,633.2916573999682,None,633.2916573999682,None,633.2916573999682,None,633.2916573999682,None,None,None,634.7509192000143,None,0.045572916666666664,-0.2890625,1,0,0,5.321479800040834,tijiao,,261,f,18,2023_Mar_26_1157,RL,2021.2.3,60.0209112630417,
1,-0.3,-0.225,0,36,36,36,,,,,,,,,,,,,,,None,None,None,None,None,636.5738055000547,None,636.5738055000547,None,636.5738055000547,None,636.5738055000547,None,j,0.4789870000677183,636.5738055000547,None,636.5738055000547,None,637.0941731999628,None,637.0941731999628,None,637.0941731999628,None,637.0941731999628,None,637.0941731999628,None,637.0941731999628,None,637.3701352999778,638.6538570000557,637.3701352999778,638.6538570000557,638.7081428000238,None,638.7081428000238,None,638.7081428000238,None,638.7081428000238,None,638.7081428000238,None,638.7081428000238,None,638.7081428000238,None,638.7081428000238,None,638.7081428000238,None,64,37,48,43,43,38,None,None,None,None,None,None,None,None,None,None,None,None,,None,None,,None,None,None,None,None,None,None,None,None,None,None,None,None,None,None,None,None,None,-0.6,1,641.2561848000623,None,641.2561848000623,None,641.2561848000623,None,641.2561848000623,None,641.2561848000623,None,641.2561848000623,None,50,641.2561848000623,None,641.2561848000623,None,0.03125,-0.2747395833333333,1,0,0,3.944313600077294,tijiao_random_2,0.0077433399856090546,None,641.2561848000623,None,6.091145833333334,1.6826671999879181,645.2315966000315,None,645.2315966000315,None,645.2315966000315,None,645.2315966000315,None,None,None,646.925967499963,None,,,,,,,,,261,f,18,2023_Mar_26_1157,RL,2021.2.3,60.0209112630417,
0,0.3,0.225,0,37,37,37,,,,,,,,,,,,,,,None,None,None,None,None,648.7488433000399,None,648.7488433000399,None,648.7488433000399,None,648.7488433000399,None,r,0.3840730000520125,648.7488433000399,None,648.7488433000399,None,649.1833255999954,None,649.1833255999954,None,649.1833255999954,None,649.1833255999954,None,649.1833255999954,None,649.1833255999954,None,649.4787296999712,650.5792233999819,649.4787296999712,650.5792233999819,650.6166624999605,None,650.6166624999605,None,650.6166624999605,None,650.6166624999605,None,650.6166624999605,None,650.6166624999605,None,650.6166624999605,None,650.6166624999605,None,650.6166624999605,None,63,45,51,50,63,51,653.1511352000525,None,4.0,1.3176929999608546,653.1511352000525,None,653.1511352000525,None,653.1511352000525,None,653.1511352000525,None,,None,None,,None,None,None,None,None,None,None,None,None,None,None,None,None,None,None,None,None,None,0.2,3,None,None,None,None,None,None,None,None,None,None,None,None,,None,None,None,None,,,,,,,,None,None,None,None,None,None,None,None,None,None,None,None,None,None,None,None,654.5205258000642,None,,,,,,,,,261,f,18,2023_Mar_26_1157,RL,2021.2.3,60.0209112630417,
1,-0.3,-0.225,0,38,38,38,,,,,,,,,,,,,,,None,None,None,None,None,656.2039022999816,None,656.2039022999816,None,656.2039022999816,None,656.2039022999816,None,f,0.31901079998351634,656.2039022999816,None,656.2039022999816,None,656.5705312000355,None,656.5705312000355,None,656.5705312000355,None,656.5705312000355,None,656.5705312000355,None,656.5705312000355,None,656.8668976000044,None,656.8668976000044,None,658.8169088000432,None,658.8169088000432,None,658.8169088000432,None,658.8169088000432,None,658.8169088000432,None,658.8169088000432,None,658.8169088000432,None,658.8169088000432,None,658.8169088000432,None,57,34,51,45,34,44,661.3370793999638,None,3.0,3.8217092999257147,661.3370793999638,None,661.3370793999638,None,661.3370793999638,None,661.3370793999638,None,,None,None,,None,None,None,None,None,None,None,None,None,None,None,None,None,None,None,None,None,None,0.2,2,None,None,None,None,None,None,None,None,None,None,None,None,,None,None,None,None,,,,,,,,None,None,None,None,None,None,None,None,None,None,None,None,None,None,None,None,665.2116388999857,None,,,,,,,,,261,f,18,2023_Mar_26_1157,RL,2021.2.3,60.0209112630417,
0,0.3,0.225,0,39,39,39,,,,,,,,,,,,,,,None,None,None,None,None,667.2122077000095,None,667.2122077000095,None,667.2122077000095,None,667.2122077000095,None,i,0.27081170002929866,667.2122077000095,None,667.2122077000095,None,667.53101409995,None,667.53101409995,None,667.53101409995,None,667.53101409995,None,667.53101409995,None,667.53101409995,None,667.8245452999836,None,667.8245452999836,None,668.65604599996,None,668.65604599996,None,668.65604599996,None,668.65604599996,None,668.65604599996,None,668.65604599996,None,668.65604599996,None,668.65604599996,None,668.65604599996,None,67,28,51,48,51,55,None,None,None,None,None,None,None,None,None,None,None,None,,None,None,,None,None,None,None,None,None,None,None,None,None,None,None,None,None,None,None,None,None,0.6,1,671.2006678000325,None,671.2006678000325,None,671.2006678000325,None,671.2006678000325,None,671.2006678000325,None,671.2006678000325,None,50,671.2006678000325,None,671.2006678000325,None,0.09635416666666667,-0.3033854166666667,1,0,0,4.071470899973065,tijiao_random_2,0.0009669299470260739,None,671.2006678000325,None,6.0,2.263955599977635,675.3041614999529,None,675.3041614999529,None,675.3041614999529,None,675.3041614999529,None,None,None,677.5878151999786,None,,,,,,,,,261,f,18,2023_Mar_26_1157,RL,2021.2.3,60.0209112630417,
1,-0.3,-0.225,0,40,40,40,,,,,,,,,,,,,,,None,None,None,None,None,679.5540180000244,None,679.5540180000244,None,679.5540180000244,None,679.5540180000244,None,i,0.29904549999628216,679.5540180000244,None,679.5540180000244,None,679.9048352000536,None,679.9048352000536,None,679.9048352000536,None,679.9048352000536,None,679.9048352000536,None,679.9048352000536,None,680.1998110000277,None,680.1998110000277,None,681.9129722999642,None,681.9129722999642,None,681.9129722999642,None,681.9129722999642,None,681.9129722999642,None,681.9129722999642,None,681.9129722999642,None,681.9129722999642,None,681.9129722999642,None,76,41,48,47,48,23,684.43862609996,None,7.0,3.317101900000125,684.43862609996,None,684.43862609996,None,684.43862609996,None,684.43862609996,None,,None,None,,None,None,None,None,None,None,None,None,None,None,None,None,None,None,None,None,None,None,-0.2,3,None,None,None,None,None,None,None,None,None,None,None,None,,None,None,None,None,,,,,,,,None,None,None,None,None,None,None,None,None,None,None,None,None,None,None,None,687.8151041000383,None,,,,,,,,,261,f,18,2023_Mar_26_1157,RL,2021.2.3,60.0209112630417,
0,0.3,0.225,0,41,41,41,,,,,,,,,,,,,,,None,None,None,None,None,689.8103820000542,None,689.8103820000542,None,689.8103820000542,None,689.8103820000542,None,i,0.2930284000467509,689.8103820000542,None,689.8103820000542,None,690.1469824999804,None,690.1469824999804,None,690.1469824999804,None,690.1469824999804,None,690.1469824999804,None,690.1469824999804,None,690.4235135000199,691.6913153000642,690.4235135000199,691.6913153000642,691.7241432999726,None,691.7241432999726,None,691.7241432999726,None,691.7241432999726,None,691.7241432999726,None,691.7241432999726,None,691.7241432999726,None,691.7241432999726,None,691.7241432999726,None,81,43,48,39,48,49,None,None,None,None,None,None,None,None,None,None,None,None,50,694.2578255999833,None,50,694.2578255999833,None,694.2578255999833,None,694.2578255999833,None,694.2578255999833,None,694.2578255999833,None,694.2578255999833,None,694.2578255999833,None,0.010661829961463809,None,694.2578255999833,None,0.6,0,None,None,None,None,None,None,None,None,None,None,None,None,,None,None,None,None,,,,,,,,None,None,None,None,5.947916666666667,1.765089699998498,698.2006190000102,None,698.2006190000102,None,698.2006190000102,None,698.2006190000102,None,None,None,699.9794664999936,None,0.08333333333333333,-0.2825520833333333,1,0,0,3.8979532999219373,tijiao,,261,f,18,2023_Mar_26_1157,RL,2021.2.3,60.0209112630417,
1,-0.3,-0.225,0,42,42,42,,,,,,,,,,,,,,,None,None,None,None,None,701.5359455000143,None,701.5359455000143,None,701.5359455000143,None,701.5359455000143,None,i,0.23751839995384216,701.5359455000143,None,701.5359455000143,None,701.820061000064,None,701.820061000064,None,701.820061000064,None,701.820061000064,None,701.820061000064,None,701.820061000064,None,702.1151771000586,None,702.1151771000586,None,703.4983867000556,None,703.4983867000556,None,703.4983867000556,None,703.4983867000556,None,703.4983867000556,None,703.4983867000556,None,703.4983867000556,None,703.4983867000556,None,703.4983867000556,None,76,48,50,37,50,61,706.014431699994,None,3.0,1.7905852000694722,706.014431699994,None,706.014431699994,None,706.014431699994,None,706.014431699994,None,,None,None,,None,None,None,None,None,None,None,None,None,None,None,None,None,None,None,None,None,None,0.6,3,None,None,None,None,None,None,None,None,None,None,None,None,,None,None,None,None,,,,,,,,None,None,None,None,None,None,None,None,None,None,None,None,None,None,None,None,707.8591157000046,None,,,,,,,,,261,f,18,2023_Mar_26_1157,RL,2021.2.3,60.0209112630417,
0,0.3,0.225,0,43,43,43,,,,,,,,,,,,,,,None,None,None,None,None,709.5567953999853,None,709.5567953999853,None,709.5567953999853,None,709.5567953999853,None,r,0.3967125000199303,709.5567953999853,None,709.5567953999853,None,709.9919787000399,None,709.9919787000399,None,709.9919787000399,None,709.9919787000399,None,709.9919787000399,None,709.9919787000399,None,710.2876465000445,711.2547111000167,710.2876465000445,711.2547111000167,711.2867229999974,None,711.2867229999974,None,711.2867229999974,None,711.2867229999974,None,711.2867229999974,None,711.2867229999974,None,711.2867229999974,None,711.2867229999974,None,711.2867229999974,None,77,46,58,39,77,66,713.8041854000185,None,6.0,1.3377482000505552,713.8041854000185,None,713.8041854000185,None,713.8041854000185,None,713.8041854000185,None,,None,None,,None,None,None,None,None,None,None,None,None,None,None,None,None,None,None,None,None,None,-0.2,3,None,None,None,None,None,None,None,None,None,None,None,None,,None,None,None,None,,,,,,,,None,None,None,None,None,None,None,None,None,None,None,None,None,None,None,None,715.1953063999536,None,,,,,,,,,261,f,18,2023_Mar_26_1157,RL,2021.2.3,60.0209112630417,
1,-0.3,-0.225,0,44,44,44,,,,,,,,,,,,,,,None,None,None,None,None,716.7457867000485,None,716.7457867000485,None,716.7457867000485,None,716.7457867000485,None,f,0.31753889995161444,716.7457867000485,None,716.7457867000485,None,717.1133573000552,None,717.1133573000552,None,717.1133573000552,None,717.1133573000552,None,717.1133573000552,None,717.1133573000552,None,717.40890759998,None,717.40890759998,None,718.7251376999775,None,718.7251376999775,None,718.7251376999775,None,718.7251376999775,None,718.7251376999775,None,718.7251376999775,None,718.7251376999775,None,718.7251376999775,None,718.7251376999775,None,79,40,63,37,40,46,721.2486707000062,None,4.0,2.351424799999222,721.2486707000062,None,721.2486707000062,None,721.2486707000062,None,721.2486707000062,None,,None,None,,None,None,None,None,None,None,None,None,None,None,None,None,None,None,None,None,None,None,-0.2,3,None,None,None,None,None,None,None,None,None,None,None,None,,None,None,None,None,,,,,,,,None,None,None,None,None,None,None,None,None,None,None,None,None,None,None,None,723.6535423999885,None,,,,,,,,,261,f,18,2023_Mar_26_1157,RL,2021.2.3,60.0209112630417,
0,0.3,0.225,0,45,45,45,,,,,,,,,,,,,,,None,None,None,None,None,725.5182915000478,None,725.5182915000478,None,725.5182915000478,None,725.5182915000478,None,j,0.3050830999854952,725.5182915000478,None,725.5182915000478,None,725.8694935999811,None,725.8694935999811,None,725.8694935999811,None,725.8694935999811,None,725.8694935999811,None,725.8694935999811,None,726.1650394999888,None,726.1650394999888,None,727.2639338000445,None,727.2639338000445,None,727.2639338000445,None,727.2639338000445,None,727.2639338000445,None,727.2639338000445,None,727.2639338000445,None,727.2639338000445,None,727.2639338000445,None,78,46,56,38,38,55,729.7919600000605,None,2.0,3.0505504000466317,729.7919600000605,None,729.7919600000605,None,729.7919600000605,None,729.7919600000605,None,,None,None,,None,None,None,None,None,None,None,None,None,None,None,None,None,None,None,None,None,None,0.2,3,None,None,None,None,None,None,None,None,None,None,None,None,,None,None,None,None,,,,,,,,None,None,None,None,None,None,None,None,None,None,None,None,None,None,None,None,732.890991799999,None,,,,,,,,,261,f,18,2023_Mar_26_1157,RL,2021.2.3,60.0209112630417,
1,-0.3,-0.225,0,46,46,46,,,,,,,,,,,,,,,None,None,None,None,None,734.6078866999596,None,734.6078866999596,None,734.6078866999596,None,734.6078866999596,None,i,0.29574830003548414,734.6078866999596,None,734.6078866999596,None,734.9427551999688,None,734.9427551999688,None,734.9427551999688,None,734.9427551999688,None,734.9427551999688,None,734.9427551999688,None,735.2380185000366,736.972773800022,735.2380185000366,736.972773800022,737.0021568000084,None,737.0021568000084,None,737.0021568000084,None,737.0021568000084,None,737.0021568000084,None,737.0021568000084,None,737.0021568000084,None,737.0021568000084,None,737.0021568000084,None,77,48,54,47,54,70,739.5209208000451,None,3.0,1.2391049999278039,739.5209208000451,None,739.5209208000451,None,739.5209208000451,None,739.5209208000451,None,,None,None,,None,None,None,None,None,None,None,None,None,None,None,None,None,None,None,None,None,None,0.6,2,None,None,None,None,None,None,None,None,None,None,None,None,,None,None,None,None,,,,,,,,None,None,None,None,None,None,None,None,None,None,None,None,None,None,None,None,740.8145421999507,None,,,,,,,,,261,f,18,2023_Mar_26_1157,RL,2021.2.3,60.0209112630417,
0,0.3,0.225,0,47,47,47,,,,,,,,,,,,,,,None,None,None,None,None,742.4129084000597,None,742.4129084000597,None,742.4129084000597,None,742.4129084000597,None,j,0.29076480004005134,742.4129084000597,None,742.4129084000597,None,742.7525239000097,None,742.7525239000097,None,742.7525239000097,None,742.7525239000097,None,742.7525239000097,None,742.7525239000097,None,743.0436084000394,744.1442306999816,743.0436084000394,744.1442306999816,744.1762710000621,None,744.1762710000621,None,744.1762710000621,None,744.1762710000621,None,744.1762710000621,None,744.1762710000621,None,744.1762710000621,None,744.1762710000621,None,744.1762710000621,None,74,49,55,50,50,61,None,None,None,None,None,None,None,None,None,None,None,None,,None,None,,None,None,None,None,None,None,None,None,None,None,None,None,None,None,None,None,None,None,0.6,1,746.7245114999823,None,746.7245114999823,None,746.7245114999823,None,746.7245114999823,None,746.7245114999823,None,746.7245114999823,None,55,746.7245114999823,None,746.7245114999823,None,-0.052083333333333336,-0.3098958333333333,1,0,0,3.7330767000094056,tijiao_random_2,0.012902639922685921,None,746.7245114999823,None,6.013020833333334,2.9050888000056148,750.4931362000061,None,750.4931362000061,None,750.4931362000061,None,750.4931362000061,None,None,None,753.4166750999866,None,,,,,,,,,261,f,18,2023_Mar_26_1157,RL,2021.2.3,60.0209112630417,
1,-0.3,-0.225,0,48,48,48,,,,,,,,,,,,,,,None,None,None,None,None,755.0891537000425,None,755.0891537000425,None,755.0891537000425,None,755.0891537000425,None,r,0.28439719998277724,755.0891537000425,None,755.0891537000425,None,755.4236392000457,None,755.4236392000457,None,755.4236392000457,None,755.4236392000457,None,755.4236392000457,None,755.4236392000457,None,755.7188741000136,757.5535578000126,755.7188741000136,757.5535578000126,757.5870540000033,None,757.5870540000033,None,757.5870540000033,None,757.5870540000033,None,757.5870540000033,None,757.5870540000033,None,757.5870540000033,None,757.5870540000033,None,757.5870540000033,None,76,46,47,48,76,32,760.1021405999782,None,7.0,2.8751118999207392,760.1021405999782,None,760.1021405999782,None,760.1021405999782,None,760.1021405999782,None,,None,None,,None,None,None,None,None,None,None,None,None,None,None,None,None,None,None,None,None,None,0.6,3,None,None,None,None,None,None,None,None,None,None,None,None,,None,None,None,None,,,,,,,,None,None,None,None,None,None,None,None,None,None,None,None,None,None,None,None,763.0281450999901,None,,,,,,,,,261,f,18,2023_Mar_26_1157,RL,2021.2.3,60.0209112630417,
0,0.3,0.225,0,49,49,49,,,,,,,,,,,,,,,None,None,None,None,None,764.813013899955,None,764.813013899955,None,764.813013899955,None,764.813013899955,None,f,0.30084119993261993,764.813013899955,None,764.813013899955,None,765.1640195000218,None,765.1640195000218,None,765.1640195000218,None,765.1640195000218,None,765.1640195000218,None,765.1640195000218,None,765.4590391999809,None,765.4590391999809,None,766.3406181000173,None,766.3406181000173,None,766.3406181000173,None,766.3406181000173,None,766.3406181000173,None,766.3406181000173,None,766.3406181000173,None,766.3406181000173,None,766.3406181000173,None,78,54,55,37,54,63,768.8578814000357,None,3.0,2.4559643999673426,768.8578814000357,None,768.8578814000357,None,768.8578814000357,None,768.8578814000357,None,,None,None,,None,None,None,None,None,None,None,None,None,None,None,None,None,None,None,None,None,None,0.2,2,None,None,None,None,None,None,None,None,None,None,None,None,,None,None,None,None,,,,,,,,None,None,None,None,None,None,None,None,None,None,None,None,None,None,None,None,771.3644047999987,None,,,,,,,,,261,f,18,2023_Mar_26_1157,RL,2021.2.3,60.0209112630417,
1,-0.3,-0.225,0,50,50,50,,,,,,,,,,,,,,,None,None,None,None,None,773.1014893000247,None,773.1014893000247,None,773.1014893000247,None,773.1014893000247,None,i,0.28347779996693134,773.1014893000247,None,773.1014893000247,None,773.4384375000373,None,773.4384375000373,None,773.4384375000373,None,773.4384375000373,None,773.4384375000373,None,773.4384375000373,None,773.7314574000193,None,773.7314574000193,None,774.7958034999901,None,774.7958034999901,None,774.7958034999901,None,774.7958034999901,None,774.7958034999901,None,774.7958034999901,None,774.7958034999901,None,774.7958034999901,None,774.7958034999901,None,74,52,53,37,53,54,None,None,None,None,None,None,None,None,None,None,None,None,,None,None,,None,None,None,None,None,None,None,None,None,None,None,None,None,None,None,None,None,None,-0.6,1,777.3488778000465,None,777.3488778000465,None,777.3488778000465,None,777.3488778000465,None,777.3488778000465,None,777.3488778000465,None,60,777.3488778000465,None,777.3488778000465,None,-0.018229166666666668,-0.2799479166666667,1,0,0,3.9655197999672964,tijiao_random_2,0.010960040031932294,None,777.3488778000465,None,5.9609375,2.1377718000439927,781.3437452999642,None,781.3437452999642,None,781.3437452999642,None,781.3437452999642,None,None,None,783.5010856000008,None,,,,,,,,,261,f,18,2023_Mar_26_1157,RL,2021.2.3,60.0209112630417,
0,0.3,0.225,0,51,51,51,,,,,,,,,,,,,,,None,None,None,None,None,785.2601478999713,None,785.2601478999713,None,785.2601478999713,None,785.2601478999713,None,j,0.32461920008063316,785.2601478999713,None,785.2601478999713,None,785.6289287999971,None,785.6289287999971,None,785.6289287999971,None,785.6289287999971,None,785.6289287999971,None,785.6289287999971,None,785.9232977000065,787.4576155999675,785.9232977000065,787.4576155999675,787.4955741000595,None,787.4955741000595,None,787.4955741000595,None,787.4955741000595,None,787.4955741000595,None,787.4955741000595,None,787.4955741000595,None,787.4955741000595,None,787.4955741000595,None,75,51,59,38,38,45,790.0065426999936,None,6.0,1.2562599000521004,790.0065426999936,None,790.0065426999936,None,790.0065426999936,None,790.0065426999936,None,,None,None,,None,None,None,None,None,None,None,None,None,None,None,None,None,None,None,None,None,None,0.6,3,None,None,None,None,None,None,None,None,None,None,None,None,,None,None,None,None,,,,,,,,None,None,None,None,None,None,None,None,None,None,None,None,None,None,None,None,791.3174391000066,None,,,,,,,,,261,f,18,2023_Mar_26_1157,RL,2021.2.3,60.0209112630417,
1,-0.3,-0.225,0,52,52,52,,,,,,,,,,,,,,,None,None,None,None,None,793.0487418000121,None,793.0487418000121,None,793.0487418000121,None,793.0487418000121,None,j,0.30610320006962866,793.0487418000121,None,793.0487418000121,None,793.4003758999752,None,793.4003758999752,None,793.4003758999752,None,793.4003758999752,None,793.4003758999752,None,793.4003758999752,None,793.6952921999618,795.4299613999901,793.6952921999618,795.4299613999901,795.4640132000204,None,795.4640132000204,None,795.4640132000204,None,795.4640132000204,None,795.4640132000204,None,795.4640132000204,None,795.4640132000204,None,795.4640132000204,None,795.4640132000204,None,73,64,63,38,38,51,797.9783773999661,None,2.0,1.3083478999324143,797.9783773999661,None,797.9783773999661,None,797.9783773999661,None,797.9783773999661,None,,None,None,,None,None,None,None,None,None,None,None,None,None,None,None,None,None,None,None,None,None,-0.2,3,None,None,None,None,None,None,None,None,None,None,None,None,,None,None,None,None,,,,,,,,None,None,None,None,None,None,None,None,None,None,None,None,None,None,None,None,799.3400016999803,None,,,,,,,,,261,f,18,2023_Mar_26_1157,RL,2021.2.3,60.0209112630417,
0,0.3,0.225,0,53,53,53,,,,,,,,,,,,,,,None,None,None,None,None,800.9883935999824,None,800.9883935999824,None,800.9883935999824,None,800.9883935999824,None,f,0.26652599999215454,800.9883935999824,None,800.9883935999824,None,801.3053111999761,None,801.3053111999761,None,801.3053111999761,None,801.3053111999761,None,801.3053111999761,None,801.3053111999761,None,801.6007001999533,None,801.6007001999533,None,803.2820551999612,None,803.2820551999612,None,803.2820551999612,None,803.2820551999612,None,803.2820551999612,None,803.2820551999612,None,803.2820551999612,None,803.2820551999612,None,803.2820551999612,None,74,58,63,37,58,57,None,None,None,None,None,None,None,None,None,None,None,None,,None,None,,None,None,None,None,None,None,None,None,None,None,None,None,None,None,None,None,None,None,0.6,1,805.8299965000479,None,805.8299965000479,None,805.8299965000479,None,805.8299965000479,None,805.8299965000479,None,805.8299965000479,None,58,805.8299965000479,None,805.8299965000479,None,0.11328125,-0.2734375,1,0,0,4.585596099961549,tijiao_random_2,0.014519240008667111,None,805.8299965000479,None,6.104166666666666,1.447063700063154,810.4519360000268,None,810.4519360000268,None,810.4519360000268,None,810.4519360000268,None,None,None,811.9400088000111,None,,,,,,,,,261,f,18,2023_Mar_26_1157,RL,2021.2.3,60.0209112630417,
1,-0.3,-0.225,0,54,54,54,,,,,,,,,,,,,,,None,None,None,None,None,813.5960446000099,None,813.5960446000099,None,813.5960446000099,None,813.5960446000099,None,f,0.2789633000502363,813.5960446000099,None,813.5960446000099,None,813.9162367000245,None,813.9162367000245,None,813.9162367000245,None,813.9162367000245,None,813.9162367000245,None,813.9162367000245,None,814.209475700045,815.0266954000108,814.209475700045,815.0266954000108,815.0571863000514,None,815.0571863000514,None,815.0571863000514,None,815.0571863000514,None,815.0571863000514,None,815.0571863000514,None,815.0571863000514,None,815.0571863000514,None,815.0571863000514,None,71,69,58,33,69,47,817.5809610000579,None,7.0,1.7335875000571832,817.5809610000579,None,817.5809610000579,None,817.5809610000579,None,817.5809610000579,None,,None,None,,None,None,None,None,None,None,None,None,None,None,None,None,None,None,None,None,None,None,0.6,2,None,None,None,None,None,None,None,None,None,None,None,None,,None,None,None,None,,,,,,,,None,None,None,None,None,None,None,None,None,None,None,None,None,None,None,None,819.3675009000581,None,,,,,,,,,261,f,18,2023_Mar_26_1157,RL,2021.2.3,60.0209112630417,
0,0.3,0.225,0,55,55,55,,,,,,,,,,,,,,,None,None,None,None,None,820.9515242000343,None,820.9515242000343,None,820.9515242000343,None,820.9515242000343,None,f,0.27352099993731827,820.9515242000343,None,820.9515242000343,None,821.2705687000416,None,821.2705687000416,None,821.2705687000416,None,821.2705687000416,None,821.2705687000416,None,821.2705687000416,None,821.5646645999514,None,821.5646645999514,None,823.4343161999714,None,823.4343161999714,None,823.4343161999714,None,823.4343161999714,None,823.4343161999714,None,823.4343161999714,None,823.4343161999714,None,823.4343161999714,None,823.4343161999714,None,77,63,59,40,63,54,None,None,None,None,None,None,None,None,None,None,None,None,,None,None,,None,None,None,None,None,None,None,None,None,None,None,None,None,None,None,None,None,None,-0.6,1,825.9842268000357,None,825.9842268000357,None,825.9842268000357,None,825.9842268000357,None,825.9842268000357,None,825.9842268000357,None,67,825.9842268000357,None,825.9842268000357,None,0.0,-0.29296875,1,0,0,3.8620395000325516,tijiao_random_2,0.008852840051986277,None,825.9842268000357,None,5.921875,2.072472200030461,829.8877294999547,None,829.8877294999547,None,829.8877294999547,None,829.8877294999547,None,None,None,831.9714038999518,None,,,,,,,,,261,f,18,2023_Mar_26_1157,RL,2021.2.3,60.0209112630417,
1,-0.3,-0.225,0,56,56,56,,,,,,,,,,,,,,,None,None,None,None,None,833.7272154999664,None,833.7272154999664,None,833.7272154999664,None,833.7272154999664,None,i,0.28790920006576926,833.7272154999664,None,833.7272154999664,None,834.0630053000059,None,834.0630053000059,None,834.0630053000059,None,834.0630053000059,None,834.0630053000059,None,834.0630053000059,None,834.3567943000235,835.357508999994,834.3567943000235,835.357508999994,835.3878551999805,None,835.3878551999805,None,835.3878551999805,None,835.3878551999805,None,835.3878551999805,None,835.3878551999805,None,835.3878551999805,None,835.3878551999805,None,835.3878551999805,None,71,69,72,35,72,43,837.9088747999631,None,7.0,1.1032388000749052,837.9088747999631,None,837.9088747999631,None,837.9088747999631,None,837.9088747999631,None,,None,None,,None,None,None,None,None,None,None,None,None,None,None,None,None,None,None,None,None,None,0.2,2,None,None,None,None,None,None,None,None,None,None,None,None,,None,None,None,None,,,,,,,,None,None,None,None,None,None,None,None,None,None,None,None,None,None,None,None,839.0890434000175,None,,,,,,,,,261,f,18,2023_Mar_26_1157,RL,2021.2.3,60.0209112630417,
0,0.3,0.225,0,57,57,57,,,,,,,,,,,,,,,None,None,None,None,None,840.9316456000088,None,840.9316456000088,None,840.9316456000088,None,840.9316456000088,None,r,0.3337044999934733,840.9316456000088,None,840.9316456000088,None,841.3156122999499,None,841.3156122999499,None,841.3156122999499,None,841.3156122999499,None,841.3156122999499,None,841.3156122999499,None,841.6119238999672,None,841.6119238999672,None,843.3997780999634,None,843.3997780999634,None,843.3997780999634,None,843.3997780999634,None,843.3997780999634,None,843.3997780999634,None,843.3997780999634,None,843.3997780999634,None,843.3997780999634,None,69,76,64,34,69,47,845.9124037000583,None,7.0,0.9727035999530926,845.9124037000583,None,845.9124037000583,None,845.9124037000583,None,845.9124037000583,None,,None,None,,None,None,None,None,None,None,None,None,None,None,None,None,None,None,None,None,None,None,-0.2,2,None,None,None,None,None,None,None,None,None,None,None,None,,None,None,None,None,,,,,,,,None,None,None,None,None,None,None,None,None,None,None,None,None,None,None,None,846.9414958000416,None,,,,,,,,,261,f,18,2023_Mar_26_1157,RL,2021.2.3,60.0209112630417,
1,-0.3,-0.225,0,58,58,58,,,,,,,,,,,,,,,None,None,None,None,None,848.9210153999738,None,848.9210153999738,None,848.9210153999738,None,848.9210153999738,None,f,0.2842180000152439,848.9210153999738,None,848.9210153999738,None,849.2545185000636,None,849.2545185000636,None,849.2545185000636,None,849.2545185000636,None,849.2545185000636,None,849.2545185000636,None,849.5510579999536,None,849.5510579999536,None,851.2160088999663,None,851.2160088999663,None,851.2160088999663,None,851.2160088999663,None,851.2160088999663,None,851.2160088999663,None,851.2160088999663,None,851.2160088999663,None,851.2160088999663,None,69,59,58,34,59,52,853.734298299998,None,7.0,2.390389399952255,853.734298299998,None,853.734298299998,None,853.734298299998,None,853.734298299998,None,,None,None,,None,None,None,None,None,None,None,None,None,None,None,None,None,None,None,None,None,None,-0.6,3,None,None,None,None,None,None,None,None,None,None,None,None,,None,None,None,None,,,,,,,,None,None,None,None,None,None,None,None,None,None,None,None,None,None,None,None,856.1812006999971,None,,,,,,,,,261,f,18,2023_Mar_26_1157,RL,2021.2.3,60.0209112630417,
0,0.3,0.225,0,59,59,59,,,,,,,,,,,,,,,None,None,None,None,None,857.6943067000248,None,857.6943067000248,None,857.6943067000248,None,857.6943067000248,None,i,0.3509992000181228,857.6943067000248,None,857.6943067000248,None,858.0935449999524,None,858.0935449999524,None,858.0935449999524,None,858.0935449999524,None,858.0935449999524,None,858.0935449999524,None,858.3903588999528,None,858.3903588999528,None,859.4398198999697,None,859.4398198999697,None,859.4398198999697,None,859.4398198999697,None,859.4398198999697,None,859.4398198999697,None,859.4398198999697,None,859.4398198999697,None,859.4398198999697,None,68,61,61,45,61,50,861.962688999949,None,6.0,1.0834669000469148,861.962688999949,None,861.962688999949,None,861.962688999949,None,861.962688999949,None,,None,None,,None,None,None,None,None,None,None,None,None,None,None,None,None,None,None,None,None,None,0.2,2,None,None,None,None,None,None,None,None,None,None,None,None,,None,None,None,None,,,,,,,,None,None,None,None,None,None,None,None,None,None,None,None,None,None,None,None,863.0984410999808,None,,,,,,,,,261,f,18,2023_Mar_26_1157,RL,2021.2.3,60.0209112630417,
1,-0.3,-0.225,0,60,60,60,,,,,,,,,,,,,,,None,None,None,None,None,864.9988426000345,None,864.9988426000345,None,864.9988426000345,None,864.9988426000345,None,j,0.35673109989147633,864.9988426000345,None,864.9988426000345,None,865.4010249000276,None,865.4010249000276,None,865.4010249000276,None,865.4010249000276,None,865.4010249000276,None,865.4010249000276,None,865.6952410000376,866.6959601000417,865.6952410000376,866.6959601000417,866.7296311999671,None,866.7296311999671,None,866.7296311999671,None,866.7296311999671,None,866.7296311999671,None,866.7296311999671,None,866.7296311999671,None,866.7296311999671,None,866.7296311999671,None,67,62,49,28,28,54,869.2499376999913,None,3.0,2.985353199997917,869.2499376999913,None,869.2499376999913,None,869.2499376999913,None,869.2499376999913,None,,None,None,,None,None,None,None,None,None,None,None,None,None,None,None,None,None,None,None,None,None,0.2,2,None,None,None,None,None,None,None,None,None,None,None,None,,None,None,None,None,,,,,,,,None,None,None,None,None,None,None,None,None,None,None,None,None,None,None,None,872.2886268000584,None,,,,,,,,,261,f,18,2023_Mar_26_1157,RL,2021.2.3,60.0209112630417,
0,0.3,0.225,0,61,61,61,,,,,,,,,,,,,,,None,None,None,None,None,873.87147620006,None,873.87147620006,None,873.87147620006,None,873.87147620006,None,r,0.3138879999751225,873.87147620006,None,873.87147620006,None,874.2232400999637,None,874.2232400999637,None,874.2232400999637,None,874.2232400999637,None,874.2232400999637,None,874.2232400999637,None,874.5180635000579,None,874.5180635000579,None,875.884041900048,None,875.884041900048,None,875.884041900048,None,875.884041900048,None,875.884041900048,None,875.884041900048,None,875.884041900048,None,875.884041900048,None,875.884041900048,None,69,68,57,44,69,36,878.4002481000498,None,6.0,2.005019700038247,878.4002481000498,None,878.4002481000498,None,878.4002481000498,None,878.4002481000498,None,,None,None,,None,None,None,None,None,None,None,None,None,None,None,None,None,None,None,None,None,None,-0.2,3,None,None,None,None,None,None,None,None,None,None,None,None,,None,None,None,None,,,,,,,,None,None,None,None,None,None,None,None,None,None,None,None,None,None,None,None,880.4605768000474,None,,,,,,,,,261,f,18,2023_Mar_26_1157,RL,2021.2.3,60.0209112630417,
1,-0.3,-0.225,0,62,62,62,,,,,,,,,,,,,,,None,None,None,None,None,882.2100382000208,None,882.2100382000208,None,882.2100382000208,None,882.2100382000208,None,i,0.30546900001354516,882.2100382000208,None,882.2100382000208,None,882.5610977000324,None,882.5610977000324,None,882.5610977000324,None,882.5610977000324,None,882.5610977000324,None,882.5610977000324,None,882.8572450999636,None,882.8572450999636,None,884.6076584999682,None,884.6076584999682,None,884.6076584999682,None,884.6076584999682,None,884.6076584999682,None,884.6076584999682,None,884.6076584999682,None,884.6076584999682,None,884.6076584999682,None,75,61,60,42,60,48,887.13103769999,None,6.0,1.3006639999803156,887.13103769999,None,887.13103769999,None,887.13103769999,None,887.13103769999,None,,None,None,,None,None,None,None,None,None,None,None,None,None,None,None,None,None,None,None,None,None,0.6,3,None,None,None,None,None,None,None,None,None,None,None,None,,None,None,None,None,,,,,,,,None,None,None,None,None,None,None,None,None,None,None,None,None,None,None,None,888.5097680999897,None,,,,,,,,,261,f,18,2023_Mar_26_1157,RL,2021.2.3,60.0209112630417,
0,0.3,0.225,0,63,63,63,,,,,,,,,,,,,,,None,None,None,None,None,890.5155327999964,None,890.5155327999964,None,890.5155327999964,None,890.5155327999964,None,i,0.34996520006097853,890.5155327999964,None,890.5155327999964,None,890.9167461000616,None,890.9167461000616,None,890.9167461000616,None,890.9167461000616,None,890.9167461000616,None,890.9167461000616,None,891.2129907000344,None,891.2129907000344,None,892.0772676999914,None,892.0772676999914,None,892.0772676999914,None,892.0772676999914,None,892.0772676999914,None,892.0772676999914,None,892.0772676999914,None,892.0772676999914,None,892.0772676999914,None,80,68,55,39,55,32,None,None,None,None,None,None,None,None,None,None,None,None,,None,None,,None,None,None,None,None,None,None,None,None,None,None,None,None,None,None,None,None,None,-0.6,1,894.6242836000165,None,894.6242836000165,None,894.6242836000165,None,894.6242836000165,None,894.6242836000165,None,894.6242836000165,None,68,894.6242836000165,None,894.6242836000165,None,0.08723958333333333,-0.2994791666666667,1,0,0,5.5209161000093445,tijiao_random_2,0.01605284004472196,None,894.6242836000165,None,6.0,2.0642891000024974,900.1753415999701,None,900.1753415999701,None,900.1753415999701,None,900.1753415999701,None,None,None,902.2534915000433,None,,,,,,,,,261,f,18,2023_Mar_26_1157,RL,2021.2.3,60.0209112630417,
1,-0.3,-0.225,0,64,64,64,,,,,,,,,,,,,,,None,None,None,None,None,904.0598352999659,None,904.0598352999659,None,904.0598352999659,None,904.0598352999659,None,j,0.4460839999374002,904.0598352999659,None,904.0598352999659,None,904.5458682000171,None,904.5458682000171,None,904.5458682000171,None,904.5458682000171,None,904.5458682000171,None,904.5458682000171,None,904.839089200017,None,904.839089200017,None,906.6705351000419,None,906.6705351000419,None,906.6705351000419,None,906.6705351000419,None,906.6705351000419,None,906.6705351000419,None,906.6705351000419,None,906.6705351000419,None,906.6705351000419,None,77,68,65,49,49,57,909.1886815000325,None,5.0,3.5400113000068814,909.1886815000325,None,909.1886815000325,None,909.1886815000325,None,909.1886815000325,None,,None,None,,None,None,None,None,None,None,None,None,None,None,None,None,None,None,None,None,None,None,0.6,3,None,None,None,None,None,None,None,None,None,None,None,None,,None,None,None,None,,,,,,,,None,None,None,None,None,None,None,None,None,None,None,None,None,None,None,None,912.7815005000448,None,,,,,,,,,261,f,18,2023_Mar_26_1157,RL,2021.2.3,60.0209112630417,
0,0.3,0.225,0,65,65,65,,,,,,,,,,,,,,,None,None,None,None,None,914.7834630999714,None,914.7834630999714,None,914.7834630999714,None,914.7834630999714,None,j,0.2522039000177756,914.7834630999714,None,914.7834630999714,None,915.084580100025,None,915.084580100025,None,915.084580100025,None,915.084580100025,None,915.084580100025,None,915.084580100025,None,915.3799033999676,None,915.3799033999676,None,916.5462603999767,None,916.5462603999767,None,916.5462603999767,None,916.5462603999767,None,916.5462603999767,None,916.5462603999767,None,916.5462603999767,None,916.5462603999767,None,916.5462603999767,None,73,78,56,42,42,25,919.0732545000501,None,5.0,4.568006000015885,919.0732545000501,None,919.0732545000501,None,919.0732545000501,None,919.0732545000501,None,,None,None,,None,None,None,None,None,None,None,None,None,None,None,None,None,None,None,None,None,None,-0.2,3,None,None,None,None,None,None,None,None,None,None,None,None,,None,None,None,None,,,,,,,,None,None,None,None,None,None,None,None,None,None,None,None,None,None,None,None,923.6905586000066,None,,,,,,,,,261,f,18,2023_Mar_26_1157,RL,2021.2.3,60.0209112630417,
1,-0.3,-0.225,0,66,66,66,,,,,,,,,,,,,,,None,None,None,None,None,925.5742482000496,None,925.5742482000496,None,925.5742482000496,None,925.5742482000496,None,r,0.4815228999359533,925.5742482000496,None,925.5742482000496,None,926.109775000019,None,926.109775000019,None,926.109775000019,None,926.109775000019,None,926.109775000019,None,926.109775000019,None,926.4040762999794,927.3880906000268,926.4040762999794,927.3880906000268,927.4192733999807,None,927.4192733999807,None,927.4192733999807,None,927.4192733999807,None,927.4192733999807,None,927.4192733999807,None,927.4192733999807,None,927.4192733999807,None,927.4192733999807,None,73,69,58,53,73,45,None,None,None,None,None,None,None,None,None,None,None,None,,None,None,,None,None,None,None,None,None,None,None,None,None,None,None,None,None,None,None,None,None,0.6,1,929.9689708000515,None,929.9689708000515,None,929.9689708000515,None,929.9689708000515,None,929.9689708000515,None,929.9689708000515,None,88,929.9689708000515,None,929.9689708000515,None,-0.09244791666666667,-0.29296875,1,0,0,6.3680862000910565,tijiao_random_2,0.012846040073782206,None,929.9689708000515,None,1.221354166666667,3.8317983000306413,936.3673582000192,None,936.3673582000192,None,936.3673582000192,None,936.3673582000192,None,None,None,940.2130115999607,None,,,,,,,,,261,f,18,2023_Mar_26_1157,RL,2021.2.3,60.0209112630417,
0,0.3,0.225,0,67,67,67,,,,,,,,,,,,,,,None,None,None,None,None,942.1521190999774,None,942.1521190999774,None,942.1521190999774,None,942.1521190999774,None,j,0.31495449994690716,942.1521190999774,None,942.1521190999774,None,942.5192574999528,None,942.5192574999528,None,942.5192574999528,None,942.5192574999528,None,942.5192574999528,None,942.5192574999528,None,942.815472700051,None,942.815472700051,None,943.7653147999663,None,943.7653147999663,None,943.7653147999663,None,943.7653147999663,None,943.7653147999663,None,943.7653147999663,None,943.7653147999663,None,943.7653147999663,None,943.7653147999663,None,81,73,60,43,43,51,None,None,None,None,None,None,None,None,None,None,None,None,50,946.2939998999937,None,50,946.2939998999937,None,946.2939998999937,None,946.2939998999937,None,946.2939998999937,None,946.2939998999937,None,946.2939998999937,None,946.2939998999937,None,0.016233430011197925,None,946.2939998999937,None,0.2,0,None,None,None,None,None,None,None,None,None,None,None,None,,None,None,None,None,,,,,,,,None,None,None,None,5.934895833333333,4.098879500059411,950.5118937999941,None,950.5118937999941,None,950.5118937999941,None,950.5118937999941,None,None,None,954.6231326999841,None,0.053385416666666664,-0.30859375,1,0,0,4.1707204999402165,tijiao,,261,f,18,2023_Mar_26_1157,RL,2021.2.3,60.0209112630417,
1,-0.3,-0.225,0,68,68,68,,,,,,,,,,,,,,,None,None,None,None,None,956.4955592000624,None,956.4955592000624,None,956.4955592000624,None,956.4955592000624,None,j,0.24159810005221516,956.4955592000624,None,956.4955592000624,None,956.7828538999893,None,956.7828538999893,None,956.7828538999893,None,956.7828538999893,None,956.7828538999893,None,956.7828538999893,None,957.0754093000432,958.8434409999754,957.0754093000432,958.8434409999754,958.8754082999658,None,958.8754082999658,None,958.8754082999658,None,958.8754082999658,None,958.8754082999658,None,958.8754082999658,None,958.8754082999658,None,958.8754082999658,None,958.8754082999658,None,73,68,50,35,35,58,None,None,None,None,None,None,None,None,None,None,None,None,,None,None,,None,None,None,None,None,None,None,None,None,None,None,None,None,None,None,None,None,None,0.6,1,961.4277762999991,None,961.4277762999991,None,961.4277762999991,None,961.4277762999991,None,961.4277762999991,None,961.4277762999991,None,76,961.4277762999991,None,961.4277762999991,None,0.036458333333333336,-0.2981770833333333,1,0,0,3.4282047000015154,tijiao_random_2,0.008290939964354038,None,961.4277762999991,None,6.0,2.357634300016798,964.8934807999758,None,964.8934807999758,None,964.8934807999758,None,964.8934807999758,None,None,None,967.2651713000378,None,,,,,,,,,261,f,18,2023_Mar_26_1157,RL,2021.2.3,60.0209112630417,
0,0.3,0.225,0,69,69,69,,,,,,,,,,,,,,,None,None,None,None,None,968.8710519999731,None,968.8710519999731,None,968.8710519999731,None,968.8710519999731,None,j,0.2560511000920087,968.8710519999731,None,968.8710519999731,None,969.1739277000306,None,969.1739277000306,None,969.1739277000306,None,969.1739277000306,None,969.1739277000306,None,969.1739277000306,None,969.4674334999872,None,969.4674334999872,None,970.8311480999691,None,970.8311480999691,None,970.8311480999691,None,970.8311480999691,None,970.8311480999691,None,970.8311480999691,None,970.8311480999691,None,970.8311480999691,None,970.8311480999691,None,78,71,50,44,44,53,None,None,None,None,None,None,None,None,None,None,None,None,56,973.3632150000194,None,56,973.3632150000194,None,973.3632150000194,None,973.3632150000194,None,973.3632150000194,None,973.3632150000194,None,973.3632150000194,None,973.3632150000194,None,0.01552592997904867,None,973.3632150000194,None,-0.2,0,None,None,None,None,None,None,None,None,None,None,None,None,,None,None,None,None,,,,,,,,None,None,None,None,5.973958333333333,1.4935624999925494,976.8119374000235,None,976.8119374000235,None,976.8119374000235,None,976.8119374000235,None,None,None,978.3227130000014,None,-0.032552083333333336,-0.2981770833333333,1,0,0,3.402129799942486,tijiao,,261,f,18,2023_Mar_26_1157,RL,2021.2.3,60.0209112630417,
1,-0.3,-0.225,0,70,70,70,,,,,,,,,,,,,,,None,None,None,None,None,979.9615626999876,None,979.9615626999876,None,979.9615626999876,None,979.9615626999876,None,i,0.41557740001007915,979.9615626999876,None,979.9615626999876,None,980.4293439000612,None,980.4293439000612,None,980.4293439000612,None,980.4293439000612,None,980.4293439000612,None,980.4293439000612,None,980.7251405999996,None,980.7251405999996,None,981.6221536999801,None,981.6221536999801,None,981.6221536999801,None,981.6221536999801,None,981.6221536999801,None,981.6221536999801,None,981.6221536999801,None,981.6221536999801,None,981.6221536999801,None,70,77,46,59,46,50,None,None,None,None,None,None,None,None,None,None,None,None,45,984.1612731999485,None,45,984.1612731999485,None,984.1612731999485,None,984.1612731999485,None,984.1612731999485,None,984.1612731999485,None,984.1612731999485,None,984.1612731999485,None,0.009169130004011095,None,984.1612731999485,None,0.2,0,None,None,None,None,None,None,None,None,None,None,None,None,,None,None,None,None,,,,,,,,None,None,None,None,5.973958333333333,1.3957332000136375,988.1040690999944,None,988.1040690999944,None,988.1040690999944,None,988.1040690999944,None,None,None,989.5137471000198,None,0.061197916666666664,-0.2903645833333333,1,0,0,3.8966791999991983,tijiao,,261,f,18,2023_Mar_26_1157,RL,2021.2.3,60.0209112630417,
0,0.3,0.225,0,71,71,71,,,,,,,,,,,,,,,None,None,None,None,None,991.1367154000327,None,991.1367154000327,None,991.1367154000327,None,991.1367154000327,None,f,0.26045880001038313,991.1367154000327,None,991.1367154000327,None,991.4398350999691,None,991.4398350999691,None,991.4398350999691,None,991.4398350999691,None,991.4398350999691,None,991.4398350999691,None,991.7329310999485,None,991.7329310999485,None,993.1698073999723,None,993.1698073999723,None,993.1698073999723,None,993.1698073999723,None,993.1698073999723,None,993.1698073999723,None,993.1698073999723,None,993.1698073999723,None,993.1698073999723,None,76,65,50,63,65,50,None,None,None,None,None,None,None,None,None,None,None,None,,None,None,,None,None,None,None,None,None,None,None,None,None,None,None,None,None,None,None,None,None,0.6,1,995.7125910000177,None,995.7125910000177,None,995.7125910000177,None,995.7125910000177,None,995.7125910000177,None,995.7125910000177,None,55,995.7125910000177,None,995.7125910000177,None,0.06640625,-0.3020833333333333,1,0,0,3.316800699918531,tijiao_random_2,0.013521439977921546,None,995.7125910000177,None,6.013020833333334,2.1966311000287533,999.0614060000516,None,999.0614060000516,None,999.0614060000516,None,999.0614060000516,None,None,None,1001.272012499976,None,,,,,,,,,261,f,18,2023_Mar_26_1157,RL,2021.2.3,60.0209112630417,
1,-0.3,-0.225,0,72,72,72,,,,,,,,,,,,,,,None,None,None,None,None,1003.2619318000507,None,1003.2619318000507,None,1003.2619318000507,None,1003.2619318000507,None,f,0.2752681999700144,1003.2619318000507,None,1003.2619318000507,None,1003.5806519000325,None,1003.5806519000325,None,1003.5806519000325,None,1003.5806519000325,None,1003.5806519000325,None,1003.5806519000325,None,1003.8745273000095,None,1003.8745273000095,None,1005.4050721999956,None,1005.4050721999956,None,1005.4050721999956,None,1005.4050721999956,None,1005.4050721999956,None,1005.4050721999956,None,1005.4050721999956,None,1005.4050721999956,None,1005.4050721999956,None,63,75,45,54,75,28,None,None,None,None,None,None,None,None,None,None,None,None,90,1007.9366849999642,None,90,1007.9366849999642,None,1007.9366849999642,None,1007.9366849999642,None,1007.9366849999642,None,1007.9366849999642,None,1007.9366849999642,None,1007.9366849999642,None,0.015939729986712337,None,1007.9366849999642,None,-0.2,0,None,None,None,None,None,None,None,None,None,None,None,None,,None,None,None,None,,,,,,,,None,None,None,None,2.015625,2.5807049999712035,1013.0884380999487,None,1013.0884380999487,None,1013.0884380999487,None,1013.0884380999487,None,None,None,1015.7030621999875,None,-0.009114583333333334,-0.2786458333333333,1,0,0,5.104169999947771,tijiao,,261,f,18,2023_Mar_26_1157,RL,2021.2.3,60.0209112630417,
0,0.3,0.225,0,73,73,73,,,,,,,,,,,,,,,None,None,None,None,None,1017.6882944999961,None,1017.6882944999961,None,1017.6882944999961,None,1017.6882944999961,None,f,0.3191766000818461,1017.6882944999961,None,1017.6882944999961,None,1018.055312499986,None,1018.055312499986,None,1018.055312499986,None,1018.055312499986,None,1018.055312499986,None,1018.055312499986,None,1018.351468399982,None,1018.351468399982,None,1019.8166931000305,None,1019.8166931000305,None,1019.8166931000305,None,1019.8166931000305,None,1019.8166931000305,None,1019.8166931000305,None,1019.8166931000305,None,1019.8166931000305,None,1019.8166931000305,None,71,74,44,58,74,69,None,None,None,None,None,None,None,None,None,None,None,None,67,1022.3499272000045,None,67,1022.3499272000045,None,1022.3499272000045,None,1022.3499272000045,None,1022.3499272000045,None,1022.3499272000045,None,1022.3499272000045,None,1022.3499272000045,None,0.013390330015681684,None,1022.3499272000045,None,0.2,0,None,None,None,None,None,None,None,None,None,None,None,None,,None,None,None,None,,,,,,,,None,None,None,None,6.0390625,1.7661557999672368,1025.8795281000203,None,1025.8795281000203,None,1025.8795281000203,None,1025.8795281000203,None,None,None,1027.67293780006,None,0.0,-0.2916666666666667,1,0,0,3.4832931000273675,tijiao,,261,f,18,2023_Mar_26_1157,RL,2021.2.3,60.0209112630417,
1,-0.3,-0.225,0,74,74,74,,,,,,,,,,,,,,,None,None,None,None,None,1029.3961319000227,None,1029.3961319000227,None,1029.3961319000227,None,1029.3961319000227,None,r,0.2617521999636665,1029.3961319000227,None,1029.3961319000227,None,1029.6996512999758,None,1029.6996512999758,None,1029.6996512999758,None,1029.6996512999758,None,1029.6996512999758,None,1029.6996512999758,None,1029.9926148999948,1031.610625399975,1029.9926148999948,1031.610625399975,1031.6419900000328,None,1031.6419900000328,None,1031.6419900000328,None,1031.6419900000328,None,1031.6419900000328,None,1031.6419900000328,None,1031.6419900000328,None,1031.6419900000328,None,1031.6419900000328,None,64,77,47,52,64,67,1034.159658699995,None,6.0,1.5042547000339255,1034.159658699995,None,1034.159658699995,None,1034.159658699995,None,1034.159658699995,None,,None,None,,None,None,None,None,None,None,None,None,None,None,None,None,None,None,None,None,None,None,-0.2,3,None,None,None,None,None,None,None,None,None,None,None,None,,None,None,None,None,,,,,,,,None,None,None,None,None,None,None,None,None,None,None,None,None,None,None,None,1035.7171700999606,None,,,,,,,,,261,f,18,2023_Mar_26_1157,RL,2021.2.3,60.0209112630417,
0,0.3,0.225,0,75,75,75,,,,,,,,,,,,,,,1037.6646392999683,None,q,1037.6646392999683,None,1330.4173097000457,None,1330.4173097000457,None,1330.4173097000457,None,1330.4173097000457,None,f,0.9491692999145016,1330.4173097000457,None,1330.4173097000457,None,1331.406934699975,None,1331.406934699975,None,1331.406934699975,None,1331.406934699975,None,1331.406934699975,None,1331.406934699975,None,1331.7023494000314,None,1331.7023494000314,None,1332.9845741000026,None,1332.9845741000026,None,1332.9845741000026,None,1332.9845741000026,None,1332.9845741000026,None,1332.9845741000026,None,1332.9845741000026,None,1332.9845741000026,None,1332.9845741000026,None,63,83,56,54,83,43,1335.5104731000029,None,7.0,1.8838780999649316,1335.5104731000029,None,1335.5104731000029,None,1335.5104731000029,None,1335.5104731000029,None,,None,None,,None,None,None,None,None,None,None,None,None,None,None,None,None,None,None,None,None,None,0.2,3,None,None,None,None,None,None,None,None,None,None,None,None,,None,None,None,None,,,,,,,,None,None,None,None,None,None,None,None,None,None,None,None,None,None,None,None,1337.4469958000118,None,,,,,,,,292.7239003001014,261,f,18,2023_Mar_26_1157,RL,2021.2.3,60.0209112630417,
1,-0.3,-0.225,0,76,76,76,,,,,,,,,,,,,,,None,None,None,None,None,1339.39542169997,None,1339.39542169997,None,1339.39542169997,None,1339.39542169997,None,f,0.28126269998028874,1339.39542169997,None,1339.39542169997,None,1339.734659299953,None,1339.734659299953,None,1339.734659299953,None,1339.734659299953,None,1339.734659299953,None,1339.734659299953,None,1340.024453000049,1341.041974300053,1340.024453000049,1341.041974300053,1341.0750809999881,None,1341.0750809999881,None,1341.0750809999881,None,1341.0750809999881,None,1341.0750809999881,None,1341.0750809999881,None,1341.0750809999881,None,1341.0750809999881,None,1341.0750809999881,None,69,82,54,46,82,60,1343.597659699968,None,7.0,1.2680811999598518,1343.597659699968,None,1343.597659699968,None,1343.597659699968,None,1343.597659699968,None,,None,None,,None,None,None,None,None,None,None,None,None,None,None,None,None,None,None,None,None,None,-0.2,3,None,None,None,None,None,None,None,None,None,None,None,None,,None,None,None,None,,,,,,,,None,None,None,None,None,None,None,None,None,None,None,None,None,None,None,None,1344.9232353999978,None,,,,,,,,,261,f,18,2023_Mar_26_1157,RL,2021.2.3,60.0209112630417,
