bandit0,black_x_pos_random,black_y_pos_random,trials.thisRepN,trials.thisTrialN,trials.thisN,trials.thisIndex,instru_img1.started,instru_resp.started,instru_resp.keys,instru_resp.rt,instru_img2.started,instru_resp2.started,instru_resp2.keys,instru_resp2.rt,fixbefore_2.started,rest_response.keys,red.started,green.started,yellow.started,blue.started,choose_bandit.started,Fixation.started,choose_bandit.keys,choose_bandit.rt,black.started,red_2.started,green_2.started,yellow_2.started,blue_2.started,fixation_2.started,docs.started,wait_playerB.started,docs.stopped,wait_playerB.stopped,black.stopped,red_2.stopped,green_2.stopped,yellow_2.stopped,blue_2.stopped,fixation_2.stopped,black_com.started,reward_sub.started,palyerb.started,reward__sub.started,compare.started,red_compare.started,green_com.started,yellow_com.started,blue_com.started,rewardyellow,rewardred,rewardblue,rewardgreen,subchoose,playerb,slider.response,slider.rt,expectself.started,expect_self_black.started,expect_self.started,expect_self_red.started,expect_self_green.started,expect_self_yellow.started,expect_self_blue.started,tijiao.started,tijiao_click.started,check.started,expectself.text,value_expect_self,tijiao_click.x,tijiao_click.y,tijiao_click.leftButton,tijiao_click.midButton,tijiao_click.rightButton,tijiao_click.time,tijiao_click.clicked_name,random_whicharm,whether_ask,expect_random_3.text,tijiao_random.x,tijiao_random.y,tijiao_random.leftButton,tijiao_random.midButton,tijiao_random.rightButton,tijiao_random.time,tijiao_random.clicked_name,slider_2.started,image_7.started,confi.started,notconfi.started,slider_2.response,slider_2.rt,intertrialfix.started,intertrialfix.stopped,jiantou_random.started,expect_red.started,expect_green.started,expect_yellow.started,expect_blue.started,expect_random_2.started,expect_random_3.started,tijiao_random_2.started,tijiao_random.started,check_2.started,image_3.started,slider.started,text.started,image_4.started,image_5.started,bigx.started,bigx.stopped,rest_image.started,rest_response.started,rest_response.rt,participant,Gender,Age,date,expName,psychopyVersion,frameRate,
,,,,,,,21.359734900004696,21.359734900004696,space,3.753066500008572,,,,,,,,,,,,,,,,,,,,,,,,,,,,,,,,,,,,,,,,,,,,,,,,,,,,,,,,,,,,,,,,,,,,,,,,,,,,,,,,,,,,,,,,,,,,,,,,,,,,,,,,,262,f,22,2023-03-26_11h58.48.738,RL,2022.2.4,60.037199066201836,
,,,,,,,,,,,25.144530799996573,25.144530799996573,s,9.968934900010936,,,,,,,,,,,,,,,,,,,,,,,,,,,,,,,,,,,,,,,,,,,,,,,,,,,,,,,,,,,,,,,,,,,,,,,,,,,,,,,,,,,,,,,,,,,,,,,,,,,,,262,f,22,2023-03-26_11h58.48.738,RL,2022.2.4,60.037199066201836,
1,-0.3,-0.225,0,0,0,0,,,,,,,,,35.1351902000024,None,36.16866799996933,36.16866799996933,36.16866799996933,36.16866799996933,36.16866799996933,36.16866799996933,j,0.6924975999863818,36.90046269999584,36.90046269999584,36.90046269999584,36.90046269999584,36.90046269999584,36.90046269999584,37.17968539998401,37.17968539998401,38.79194580001058,38.79194580001058,38.81135199998971,38.81135199998971,38.81135199998971,38.81135199998971,38.81135199998971,38.81135199998971,38.81135199998971,38.81135199998971,38.81135199998971,38.81135199998971,38.81135199998971,38.81135199998971,38.81135199998971,38.81135199998971,38.81135199998971,53,38,83,47,47,41,None,None,41.345491699990816,41.345491699990816,41.345491699990816,41.345491699990816,41.345491699990816,41.345491699990816,41.345491699990816,41.345491699990816,0.007249900023452938,41.345491699990816,51,51,[0.012962962962962963],[-0.3138888888888889],[1],[0],[0],[13.607454499986488],['tijiao'],0.2,0,,[],[],[],[],[],[],[],55.07375999999931,55.07375999999931,55.07375999999931,55.07375999999931,1,2.6879383000195958,57.81890419998672,59.41909199999645,,,,,,,,,,,,,,,,,,,,,262,f,22,2023-03-26_11h58.48.738,RL,2022.2.4,60.037199066201836,
0,0.3,0.225,0,1,1,1,,,,,,,,,,None,59.41909199999645,59.41909199999645,59.41909199999645,59.41909199999645,59.41909199999645,59.41909199999645,r,0.7040478000417352,60.15963080001529,60.15963080001529,60.15963080001529,60.15963080001529,60.15963080001529,60.15963080001529,60.44971529999748,60.44971529999748,62.01240130001679,62.01240130001679,62.01240130001679,62.01240130001679,62.01240130001679,62.01240130001679,62.01240130001679,62.01240130001679,62.01240130001679,62.01240130001679,62.01240130001679,62.01240130001679,62.01240130001679,62.01240130001679,62.01240130001679,62.01240130001679,62.01240130001679,41,28,76,55,41,60,None,None,64.52318349998677,64.52318349998677,64.52318349998677,64.52318349998677,64.52318349998677,64.52318349998677,64.52318349998677,64.52318349998677,0.00648639997234568,64.52318349998677,62,62,[0.03888888888888889],[-0.28888888888888886],[1],[0],[0],[29.874975899991114],['tijiao'],0.2,0,,[],[],[],[],[],[],[],94.42034259997308,94.42034259997308,94.42034259997308,94.42034259997308,1,2.3769949999987148,96.81562159996247,98.51214289997006,,,,,,,,,,,,,,,,,,,,,262,f,22,2023-03-26_11h58.48.738,RL,2022.2.4,60.037199066201836,
1,-0.3,-0.225,0,2,2,2,,,,,,,,,,None,98.51214289997006,98.51214289997006,98.51214289997006,98.51214289997006,98.51214289997006,98.51214289997006,f,0.6272169000003487,99.17028939997545,99.17028939997545,99.17028939997545,99.17028939997545,99.17028939997545,99.17028939997545,99.45989669999108,99.45989669999108,100.87194400001317,100.87194400001317,100.87194400001317,100.87194400001317,100.87194400001317,100.87194400001317,100.87194400001317,100.87194400001317,100.87194400001317,100.87194400001317,100.87194400001317,100.87194400001317,100.87194400001317,100.87194400001317,100.87194400001317,100.87194400001317,100.87194400001317,52,15,70,56,15,53,None,None,103.38443530001678,103.38443530001678,103.38443530001678,103.38443530001678,103.38443530001678,103.38443530001678,103.38443530001678,103.38443530001678,0.0072339000180363655,103.38443530001678,42,42,"[-0.05462962962962963, 0.009259259259259259, -0.017592592592592594]","[-0.36666666666666664, -0.2351851851851852, -0.30185185185185187]","[1, 1, 1]","[0, 0, 0]","[0, 0, 0]","[15.198220400023274, 15.729453400010243, 16.810299700009637]",['tijiao'],-0.6,0,,[],[],[],[],[],[],[],120.21680719999131,120.21680719999131,120.21680719999131,120.21680719999131,1.0462962962962965,1.6793241000268608,121.91398770001251,123.54387669998687,,,,,,,,,,,,,,,,,,,,,262,f,22,2023-03-26_11h58.48.738,RL,2022.2.4,60.037199066201836,
0,0.3,0.225,0,3,3,3,,,,,,,,,,None,123.54387669998687,123.54387669998687,123.54387669998687,123.54387669998687,123.54387669998687,123.54387669998687,j,0.4414025000296533,124.01265589997638,124.01265589997638,124.01265589997638,124.01265589997638,124.01265589997638,124.01265589997638,124.30873310001334,124.30873310001334,125.42216329998337,125.42216329998337,125.42216329998337,125.42216329998337,125.42216329998337,125.42216329998337,125.42216329998337,125.42216329998337,125.42216329998337,125.42216329998337,125.42216329998337,125.42216329998337,125.42216329998337,125.42216329998337,125.42216329998337,125.42216329998337,125.42216329998337,52,20,69,58,58,76,None,None,,,,,,,,,,,,,[],[],[],[],[],[],[],0.6,1,73,[0.017592592592592594],[-0.30092592592592593],[1],[0],[0],[17.598537800018676],['tijiao_random_2'],145.55637900001602,145.55637900001602,145.55637900001602,145.55637900001602,4.055555555555555,4.297430100035854,149.87099299998954,151.71707469999092,127.94891560001997,127.94891560001997,127.94891560001997,127.94891560001997,127.94891560001997,127.94891560001997,127.94891560001997,127.94891560001997,0.006867499963846058,127.94891560001997,,,,,,,,,,,262,f,22,2023-03-26_11h58.48.738,RL,2022.2.4,60.037199066201836,
1,-0.3,-0.225,0,4,4,4,,,,,,,,,,None,151.71707469999092,151.71707469999092,151.71707469999092,151.71707469999092,151.71707469999092,151.71707469999092,j,1.1898841999936849,152.9338082000031,152.9338082000031,152.9338082000031,152.9338082000031,152.9338082000031,152.9338082000031,153.22992860001978,153.22992860001978,154.26023479999276,154.26023479999276,154.26023479999276,154.26023479999276,154.26023479999276,154.26023479999276,154.26023479999276,154.26023479999276,154.26023479999276,154.26023479999276,154.26023479999276,154.26023479999276,154.26023479999276,154.26023479999276,154.26023479999276,154.26023479999276,154.26023479999276,50,23,69,51,51,64,4.0,5.018545399943832,,,,,,,,,,,,,[],[],[],[],[],[],[],0.2,3,,[],[],[],[],[],[],[],,,,,None,None,161.8198481000145,163.8003297999967,,,,,,,,,,,156.76951070001815,156.76951070001815,156.76951070001815,156.76951070001815,156.76951070001815,,,,,,262,f,22,2023-03-26_11h58.48.738,RL,2022.2.4,60.037199066201836,
0,0.3,0.225,0,5,5,5,,,,,,,,,,None,163.8003297999967,163.8003297999967,163.8003297999967,163.8003297999967,163.8003297999967,163.8003297999967,i,0.48034159996313974,164.307095199998,164.307095199998,164.307095199998,164.307095199998,164.307095199998,164.307095199998,164.59840389998863,164.59840389998863,166.06145470001502,166.06145470001502,166.07743229996413,166.07743229996413,166.07743229996413,166.07743229996413,166.07743229996413,166.07743229996413,166.07743229996413,166.07743229996413,166.07743229996413,166.07743229996413,166.07743229996413,166.07743229996413,166.07743229996413,166.07743229996413,166.07743229996413,54,29,62,55,62,44,6.0,3.0575252000126056,,,,,,,,,,,,,[],[],[],[],[],[],[],0.2,3,,[],[],[],[],[],[],[],,,,,None,None,171.67404660000466,173.6573069000151,,,,,,,,,,,168.58707130001858,168.58707130001858,168.58707130001858,168.58707130001858,168.58707130001858,,,,,,262,f,22,2023-03-26_11h58.48.738,RL,2022.2.4,60.037199066201836,
1,-0.3,-0.225,0,6,6,6,,,,,,,,,,None,173.6573069000151,173.6573069000151,173.6573069000151,173.6573069000151,173.6573069000151,173.6573069000151,r,0.9584798000287265,174.64079949998995,174.64079949998995,174.64079949998995,174.64079949998995,174.64079949998995,174.64079949998995,174.93728080001893,174.93728080001893,176.73214879998704,176.73214879998704,176.73214879998704,176.73214879998704,176.73214879998704,176.73214879998704,176.73214879998704,176.73214879998704,176.73214879998704,176.73214879998704,176.73214879998704,176.73214879998704,176.73214879998704,176.73214879998704,176.73214879998704,176.73214879998704,176.73214879998704,52,24,65,51,52,74,7.0,6.6647115999949165,,,,,,,,,,,,,[],[],[],[],[],[],[],-0.2,3,,[],[],[],[],[],[],[],,,,,None,None,185.93190520000644,187.68568519997643,,,,,,,,,,,179.24099849996855,179.24099849996855,179.24099849996855,179.24099849996855,179.24099849996855,,,,,,262,f,22,2023-03-26_11h58.48.738,RL,2022.2.4,60.037199066201836,
0,0.3,0.225,0,7,7,7,,,,,,,,,,None,187.68568519997643,187.68568519997643,187.68568519997643,187.68568519997643,187.68568519997643,187.68568519997643,f,0.8117481999797747,188.52072219998809,188.52072219998809,188.52072219998809,188.52072219998809,188.52072219998809,188.52072219998809,188.81590139999753,188.81590139999753,190.295208800002,190.295208800002,190.295208800002,190.295208800002,190.295208800002,190.295208800002,190.295208800002,190.295208800002,190.295208800002,190.295208800002,190.295208800002,190.295208800002,190.295208800002,190.295208800002,190.295208800002,190.295208800002,190.295208800002,48,20,61,47,20,87,4.0,12.796377599996049,,,,,,,,,,,,,[],[],[],[],[],[],[],-0.6,3,,[],[],[],[],[],[],[],,,,,None,None,205.62662290001754,207.34854069998255,,,,,,,,,,,192.8043800999876,192.8043800999876,192.8043800999876,192.8043800999876,192.8043800999876,,,,,,262,f,22,2023-03-26_11h58.48.738,RL,2022.2.4,60.037199066201836,
1,-0.3,-0.225,0,8,8,8,,,,,,,,,,None,207.34854069998255,207.34854069998255,207.34854069998255,207.34854069998255,207.34854069998255,207.34854069998255,i,0.5547368999687023,207.93166150001343,207.93166150001343,207.93166150001343,207.93166150001343,207.93166150001343,207.93166150001343,208.22938969999086,208.22938969999086,209.70901990000857,209.70901990000857,209.70901990000857,209.70901990000857,209.70901990000857,209.70901990000857,209.70901990000857,209.70901990000857,209.70901990000857,209.70901990000857,209.70901990000857,209.70901990000857,209.70901990000857,209.70901990000857,209.70901990000857,209.70901990000857,209.70901990000857,54,15,69,55,69,49,7.0,4.902068800001871,,,,,,,,,,,,,[],[],[],[],[],[],[],0.6,3,,[],[],[],[],[],[],[],,,,,None,None,217.14676520001376,219.04975780000677,,,,,,,,,,,212.21810130000813,212.21810130000813,212.21810130000813,212.21810130000813,212.21810130000813,,,,,,262,f,22,2023-03-26_11h58.48.738,RL,2022.2.4,60.037199066201836,
0,0.3,0.225,0,9,9,9,,,,,,,,,,None,219.04975780000677,219.04975780000677,219.04975780000677,219.04975780000677,219.04975780000677,219.04975780000677,j,0.8864544000243768,219.96619720000308,219.96619720000308,219.96619720000308,219.96619720000308,219.96619720000308,219.96619720000308,220.26318509998964,220.26318509998964,222.1744730999926,222.1744730999926,222.1744730999926,222.1744730999926,222.1744730999926,222.1744730999926,222.1744730999926,222.1744730999926,222.1744730999926,222.1744730999926,222.1744730999926,222.1744730999926,222.1744730999926,222.1744730999926,222.1744730999926,222.1744730999926,222.1744730999926,60,16,58,48,48,24,None,None,224.6864840000053,224.6864840000053,224.6864840000053,224.6864840000053,224.6864840000053,224.6864840000053,224.6864840000053,224.6864840000053,0.007383999996818602,224.6864840000053,27,27,[0.18055555555555555],[-0.325],[1],[0],[0],[8.931904199998826],['tijiao'],0.6,0,,[],[],[],[],[],[],[],233.64036610000767,233.64036610000767,233.64036610000767,233.64036610000767,8.944444444444445,3.3412562999874353,237.00037119997432,238.9291518999962,,,,,,,,,,,,,,,,,,,,,262,f,22,2023-03-26_11h58.48.738,RL,2022.2.4,60.037199066201836,
1,-0.3,-0.225,0,10,10,10,,,,,,,,,,None,238.9291518999962,238.9291518999962,238.9291518999962,238.9291518999962,238.9291518999962,238.9291518999962,r,0.787867900042329,239.74711220001336,239.74711220001336,239.74711220001336,239.74711220001336,239.74711220001336,239.74711220001336,240.04256679996615,240.04256679996615,241.68813169997884,241.68813169997884,241.70495619997382,241.70495619997382,241.70495619997382,241.70495619997382,241.70495619997382,241.70495619997382,241.70495619997382,241.70495619997382,241.70495619997382,241.70495619997382,241.70495619997382,241.70495619997382,241.70495619997382,241.70495619997382,241.70495619997382,51,24,66,57,51,72,None,None,244.2172102999757,244.2172102999757,244.2172102999757,244.2172102999757,244.2172102999757,244.2172102999757,244.2172102999757,244.2172102999757,0.007349399966187775,244.2172102999757,64,64,[0.10648148148148148],[-0.28055555555555556],[1],[0],[0],[5.640597100020386],['tijiao'],-0.6,0,,[],[],[],[],[],[],[],249.878361399984,249.878361399984,249.878361399984,249.878361399984,8.222222222222221,1.7630863999947906,251.65968480001902,253.55569409998134,,,,,,,,,,,,,,,,,,,,,262,f,22,2023-03-26_11h58.48.738,RL,2022.2.4,60.037199066201836,
0,0.3,0.225,0,11,11,11,,,,,,,,,,None,253.55569409998134,253.55569409998134,253.55569409998134,253.55569409998134,253.55569409998134,253.55569409998134,f,0.8275589000550099,254.4063196000061,254.4063196000061,254.4063196000061,254.4063196000061,254.4063196000061,254.4063196000061,254.70288160000928,254.70288160000928,256.34787529997993,256.34787529997993,256.34787529997993,256.34787529997993,256.34787529997993,256.34787529997993,256.34787529997993,256.34787529997993,256.34787529997993,256.34787529997993,256.34787529997993,256.34787529997993,256.34787529997993,256.34787529997993,256.34787529997993,256.34787529997993,256.34787529997993,48,19,68,54,19,49,None,None,,,,,,,,,,,,,[],[],[],[],[],[],[],-0.6,1,21,[-0.06666666666666667],[-0.3148148148148148],[1],[0],[0],[6.67830969998613],['tijiao_random_2'],265.56321940000635,265.56321940000635,265.56321940000635,265.56321940000635,1,3.0500041999621317,268.6305604999652,270.1770805999986,258.86939100001473,258.86939100001473,258.86939100001473,258.86939100001473,258.86939100001473,258.86939100001473,258.86939100001473,258.86939100001473,0.007163900008890778,258.86939100001473,,,,,,,,,,,262,f,22,2023-03-26_11h58.48.738,RL,2022.2.4,60.037199066201836,
1,-0.3,-0.225,0,12,12,12,,,,,,,,,,None,270.1770805999986,270.1770805999986,270.1770805999986,270.1770805999986,270.1770805999986,270.1770805999986,j,0.5797525999951176,270.77822869998636,270.77822869998636,270.77822869998636,270.77822869998636,270.77822869998636,270.77822869998636,271.0744892999646,271.0744892999646,272.08859060000395,272.08859060000395,272.08859060000395,272.08859060000395,272.08859060000395,272.08859060000395,272.08859060000395,272.08859060000395,272.08859060000395,272.08859060000395,272.08859060000395,272.08859060000395,272.08859060000395,272.08859060000395,272.08859060000395,272.08859060000395,272.08859060000395,55,20,66,51,51,70,None,None,274.6012098999927,274.6012098999927,274.6012098999927,274.6012098999927,274.6012098999927,274.6012098999927,274.6012098999927,274.6012098999927,0.007438000000547618,274.6012098999927,38,38,[0.08425925925925926],[-0.2611111111111111],[1],[0],[0],[11.441119500028435],['tijiao'],0.6,0,,[],[],[],[],[],[],[],286.0631095999852,286.0631095999852,286.0631095999852,286.0631095999852,6.805555555555556,3.708370400010608,289.7890050999704,291.78477610001573,,,,,,,,,,,,,,,,,,,,,262,f,22,2023-03-26_11h58.48.738,RL,2022.2.4,60.037199066201836,
0,0.3,0.225,0,13,13,13,,,,,,,,,,None,291.78477610001573,291.78477610001573,291.78477610001573,291.78477610001573,291.78477610001573,291.78477610001573,i,0.39218899997649714,292.2038623999688,292.2038623999688,292.2038623999688,292.2038623999688,292.2038623999688,292.2038623999688,292.5000423999736,292.5000423999736,293.5630918999668,293.5630918999668,293.5630918999668,293.5630918999668,293.5630918999668,293.5630918999668,293.5630918999668,293.5630918999668,293.5630918999668,293.5630918999668,293.5630918999668,293.5630918999668,293.5630918999668,293.5630918999668,293.5630918999668,293.5630918999668,293.5630918999668,55,20,68,54,68,76,7.0,2.275975299999118,,,,,,,,,,,,,[],[],[],[],[],[],[],0.6,2,,[],[],[],[],[],[],[],,,,,None,None,298.3766123999958,300.2450976999826,,,,,,,,,,,296.07249499997124,296.07249499997124,296.07249499997124,296.07249499997124,296.07249499997124,,,,,,262,f,22,2023-03-26_11h58.48.738,RL,2022.2.4,60.037199066201836,
1,-0.3,-0.225,0,14,14,14,,,,,,,,,,None,300.2450976999826,300.2450976999826,300.2450976999826,300.2450976999826,300.2450976999826,300.2450976999826,r,0.3433270999812521,300.613326199993,300.613326199993,300.613326199993,300.613326199993,300.613326199993,300.613326199993,300.91010440001264,300.91010440001264,301.72437660000287,301.72437660000287,301.74123909999616,301.74123909999616,301.74123909999616,301.74123909999616,301.74123909999616,301.74123909999616,301.74123909999616,301.74123909999616,301.74123909999616,301.74123909999616,301.74123909999616,301.74123909999616,301.74123909999616,301.74123909999616,301.74123909999616,65,28,70,61,65,50,7.0,2.476116199977696,,,,,,,,,,,,,[],[],[],[],[],[],[],0.6,2,,[],[],[],[],[],[],[],,,,,None,None,306.75339620001614,308.3391884000157,,,,,,,,,,,304.2495983999688,304.2495983999688,304.2495983999688,304.2495983999688,304.2495983999688,,,,,,262,f,22,2023-03-26_11h58.48.738,RL,2022.2.4,60.037199066201836,
0,0.3,0.225,0,15,15,15,,,,,,,,,,None,308.3391884000157,308.3391884000157,308.3391884000157,308.3391884000157,308.3391884000157,308.3391884000157,f,0.36145560001023114,308.72457119997125,308.72457119997125,308.72457119997125,308.72457119997125,308.72457119997125,308.72457119997125,309.02102029998787,309.02102029998787,310.367262499989,310.367262499989,310.367262499989,310.367262499989,310.367262499989,310.367262499989,310.367262499989,310.367262499989,310.367262499989,310.367262499989,310.367262499989,310.367262499989,310.367262499989,310.367262499989,310.367262499989,310.367262499989,310.367262499989,64,36,74,49,36,73,None,None,,,,,,,,,,,,,[],[],[],[],[],[],[],-0.2,1,72,[0.12129629629629629],[-0.31296296296296294],[1],[0],[0],[8.67382510000607],['tijiao_random_2'],321.5738923000172,321.5738923000172,321.5738923000172,321.5738923000172,2.0833333333333335,3.036389200016856,324.6272602999816,326.223825699999,312.8875264999806,312.8875264999806,312.8875264999806,312.8875264999806,312.8875264999806,312.8875264999806,312.8875264999806,312.8875264999806,0.007057600014377385,312.8875264999806,,,,,,,,,,,262,f,22,2023-03-26_11h58.48.738,RL,2022.2.4,60.037199066201836,
1,-0.3,-0.225,0,16,16,16,,,,,,,,,,None,326.223825699999,326.223825699999,326.223825699999,326.223825699999,326.223825699999,326.223825699999,i,0.8336500999866985,327.0908022999647,327.0908022999647,327.0908022999647,327.0908022999647,327.0908022999647,327.0908022999647,327.38782289996743,327.38782289996743,328.6341040999978,328.6341040999978,328.6341040999978,328.6341040999978,328.6341040999978,328.6341040999978,328.6341040999978,328.6341040999978,328.6341040999978,328.6341040999978,328.6341040999978,328.6341040999978,328.6341040999978,328.6341040999978,328.6341040999978,328.6341040999978,328.6341040999978,58,25,71,47,71,68,7.0,2.5259869000292383,,,,,,,,,,,,,[],[],[],[],[],[],[],0.2,3,,[],[],[],[],[],[],[],,,,,None,None,333.69541089999257,335.4484296999872,,,,,,,,,,,331.14294099999825,331.14294099999825,331.14294099999825,331.14294099999825,331.14294099999825,,,,,,262,f,22,2023-03-26_11h58.48.738,RL,2022.2.4,60.037199066201836,
0,0.3,0.225,0,17,17,17,,,,,,,,,,None,335.4484296999872,335.4484296999872,335.4484296999872,335.4484296999872,335.4484296999872,335.4484296999872,j,0.6953825000091456,336.16416789998766,336.16416789998766,336.16416789998766,336.16416789998766,336.16416789998766,336.16416789998766,336.463070400001,336.463070400001,338.0750396999647,338.0750396999647,338.0750396999647,338.0750396999647,338.0750396999647,338.0750396999647,338.0750396999647,338.0750396999647,338.0750396999647,338.0750396999647,338.0750396999647,338.0750396999647,338.0750396999647,338.0750396999647,338.0750396999647,338.0750396999647,338.0750396999647,48,22,59,49,49,65,7.0,8.908440100029111,,,,,,,,,,,,,[],[],[],[],[],[],[],0.2,2,,[],[],[],[],[],[],[],,,,,None,None,349.5188874999876,351.43856009998126,,,,,,,,,,,340.58455089997733,340.58455089997733,340.58455089997733,340.58455089997733,340.58455089997733,,,,,,262,f,22,2023-03-26_11h58.48.738,RL,2022.2.4,60.037199066201836,
1,-0.3,-0.225,0,18,18,18,,,,,,,,,,None,351.43856009998126,351.43856009998126,351.43856009998126,351.43856009998126,351.43856009998126,351.43856009998126,r,0.3356070999871008,351.8050789000117,351.8050789000117,351.8050789000117,351.8050789000117,351.8050789000117,351.8050789000117,352.1034997999668,352.1034997999668,353.23376350000035,353.23376350000035,353.23376350000035,353.23376350000035,353.23376350000035,353.23376350000035,353.23376350000035,353.23376350000035,353.23376350000035,353.23376350000035,353.23376350000035,353.23376350000035,353.23376350000035,353.23376350000035,353.23376350000035,353.23376350000035,353.23376350000035,47,33,55,57,47,40,None,None,,,,,,,,,,,,,[],[],[],[],[],[],[],0.2,1,32,[-0.09537037037037037],[-0.28425925925925927],[1],[0],[0],[9.007324500009418],['tijiao_random_2'],364.7728592999629,364.7728592999629,364.7728592999629,364.7728592999629,7.833333333333334,1.4398988999892026,366.23066810000455,367.84348079998745,355.7540867999778,355.7540867999778,355.7540867999778,355.7540867999778,355.7540867999778,355.7540867999778,355.7540867999778,355.7540867999778,0.0066645999904721975,355.7540867999778,,,,,,,,,,,262,f,22,2023-03-26_11h58.48.738,RL,2022.2.4,60.037199066201836,
0,0.3,0.225,0,19,19,19,,,,,,,,,,None,367.84348079998745,367.84348079998745,367.84348079998745,367.84348079998745,367.84348079998745,367.84348079998745,r,1.0895868000225164,368.9599343999871,368.9599343999871,368.9599343999871,368.9599343999871,368.9599343999871,368.9599343999871,369.25669619999826,369.25669619999826,370.8693381000194,370.8693381000194,370.8693381000194,370.8693381000194,370.8693381000194,370.8693381000194,370.8693381000194,370.8693381000194,370.8693381000194,370.8693381000194,370.8693381000194,370.8693381000194,370.8693381000194,370.8693381000194,370.8693381000194,370.8693381000194,370.8693381000194,46,31,57,38,46,40,7.0,2.54236000002129,,,,,,,,,,,,,[],[],[],[],[],[],[],0.6,3,,[],[],[],[],[],[],[],,,,,None,None,375.9497867000173,377.6504454999813,,,,,,,,,,,373.3781674000202,373.3781674000202,373.3781674000202,373.3781674000202,373.3781674000202,,,,,,262,f,22,2023-03-26_11h58.48.738,RL,2022.2.4,60.037199066201836,
1,-0.3,-0.225,0,20,20,20,,,,,,,,,,None,377.6504454999813,377.6504454999813,377.6504454999813,377.6504454999813,377.6504454999813,377.6504454999813,f,0.5399863999919035,378.2160340999835,378.2160340999835,378.2160340999835,378.2160340999835,378.2160340999835,378.2160340999835,378.5147332000197,378.5147332000197,379.6949046999798,379.6949046999798,379.6949046999798,379.6949046999798,379.6949046999798,379.6949046999798,379.6949046999798,379.6949046999798,379.6949046999798,379.6949046999798,379.6949046999798,379.6949046999798,379.6949046999798,379.6949046999798,379.6949046999798,379.6949046999798,379.6949046999798,53,36,62,45,36,74,None,None,382.20627039996907,382.20627039996907,382.20627039996907,382.20627039996907,382.20627039996907,382.20627039996907,382.20627039996907,382.20627039996907,0.006603699992410839,382.20627039996907,75,75,"[0.10648148148148148, 0.14444444444444443]","[-0.3731481481481482, -0.32314814814814813]","[1, 1]","[0, 0]","[0, 0]","[8.733242199989036, 9.380849400011357]",['tijiao'],0.2,0,,[],[],[],[],[],[],[],391.60726259998046,391.60726259998046,391.60726259998046,391.60726259998046,1.0185185185185182,3.22717729996657,394.85224929999094,396.4326471000095,,,,,,,,,,,,,,,,,,,,,262,f,22,2023-03-26_11h58.48.738,RL,2022.2.4,60.037199066201836,
0,0.3,0.225,0,21,21,21,,,,,,,,,,None,396.4326471000095,396.4326471000095,396.4326471000095,396.4326471000095,396.4326471000095,396.4326471000095,i,0.3997792999725789,396.8649783000001,396.8649783000001,396.8649783000001,396.8649783000001,396.8649783000001,396.8649783000001,397.16404349997174,397.16404349997174,399.15866529999766,399.15866529999766,399.15866529999766,399.15866529999766,399.15866529999766,399.15866529999766,399.15866529999766,399.15866529999766,399.15866529999766,399.15866529999766,399.15866529999766,399.15866529999766,399.15866529999766,399.15866529999766,399.15866529999766,399.15866529999766,399.15866529999766,48,47,54,45,54,74,7.0,2.558896599977743,,,,,,,,,,,,,[],[],[],[],[],[],[],-0.2,2,,[],[],[],[],[],[],[],,,,,None,None,404.25295190000907,406.0229798000073,,,,,,,,,,,401.6676382999867,401.6676382999867,401.6676382999867,401.6676382999867,401.6676382999867,,,,,,262,f,22,2023-03-26_11h58.48.738,RL,2022.2.4,60.037199066201836,
1,-0.3,-0.225,0,22,22,22,,,,,,,,,,None,406.0229798000073,406.0229798000073,406.0229798000073,406.0229798000073,406.0229798000073,406.0229798000073,j,0.6600370000232942,406.7070566000184,406.7070566000184,406.7070566000184,406.7070566000184,406.7070566000184,406.7070566000184,407.00395430001663,407.00395430001663,408.56642039999133,408.56642039999133,408.56642039999133,408.56642039999133,408.56642039999133,408.56642039999133,408.56642039999133,408.56642039999133,408.56642039999133,408.56642039999133,408.56642039999133,408.56642039999133,408.56642039999133,408.56642039999133,408.56642039999133,408.56642039999133,408.56642039999133,46,37,58,47,47,63,None,None,,,,,,,,,,,,,[],[],[],[],[],[],[],0.2,1,27,"[0.1925925925925926, 0.13333333333333333]","[-0.31851851851851853, -0.25833333333333336]","[1, 1]","[0, 0]","[0, 0]","[12.895044300006703, 13.97427120001521]",['tijiao_random_2'],425.0762614000123,425.0762614000123,425.0762614000123,425.0762614000123,1,4.364653199969325,429.45801529998425,431.3041404999676,411.08780460001435,411.08780460001435,411.08780460001435,411.08780460001435,411.08780460001435,411.08780460001435,411.08780460001435,411.08780460001435,0.006887900002766401,411.08780460001435,,,,,,,,,,,262,f,22,2023-03-26_11h58.48.738,RL,2022.2.4,60.037199066201836,
0,0.3,0.225,0,23,23,23,,,,,,,,,,None,431.3041404999676,431.3041404999676,431.3041404999676,431.3041404999676,431.3041404999676,431.3041404999676,r,0.5443153000087477,431.8723854999989,431.8723854999989,431.8723854999989,431.8723854999989,431.8723854999989,431.8723854999989,432.16837899998063,432.16837899998063,434.0800921000191,434.0800921000191,434.0800921000191,434.0800921000191,434.0800921000191,434.0800921000191,434.0800921000191,434.0800921000191,434.0800921000191,434.0800921000191,434.0800921000191,434.0800921000191,434.0800921000191,434.0800921000191,434.0800921000191,434.0800921000191,434.0800921000191,59,35,47,49,59,74,None,None,,,,,,,,,,,,,[],[],[],[],[],[],[],-0.2,1,46,[-0.16574074074074074],[-0.32222222222222224],[1],[0],[0],[12.49605919996975],['tijiao_random_2'],449.1102279999759,449.1102279999759,449.1102279999759,449.1102279999759,3.0,1.405336499970872,450.5340111000114,452.2469487999915,436.6007770000142,436.6007770000142,436.6007770000142,436.6007770000142,436.6007770000142,436.6007770000142,436.6007770000142,436.6007770000142,0.007141200010664761,436.6007770000142,,,,,,,,,,,262,f,22,2023-03-26_11h58.48.738,RL,2022.2.4,60.037199066201836,
1,-0.3,-0.225,0,24,24,24,,,,,,,,,,None,452.2469487999915,452.2469487999915,452.2469487999915,452.2469487999915,452.2469487999915,452.2469487999915,i,0.8209712999523617,453.09626369999023,453.09626369999023,453.09626369999023,453.09626369999023,453.09626369999023,453.09626369999023,453.39394430001266,453.39394430001266,454.7403287999914,454.7403287999914,454.7403287999914,454.7403287999914,454.7403287999914,454.7403287999914,454.7403287999914,454.7403287999914,454.7403287999914,454.7403287999914,454.7403287999914,454.7403287999914,454.7403287999914,454.7403287999914,454.7403287999914,454.7403287999914,454.7403287999914,52,34,51,57,51,49,None,None,457.2530381999677,457.2530381999677,457.2530381999677,457.2530381999677,457.2530381999677,457.2530381999677,457.2530381999677,457.2530381999677,0.007828600006178021,457.2530381999677,64,64,[-0.03611111111111111],[-0.3148148148148148],[1],[0],[0],[6.1215147000039],['tijiao'],-0.2,0,,[],[],[],[],[],[],[],463.3947478000191,463.3947478000191,463.3947478000191,463.3947478000191,7.111111111111112,2.229137400048785,465.64244859997416,467.35573740000837,,,,,,,,,,,,,,,,,,,,,262,f,22,2023-03-26_11h58.48.738,RL,2022.2.4,60.037199066201836,
0,0.3,0.225,0,25,25,25,,,,,,,,,,None,467.35573740000837,467.35573740000837,467.35573740000837,467.35573740000837,467.35573740000837,467.35573740000837,j,1.1205226000165567,468.50562999997055,468.50562999997055,468.50562999997055,468.50562999997055,468.50562999997055,468.50562999997055,468.80182200000854,468.80182200000854,470.0151513000019,470.0151513000019,470.0151513000019,470.0151513000019,470.0151513000019,470.0151513000019,470.0151513000019,470.0151513000019,470.0151513000019,470.0151513000019,470.0151513000019,470.0151513000019,470.0151513000019,470.0151513000019,470.0151513000019,470.0151513000019,470.0151513000019,53,40,50,55,55,44,7.0,1.495019800029695,,,,,,,,,,,,,[],[],[],[],[],[],[],-0.2,3,,[],[],[],[],[],[],[],,,,,None,None,474.04680889996234,475.8991903999704,,,,,,,,,,,472.52437190001365,472.52437190001365,472.52437190001365,472.52437190001365,472.52437190001365,,,,,,262,f,22,2023-03-26_11h58.48.738,RL,2022.2.4,60.037199066201836,
1,-0.3,-0.225,0,26,26,26,,,,,,,,,,None,475.8991903999704,475.8991903999704,475.8991903999704,475.8991903999704,475.8991903999704,475.8991903999704,r,1.0125252000289038,476.9326348999748,476.9326348999748,476.9326348999748,476.9326348999748,476.9326348999748,476.9326348999748,477.22885080002015,477.22885080002015,478.3593891999917,478.3593891999917,478.3593891999917,478.3593891999917,478.3593891999917,478.3593891999917,478.3593891999917,478.3593891999917,478.3593891999917,478.3593891999917,478.3593891999917,478.3593891999917,478.3593891999917,478.3593891999917,478.3593891999917,478.3593891999917,478.3593891999917,55,37,50,45,55,29,7.0,3.4727601999766193,,,,,,,,,,,,,[],[],[],[],[],[],[],0.2,3,,[],[],[],[],[],[],[],,,,,None,None,484.36910710000666,486.2873044000007,,,,,,,,,,,480.86793409998063,480.86793409998063,480.86793409998063,480.86793409998063,480.86793409998063,,,,,,262,f,22,2023-03-26_11h58.48.738,RL,2022.2.4,60.037199066201836,
0,0.3,0.225,0,27,27,27,,,,,,,,,,None,486.2873044000007,486.2873044000007,486.2873044000007,486.2873044000007,486.2873044000007,486.2873044000007,f,0.5941645999555476,486.9052538999822,486.9052538999822,486.9052538999822,486.9052538999822,486.9052538999822,486.9052538999822,487.2013452000101,487.2013452000101,488.41517699998803,488.41517699998803,488.41517699998803,488.41517699998803,488.41517699998803,488.41517699998803,488.41517699998803,488.41517699998803,488.41517699998803,488.41517699998803,488.41517699998803,488.41517699998803,488.41517699998803,488.41517699998803,488.41517699998803,488.41517699998803,488.41517699998803,51,39,42,47,39,71,4.0,4.985215299995616,,,,,,,,,,,,,[],[],[],[],[],[],[],0.2,2,,[],[],[],[],[],[],[],,,,,None,None,495.9362015000079,497.6895558999968,,,,,,,,,,,490.92404139996506,490.92404139996506,490.92404139996506,490.92404139996506,490.92404139996506,,,,,,262,f,22,2023-03-26_11h58.48.738,RL,2022.2.4,60.037199066201836,
1,-0.3,-0.225,0,28,28,28,,,,,,,,,,None,497.6895558999968,497.6895558999968,497.6895558999968,497.6895558999968,497.6895558999968,497.6895558999968,i,0.3768033000524156,498.09134420001647,498.09134420001647,498.09134420001647,498.09134420001647,498.09134420001647,498.09134420001647,498.3879062999622,498.3879062999622,499.33505850000074,499.33505850000074,499.35159420000855,499.35159420000855,499.35159420000855,499.35159420000855,499.35159420000855,499.35159420000855,499.35159420000855,499.35159420000855,499.35159420000855,499.35159420000855,499.35159420000855,499.35159420000855,499.35159420000855,499.35159420000855,499.35159420000855,40,40,45,49,45,77,5.0,2.3427800000063144,,,,,,,,,,,,,[],[],[],[],[],[],[],-0.2,3,,[],[],[],[],[],[],[],,,,,None,None,504.2304223999963,506.11614679999184,,,,,,,,,,,501.8607392999693,501.8607392999693,501.8607392999693,501.8607392999693,501.8607392999693,,,,,,262,f,22,2023-03-26_11h58.48.738,RL,2022.2.4,60.037199066201836,
0,0.3,0.225,0,29,29,29,,,,,,,,,,None,506.11614679999184,506.11614679999184,506.11614679999184,506.11614679999184,506.11614679999184,506.11614679999184,j,0.8207841999828815,506.96511709998595,506.96511709998595,506.96511709998595,506.96511709998595,506.96511709998595,506.96511709998595,507.26375739998184,507.26375739998184,508.75939660001313,508.75939660001313,508.75939660001313,508.75939660001313,508.75939660001313,508.75939660001313,508.75939660001313,508.75939660001313,508.75939660001313,508.75939660001313,508.75939660001313,508.75939660001313,508.75939660001313,508.75939660001313,508.75939660001313,508.75939660001313,508.75939660001313,44,40,38,57,57,74,None,None,,,,,,,,,,,,,[],[],[],[],[],[],[],-0.6,1,83,[0.14074074074074075],[-0.32314814814814813],[1],[0],[0],[9.272283199999947],['tijiao_random_2'],520.567481599981,520.567481599981,520.567481599981,520.567481599981,3.175925925925926,3.930490099999588,524.5150967999944,526.4112937999889,511.28102679998847,511.28102679998847,511.28102679998847,511.28102679998847,511.28102679998847,511.28102679998847,511.28102679998847,511.28102679998847,0.005958799971267581,511.28102679998847,,,,,,,,,,,262,f,22,2023-03-26_11h58.48.738,RL,2022.2.4,60.037199066201836,
1,-0.3,-0.225,0,30,30,30,,,,,,,,,,None,526.4112937999889,526.4112937999889,526.4112937999889,526.4112937999889,526.4112937999889,526.4112937999889,r,0.7898745000129566,527.2285654000007,527.2285654000007,527.2285654000007,527.2285654000007,527.2285654000007,527.2285654000007,527.5251501000021,527.5251501000021,529.2368028999772,529.2368028999772,529.2368028999772,529.2368028999772,529.2368028999772,529.2368028999772,529.2368028999772,529.2368028999772,529.2368028999772,529.2368028999772,529.2368028999772,529.2368028999772,529.2368028999772,529.2368028999772,529.2368028999772,529.2368028999772,529.2368028999772,53,46,52,45,53,58,None,None,531.7470648000017,531.7470648000017,531.7470648000017,531.7470648000017,531.7470648000017,531.7470648000017,531.7470648000017,531.7470648000017,0.005848300002980977,531.7470648000017,45,45,[-0.03796296296296296],[-0.31666666666666665],[1],[0],[0],[6.756066199974157],['tijiao'],-0.2,0,,[],[],[],[],[],[],[],538.527035999985,538.527035999985,538.527035999985,538.527035999985,6.0,6.463745700020809,545.0093241999857,546.5563374999911,,,,,,,,,,,,,,,,,,,,,262,f,22,2023-03-26_11h58.48.738,RL,2022.2.4,60.037199066201836,
0,0.3,0.225,0,31,31,31,,,,,,,,,,None,546.5563374999911,546.5563374999911,546.5563374999911,546.5563374999911,546.5563374999911,546.5563374999911,j,0.48473540000850335,547.0727838000166,547.0727838000166,547.0727838000166,547.0727838000166,547.0727838000166,547.0727838000166,547.3705855999724,547.3705855999724,548.7332236999646,548.7332236999646,548.7332236999646,548.7332236999646,548.7332236999646,548.7332236999646,548.7332236999646,548.7332236999646,548.7332236999646,548.7332236999646,548.7332236999646,548.7332236999646,548.7332236999646,548.7332236999646,548.7332236999646,548.7332236999646,548.7332236999646,52,43,46,51,51,72,None,None,,,,,,,,,,,,,[],[],[],[],[],[],[],0.2,1,48,[-0.12962962962962962],[-0.30185185185185187],[1],[0],[0],[7.626146800001152],['tijiao_random_2'],558.8932037000195,558.8932037000195,558.8932037000195,558.8932037000195,5.12037037037037,3.234649599995464,562.1458061999874,563.9419480999932,551.2542893000063,551.2542893000063,551.2542893000063,551.2542893000063,551.2542893000063,551.2542893000063,551.2542893000063,551.2542893000063,0.006960000027902424,551.2542893000063,,,,,,,,,,,262,f,22,2023-03-26_11h58.48.738,RL,2022.2.4,60.037199066201836,
1,-0.3,-0.225,0,32,32,32,,,,,,,,,,None,563.9419480999932,563.9419480999932,563.9419480999932,563.9419480999932,563.9419480999932,563.9419480999932,j,0.9569822999765165,564.9253634999623,564.9253634999623,564.9253634999623,564.9253634999623,564.9253634999623,564.9253634999623,565.222032599966,565.222032599966,567.100413099979,567.100413099979,567.100413099979,567.100413099979,567.100413099979,567.100413099979,567.100413099979,567.100413099979,567.100413099979,567.100413099979,567.100413099979,567.100413099979,567.100413099979,567.100413099979,567.100413099979,567.100413099979,567.100413099979,60,49,43,50,50,73,None,None,,,,,,,,,,,,,[],[],[],[],[],[],[],0.6,1,64,[0.09444444444444444],[-0.29907407407407405],[1],[0],[0],[7.1104997000074945],['tijiao_random_2'],576.7464510999853,576.7464510999853,576.7464510999853,576.7464510999853,8.0,1.936391499999445,578.7006807000143,580.4803868000163,569.621295000019,569.621295000019,569.621295000019,569.621295000019,569.621295000019,569.621295000019,569.621295000019,569.621295000019,0.007030200038570911,569.621295000019,,,,,,,,,,,262,f,22,2023-03-26_11h58.48.738,RL,2022.2.4,60.037199066201836,
0,0.3,0.225,0,33,33,33,,,,,,,,,,None,580.4803868000163,580.4803868000163,580.4803868000163,580.4803868000163,580.4803868000163,580.4803868000163,i,0.9125436000176705,581.4132678000024,581.4132678000024,581.4132678000024,581.4132678000024,581.4132678000024,581.4132678000024,581.7106846999959,581.7106846999959,582.6911085000029,582.6911085000029,582.6911085000029,582.6911085000029,582.6911085000029,582.6911085000029,582.6911085000029,582.6911085000029,582.6911085000029,582.6911085000029,582.6911085000029,582.6911085000029,582.6911085000029,582.6911085000029,582.6911085000029,582.6911085000029,582.6911085000029,48,39,55,48,55,63,7.0,2.824672600021586,,,,,,,,,,,,,[],[],[],[],[],[],[],0.6,3,,[],[],[],[],[],[],[],,,,,None,None,588.0527321000118,589.7054147999734,,,,,,,,,,,585.2000247999677,585.2000247999677,585.2000247999677,585.2000247999677,585.2000247999677,,,,,,262,f,22,2023-03-26_11h58.48.738,RL,2022.2.4,60.037199066201836,
1,-0.3,-0.225,0,34,34,34,,,,,,,,,,None,589.7054147999734,589.7054147999734,589.7054147999734,589.7054147999734,589.7054147999734,589.7054147999734,None,,,,,,,,,,,,,,,,,,,,,,,,,,,66,45,42,52,0,**,None,None,,,,,,,,,,,,,[],[],[],[],[],[],[],0.2,2,,[],[],[],[],[],[],[],,,,,None,None,597.2505295000155,598.8631372000091,,,,,,,,,,,,,,,,591.2419878999935,597.2505295000155,,,,262,f,22,2023-03-26_11h58.48.738,RL,2022.2.4,60.037199066201836,
0,0.3,0.225,0,35,35,35,,,,,,,,,,None,598.8631372000091,598.8631372000091,598.8631372000091,598.8631372000091,598.8631372000091,598.8631372000091,f,0.5666111999889836,599.4644318000064,599.4644318000064,599.4644318000064,599.4644318000064,599.4644318000064,599.4644318000064,599.7614102999796,599.7614102999796,601.2402726999717,601.2402726999717,601.2402726999717,601.2402726999717,601.2402726999717,601.2402726999717,601.2402726999717,601.2402726999717,601.2402726999717,601.2402726999717,601.2402726999717,601.2402726999717,601.2402726999717,601.2402726999717,601.2402726999717,601.2402726999717,601.2402726999717,61,44,45,61,44,73,None,None,,,,,,,,,,,,,[],[],[],[],[],[],[],-0.2,1,52,"[0.0, 0.03425925925925926]","[-0.24259259259259258, -0.30833333333333335]","[1, 1]","[0, 0]","[0, 0]","[17.25022970000282, 18.928540699998848]",['tijiao_random_2'],622.7021906999871,622.7021906999871,622.7021906999871,622.7021906999871,2.861111111111111,2.9357151000294834,625.6559000000125,627.3358066999936,603.7603818000061,603.7603818000061,603.7603818000061,603.7603818000061,603.7603818000061,603.7603818000061,603.7603818000061,603.7603818000061,0.006098499987274408,603.7603818000061,,,,,,,,,,,262,f,22,2023-03-26_11h58.48.738,RL,2022.2.4,60.037199066201836,
1,-0.3,-0.225,0,36,36,36,,,,,,,,,,None,627.3358066999936,627.3358066999936,627.3358066999936,627.3358066999936,627.3358066999936,627.3358066999936,j,0.9451662999927066,628.3025449999841,628.3025449999841,628.3025449999841,628.3025449999841,628.3025449999841,628.3025449999841,628.5994491999736,628.5994491999736,629.9287738999701,629.9287738999701,629.9455396999838,629.9455396999838,629.9455396999838,629.9455396999838,629.9455396999838,629.9455396999838,629.9455396999838,629.9455396999838,629.9455396999838,629.9455396999838,629.9455396999838,629.9455396999838,629.9455396999838,629.9455396999838,629.9455396999838,55,40,49,61,61,69,7.0,2.210406000027433,,,,,,,,,,,,,[],[],[],[],[],[],[],-0.2,2,,[],[],[],[],[],[],[],,,,,None,None,634.6912378999987,636.427621299983,,,,,,,,,,,632.4541336999973,632.4541336999973,632.4541336999973,632.4541336999973,632.4541336999973,,,,,,262,f,22,2023-03-26_11h58.48.738,RL,2022.2.4,60.037199066201836,
0,0.3,0.225,0,37,37,37,,,,,,,,,,None,636.427621299983,636.427621299983,636.427621299983,636.427621299983,636.427621299983,636.427621299983,i,0.6846380999777466,637.1452430000063,637.1452430000063,637.1452430000063,637.1452430000063,637.1452430000063,637.1452430000063,637.4416519000079,637.4416519000079,639.3361530000111,639.3361530000111,639.3531989000039,639.3531989000039,639.3531989000039,639.3531989000039,639.3531989000039,639.3531989000039,639.3531989000039,639.3531989000039,639.3531989000039,639.3531989000039,639.3531989000039,639.3531989000039,639.3531989000039,639.3531989000039,639.3531989000039,61,36,40,64,40,63,None,None,641.8636157999863,641.8636157999863,641.8636157999863,641.8636157999863,641.8636157999863,641.8636157999863,641.8636157999863,641.8636157999863,0.006257799977902323,641.8636157999863,50,50,[-0.01574074074074074],[-0.3398148148148148],[1],[0],[0],[8.46810270001879],['tijiao'],0.6,0,,[],[],[],[],[],[],[],650.3524780999869,650.3524780999869,650.3524780999869,650.3524780999869,5.0,2.1945784999988973,652.5661007000017,654.2621460999944,,,,,,,,,,,,,,,,,,,,,262,f,22,2023-03-26_11h58.48.738,RL,2022.2.4,60.037199066201836,
1,-0.3,-0.225,0,38,38,38,,,,,,,,,,None,654.2621460999944,654.2621460999944,654.2621460999944,654.2621460999944,654.2621460999944,654.2621460999944,r,0.40823770000133663,654.6956864999956,654.6956864999956,654.6956864999956,654.6956864999956,654.6956864999956,654.6956864999956,654.9935960000148,654.9935960000148,656.8052307000034,656.8052307000034,656.8052307000034,656.8052307000034,656.8052307000034,656.8052307000034,656.8052307000034,656.8052307000034,656.8052307000034,656.8052307000034,656.8052307000034,656.8052307000034,656.8052307000034,656.8052307000034,656.8052307000034,656.8052307000034,656.8052307000034,63,41,47,53,63,57,6.0,3.5393242000136524,,,,,,,,,,,,,[],[],[],[],[],[],[],-0.2,2,,[],[],[],[],[],[],[],,,,,None,None,662.8809738999698,664.6007304000086,,,,,,,,,,,659.3146279999637,659.3146279999637,659.3146279999637,659.3146279999637,659.3146279999637,,,,,,262,f,22,2023-03-26_11h58.48.738,RL,2022.2.4,60.037199066201836,
0,0.3,0.225,0,39,39,39,,,,,,,,,,None,664.6007304000086,664.6007304000086,664.6007304000086,664.6007304000086,664.6007304000086,664.6007304000086,f,0.5938318999833427,665.2157291999902,665.2157291999902,665.2157291999902,665.2157291999902,665.2157291999902,665.2157291999902,665.5152745000087,665.5152745000087,666.6287947999663,666.6287947999663,666.6287947999663,666.6287947999663,666.6287947999663,666.6287947999663,666.6287947999663,666.6287947999663,666.6287947999663,666.6287947999663,666.6287947999663,666.6287947999663,666.6287947999663,666.6287947999663,666.6287947999663,666.6287947999663,666.6287947999663,60,30,49,71,30,57,None,None,,,,,,,,,,,,,[],[],[],[],[],[],[],-0.2,1,45,[0.1537037037037037],[-0.29444444444444445],[1],[0],[0],[9.022220599988941],['tijiao_random_2'],678.1850388000021,678.1850388000021,678.1850388000021,678.1850388000021,5.768518518518519,4.598139200010337,682.8001255000127,684.4795129999984,669.1491431000177,669.1491431000177,669.1491431000177,669.1491431000177,669.1491431000177,669.1491431000177,669.1491431000177,669.1491431000177,0.006980199948884547,669.1491431000177,,,,,,,,,,,262,f,22,2023-03-26_11h58.48.738,RL,2022.2.4,60.037199066201836,
1,-0.3,-0.225,0,40,40,40,,,,,,,,,,None,684.4795129999984,684.4795129999984,684.4795129999984,684.4795129999984,684.4795129999984,684.4795129999984,i,0.5798972000484355,685.0815471999813,685.0815471999813,685.0815471999813,685.0815471999813,685.0815471999813,685.0815471999813,685.3774486000184,685.3774486000184,686.3084358000197,686.3084358000197,686.3084358000197,686.3084358000197,686.3084358000197,686.3084358000197,686.3084358000197,686.3084358000197,686.3084358000197,686.3084358000197,686.3084358000197,686.3084358000197,686.3084358000197,686.3084358000197,686.3084358000197,686.3084358000197,686.3084358000197,64,39,39,73,39,67,None,None,688.8213176999707,688.8213176999707,688.8213176999707,688.8213176999707,688.8213176999707,688.8213176999707,688.8213176999707,688.8213176999707,0.00837850000243634,688.8213176999707,40,40,[-0.075],[-0.27685185185185185],[1],[0],[0],[4.658578799979296],['tijiao'],0.6,0,,[],[],[],[],[],[],[],693.5027812999906,693.5027812999906,693.5027812999906,693.5027812999906,2.9074074074074074,1.8448645999887958,695.3657327999827,696.9790899999789,,,,,,,,,,,,,,,,,,,,,262,f,22,2023-03-26_11h58.48.738,RL,2022.2.4,60.037199066201836,
0,0.3,0.225,0,41,41,41,,,,,,,,,,None,696.9790899999789,696.9790899999789,696.9790899999789,696.9790899999789,696.9790899999789,696.9790899999789,j,0.5129715999937616,697.5141260999953,697.5141260999953,697.5141260999953,697.5141260999953,697.5141260999953,697.5141260999953,697.8095680999686,697.8095680999686,699.0405049999827,699.0405049999827,699.0405049999827,699.0405049999827,699.0405049999827,699.0405049999827,699.0405049999827,699.0405049999827,699.0405049999827,699.0405049999827,699.0405049999827,699.0405049999827,699.0405049999827,699.0405049999827,699.0405049999827,699.0405049999827,699.0405049999827,60,35,45,68,68,63,7.0,1.295991100021638,,,,,,,,,,,,,[],[],[],[],[],[],[],0.6,2,,[],[],[],[],[],[],[],,,,,None,None,702.8747954000137,704.7412547999993,,,,,,,,,,,701.5489795000176,701.5489795000176,701.5489795000176,701.5489795000176,701.5489795000176,,,,,,262,f,22,2023-03-26_11h58.48.738,RL,2022.2.4,60.037199066201836,
1,-0.3,-0.225,0,42,42,42,,,,,,,,,,None,704.7412547999993,704.7412547999993,704.7412547999993,704.7412547999993,704.7412547999993,704.7412547999993,None,,,,,,,,,,,,,,,,,,,,,,,,,,,61,36,48,70,0,**,None,None,,,,,,,,,,,,,[],[],[],[],[],[],[],0.6,1,,[],[],[],[],[],[],[],,,,,None,None,712.2866226999904,713.9991305000149,,,,,,,,,,,,,,,,706.2741880000103,712.2866226999904,,,,262,f,22,2023-03-26_11h58.48.738,RL,2022.2.4,60.037199066201836,
0,0.3,0.225,0,43,43,43,,,,,,,,,,None,713.9991305000149,713.9991305000149,713.9991305000149,713.9991305000149,713.9991305000149,713.9991305000149,r,0.51612440001918,714.5499354999629,714.5499354999629,714.5499354999629,714.5499354999629,714.5499354999629,714.5499354999629,714.8469153000042,714.8469153000042,715.744992699998,715.744992699998,715.744992699998,715.744992699998,715.744992699998,715.744992699998,715.744992699998,715.744992699998,715.744992699998,715.744992699998,715.744992699998,715.744992699998,715.744992699998,715.744992699998,715.744992699998,715.744992699998,715.744992699998,55,46,48,65,55,52,6.0,1.7446203000145033,,,,,,,,,,,,,[],[],[],[],[],[],[],-0.2,3,,[],[],[],[],[],[],[],,,,,None,None,720.0260851999628,721.8940868999925,,,,,,,,,,,718.2536244000075,718.2536244000075,718.2536244000075,718.2536244000075,718.2536244000075,,,,,,262,f,22,2023-03-26_11h58.48.738,RL,2022.2.4,60.037199066201836,
1,-0.3,-0.225,0,44,44,44,,,,,,,,,,None,721.8940868999925,721.8940868999925,721.8940868999925,721.8940868999925,721.8940868999925,721.8940868999925,f,0.9983691000379622,722.9269164999714,722.9269164999714,722.9269164999714,722.9269164999714,722.9269164999714,722.9269164999714,723.2243938000174,723.2243938000174,724.3711306999903,724.3711306999903,724.3876341999858,724.3876341999858,724.3876341999858,724.3876341999858,724.3876341999858,724.3876341999858,724.3876341999858,724.3876341999858,724.3876341999858,724.3876341999858,724.3876341999858,724.3876341999858,724.3876341999858,724.3876341999858,724.3876341999858,55,34,38,72,34,52,2.0,4.270985100010876,,,,,,,,,,,,,[],[],[],[],[],[],[],-0.6,3,,[],[],[],[],[],[],[],,,,,None,None,731.1953701999737,733.1970658999635,,,,,,,,,,,726.8967411000049,726.8967411000049,726.8967411000049,726.8967411000049,726.8967411000049,,,,,,262,f,22,2023-03-26_11h58.48.738,RL,2022.2.4,60.037199066201836,
0,0.3,0.225,0,45,45,45,,,,,,,,,,None,733.1970658999635,733.1970658999635,733.1970658999635,733.1970658999635,733.1970658999635,733.1970658999635,i,0.47950929997023195,733.6983457999886,733.6983457999886,733.6983457999886,733.6983457999886,733.6983457999886,733.6983457999886,733.9946042000083,733.9946042000083,735.4245194999967,735.4245194999967,735.4245194999967,735.4245194999967,735.4245194999967,735.4245194999967,735.4245194999967,735.4245194999967,735.4245194999967,735.4245194999967,735.4245194999967,735.4245194999967,735.4245194999967,735.4245194999967,735.4245194999967,735.4245194999967,735.4245194999967,56,36,43,71,43,74,3.0,2.990971699997317,,,,,,,,,,,,,[],[],[],[],[],[],[],-0.2,2,,[],[],[],[],[],[],[],,,,,None,None,740.9514454000164,742.4883288000128,,,,,,,,,,,737.9335607999819,737.9335607999819,737.9335607999819,737.9335607999819,737.9335607999819,,,,,,262,f,22,2023-03-26_11h58.48.738,RL,2022.2.4,60.037199066201836,
1,-0.3,-0.225,0,46,46,46,,,,,,,,,,None,742.4883288000128,742.4883288000128,742.4883288000128,742.4883288000128,742.4883288000128,742.4883288000128,j,0.7639334999839775,743.2721019000164,743.2721019000164,743.2721019000164,743.2721019000164,743.2721019000164,743.2721019000164,743.5691337999888,743.5691337999888,745.4136321999831,745.4136321999831,745.4303281999892,745.4303281999892,745.4303281999892,745.4303281999892,745.4303281999892,745.4303281999892,745.4303281999892,745.4303281999892,745.4303281999892,745.4303281999892,745.4303281999892,745.4303281999892,745.4303281999892,745.4303281999892,745.4303281999892,55,36,45,66,66,68,None,None,747.9425148000009,747.9425148000009,747.9425148000009,747.9425148000009,747.9425148000009,747.9425148000009,747.9425148000009,747.9425148000009,0.007493599958252162,747.9425148000009,58,58,[-0.07222222222222222],[-0.34074074074074073],[1],[0],[0],[7.734895800007507],['tijiao'],-0.2,0,,[],[],[],[],[],[],[],755.6985028000199,755.6985028000199,755.6985028000199,755.6985028000199,3.148148148148148,2.9764101000037044,758.6929908000166,760.5226346999989,,,,,,,,,,,,,,,,,,,,,262,f,22,2023-03-26_11h58.48.738,RL,2022.2.4,60.037199066201836,
0,0.3,0.225,0,47,47,47,,,,,,,,,,None,760.5226346999989,760.5226346999989,760.5226346999989,760.5226346999989,760.5226346999989,760.5226346999989,r,0.5236047000507824,761.0730479999911,761.0730479999911,761.0730479999911,761.0730479999911,761.0730479999911,761.0730479999911,761.3702909999993,761.3702909999993,762.217782999971,762.217782999971,762.217782999971,762.217782999971,762.217782999971,762.217782999971,762.217782999971,762.217782999971,762.217782999971,762.217782999971,762.217782999971,762.217782999971,762.217782999971,762.217782999971,762.217782999971,762.217782999971,762.217782999971,52,41,46,63,52,40,None,None,764.7282020999701,764.7282020999701,764.7282020999701,764.7282020999701,764.7282020999701,764.7282020999701,764.7282020999701,764.7282020999701,0.005498600017745048,764.7282020999701,54,54,[0.002777777777777778],[-0.3333333333333333],[1],[0],[0],[6.1732250999775715],['tijiao'],0.6,0,,[],[],[],[],[],[],[],770.9220913000172,770.9220913000172,770.9220913000172,770.9220913000172,2.9814814814814814,2.744928600033745,773.6851882999763,775.6314578999882,,,,,,,,,,,,,,,,,,,,,262,f,22,2023-03-26_11h58.48.738,RL,2022.2.4,60.037199066201836,
1,-0.3,-0.225,0,48,48,48,,,,,,,,,,None,775.6314578999882,775.6314578999882,775.6314578999882,775.6314578999882,775.6314578999882,775.6314578999882,f,0.5735597999882884,776.2321736000013,776.2321736000013,776.2321736000013,776.2321736000013,776.2321736000013,776.2321736000013,776.5285894999979,776.5285894999979,778.2239128999645,778.2239128999645,778.2239128999645,778.2239128999645,778.2239128999645,778.2239128999645,778.2239128999645,778.2239128999645,778.2239128999645,778.2239128999645,778.2239128999645,778.2239128999645,778.2239128999645,778.2239128999645,778.2239128999645,778.2239128999645,778.2239128999645,51,33,45,60,33,60,3.0,3.473720600013621,,,,,,,,,,,,,[],[],[],[],[],[],[],0.2,2,,[],[],[],[],[],[],[],,,,,None,None,784.2305962999817,786.1855998999672,,,,,,,,,,,780.733006800001,780.733006800001,780.733006800001,780.733006800001,780.733006800001,,,,,,262,f,22,2023-03-26_11h58.48.738,RL,2022.2.4,60.037199066201836,
0,0.3,0.225,0,49,49,49,,,,,,,,,,None,786.1855998999672,786.1855998999672,786.1855998999672,786.1855998999672,786.1855998999672,786.1855998999672,i,1.2786922000232153,787.4850442999741,787.4850442999741,787.4850442999741,787.4850442999741,787.4850442999741,787.4850442999741,787.7814294999698,787.7814294999698,789.0947702999692,789.0947702999692,789.0947702999692,789.0947702999692,789.0947702999692,789.0947702999692,789.0947702999692,789.0947702999692,789.0947702999692,789.0947702999692,789.0947702999692,789.0947702999692,789.0947702999692,789.0947702999692,789.0947702999692,789.0947702999692,789.0947702999692,57,24,40,58,40,62,None,None,,,,,,,,,,,,,[],[],[],[],[],[],[],0.6,1,68,[-0.1685185185185185],[-0.3138888888888889],[1],[0],[0],[4.517090099980123],['tijiao_random_2'],796.1450898000039,796.1450898000039,796.1450898000039,796.1450898000039,5.018518518518518,2.9693714999593794,799.1326339999796,800.9452140000067,791.6154435999924,791.6154435999924,791.6154435999924,791.6154435999924,791.6154435999924,791.6154435999924,791.6154435999924,791.6154435999924,0.006983200029935688,791.6154435999924,,,,,,,,,,,262,f,22,2023-03-26_11h58.48.738,RL,2022.2.4,60.037199066201836,
1,-0.3,-0.225,0,50,50,50,,,,,,,,,,None,800.9452140000067,800.9452140000067,800.9452140000067,800.9452140000067,800.9452140000067,800.9452140000067,j,0.5795813000295311,801.5447249999852,801.5447249999852,801.5447249999852,801.5447249999852,801.5447249999852,801.5447249999852,801.8426608999725,801.8426608999725,803.439151300001,803.439151300001,803.439151300001,803.439151300001,803.439151300001,803.439151300001,803.439151300001,803.439151300001,803.439151300001,803.439151300001,803.439151300001,803.439151300001,803.439151300001,803.439151300001,803.439151300001,803.439151300001,803.439151300001,47,32,39,59,59,42,None,None,805.950507099973,805.950507099973,805.950507099973,805.950507099973,805.950507099973,805.950507099973,805.950507099973,805.950507099973,0.007113899977412075,805.950507099973,55,55,"[0.1287037037037037, -0.1, -0.07685185185185185]","[-0.2064814814814815, -0.24814814814814815, -0.29074074074074074]","[1, 1, 1]","[0, 0, 0]","[0, 0, 0]","[0.7042319999891333, 9.630294700036757, 10.194931600010023]",['tijiao'],0.2,0,,[],[],[],[],[],[],[],816.1669655999867,816.1669655999867,816.1669655999867,816.1669655999867,5.324074074074074,5.551780800044071,821.7373677999713,823.6668833000003,,,,,,,,,,,,,,,,,,,,,262,f,22,2023-03-26_11h58.48.738,RL,2022.2.4,60.037199066201836,
0,0.3,0.225,0,51,51,51,,,,,,,,,,None,823.6668833000003,823.6668833000003,823.6668833000003,823.6668833000003,823.6668833000003,823.6668833000003,r,0.42094350000843406,824.1184622999863,824.1184622999863,824.1184622999863,824.1184622999863,824.1184622999863,824.1184622999863,824.4149284000159,824.4149284000159,826.2763058000128,826.2763058000128,826.2763058000128,826.2763058000128,826.2763058000128,826.2763058000128,826.2763058000128,826.2763058000128,826.2763058000128,826.2763058000128,826.2763058000128,826.2763058000128,826.2763058000128,826.2763058000128,826.2763058000128,826.2763058000128,826.2763058000128,47,38,34,58,47,64,None,None,,,,,,,,,,,,,[],[],[],[],[],[],[],0.2,1,56,[0.13518518518518519],[-0.2824074074074074],[1],[0],[0],[6.279670400021132],['tijiao_random_2'],835.0889497000026,835.0889497000026,835.0889497000026,835.0889497000026,3.259259259259259,1.8719449999625795,836.9793408999685,838.841975599993,828.796525600017,828.796525600017,828.796525600017,828.796525600017,828.796525600017,828.796525600017,828.796525600017,828.796525600017,0.0070300999796018004,828.796525600017,,,,,,,,,,,262,f,22,2023-03-26_11h58.48.738,RL,2022.2.4,60.037199066201836,
1,-0.3,-0.225,0,52,52,52,,,,,,,,,,None,838.841975599993,838.841975599993,838.841975599993,838.841975599993,838.841975599993,838.841975599993,r,0.765234800055623,839.6428956000018,839.6428956000018,839.6428956000018,839.6428956000018,839.6428956000018,839.6428956000018,839.9393512000097,839.9393512000097,841.2187064000173,841.2187064000173,841.2187064000173,841.2187064000173,841.2187064000173,841.2187064000173,841.2187064000173,841.2187064000173,841.2187064000173,841.2187064000173,841.2187064000173,841.2187064000173,841.2187064000173,841.2187064000173,841.2187064000173,841.2187064000173,841.2187064000173,46,32,37,65,46,53,None,None,,,,,,,,,,,,,[],[],[],[],[],[],[],0.2,1,42,[-0.15185185185185185],[-0.2916666666666667],[1],[0],[0],[9.554295299982186],['tijiao_random_2'],853.3082886000047,853.3082886000047,853.3082886000047,853.3082886000047,3.083333333333333,3.466921999992337,856.7924153999775,858.6213690000004,843.7384491999983,843.7384491999983,843.7384491999983,843.7384491999983,843.7384491999983,843.7384491999983,843.7384491999983,843.7384491999983,0.006693400035146624,843.7384491999983,,,,,,,,,,,262,f,22,2023-03-26_11h58.48.738,RL,2022.2.4,60.037199066201836,
0,0.3,0.225,0,53,53,53,,,,,,,,,,None,858.6213690000004,858.6213690000004,858.6213690000004,858.6213690000004,858.6213690000004,858.6213690000004,f,0.4622166000190191,859.1053348999703,859.1053348999703,859.1053348999703,859.1053348999703,859.1053348999703,859.1053348999703,859.4028569000075,859.4028569000075,860.6657788999728,860.6657788999728,860.6828735999879,860.6828735999879,860.6828735999879,860.6828735999879,860.6828735999879,860.6828735999879,860.6828735999879,860.6828735999879,860.6828735999879,860.6828735999879,860.6828735999879,860.6828735999879,860.6828735999879,860.6828735999879,860.6828735999879,41,36,39,50,36,79,1.0,3.3892654000082985,,,,,,,,,,,,,[],[],[],[],[],[],[],0.6,3,,[],[],[],[],[],[],[],,,,,None,None,866.6128236000077,868.1950408999692,,,,,,,,,,,863.1913017000188,863.1913017000188,863.1913017000188,863.1913017000188,863.1913017000188,,,,,,262,f,22,2023-03-26_11h58.48.738,RL,2022.2.4,60.037199066201836,
1,-0.3,-0.225,0,54,54,54,,,,,,,,,,None,868.1950408999692,868.1950408999692,868.1950408999692,868.1950408999692,868.1950408999692,868.1950408999692,i,0.7133781999582425,868.9283459999715,868.9283459999715,868.9283459999715,868.9283459999715,868.9283459999715,868.9283459999715,869.2255544000072,869.2255544000072,870.7551128999912,870.7551128999912,870.7551128999912,870.7551128999912,870.7551128999912,870.7551128999912,870.7551128999912,870.7551128999912,870.7551128999912,870.7551128999912,870.7551128999912,870.7551128999912,870.7551128999912,870.7551128999912,870.7551128999912,870.7551128999912,870.7551128999912,48,32,35,55,35,74,1.0,1.4449625000124797,,,,,,,,,,,,,[],[],[],[],[],[],[],-0.6,2,,[],[],[],[],[],[],[],,,,,None,None,874.7379867999698,876.5891788000008,,,,,,,,,,,873.264347999997,873.264347999997,873.264347999997,873.264347999997,873.264347999997,,,,,,262,f,22,2023-03-26_11h58.48.738,RL,2022.2.4,60.037199066201836,
0,0.3,0.225,0,55,55,55,,,,,,,,,,None,876.5891788000008,876.5891788000008,876.5891788000008,876.5891788000008,876.5891788000008,876.5891788000008,j,0.7812442000140436,877.4054075999884,877.4054075999884,877.4054075999884,877.4054075999884,877.4054075999884,877.4054075999884,877.7026760000153,877.7026760000153,879.6304290000116,879.6304290000116,879.6304290000116,879.6304290000116,879.6304290000116,879.6304290000116,879.6304290000116,879.6304290000116,879.6304290000116,879.6304290000116,879.6304290000116,879.6304290000116,879.6304290000116,879.6304290000116,879.6304290000116,879.6304290000116,879.6304290000116,53,36,36,59,59,76,None,None,,,,,,,,,,,,,[],[],[],[],[],[],[],0.6,1,64,"[0.027777777777777776, -0.12129629629629629]","[-0.18981481481481483, -0.3111111111111111]","[1, 1]","[0, 0]","[0, 0]","[28.11878289998276, 28.60162269999273]",['tijiao_random_2'],910.7673989000032,910.7673989000032,910.7673989000032,910.7673989000032,1.0648148148148149,2.3534654999966733,913.1382936000009,914.8018190999865,882.1519572999678,882.1519572999678,882.1519572999678,882.1519572999678,882.1519572999678,882.1519572999678,882.1519572999678,882.1519572999678,0.006931099982466549,882.1519572999678,,,,,,,,,,,262,f,22,2023-03-26_11h58.48.738,RL,2022.2.4,60.037199066201836,
1,-0.3,-0.225,0,56,56,56,,,,,,,,,,None,914.8018190999865,914.8018190999865,914.8018190999865,914.8018190999865,914.8018190999865,914.8018190999865,r,1.445999900053721,916.2824260999914,916.2824260999914,916.2824260999914,916.2824260999914,916.2824260999914,916.2824260999914,916.5798417999758,916.5798417999758,917.9427269999869,917.9427269999869,917.9427269999869,917.9427269999869,917.9427269999869,917.9427269999869,917.9427269999869,917.9427269999869,917.9427269999869,917.9427269999869,917.9427269999869,917.9427269999869,917.9427269999869,917.9427269999869,917.9427269999869,917.9427269999869,917.9427269999869,62,31,33,48,62,75,5.0,3.1901272000395693,,,,,,,,,,,,,[],[],[],[],[],[],[],0.6,2,,[],[],[],[],[],[],[],,,,,None,None,923.6690194999683,925.3228275000001,,,,,,,,,,,920.4519837999833,920.4519837999833,920.4519837999833,920.4519837999833,920.4519837999833,,,,,,262,f,22,2023-03-26_11h58.48.738,RL,2022.2.4,60.037199066201836,
0,0.3,0.225,0,57,57,57,,,,,,,,,,None,925.3228275000001,925.3228275000001,925.3228275000001,925.3228275000001,925.3228275000001,925.3228275000001,f,0.9847611999721266,926.3369185000192,926.3369185000192,926.3369185000192,926.3369185000192,926.3369185000192,926.3369185000192,926.6360234000022,926.6360234000022,928.630448299984,928.630448299984,928.630448299984,928.630448299984,928.630448299984,928.630448299984,928.630448299984,928.630448299984,928.630448299984,928.630448299984,928.630448299984,928.630448299984,928.630448299984,928.630448299984,928.630448299984,928.630448299984,928.630448299984,61,32,37,66,32,80,None,None,931.1429045000114,931.1429045000114,931.1429045000114,931.1429045000114,931.1429045000114,931.1429045000114,931.1429045000114,931.1429045000114,0.007465100032277405,931.1429045000114,40,40,[-0.037037037037037035],[-0.33240740740740743],[1],[0],[0],[5.174803700007033],['tijiao'],-0.2,0,,[],[],[],[],[],[],[],936.3400996999699,936.3400996999699,936.3400996999699,936.3400996999699,6.138888888888888,3.1751766999950632,939.5331415999681,941.1457855000044,,,,,,,,,,,,,,,,,,,,,262,f,22,2023-03-26_11h58.48.738,RL,2022.2.4,60.037199066201836,
1,-0.3,-0.225,0,58,58,58,,,,,,,,,,None,941.1457855000044,941.1457855000044,941.1457855000044,941.1457855000044,941.1457855000044,941.1457855000044,i,0.5316807999624871,941.6984841999947,941.6984841999947,941.6984841999947,941.6984841999947,941.6984841999947,941.6984841999947,941.9936470999965,941.9936470999965,943.0912819000077,943.0912819000077,943.0912819000077,943.0912819000077,943.0912819000077,943.0912819000077,943.0912819000077,943.0912819000077,943.0912819000077,943.0912819000077,943.0912819000077,943.0912819000077,943.0912819000077,943.0912819000077,943.0912819000077,943.0912819000077,943.0912819000077,62,27,34,62,34,74,3.0,2.491319599968847,,,,,,,,,,,,,[],[],[],[],[],[],[],0.6,3,,[],[],[],[],[],[],[],,,,,None,None,948.1188688999973,950.038116700016,,,,,,,,,,,945.599773199996,945.599773199996,945.599773199996,945.599773199996,945.599773199996,,,,,,262,f,22,2023-03-26_11h58.48.738,RL,2022.2.4,60.037199066201836,
0,0.3,0.225,0,59,59,59,,,,,,,,,,None,950.038116700016,950.038116700016,950.038116700016,950.038116700016,950.038116700016,950.038116700016,j,0.6555884999688715,950.722565300006,950.722565300006,950.722565300006,950.722565300006,950.722565300006,950.722565300006,951.0190915999701,951.0190915999701,952.5485712999944,952.5485712999944,952.5485712999944,952.5485712999944,952.5485712999944,952.5485712999944,952.5485712999944,952.5485712999944,952.5485712999944,952.5485712999944,952.5485712999944,952.5485712999944,952.5485712999944,952.5485712999944,952.5485712999944,952.5485712999944,952.5485712999944,58,30,35,51,51,74,6.0,2.6251829999964684,,,,,,,,,,,,,[],[],[],[],[],[],[],-0.6,2,,[],[],[],[],[],[],[],,,,,None,None,957.7110757000046,959.4791505999747,,,,,,,,,,,955.0577946999692,955.0577946999692,955.0577946999692,955.0577946999692,955.0577946999692,,,,,,262,f,22,2023-03-26_11h58.48.738,RL,2022.2.4,60.037199066201836,
1,-0.3,-0.225,0,60,60,60,,,,,,,,,,None,959.4791505999747,959.4791505999747,959.4791505999747,959.4791505999747,959.4791505999747,959.4791505999747,r,0.4051750000216998,959.9131920000073,959.9131920000073,959.9131920000073,959.9131920000073,959.9131920000073,959.9131920000073,960.2107865000144,960.2107865000144,961.0583477999899,961.0583477999899,961.0583477999899,961.0583477999899,961.0583477999899,961.0583477999899,961.0583477999899,961.0583477999899,961.0583477999899,961.0583477999899,961.0583477999899,961.0583477999899,961.0583477999899,961.0583477999899,961.0583477999899,961.0583477999899,961.0583477999899,56,25,41,54,56,82,None,None,963.5693181999959,963.5693181999959,963.5693181999959,963.5693181999959,963.5693181999959,963.5693181999959,963.5693181999959,963.5693181999959,0.005710600002203137,963.5693181999959,60,60,[0.03333333333333333],[-0.30185185185185187],[1],[0],[0],[4.71112680004444],['tijiao'],0.2,0,,[],[],[],[],[],[],[],968.3008207000094,968.3008207000094,968.3008207000094,968.3008207000094,7.962962962962963,7.780549100018106,976.0997528000153,977.7961069999728,,,,,,,,,,,,,,,,,,,,,262,f,22,2023-03-26_11h58.48.738,RL,2022.2.4,60.037199066201836,
0,0.3,0.225,0,61,61,61,,,,,,,,,,None,977.7961069999728,977.7961069999728,977.7961069999728,977.7961069999728,977.7961069999728,977.7961069999728,f,0.4700324999867007,978.2983183999895,978.2983183999895,978.2983183999895,978.2983183999895,978.2983183999895,978.2983183999895,978.5942128999741,978.5942128999741,979.7574147999985,979.7574147999985,979.7743324000039,979.7743324000039,979.7743324000039,979.7743324000039,979.7743324000039,979.7743324000039,979.7743324000039,979.7743324000039,979.7743324000039,979.7743324000039,979.7743324000039,979.7743324000039,979.7743324000039,979.7743324000039,979.7743324000039,56,18,52,55,18,65,1.0,1.1792269999859855,,,,,,,,,,,,,[],[],[],[],[],[],[],0.2,3,,[],[],[],[],[],[],[],,,,,None,None,983.4912448999821,985.4747097999789,,,,,,,,,,,982.2832715999684,982.2832715999684,982.2832715999684,982.2832715999684,982.2832715999684,,,,,,262,f,22,2023-03-26_11h58.48.738,RL,2022.2.4,60.037199066201836,
1,-0.3,-0.225,0,62,62,62,,,,,,,,,,None,985.4747097999789,985.4747097999789,985.4747097999789,985.4747097999789,985.4747097999789,985.4747097999789,None,,,,,,,,,,,,,,,,,,,,,,,,,,,60,21,41,53,0,**,None,None,,,,,,,,,,,,,[],[],[],[],[],[],[],-0.2,1,,[],[],[],[],[],[],[],,,,,None,None,993.0205145999789,994.7162646999932,,,,,,,,,,,,,,,,987.0102033999865,993.0205145999789,,,,262,f,22,2023-03-26_11h58.48.738,RL,2022.2.4,60.037199066201836,
0,0.3,0.225,0,63,63,63,,,,,,,,,,None,994.7162646999932,994.7162646999932,994.7162646999932,994.7162646999932,994.7162646999932,994.7162646999932,i,0.29838370002107695,995.0359266999876,995.0359266999876,995.0359266999876,995.0359266999876,995.0359266999876,995.0359266999876,995.3318023000029,995.3318023000029,996.4447967999731,996.4447967999731,996.4447967999731,996.4447967999731,996.4447967999731,996.4447967999731,996.4447967999731,996.4447967999731,996.4447967999731,996.4447967999731,996.4447967999731,996.4447967999731,996.4447967999731,996.4447967999731,996.4447967999731,996.4447967999731,996.4447967999731,58,19,33,51,33,85,4.0,3.290325599955395,,,,,,,,,,,,,[],[],[],[],[],[],[],0.6,2,,[],[],[],[],[],[],[],,,,,None,None,1002.273883100017,1003.7917761999997,,,,,,,,,,,998.9541749999626,998.9541749999626,998.9541749999626,998.9541749999626,998.9541749999626,,,,,,262,f,22,2023-03-26_11h58.48.738,RL,2022.2.4,60.037199066201836,
1,-0.3,-0.225,0,64,64,64,,,,,,,,,,None,1003.7917761999997,1003.7917761999997,1003.7917761999997,1003.7917761999997,1003.7917761999997,1003.7917761999997,j,0.5586562000098638,1004.3752422999823,1004.3752422999823,1004.3752422999823,1004.3752422999823,1004.3752422999823,1004.3752422999823,1004.6731103999773,1004.6731103999773,1006.5840727000032,1006.5840727000032,1006.6009830000112,1006.6009830000112,1006.6009830000112,1006.6009830000112,1006.6009830000112,1006.6009830000112,1006.6009830000112,1006.6009830000112,1006.6009830000112,1006.6009830000112,1006.6009830000112,1006.6009830000112,1006.6009830000112,1006.6009830000112,1006.6009830000112,69,9,43,50,50,54,7.0,0.9798050000099465,,,,,,,,,,,,,[],[],[],[],[],[],[],-0.2,3,,[],[],[],[],[],[],[],,,,,None,None,1010.1182985999621,1011.9030462999945,,,,,,,,,,,1009.1098493000027,1009.1098493000027,1009.1098493000027,1009.1098493000027,1009.1098493000027,,,,,,262,f,22,2023-03-26_11h58.48.738,RL,2022.2.4,60.037199066201836,
0,0.3,0.225,0,65,65,65,,,,,,,,,,None,1011.9030462999945,1011.9030462999945,1011.9030462999945,1011.9030462999945,1011.9030462999945,1011.9030462999945,r,0.7193453999934718,1012.6527907999698,1012.6527907999698,1012.6527907999698,1012.6527907999698,1012.6527907999698,1012.6527907999698,1012.9502278,1012.9502278,1014.2468576999963,1014.2468576999963,1014.2468576999963,1014.2468576999963,1014.2468576999963,1014.2468576999963,1014.2468576999963,1014.2468576999963,1014.2468576999963,1014.2468576999963,1014.2468576999963,1014.2468576999963,1014.2468576999963,1014.2468576999963,1014.2468576999963,1014.2468576999963,1014.2468576999963,67,13,40,52,67,90,None,None,1016.757818699989,1016.757818699989,1016.757818699989,1016.757818699989,1016.757818699989,1016.757818699989,1016.757818699989,1016.757818699989,0.006737799965776503,1016.757818699989,60,60,[0.07685185185185185],[-0.3],[1],[0],[0],[7.187442199967336],['tijiao'],0.6,0,,[],[],[],[],[],[],[],1023.9688877000008,1023.9688877000008,1023.9688877000008,1023.9688877000008,5.944444444444445,2.282878300000448,1026.2625289999996,1028.2582818999654,,,,,,,,,,,,,,,,,,,,,262,f,22,2023-03-26_11h58.48.738,RL,2022.2.4,60.037199066201836,
1,-0.3,-0.225,0,66,66,66,,,,,,,,,,None,1028.2582818999654,1028.2582818999654,1028.2582818999654,1028.2582818999654,1028.2582818999654,1028.2582818999654,f,0.3282908999826759,1028.6098828999675,1028.6098828999675,1028.6098828999675,1028.6098828999675,1028.6098828999675,1028.6098828999675,1028.90688580001,1028.90688580001,1030.1702815999743,1030.1702815999743,1030.1702815999743,1030.1702815999743,1030.1702815999743,1030.1702815999743,1030.1702815999743,1030.1702815999743,1030.1702815999743,1030.1702815999743,1030.1702815999743,1030.1702815999743,1030.1702815999743,1030.1702815999743,1030.1702815999743,1030.1702815999743,1030.1702815999743,74,14,40,54,14,74,None,None,1032.68159990001,1032.68159990001,1032.68159990001,1032.68159990001,1032.68159990001,1032.68159990001,1032.68159990001,1032.68159990001,0.006691399961709976,1032.68159990001,22,22,"[0.11851851851851852, 0.09166666666666666]","[-0.35555555555555557, -0.29814814814814816]","[1, 1]","[0, 0]","[0, 0]","[5.490893599984702, 5.890389999956824]",['tijiao'],0.6,0,,[],[],[],[],[],[],[],1038.592864300008,1038.592864300008,1038.592864300008,1038.592864300008,1,2.627313499979209,1041.2386218999745,1043.2005831999704,,,,,,,,,,,,,,,,,,,,,262,f,22,2023-03-26_11h58.48.738,RL,2022.2.4,60.037199066201836,
0,0.3,0.225,0,67,67,67,,,,,,,,,,None,1043.2005831999704,1043.2005831999704,1043.2005831999704,1043.2005831999704,1043.2005831999704,1043.2005831999704,i,0.3327218999620527,1043.5701954999822,1043.5701954999822,1043.5701954999822,1043.5701954999822,1043.5701954999822,1043.5701954999822,1043.8659001999767,1043.8659001999767,1044.8133310999838,1044.8133310999838,1044.8133310999838,1044.8133310999838,1044.8133310999838,1044.8133310999838,1044.8133310999838,1044.8133310999838,1044.8133310999838,1044.8133310999838,1044.8133310999838,1044.8133310999838,1044.8133310999838,1044.8133310999838,1044.8133310999838,1044.8133310999838,1044.8133310999838,64,12,27,52,27,71,2.0,3.2898513000109233,,,,,,,,,,,,,[],[],[],[],[],[],[],-0.6,2,,[],[],[],[],[],[],[],,,,,None,None,1050.6418110000086,1052.1929792999872,,,,,,,,,,,1047.3224184999708,1047.3224184999708,1047.3224184999708,1047.3224184999708,1047.3224184999708,,,,,,262,f,22,2023-03-26_11h58.48.738,RL,2022.2.4,60.037199066201836,
1,-0.3,-0.225,0,68,68,68,,,,,,,,,,None,1052.1929792999872,1052.1929792999872,1052.1929792999872,1052.1929792999872,1052.1929792999872,1052.1929792999872,j,0.6800862999516539,1052.8945667999797,1052.8945667999797,1052.8945667999797,1052.8945667999797,1052.8945667999797,1052.8945667999797,1053.1902754000039,1053.1902754000039,1055.1351051999955,1055.1351051999955,1055.1351051999955,1055.1351051999955,1055.1351051999955,1055.1351051999955,1055.1351051999955,1055.1351051999955,1055.1351051999955,1055.1351051999955,1055.1351051999955,1055.1351051999955,1055.1351051999955,1055.1351051999955,1055.1351051999955,1055.1351051999955,1055.1351051999955,62,18,37,46,46,79,None,None,,,,,,,,,,,,,[],[],[],[],[],[],[],-0.2,1,32,[0.08611111111111111],[-0.2953703703703704],[1],[0],[0],[3.537798000033945],['tijiao_random_2'],1061.2090408999939,1061.2090408999939,1061.2090408999939,1061.2090408999939,4.212962962962963,2.1528972000232898,1063.3778904000064,1064.8915307999705,1057.655413499975,1057.655413499975,1057.655413499975,1057.655413499975,1057.655413499975,1057.655413499975,1057.655413499975,1057.655413499975,0.006837500026449561,1057.655413499975,,,,,,,,,,,262,f,22,2023-03-26_11h58.48.738,RL,2022.2.4,60.037199066201836,
0,0.3,0.225,0,69,69,69,,,,,,,,,,None,1064.8915307999705,1064.8915307999705,1064.8915307999705,1064.8915307999705,1064.8915307999705,1064.8915307999705,j,0.3601811999687925,1065.2767338000122,1065.2767338000122,1065.2767338000122,1065.2767338000122,1065.2767338000122,1065.2767338000122,1065.5734382999945,1065.5734382999945,1067.3682654000004,1067.3682654000004,1067.3682654000004,1067.3682654000004,1067.3682654000004,1067.3682654000004,1067.3682654000004,1067.3682654000004,1067.3682654000004,1067.3682654000004,1067.3682654000004,1067.3682654000004,1067.3682654000004,1067.3682654000004,1067.3682654000004,1067.3682654000004,1067.3682654000004,75,12,35,57,57,75,None,None,,,,,,,,,,,,,[],[],[],[],[],[],[],-0.2,1,48,"[0.007407407407407408, 0.008333333333333333]","[-0.22037037037037038, -0.2601851851851852]","[1, 1]","[0, 0]","[0, 0]","[6.62966029997915, 7.0454187000286765]",['tijiao_random_2'],1076.9470765999868,1076.9470765999868,1076.9470765999868,1076.9470765999868,2.9814814814814814,1.8883301999885589,1078.8524623999838,1080.6821192000061,1069.8877522000112,1069.8877522000112,1069.8877522000112,1069.8877522000112,1069.8877522000112,1069.8877522000112,1069.8877522000112,1069.8877522000112,0.006224100012332201,1069.8877522000112,,,,,,,,,,,262,f,22,2023-03-26_11h58.48.738,RL,2022.2.4,60.037199066201836,
1,-0.3,-0.225,0,70,70,70,,,,,,,,,,None,1080.6821192000061,1080.6821192000061,1080.6821192000061,1080.6821192000061,1080.6821192000061,1080.6821192000061,r,0.8010825999663211,1081.5145725000184,1081.5145725000184,1081.5145725000184,1081.5145725000184,1081.5145725000184,1081.5145725000184,1081.812314299983,1081.812314299983,1083.1753766000038,1083.1753766000038,1083.192080000008,1083.192080000008,1083.192080000008,1083.192080000008,1083.192080000008,1083.192080000008,1083.192080000008,1083.192080000008,1083.192080000008,1083.192080000008,1083.192080000008,1083.192080000008,1083.192080000008,1083.192080000008,1083.192080000008,68,10,33,55,68,75,7.0,2.3093452000175603,,,,,,,,,,,,,[],[],[],[],[],[],[],0.6,3,,[],[],[],[],[],[],[],,,,,None,None,1088.0366291999817,1089.8403031000053,,,,,,,,,,,1085.700529899972,1085.700529899972,1085.700529899972,1085.700529899972,1085.700529899972,,,,,,262,f,22,2023-03-26_11h58.48.738,RL,2022.2.4,60.037199066201836,
0,0.3,0.225,0,71,71,71,,,,,,,,,,None,1089.8403031000053,1089.8403031000053,1089.8403031000053,1089.8403031000053,1089.8403031000053,1089.8403031000053,f,0.6545367000508122,1090.5219824999804,1090.5219824999804,1090.5219824999804,1090.5219824999804,1090.5219824999804,1090.5219824999804,1090.8211146999965,1090.8211146999965,1092.7990993999992,1092.7990993999992,1092.7990993999992,1092.7990993999992,1092.7990993999992,1092.7990993999992,1092.7990993999992,1092.7990993999992,1092.7990993999992,1092.7990993999992,1092.7990993999992,1092.7990993999992,1092.7990993999992,1092.7990993999992,1092.7990993999992,1092.7990993999992,1092.7990993999992,66,23,39,58,23,75,None,None,,,,,,,,,,,,,[],[],[],[],[],[],[],-0.2,1,27,[0.18333333333333332],[-0.30648148148148147],[1],[0],[0],[4.001426400034688],['tijiao_random_2'],1099.333991499967,1099.333991499967,1099.333991499967,1099.333991499967,9.231481481481481,5.180326000030618,1104.5323339999886,1106.2290755999857,1095.3201045999886,1095.3201045999886,1095.3201045999886,1095.3201045999886,1095.3201045999886,1095.3201045999886,1095.3201045999886,1095.3201045999886,0.006933600001502782,1095.3201045999886,,,,,,,,,,,262,f,22,2023-03-26_11h58.48.738,RL,2022.2.4,60.037199066201836,
1,-0.3,-0.225,0,72,72,72,,,,,,,,,,None,1106.2290755999857,1106.2290755999857,1106.2290755999857,1106.2290755999857,1106.2290755999857,1106.2290755999857,None,,,,,,,,,,,,,,,,,,,,,,,,,,,58,17,28,52,0,**,None,None,,,,,,,,,,,,,[],[],[],[],[],[],[],-0.2,1,,[],[],[],[],[],[],[],,,,,None,None,1113.77434850001,1115.6865759000066,,,,,,,,,,,,,,,,1107.7687363000005,1113.77434850001,,,,262,f,22,2023-03-26_11h58.48.738,RL,2022.2.4,60.037199066201836,
0,0.3,0.225,0,73,73,73,,,,,,,,,,None,1115.6865759000066,1115.6865759000066,1115.6865759000066,1115.6865759000066,1115.6865759000066,1115.6865759000066,i,0.2634954000241123,1115.9725624999846,1115.9725624999846,1115.9725624999846,1115.9725624999846,1115.9725624999846,1115.9725624999846,1116.2684837999986,1116.2684837999986,1118.1963232000126,1118.1963232000126,1118.1963232000126,1118.1963232000126,1118.1963232000126,1118.1963232000126,1118.1963232000126,1118.1963232000126,1118.1963232000126,1118.1963232000126,1118.1963232000126,1118.1963232000126,1118.1963232000126,1118.1963232000126,1118.1963232000126,1118.1963232000126,1118.1963232000126,49,23,37,57,37,61,None,None,,,,,,,,,,,,,[],[],[],[],[],[],[],0.2,1,30,[0.041666666666666664],[-0.2657407407407407],[1],[0],[0],[4.019860400003381],['tijiao_random_2'],1124.7496160999872,1124.7496160999872,1124.7496160999872,1124.7496160999872,5.944444444444445,1.7881749999942258,1126.5558738000109,1128.0689752000035,1120.7156633000122,1120.7156633000122,1120.7156633000122,1120.7156633000122,1120.7156633000122,1120.7156633000122,1120.7156633000122,1120.7156633000122,0.006707400025334209,1120.7156633000122,,,,,,,,,,,262,f,22,2023-03-26_11h58.48.738,RL,2022.2.4,60.037199066201836,
1,-0.3,-0.225,0,74,74,74,,,,,,,,,,None,1128.0689752000035,1128.0689752000035,1128.0689752000035,1128.0689752000035,1128.0689752000035,1128.0689752000035,j,0.4740940999472514,1128.5711056999862,1128.5711056999862,1128.5711056999862,1128.5711056999862,1128.5711056999862,1128.5711056999862,1128.8674948000116,1128.8674948000116,1130.3131022999878,1130.3131022999878,1130.3131022999878,1130.3131022999878,1130.3131022999878,1130.3131022999878,1130.3131022999878,1130.3131022999878,1130.3131022999878,1130.3131022999878,1130.3131022999878,1130.3131022999878,1130.3131022999878,1130.3131022999878,1130.3131022999878,1130.3131022999878,1130.3131022999878,53,26,34,57,57,73,7.0,2.725459099980071,,,,,,,,,,,,,[],[],[],[],[],[],[],0.6,3,,[],[],[],[],[],[],[],,,,,None,None,1135.574157199997,1137.2938574000145,,,,,,,,,,,1132.8223054999835,1132.8223054999835,1132.8223054999835,1132.8223054999835,1132.8223054999835,,,,,,262,f,22,2023-03-26_11h58.48.738,RL,2022.2.4,60.037199066201836,
0,0.3,0.225,0,75,75,75,,,,,,,,,,q,1175.8731375999632,1175.8731375999632,1175.8731375999632,1175.8731375999632,1175.8731375999632,1175.8731375999632,r,1.4072265000431798,1177.3038806999684,1177.3038806999684,1177.3038806999684,1177.3038806999684,1177.3038806999684,1177.3038806999684,1177.6009299000143,1177.6009299000143,1178.7311004999792,1178.7311004999792,1178.7475404000143,1178.7475404000143,1178.7475404000143,1178.7475404000143,1178.7475404000143,1178.7475404000143,1178.7475404000143,1178.7475404000143,1178.7475404000143,1178.7475404000143,1178.7475404000143,1178.7475404000143,1178.7475404000143,1178.7475404000143,1178.7475404000143,48,24,34,60,48,86,None,None,,,,,,,,,,,,,[],[],[],[],[],[],[],-0.6,1,40,[0.03888888888888889],[-0.3287037037037037],[1],[0],[0],[5.249649100005627],['tijiao_random_2'],1186.5316140999785,1186.5316140999785,1186.5316140999785,1186.5316140999785,5.944444444444445,1.9541755000245757,1188.5032658000127,1190.432544099982,1181.2683112999657,1181.2683112999657,1181.2683112999657,1181.2683112999657,1181.2683112999657,1181.2683112999657,1181.2683112999657,1181.2683112999657,0.007111600018106401,1181.2683112999657,,,,,,,,1137.2938574000145,1137.2938574000145,38.55285499995807,262,f,22,2023-03-26_11h58.48.738,RL,2022.2.4,60.037199066201836,
1,-0.3,-0.225,0,76,76,76,,,,,,,,,,None,1190.432544099982,1190.432544099982,1190.432544099982,1190.432544099982,1190.432544099982,1190.432544099982,f,1.1441445000236854,1191.596909899963,1191.596909899963,1191.596909899963,1191.596909899963,1191.596909899963,1191.596909899963,1191.895274200011,1191.895274200011,1193.407889199967,1193.407889199967,1193.4243486999767,1193.4243486999767,1193.4243486999767,1193.4243486999767,1193.4243486999767,1193.4243486999767,1193.4243486999767,1193.4243486999767,1193.4243486999767,1193.4243486999767,1193.4243486999767,1193.4243486999767,1193.4243486999767,1193.4243486999767,1193.4243486999767,48,21,37,55,21,69,4.0,2.409154799999669,,,,,,,,,,,,,[],[],[],[],[],[],[],0.2,3,,[],[],[],[],[],[],[],,,,,None,None,1198.3705171999754,1199.8896631000098,,,,,,,,,,,1195.9330628999742,1195.9330628999742,1195.9330628999742,1195.9330628999742,1195.9330628999742,,,,,,262,f,22,2023-03-26_11h58.48.738,RL,2022.2.4,60.037199066201836,
0,0.3,0.225,0,77,77,77,,,,,,,,,,None,1199.8896631000098,1199.8896631000098,1199.8896631000098,1199.8896631000098,1199.8896631000098,1199.8896631000098,i,0.6537509000045247,1200.574288600008,1200.574288600008,1200.574288600008,1200.574288600008,1200.574288600008,1200.574288600008,1200.8710023000021,1200.8710023000021,1202.2173265999882,1202.2173265999882,1202.2339175000088,1202.2339175000088,1202.2339175000088,1202.2339175000088,1202.2339175000088,1202.2339175000088,1202.2339175000088,1202.2339175000088,1202.2339175000088,1202.2339175000088,1202.2339175000088,1202.2339175000088,1202.2339175000088,1202.2339175000088,1202.2339175000088,47,29,25,60,25,56,None,None,1204.744665300008,1204.744665300008,1204.744665300008,1204.744665300008,1204.744665300008,1204.744665300008,1204.744665300008,1204.744665300008,0.006699400022625923,1204.744665300008,20,20,[0.11018518518518519],[-0.2898148148148148],[1],[0],[0],[3.945428099948913],['tijiao'],0.2,0,,[],[],[],[],[],[],[],1208.711383100017,1208.711383100017,1208.711383100017,1208.711383100017,8.064814814814815,3.143862299970351,1211.8728277999908,1213.5192241999903,,,,,,,,,,,,,,,,,,,,,262,f,22,2023-03-26_11h58.48.738,RL,2022.2.4,60.037199066201836,
1,-0.3,-0.225,0,78,78,78,,,,,,,,,,None,1213.5192241999903,1213.5192241999903,1213.5192241999903,1213.5192241999903,1213.5192241999903,1213.5192241999903,j,0.38564160000532866,1213.9377136999974,1213.9377136999974,1213.9377136999974,1213.9377136999974,1213.9377136999974,1213.9377136999974,1214.2348515000194,1214.2348515000194,1215.3481434999849,1215.3481434999849,1215.3481434999849,1215.3481434999849,1215.3481434999849,1215.3481434999849,1215.3481434999849,1215.3481434999849,1215.3481434999849,1215.3481434999849,1215.3481434999849,1215.3481434999849,1215.3481434999849,1215.3481434999849,1215.3481434999849,1215.3481434999849,1215.3481434999849,46,18,20,50,50,56,None,None,1217.859835500014,1217.859835500014,1217.859835500014,1217.859835500014,1217.859835500014,1217.859835500014,1217.859835500014,1217.859835500014,0.007224800006952137,1217.859835500014,48,48,"[0.2111111111111111, 0.17592592592592593]","[-0.28888888888888886, -0.2916666666666667]","[1, 1]","[0, 0]","[0, 0]","[4.527632399986032, 4.909694499976467]",['tijiao'],-0.2,0,,[],[],[],[],[],[],[],1222.7906238000141,1222.7906238000141,1222.7906238000141,1222.7906238000141,9.11111111111111,2.393664199975319,1225.2032877000165,1226.8664014000096,,,,,,,,,,,,,,,,,,,,,262,f,22,2023-03-26_11h58.48.738,RL,2022.2.4,60.037199066201836,
0,0.3,0.225,0,79,79,79,,,,,,,,,,None,1226.8664014000096,1226.8664014000096,1226.8664014000096,1226.8664014000096,1226.8664014000096,1226.8664014000096,r,0.435279100027401,1227.3337703999714,1227.3337703999714,1227.3337703999714,1227.3337703999714,1227.3337703999714,1227.3337703999714,1227.6314527000068,1227.6314527000068,1229.1105539000127,1229.1105539000127,1229.1105539000127,1229.1105539000127,1229.1105539000127,1229.1105539000127,1229.1105539000127,1229.1105539000127,1229.1105539000127,1229.1105539000127,1229.1105539000127,1229.1105539000127,1229.1105539000127,1229.1105539000127,1229.1105539000127,1229.1105539000127,1229.1105539000127,50,26,30,55,50,86,None,None,1231.620693099976,1231.620693099976,1231.620693099976,1231.620693099976,1231.620693099976,1231.620693099976,1231.620693099976,1231.620693099976,0.006344499997794628,1231.620693099976,52,52,[-0.06666666666666667],[-0.31203703703703706],[1],[0],[0],[6.490105500037316],['tijiao'],-0.6,0,,[],[],[],[],[],[],[],1238.1349638999673,1238.1349638999673,1238.1349638999673,1238.1349638999673,6.027777777777778,4.536234400002286,1242.6887270999723,1244.518365899974,,,,,,,,,,,,,,,,,,,,,262,f,22,2023-03-26_11h58.48.738,RL,2022.2.4,60.037199066201836,
1,-0.3,-0.225,0,80,80,80,,,,,,,,,,None,1244.518365899974,1244.518365899974,1244.518365899974,1244.518365899974,1244.518365899974,1244.518365899974,f,0.6799638000084087,1245.218511199986,1245.218511199986,1245.218511199986,1245.218511199986,1245.218511199986,1245.218511199986,1245.5157864000066,1245.5157864000066,1247.3105111999903,1247.3105111999903,1247.3105111999903,1247.3105111999903,1247.3105111999903,1247.3105111999903,1247.3105111999903,1247.3105111999903,1247.3105111999903,1247.3105111999903,1247.3105111999903,1247.3105111999903,1247.3105111999903,1247.3105111999903,1247.3105111999903,1247.3105111999903,1247.3105111999903,56,20,36,50,20,82,1.0,1.4109429000527598,,,,,,,,,,,,,[],[],[],[],[],[],[],0.6,2,,[],[],[],[],[],[],[],,,,,None,None,1251.2582197000156,1253.0784898999846,,,,,,,,,,,1249.8199960999773,1249.8199960999773,1249.8199960999773,1249.8199960999773,1249.8199960999773,,,,,,262,f,22,2023-03-26_11h58.48.738,RL,2022.2.4,60.037199066201836,
0,0.3,0.225,0,81,81,81,,,,,,,,,,None,1253.0784898999846,1253.0784898999846,1253.0784898999846,1253.0784898999846,1253.0784898999846,1253.0784898999846,i,0.8011300000362098,1253.9130088000093,1253.9130088000093,1253.9130088000093,1253.9130088000093,1253.9130088000093,1253.9130088000093,1254.2087555999751,1254.2087555999751,1256.1031075000064,1256.1031075000064,1256.1031075000064,1256.1031075000064,1256.1031075000064,1256.1031075000064,1256.1031075000064,1256.1031075000064,1256.1031075000064,1256.1031075000064,1256.1031075000064,1256.1031075000064,1256.1031075000064,1256.1031075000064,1256.1031075000064,1256.1031075000064,1256.1031075000064,56,17,23,52,23,82,1.0,1.894254999991972,,,,,,,,,,,,,[],[],[],[],[],[],[],-0.6,3,,[],[],[],[],[],[],[],,,,,None,None,1260.5342170000076,1262.4688973000157,,,,,,,,,,,1258.612385299988,1258.612385299988,1258.612385299988,1258.612385299988,1258.612385299988,,,,,,262,f,22,2023-03-26_11h58.48.738,RL,2022.2.4,60.037199066201836,
1,-0.3,-0.225,0,82,82,82,,,,,,,,,,None,1262.4688973000157,1262.4688973000157,1262.4688973000157,1262.4688973000157,1262.4688973000157,1262.4688973000157,j,0.32168480003019795,1262.8209007999976,1262.8209007999976,1262.8209007999976,1262.8209007999976,1262.8209007999976,1262.8209007999976,1263.1177893999848,1263.1177893999848,1264.696601899981,1264.696601899981,1264.696601899981,1264.696601899981,1264.696601899981,1264.696601899981,1264.696601899981,1264.696601899981,1264.696601899981,1264.696601899981,1264.696601899981,1264.696601899981,1264.696601899981,1264.696601899981,1264.696601899981,1264.696601899981,1264.696601899981,49,32,31,57,57,82,None,None,1267.2089311999734,1267.2089311999734,1267.2089311999734,1267.2089311999734,1267.2089311999734,1267.2089311999734,1267.2089311999734,1267.2089311999734,0.007316600007470697,1267.2089311999734,45,45,[0.18796296296296297],[-0.29444444444444445],[1],[0],[0],[7.202884400030598],['tijiao'],0.2,0,,[],[],[],[],[],[],[],1274.4321730000083,1274.4321730000083,1274.4321730000083,1274.4321730000083,5.722222222222222,1.7972186000552028,1276.247084499977,1278.2427895999863,,,,,,,,,,,,,,,,,,,,,262,f,22,2023-03-26_11h58.48.738,RL,2022.2.4,60.037199066201836,
0,0.3,0.225,0,83,83,83,,,,,,,,,,None,1278.2427895999863,1278.2427895999863,1278.2427895999863,1278.2427895999863,1278.2427895999863,1278.2427895999863,r,0.586635599960573,1278.860801999981,1278.860801999981,1278.860801999981,1278.860801999981,1278.860801999981,1278.860801999981,1279.1572736999951,1279.1572736999951,1280.2374858999974,1280.2374858999974,1280.2374858999974,1280.2374858999974,1280.2374858999974,1280.2374858999974,1280.2374858999974,1280.2374858999974,1280.2374858999974,1280.2374858999974,1280.2374858999974,1280.2374858999974,1280.2374858999974,1280.2374858999974,1280.2374858999974,1280.2374858999974,1280.2374858999974,54,24,23,53,54,78,7.0,2.4916198999853805,,,,,,,,,,,,,[],[],[],[],[],[],[],-0.6,3,,[],[],[],[],[],[],[],,,,,None,None,1285.266548899992,1287.0356175999623,,,,,,,,,,,1282.746524999966,1282.746524999966,1282.746524999966,1282.746524999966,1282.746524999966,,,,,,262,f,22,2023-03-26_11h58.48.738,RL,2022.2.4,60.037199066201836,
1,-0.3,-0.225,0,84,84,84,,,,,,,,,,None,1287.0356175999623,1287.0356175999623,1287.0356175999623,1287.0356175999623,1287.0356175999623,1287.0356175999623,f,0.4597533000051044,1287.5216049000155,1287.5216049000155,1287.5216049000155,1287.5216049000155,1287.5216049000155,1287.5216049000155,1287.816711899999,1287.816711899999,1288.6314914000104,1288.6314914000104,1288.6314914000104,1288.6314914000104,1288.6314914000104,1288.6314914000104,1288.6314914000104,1288.6314914000104,1288.6314914000104,1288.6314914000104,1288.6314914000104,1288.6314914000104,1288.6314914000104,1288.6314914000104,1288.6314914000104,1288.6314914000104,1288.6314914000104,43,24,33,49,24,63,4.0,2.5260020999703556,,,,,,,,,,,,,[],[],[],[],[],[],[],0.6,3,,[],[],[],[],[],[],[],,,,,None,None,1293.6956769999815,1295.595051500015,,,,,,,,,,,1291.1402913999627,1291.1402913999627,1291.1402913999627,1291.1402913999627,1291.1402913999627,,,,,,262,f,22,2023-03-26_11h58.48.738,RL,2022.2.4,60.037199066201836,
0,0.3,0.225,0,85,85,85,,,,,,,,,,None,1295.595051500015,1295.595051500015,1295.595051500015,1295.595051500015,1295.595051500015,1295.595051500015,i,0.30129590001888573,1295.9301759999944,1295.9301759999944,1295.9301759999944,1295.9301759999944,1295.9301759999944,1295.9301759999944,1296.2271583999973,1296.2271583999973,1297.5399157999782,1297.5399157999782,1297.5399157999782,1297.5399157999782,1297.5399157999782,1297.5399157999782,1297.5399157999782,1297.5399157999782,1297.5399157999782,1297.5399157999782,1297.5399157999782,1297.5399157999782,1297.5399157999782,1297.5399157999782,1297.5399157999782,1297.5399157999782,1297.5399157999782,51,38,21,55,21,67,4.0,1.4438492999761365,,,,,,,,,,,,,[],[],[],[],[],[],[],-0.2,2,,[],[],[],[],[],[],[],,,,,None,None,1301.520195399993,1303.34073419997,,,,,,,,,,,1300.0492422999814,1300.0492422999814,1300.0492422999814,1300.0492422999814,1300.0492422999814,,,,,,262,f,22,2023-03-26_11h58.48.738,RL,2022.2.4,60.037199066201836,
1,-0.3,-0.225,0,86,86,86,,,,,,,,,,None,1303.34073419997,1303.34073419997,1303.34073419997,1303.34073419997,1303.34073419997,1303.34073419997,j,0.4827481000102125,1303.8579103999655,1303.8579103999655,1303.8579103999655,1303.8579103999655,1303.8579103999655,1303.8579103999655,1304.1555961999693,1304.1555961999693,1305.7179493000149,1305.7179493000149,1305.7179493000149,1305.7179493000149,1305.7179493000149,1305.7179493000149,1305.7179493000149,1305.7179493000149,1305.7179493000149,1305.7179493000149,1305.7179493000149,1305.7179493000149,1305.7179493000149,1305.7179493000149,1305.7179493000149,1305.7179493000149,1305.7179493000149,47,34,31,56,56,62,None,None,1308.2304981999914,1308.2304981999914,1308.2304981999914,1308.2304981999914,1308.2304981999914,1308.2304981999914,1308.2304981999914,1308.2304981999914,0.007942500000353903,1308.2304981999914,55,55,"[0.17222222222222222, -0.13240740740740742]","[0.13055555555555556, -0.3351851851851852]","[1, 1]","[0, 0]","[0, 0]","[1.6177660999819636, 6.571087900025304]",['tijiao'],0.6,0,,[],[],[],[],[],[],[],1314.8236833999981,1314.8236833999981,1314.8236833999981,1314.8236833999981,8.814814814814815,3.041081100003794,1317.8834947000141,1319.496822999965,,,,,,,,,,,,,,,,,,,,,262,f,22,2023-03-26_11h58.48.738,RL,2022.2.4,60.037199066201836,
0,0.3,0.225,0,87,87,87,,,,,,,,,,None,1319.496822999965,1319.496822999965,1319.496822999965,1319.496822999965,1319.496822999965,1319.496822999965,r,1.2856469000107609,1320.8116372000077,1320.8116372000077,1320.8116372000077,1320.8116372000077,1320.8116372000077,1320.8116372000077,1321.1092558999662,1321.1092558999662,1323.0541774000158,1323.0541774000158,1323.0541774000158,1323.0541774000158,1323.0541774000158,1323.0541774000158,1323.0541774000158,1323.0541774000158,1323.0541774000158,1323.0541774000158,1323.0541774000158,1323.0541774000158,1323.0541774000158,1323.0541774000158,1323.0541774000158,1323.0541774000158,1323.0541774000158,48,36,35,55,48,60,None,None,,,,,,,,,,,,,[],[],[],[],[],[],[],-0.2,1,22,"[-0.26481481481481484, -0.11296296296296296]","[-0.32222222222222224, -0.30277777777777776]","[1, 1]","[0, 0]","[0, 0]","[4.8832321999943815, 5.364814499975182]",['tijiao_random_2'],1330.9528077999712,1330.9528077999712,1330.9528077999712,1330.9528077999712,1.0370370370370372,2.85287070000777,1333.823244099971,1335.6694609000115,1325.5755073999753,1325.5755073999753,1325.5755073999753,1325.5755073999753,1325.5755073999753,1325.5755073999753,1325.5755073999753,1325.5755073999753,0.0068373000249266624,1325.5755073999753,,,,,,,,,,,262,f,22,2023-03-26_11h58.48.738,RL,2022.2.4,60.037199066201836,
1,-0.3,-0.225,0,88,88,88,,,,,,,,,,None,1335.6694609000115,1335.6694609000115,1335.6694609000115,1335.6694609000115,1335.6694609000115,1335.6694609000115,f,0.27434940001694486,1335.971478499996,1335.971478499996,1335.971478499996,1335.971478499996,1335.971478499996,1335.971478499996,1336.2678074999712,1336.2678074999712,1338.1630525999935,1338.1630525999935,1338.1630525999935,1338.1630525999935,1338.1630525999935,1338.1630525999935,1338.1630525999935,1338.1630525999935,1338.1630525999935,1338.1630525999935,1338.1630525999935,1338.1630525999935,1338.1630525999935,1338.1630525999935,1338.1630525999935,1338.1630525999935,1338.1630525999935,49,46,32,57,46,55,None,None,1340.6759476999869,1340.6759476999869,1340.6759476999869,1340.6759476999869,1340.6759476999869,1340.6759476999869,1340.6759476999869,1340.6759476999869,0.007354100001975894,1340.6759476999869,36,36,[0.16203703703703703],[-0.32222222222222224],[1],[0],[0],[5.65547559998231],['tijiao'],-0.6,0,,[],[],[],[],[],[],[],1346.3534185999888,1346.3534185999888,1346.3534185999888,1346.3534185999888,3.0277777777777777,2.1292597000137903,1348.5000294999918,1350.3129484999808,,,,,,,,,,,,,,,,,,,,,262,f,22,2023-03-26_11h58.48.738,RL,2022.2.4,60.037199066201836,
0,0.3,0.225,0,89,89,89,,,,,,,,,,None,1350.3129484999808,1350.3129484999808,1350.3129484999808,1350.3129484999808,1350.3129484999808,1350.3129484999808,i,0.4494234000449069,1350.797208999982,1350.797208999982,1350.797208999982,1350.797208999982,1350.797208999982,1350.797208999982,1351.0943212999846,1351.0943212999846,1352.8062930000015,1352.8062930000015,1352.8062930000015,1352.8062930000015,1352.8062930000015,1352.8062930000015,1352.8062930000015,1352.8062930000015,1352.8062930000015,1352.8062930000015,1352.8062930000015,1352.8062930000015,1352.8062930000015,1352.8062930000015,1352.8062930000015,1352.8062930000015,1352.8062930000015,43,46,21,64,21,66,None,None,1355.3190031999839,1355.3190031999839,1355.3190031999839,1355.3190031999839,1355.3190031999839,1355.3190031999839,1355.3190031999839,1355.3190031999839,0.008076999976765364,1355.3190031999839,29,29,[0.026851851851851852],[-0.26666666666666666],[1],[0],[0],[4.675778899982106],['tijiao'],-0.2,0,,[],[],[],[],[],[],[],1360.0174803999835,1360.0174803999835,1360.0174803999835,1360.0174803999835,2.731481481481482,1.678543699963484,1361.7138260999927,1363.5266176000005,,,,,,,,,,,,,,,,,,,,,262,f,22,2023-03-26_11h58.48.738,RL,2022.2.4,60.037199066201836,
1,-0.3,-0.225,0,90,90,90,,,,,,,,,,None,1363.5266176000005,1363.5266176000005,1363.5266176000005,1363.5266176000005,1363.5266176000005,1363.5266176000005,j,0.3831783999921754,1363.9448944000178,1363.9448944000178,1363.9448944000178,1363.9448944000178,1363.9448944000178,1363.9448944000178,1364.2415832999977,1364.2415832999977,1365.9537011999637,1365.9537011999637,1365.9537011999637,1365.9537011999637,1365.9537011999637,1365.9537011999637,1365.9537011999637,1365.9537011999637,1365.9537011999637,1365.9537011999637,1365.9537011999637,1365.9537011999637,1365.9537011999637,1365.9537011999637,1365.9537011999637,1365.9537011999637,1365.9537011999637,32,46,24,61,61,61,7.0,1.0965470999944955,,,,,,,,,,,,,[],[],[],[],[],[],[],0.2,2,,[],[],[],[],[],[],[],,,,,None,None,1369.5867204999668,1371.3058589000138,,,,,,,,,,,1368.4624084999668,1368.4624084999668,1368.4624084999668,1368.4624084999668,1368.4624084999668,,,,,,262,f,22,2023-03-26_11h58.48.738,RL,2022.2.4,60.037199066201836,
