bandit0,black_x_pos_random,black_y_pos_random,trials.thisRepN,trials.thisTrialN,trials.thisN,trials.thisIndex,instru_img1.started,instru_img1.stopped,instru_resp.keys,instru_resp.rt,instru_resp.started,instru_resp.stopped,instru_img2.started,instru_img2.stopped,instru_resp2.keys,instru_resp2.rt,instru_resp2.started,instru_resp2.stopped,fixbefore_2.started,fixbefore_2.stopped,rest_image.started,rest_image.stopped,rest_response.keys,rest_response.started,rest_response.stopped,red.started,red.stopped,green.started,green.stopped,yellow.started,yellow.stopped,blue.started,blue.stopped,choose_bandit.keys,choose_bandit.rt,choose_bandit.started,choose_bandit.stopped,Fixation.started,Fixation.stopped,black.started,black.stopped,red_2.started,red_2.stopped,green_2.started,green_2.stopped,yellow_2.started,yellow_2.stopped,blue_2.started,blue_2.stopped,fixation_2.started,fixation_2.stopped,docs.started,docs.stopped,wait_playerB.started,wait_playerB.stopped,black_com.started,black_com.stopped,reward_sub.started,reward_sub.stopped,palyerb.started,palyerb.stopped,reward__sub.started,reward__sub.stopped,compare.started,compare.stopped,red_compare.started,red_compare.stopped,green_com.started,green_com.stopped,yellow_com.started,yellow_com.stopped,blue_com.started,blue_com.stopped,rewardyellow,rewardred,rewardblue,rewardgreen,subchoose,playerb,image_3.started,image_3.stopped,slider.response,slider.rt,slider.started,slider.stopped,text.started,text.stopped,image_4.started,image_4.stopped,image_5.started,image_5.stopped,expectself.text,expectself.started,expectself.stopped,value_expect_self,expect_self_black.started,expect_self_black.stopped,expect_self.started,expect_self.stopped,expect_self_red.started,expect_self_red.stopped,expect_self_green.started,expect_self_green.stopped,expect_self_yellow.started,expect_self_yellow.stopped,expect_self_blue.started,expect_self_blue.stopped,tijiao.started,tijiao.stopped,tijiao_click.started,tijiao_click.stopped,check.started,check.stopped,random_whicharm,whether_ask,jiantou_random.started,jiantou_random.stopped,expect_red.started,expect_red.stopped,expect_green.started,expect_green.stopped,expect_yellow.started,expect_yellow.stopped,expect_blue.started,expect_blue.stopped,expect_random_2.started,expect_random_2.stopped,expect_random_3.text,expect_random_3.started,expect_random_3.stopped,tijiao_random_2.started,tijiao_random_2.stopped,tijiao_random.started,tijiao_random.stopped,check_2.started,check_2.stopped,slider_2.response,slider_2.rt,slider_2.started,slider_2.stopped,image_7.started,image_7.stopped,confi.started,confi.stopped,notconfi.started,notconfi.stopped,bigx.started,bigx.stopped,intertrialfix.started,intertrialfix.stopped,tijiao_random.x,tijiao_random.y,tijiao_random.leftButton,tijiao_random.midButton,tijiao_random.rightButton,tijiao_random.time,tijiao_random.clicked_name,tijiao_click.x,tijiao_click.y,tijiao_click.leftButton,tijiao_click.midButton,tijiao_click.rightButton,tijiao_click.time,tijiao_click.clicked_name,rest_response.rt,participant,Gender,Age,date,expName,psychopyVersion,frameRate,
,,,,,,,61.0541998000117,None,space,0.932022099965252,61.0541998000117,None,,,,,,,,,,,,,,,,,,,,,,,,,,,,,,,,,,,,,,,,,,,,,,,,,,,,,,,,,,,,,,,,,,,,,,,,,,,,,,,,,,,,,,,,,,,,,,,,,,,,,,,,,,,,,,,,,,,,,,,,,,,,,,,,,,,,,,,,,,,,,,,,,,,,,,,,,,263,m,17,2023_Mar_26_1413,RL,2021.2.3,59.98318069978884,
,,,,,,,,,,,,,62.05212299991399,None,s,15.534086999949068,62.05212299991399,None,,,,,,,,,,,,,,,,,,,,,,,,,,,,,,,,,,,,,,,,,,,,,,,,,,,,,,,,,,,,,,,,,,,,,,,,,,,,,,,,,,,,,,,,,,,,,,,,,,,,,,,,,,,,,,,,,,,,,,,,,,,,,,,,,,,,,,,,,,,,,,,,,,,,263,m,17,2023_Mar_26_1413,RL,2021.2.3,59.98318069978884,
1,-0.3,-0.225,0,0,0,0,,,,,,,,,,,,,77.62494170002174,None,None,None,None,None,None,78.74049250001553,None,78.74049250001553,None,78.74049250001553,None,78.74049250001553,None,i,0.5057846000418067,78.74049250001553,None,78.74049250001553,None,79.39231909997761,None,79.39231909997761,None,79.39231909997761,None,79.39231909997761,None,79.39231909997761,None,79.39231909997761,None,79.68787769996561,None,79.68787769996561,None,81.30154269991908,None,81.30154269991908,None,81.30154269991908,None,81.30154269991908,None,81.30154269991908,None,81.30154269991908,None,81.30154269991908,None,81.30154269991908,None,81.30154269991908,None,45,64,50,67,50,37,83.92564769997261,None,5.0,2.379423200036399,83.92564769997261,None,83.92564769997261,None,83.92564769997261,None,83.92564769997261,None,,None,None,,None,None,None,None,None,None,None,None,None,None,None,None,None,None,None,None,None,None,-0.2,3,None,None,None,None,None,None,None,None,None,None,None,None,,None,None,None,None,None,None,None,None,None,None,None,None,None,None,None,None,None,None,None,None,86.94547369994689,None,,,,,,,,,,,,,,,,263,m,17,2023_Mar_26_1413,RL,2021.2.3,59.98318069978884,
0,0.3,0.225,0,1,1,1,,,,,,,,,,,,,,,None,None,None,None,None,88.54699900001287,None,88.54699900001287,None,88.54699900001287,None,88.54699900001287,None,i,1.1793651999905705,88.54699900001287,None,88.54699900001287,None,89.76871769991703,None,89.76871769991703,None,89.76871769991703,None,89.76871769991703,None,89.76871769991703,None,89.76871769991703,None,90.06173249997664,None,90.06173249997664,None,91.06159699999262,None,91.06159699999262,None,91.06159699999262,None,91.06159699999262,None,91.06159699999262,None,91.06159699999262,None,91.06159699999262,None,91.06159699999262,None,91.06159699999262,None,37,57,53,59,53,32,None,None,None,None,None,None,None,None,None,None,None,None,,None,None,,None,None,None,None,None,None,None,None,None,None,None,None,None,None,None,None,None,None,-0.6,1,93.66424680000637,None,93.66424680000637,None,93.66424680000637,None,93.66424680000637,None,93.66424680000637,None,93.66424680000637,None,40,93.66424680000637,None,93.66424680000637,None,0.010796379996463656,None,93.66424680000637,None,2.953125,1.1013255000580102,99.81065210001543,None,99.81065210001543,None,99.81065210001543,None,99.81065210001543,None,None,None,100.91857320000418,None,0.13802083333333334,-0.3411458333333333,1,0,0,6.082762600039132,tijiao_random_2,,,,,,,,,263,m,17,2023_Mar_26_1413,RL,2021.2.3,59.98318069978884,
1,-0.3,-0.225,0,2,2,2,,,,,,,,,,,,,,,None,None,None,None,None,102.75865350000095,None,102.75865350000095,None,102.75865350000095,None,102.75865350000095,None,i,0.2779171000001952,102.75865350000095,None,102.75865350000095,None,103.08200349996332,None,103.08200349996332,None,103.08200349996332,None,103.08200349996332,None,103.08200349996332,None,103.08200349996332,None,103.37087739992421,104.90547869994771,103.37087739992421,104.90547869994771,104.9379172999179,None,104.9379172999179,None,104.9379172999179,None,104.9379172999179,None,104.9379172999179,None,104.9379172999179,None,104.9379172999179,None,104.9379172999179,None,104.9379172999179,None,39,63,51,56,51,40,None,None,None,None,None,None,None,None,None,None,None,None,50,107.46814459993038,None,50,107.46814459993038,None,107.46814459993038,None,107.46814459993038,None,107.46814459993038,None,107.46814459993038,None,107.46814459993038,None,107.46814459993038,None,0.01584492006804794,None,107.46814459993038,None,-0.2,0,None,None,None,None,None,None,None,None,None,None,None,None,,None,None,None,None,None,None,None,None,8.044270833333334,0.9363763000583276,112.74333019996993,None,112.74333019996993,None,112.74333019996993,None,112.74333019996993,None,None,None,113.69413049996365,None,,,,,,,,0.0013020833333333333,-0.2838541666666667,1,0,0,5.204077600035816,tijiao,,263,m,17,2023_Mar_26_1413,RL,2021.2.3,59.98318069978884,
0,0.3,0.225,0,3,3,3,,,,,,,,,,,,,,,None,None,None,None,None,115.69988219998777,None,115.69988219998777,None,115.69988219998777,None,115.69988219998777,None,i,0.6866211999440566,115.69988219998777,None,115.69988219998777,None,116.43472339992877,None,116.43472339992877,None,116.43472339992877,None,116.43472339992877,None,116.43472339992877,None,116.43472339992877,None,116.73039919999428,None,116.73039919999428,None,117.87874590000138,None,117.87874590000138,None,117.87874590000138,None,117.87874590000138,None,117.87874590000138,None,117.87874590000138,None,117.87874590000138,None,117.87874590000138,None,117.87874590000138,None,42,59,52,60,52,63,None,None,None,None,None,None,None,None,None,None,None,None,50,120.41062310000416,None,50,120.41062310000416,None,120.41062310000416,None,120.41062310000416,None,120.41062310000416,None,120.41062310000416,None,120.41062310000416,None,120.41062310000416,None,0.01419281994458288,None,120.41062310000416,None,-0.6,0,None,None,None,None,None,None,None,None,None,None,None,None,,None,None,None,None,None,None,None,None,9.098958333333332,1.1630233000032604,124.95900289993733,None,124.95900289993733,None,124.95900289993733,None,124.95900289993733,None,None,None,126.13631239999086,None,,,,,,,,0.06770833333333333,-0.2630208333333333,1,0,0,4.5017859999788925,tijiao,,263,m,17,2023_Mar_26_1413,RL,2021.2.3,59.98318069978884,
1,-0.3,-0.225,0,4,4,4,,,,,,,,,,,,,,,None,None,None,None,None,128.02532020001672,None,128.02532020001672,None,128.02532020001672,None,128.02532020001672,None,j,0.36122160009108484,128.02532020001672,None,128.02532020001672,None,128.42046809999738,None,128.42046809999738,None,128.42046809999738,None,128.42046809999738,None,128.42046809999738,None,128.42046809999738,None,128.70538219995797,129.6392917999765,128.70538219995797,129.6392917999765,129.67461579991505,None,129.67461579991505,None,129.67461579991505,None,129.67461579991505,None,129.67461579991505,None,129.67461579991505,None,129.67461579991505,None,129.67461579991505,None,129.67461579991505,None,41,69,56,47,47,46,None,None,None,None,None,None,None,None,None,None,None,None,47,132.1998326999601,None,47,132.1998326999601,None,132.1998326999601,None,132.1998326999601,None,132.1998326999601,None,132.1998326999601,None,132.1998326999601,None,132.1998326999601,None,0.01582981995306909,None,132.1998326999601,None,0.6,0,None,None,None,None,None,None,None,None,None,None,None,None,,None,None,None,None,None,None,None,None,3.994791666666666,0.9336882999632508,137.95183179993182,None,137.95183179993182,None,137.95183179993182,None,137.95183179993182,None,None,None,138.91064749995712,None,,,,,,,,-0.0859375,-0.31640625,1,0,0,5.703207400045358,tijiao,,263,m,17,2023_Mar_26_1413,RL,2021.2.3,59.98318069978884,
0,0.3,0.225,0,5,5,5,,,,,,,,,,,,,,,None,None,None,None,None,140.61778969992884,None,140.61778969992884,None,140.61778969992884,None,140.61778969992884,None,r,0.9090629999991506,140.61778969992884,None,140.61778969992884,None,141.57465429999866,None,141.57465429999866,None,141.57465429999866,None,141.57465429999866,None,141.57465429999866,None,141.57465429999866,None,141.86433160002343,None,141.86433160002343,None,143.29522939992603,None,143.29522939992603,None,143.29522939992603,None,143.29522939992603,None,143.29522939992603,None,143.29522939992603,None,143.29522939992603,None,143.29522939992603,None,143.29522939992603,None,46,73,52,58,46,50,None,None,None,None,None,None,None,None,None,None,None,None,46,145.83474329998717,None,46,145.83474329998717,None,145.83474329998717,None,145.83474329998717,None,145.83474329998717,None,145.83474329998717,None,145.83474329998717,None,145.83474329998717,None,0.007085119956173003,None,145.83474329998717,None,0.6,0,None,None,None,None,None,None,None,None,None,None,None,None,,None,None,None,None,None,None,None,None,3.096354166666667,1.3347252999665216,151.29325659992173,None,151.29325659992173,None,151.29325659992173,None,151.29325659992173,None,None,None,152.65800840000156,None,,,,,,,,0.04296875,-0.2604166666666667,1,0,0,5.412582000019029,tijiao,,263,m,17,2023_Mar_26_1413,RL,2021.2.3,59.98318069978884,
1,-0.3,-0.225,0,6,6,6,,,,,,,,,,,,,,,None,None,None,None,None,154.47683790000156,None,154.47683790000156,None,154.47683790000156,None,154.47683790000156,None,f,1.0299476999789476,154.47683790000156,None,154.47683790000156,None,155.54152129997965,None,155.54152129997965,None,155.54152129997965,None,155.54152129997965,None,155.54152129997965,None,155.54152129997965,None,155.82405980001204,156.80817109998316,155.82405980001204,156.80817109998316,156.8390695999842,None,156.8390695999842,None,156.8390695999842,None,156.8390695999842,None,156.8390695999842,None,156.8390695999842,None,156.8390695999842,None,156.8390695999842,None,156.8390695999842,None,47,74,53,47,74,60,None,None,None,None,None,None,None,None,None,None,None,None,,None,None,,None,None,None,None,None,None,None,None,None,None,None,None,None,None,None,None,None,None,0.6,1,159.38802509999368,None,159.38802509999368,None,159.38802509999368,None,159.38802509999368,None,159.38802509999368,None,159.38802509999368,None,47,159.38802509999368,None,159.38802509999368,None,0.013087559957057238,None,159.38802509999368,None,2.888020833333333,0.8836989999981597,164.53448859998025,None,164.53448859998025,None,164.53448859998025,None,164.53448859998025,None,None,None,165.44596539996564,None,0.01953125,-0.2578125,1,0,0,5.118088799994439,tijiao_random_2,,,,,,,,,263,m,17,2023_Mar_26_1413,RL,2021.2.3,59.98318069978884,
0,0.3,0.225,0,7,7,7,,,,,,,,,,,,,,,None,None,None,None,None,166.98605299997143,None,166.98605299997143,None,166.98605299997143,None,166.98605299997143,None,f,0.8805887999478728,166.98605299997143,None,166.98605299997143,None,167.90731449995656,None,167.90731449995656,None,167.90731449995656,None,167.90731449995656,None,167.90731449995656,None,167.90731449995656,None,168.19923879997805,169.24902290001046,168.19923879997805,169.24902290001046,169.26837870001327,None,169.26837870001327,None,169.26837870001327,None,169.26837870001327,None,169.26837870001327,None,169.26837870001327,None,169.26837870001327,None,169.26837870001327,None,169.26837870001327,None,45,71,49,46,71,25,171.78568570001516,None,6.0,1.7691540999803692,171.78568570001516,None,171.78568570001516,None,171.78568570001516,None,171.78568570001516,None,,None,None,,None,None,None,None,None,None,None,None,None,None,None,None,None,None,None,None,None,None,-0.6,2,None,None,None,None,None,None,None,None,None,None,None,None,,None,None,None,None,None,None,None,None,None,None,None,None,None,None,None,None,None,None,None,None,173.6080282999901,None,,,,,,,,,,,,,,,,263,m,17,2023_Mar_26_1413,RL,2021.2.3,59.98318069978884,
1,-0.3,-0.225,0,8,8,8,,,,,,,,,,,,,,,None,None,None,None,None,175.39218750002328,None,175.39218750002328,None,175.39218750002328,None,175.39218750002328,None,f,1.3847496000817046,175.39218750002328,None,175.39218750002328,None,176.82591739995405,None,176.82591739995405,None,176.82591739995405,None,176.82591739995405,None,176.82591739995405,None,176.82591739995405,None,177.1218318999745,None,177.1218318999745,None,178.77048239996657,None,178.77048239996657,None,178.77048239996657,None,178.77048239996657,None,178.77048239996657,None,178.77048239996657,None,178.77048239996657,None,178.77048239996657,None,178.77048239996657,None,47,77,42,54,77,19,181.2892425999744,None,6.0,1.5217317999340594,181.2892425999744,None,181.2892425999744,None,181.2892425999744,None,181.2892425999744,None,,None,None,,None,None,None,None,None,None,None,None,None,None,None,None,None,None,None,None,None,None,0.2,2,None,None,None,None,None,None,None,None,None,None,None,None,,None,None,None,None,None,None,None,None,None,None,None,None,None,None,None,None,None,None,None,None,182.86525899998378,None,,,,,,,,,,,,,,,,263,m,17,2023_Mar_26_1413,RL,2021.2.3,59.98318069978884,
0,0.3,0.225,0,9,9,9,,,,,,,,,,,,,,,None,None,None,None,None,184.43173059995752,None,184.43173059995752,None,184.43173059995752,None,184.43173059995752,None,f,0.5454227000009269,184.43173059995752,None,184.43173059995752,None,185.01780429994687,None,185.01780429994687,None,185.01780429994687,None,185.01780429994687,None,185.01780429994687,None,185.01780429994687,None,185.31100819993299,186.4619265999645,185.31100819993299,186.4619265999645,186.49638319993392,None,186.49638319993392,None,186.49638319993392,None,186.49638319993392,None,186.49638319993392,None,186.49638319993392,None,186.49638319993392,None,186.49638319993392,None,186.49638319993392,None,45,78,54,47,78,66,189.0173809999833,None,7.0,2.348982600029558,189.0173809999833,None,189.0173809999833,None,189.0173809999833,None,189.0173809999833,None,,None,None,,None,None,None,None,None,None,None,None,None,None,None,None,None,None,None,None,None,None,-0.6,2,None,None,None,None,None,None,None,None,None,None,None,None,,None,None,None,None,None,None,None,None,None,None,None,None,None,None,None,None,None,None,None,None,191.41949789994396,None,,,,,,,,,,,,,,,,263,m,17,2023_Mar_26_1413,RL,2021.2.3,59.98318069978884,
1,-0.3,-0.225,0,10,10,10,,,,,,,,,,,,,,,None,None,None,None,None,193.37120119994506,None,193.37120119994506,None,193.37120119994506,None,193.37120119994506,None,f,0.7157898000441492,193.37120119994506,None,193.37120119994506,None,194.1386069,None,194.1386069,None,194.1386069,None,194.1386069,None,194.1386069,None,194.1386069,None,194.43415899993852,None,194.43415899993852,None,195.59870470000897,None,195.59870470000897,None,195.59870470000897,None,195.59870470000897,None,195.59870470000897,None,195.59870470000897,None,195.59870470000897,None,195.59870470000897,None,195.59870470000897,None,49,80,59,52,80,70,None,None,None,None,None,None,None,None,None,None,None,None,,None,None,,None,None,None,None,None,None,None,None,None,None,None,None,None,None,None,None,None,None,0.2,1,198.14457429992035,None,198.14457429992035,None,198.14457429992035,None,198.14457429992035,None,198.14457429992035,None,198.14457429992035,None,50,198.14457429992035,None,198.14457429992035,None,0.016642260015942156,None,198.14457429992035,None,5.973958333333333,1.1604309000540525,203.11450279993005,None,203.11450279993005,None,203.11450279993005,None,203.11450279993005,None,None,None,204.2902150999289,None,0.02734375,-0.3606770833333333,1,0,0,4.437326000072062,tijiao_random_2,,,,,,,,,263,m,17,2023_Mar_26_1413,RL,2021.2.3,59.98318069978884,
0,0.3,0.225,0,11,11,11,,,,,,,,,,,,,,,None,None,None,None,None,206.0966065999819,None,206.0966065999819,None,206.0966065999819,None,206.0966065999819,None,f,0.9604953000089154,206.0966065999819,None,206.0966065999819,None,207.0997508999426,None,207.0997508999426,None,207.0997508999426,None,207.0997508999426,None,207.0997508999426,None,207.0997508999426,None,207.3933671999257,None,207.3933671999257,None,208.5242014999967,None,208.5242014999967,None,208.5242014999967,None,208.5242014999967,None,208.5242014999967,None,208.5242014999967,None,208.5242014999967,None,208.5242014999967,None,208.5242014999967,None,48,85,53,51,85,16,None,None,None,None,None,None,None,None,None,None,None,None,,None,None,,None,None,None,None,None,None,None,None,None,None,None,None,None,None,None,None,None,None,0.6,1,211.07741859997623,None,211.07741859997623,None,211.07741859997623,None,211.07741859997623,None,211.07741859997623,None,211.07741859997623,None,47,211.07741859997623,None,211.07741859997623,None,0.009989459998905659,None,211.07741859997623,None,3.057291666666667,0.772897299961187,215.16556549991947,None,215.16556549991947,None,215.16556549991947,None,215.16556549991947,None,None,None,215.95538399997167,None,0.057291666666666664,-0.2994791666666667,1,0,0,4.046746199950576,tijiao_random_2,,,,,,,,,263,m,17,2023_Mar_26_1413,RL,2021.2.3,59.98318069978884,
1,-0.3,-0.225,0,12,12,12,,,,,,,,,,,,,,,None,None,None,None,None,217.88801090000197,None,217.88801090000197,None,217.88801090000197,None,217.88801090000197,None,f,0.07012670009862632,217.88801090000197,None,217.88801090000197,None,218.0070367999142,None,218.0070367999142,None,218.0070367999142,None,218.0070367999142,None,218.0070367999142,None,218.0070367999142,None,218.30058659997303,219.13473079993855,218.30058659997303,219.13473079993855,219.1714542999398,None,219.1714542999398,None,219.1714542999398,None,219.1714542999398,None,219.1714542999398,None,219.1714542999398,None,219.1714542999398,None,219.1714542999398,None,219.1714542999398,None,48,78,52,55,78,28,None,None,None,None,None,None,None,None,None,None,None,None,,None,None,,None,None,None,None,None,None,None,None,None,None,None,None,None,None,None,None,None,None,0.2,1,221.7153489999473,None,221.7153489999473,None,221.7153489999473,None,221.7153489999473,None,221.7153489999473,None,221.7153489999473,None,50,221.7153489999473,None,221.7153489999473,None,0.011251320014707744,None,221.7153489999473,None,3.890625,2.9094014998991042,225.54513109999243,None,225.54513109999243,None,225.54513109999243,None,225.54513109999243,None,None,None,228.47382169996854,None,0.06640625,-0.2734375,1,0,0,3.7988890999695286,tijiao_random_2,,,,,,,,,263,m,17,2023_Mar_26_1413,RL,2021.2.3,59.98318069978884,
0,0.3,0.225,0,13,13,13,,,,,,,,,,,,,,,None,None,None,None,None,230.00852389994543,None,230.00852389994543,None,230.00852389994543,None,230.00852389994543,None,f,0.6997354000341147,230.00852389994543,None,230.00852389994543,None,230.75299599999562,None,230.75299599999562,None,230.75299599999562,None,230.75299599999562,None,230.75299599999562,None,230.75299599999562,None,231.04318099992815,232.6439878999954,231.04318099992815,232.6439878999954,232.67967310000677,None,232.67967310000677,None,232.67967310000677,None,232.67967310000677,None,232.67967310000677,None,232.67967310000677,None,232.67967310000677,None,232.67967310000677,None,232.67967310000677,None,48,78,46,53,78,53,235.19896269997116,None,7.0,2.484264299971983,235.19896269997116,None,235.19896269997116,None,235.19896269997116,None,235.19896269997116,None,,None,None,,None,None,None,None,None,None,None,None,None,None,None,None,None,None,None,None,None,None,0.2,3,None,None,None,None,None,None,None,None,None,None,None,None,,None,None,None,None,None,None,None,None,None,None,None,None,None,None,None,None,None,None,None,None,237.7396568999393,None,,,,,,,,,,,,,,,,263,m,17,2023_Mar_26_1413,RL,2021.2.3,59.98318069978884,
1,-0.3,-0.225,0,14,14,14,,,,,,,,,,,,,,,None,None,None,None,None,239.2694503000239,None,239.2694503000239,None,239.2694503000239,None,239.2694503000239,None,f,0.41890320007223636,239.2694503000239,None,239.2694503000239,None,239.73583030002192,None,239.73583030002192,None,239.73583030002192,None,239.73583030002192,None,239.73583030002192,None,239.73583030002192,None,240.03254289994948,None,240.03254289994948,None,241.24554049992003,None,241.24554049992003,None,241.24554049992003,None,241.24554049992003,None,241.24554049992003,None,241.24554049992003,None,241.24554049992003,None,241.24554049992003,None,241.24554049992003,None,53,87,42,48,87,60,243.77192839991767,None,7.0,1.5486826000269502,243.77192839991767,None,243.77192839991767,None,243.77192839991767,None,243.77192839991767,None,,None,None,,None,None,None,None,None,None,None,None,None,None,None,None,None,None,None,None,None,None,-0.2,3,None,None,None,None,None,None,None,None,None,None,None,None,,None,None,None,None,None,None,None,None,None,None,None,None,None,None,None,None,None,None,None,None,245.37434779992327,None,,,,,,,,,,,,,,,,263,m,17,2023_Mar_26_1413,RL,2021.2.3,59.98318069978884,
0,0.3,0.225,0,15,15,15,,,,,,,,,,,,,,,None,None,None,None,None,247.29127709998284,None,247.29127709998284,None,247.29127709998284,None,247.29127709998284,None,f,0.3870947000104934,247.29127709998284,None,247.29127709998284,None,247.72428590001073,None,247.72428590001073,None,247.72428590001073,None,247.72428590001073,None,247.72428590001073,None,247.72428590001073,None,248.0216224999167,None,248.0216224999167,None,249.43595089996234,None,249.43595089996234,None,249.43595089996234,None,249.43595089996234,None,249.43595089996234,None,249.43595089996234,None,249.43595089996234,None,249.43595089996234,None,249.43595089996234,None,49,89,45,53,89,7,None,None,None,None,None,None,None,None,None,None,None,None,,None,None,,None,None,None,None,None,None,None,None,None,None,None,None,None,None,None,None,None,None,-0.6,1,251.98879099998157,None,251.98879099998157,None,251.98879099998157,None,251.98879099998157,None,251.98879099998157,None,251.98879099998157,None,47,251.98879099998157,None,251.98879099998157,None,0.009955559973604977,None,251.98879099998157,None,2.848958333333333,1.9985822000307962,257.3659165999852,None,257.3659165999852,None,257.3659165999852,None,257.3659165999852,None,None,None,259.3788159999531,None,0.07942708333333333,-0.2994791666666667,1,0,0,5.347445099963807,tijiao_random_2,,,,,,,,,263,m,17,2023_Mar_26_1413,RL,2021.2.3,59.98318069978884,
1,-0.3,-0.225,0,16,16,16,,,,,,,,,,,,,,,None,None,None,None,None,261.200954800006,None,261.200954800006,None,261.200954800006,None,261.200954800006,None,f,0.007550400099717081,261.200954800006,None,261.200954800006,None,261.27475119999144,None,261.27475119999144,None,261.27475119999144,None,261.27475119999144,None,261.27475119999144,None,261.27475119999144,None,261.5643527000211,None,261.5643527000211,None,263.2158413999714,None,263.2158413999714,None,263.2158413999714,None,263.2158413999714,None,263.2158413999714,None,263.2158413999714,None,263.2158413999714,None,263.2158413999714,None,263.2158413999714,None,52,86,41,51,86,49,None,None,None,None,None,None,None,None,None,None,None,None,80,265.7430841999594,None,80,265.7430841999594,None,265.7430841999594,None,265.7430841999594,None,265.7430841999594,None,265.7430841999594,None,265.7430841999594,None,265.7430841999594,None,0.015122220036573708,None,265.7430841999594,None,0.6,0,None,None,None,None,None,None,None,None,None,None,None,None,,None,None,None,None,None,None,None,None,10.1015625,1.265215800027363,271.24801699991804,None,271.24801699991804,None,271.24801699991804,None,271.24801699991804,None,None,None,272.53687539999373,None,,,,,,,,0.07291666666666667,-0.2604166666666667,1,0,0,5.454106500023045,tijiao,,263,m,17,2023_Mar_26_1413,RL,2021.2.3,59.98318069978884,
0,0.3,0.225,0,17,17,17,,,,,,,,,,,,,,,None,None,None,None,None,274.27647899999283,None,274.27647899999283,None,274.27647899999283,None,274.27647899999283,None,f,0.46271949994843453,274.27647899999283,None,274.27647899999283,None,274.7818344000261,None,274.7818344000261,None,274.7818344000261,None,274.7818344000261,None,274.7818344000261,None,274.7818344000261,None,275.0568529999582,276.19104339997284,275.0568529999582,276.19104339997284,276.2213963000104,None,276.2213963000104,None,276.2213963000104,None,276.2213963000104,None,276.2213963000104,None,276.2213963000104,None,276.2213963000104,None,276.2213963000104,None,276.2213963000104,None,48,82,38,54,82,57,None,None,None,None,None,None,None,None,None,None,None,None,80,278.75746949994937,None,80,278.75746949994937,None,278.75746949994937,None,278.75746949994937,None,278.75746949994937,None,278.75746949994937,None,278.75746949994937,None,278.75746949994937,None,0.009975320077501237,None,278.75746949994937,None,-0.6,0,None,None,None,None,None,None,None,None,None,None,None,None,,None,None,None,None,None,None,None,None,10.1015625,1.3753520000027493,282.78889209998306,None,282.78889209998306,None,282.78889209998306,None,282.78889209998306,None,None,None,284.18587819999084,None,,,,,,,,0.09895833333333333,-0.2786458333333333,1,0,0,3.980089099961333,tijiao,,263,m,17,2023_Mar_26_1413,RL,2021.2.3,59.98318069978884,
1,-0.3,-0.225,0,18,18,18,,,,,,,,,,,,,,,None,None,None,None,None,285.9512869999744,None,285.9512869999744,None,285.9512869999744,None,285.9512869999744,None,f,0.48723620001692325,285.9512869999744,None,285.9512869999744,None,286.49265179992653,None,286.49265179992653,None,286.49265179992653,None,286.49265179992653,None,286.49265179992653,None,286.49265179992653,None,286.7818300999934,288.53310210001655,286.7818300999934,288.53310210001655,288.56438439991325,None,288.56438439991325,None,288.56438439991325,None,288.56438439991325,None,288.56438439991325,None,288.56438439991325,None,288.56438439991325,None,288.56438439991325,None,288.56438439991325,None,57,79,38,53,79,64,291.0902912999736,None,7.0,1.7672730999765918,291.0902912999736,None,291.0902912999736,None,291.0902912999736,None,291.0902912999736,None,,None,None,,None,None,None,None,None,None,None,None,None,None,None,None,None,None,None,None,None,None,-0.2,3,None,None,None,None,None,None,None,None,None,None,None,None,,None,None,None,None,None,None,None,None,None,None,None,None,None,None,None,None,None,None,None,None,292.91155610000715,None,,,,,,,,,,,,,,,,263,m,17,2023_Mar_26_1413,RL,2021.2.3,59.98318069978884,
0,0.3,0.225,0,19,19,19,,,,,,,,,,,,,,,None,None,None,None,None,294.44080739992205,None,294.44080739992205,None,294.44080739992205,None,294.44080739992205,None,f,0.3479671999812126,294.44080739992205,None,294.44080739992205,None,294.8353201999562,None,294.8353201999562,None,294.8353201999562,None,294.8353201999562,None,294.8353201999562,None,294.8353201999562,None,295.12076909991447,None,295.12076909991447,None,296.2180315000005,None,296.2180315000005,None,296.2180315000005,None,296.2180315000005,None,296.2180315000005,None,296.2180315000005,None,296.2180315000005,None,296.2180315000005,None,296.2180315000005,None,47,76,42,57,76,62,298.7382127000019,None,7.0,1.6552899000234902,298.7382127000019,None,298.7382127000019,None,298.7382127000019,None,298.7382127000019,None,,None,None,,None,None,None,None,None,None,None,None,None,None,None,None,None,None,None,None,None,None,0.6,2,None,None,None,None,None,None,None,None,None,None,None,None,,None,None,None,None,None,None,None,None,None,None,None,None,None,None,None,None,None,None,None,None,300.4458665000275,None,,,,,,,,,,,,,,,,263,m,17,2023_Mar_26_1413,RL,2021.2.3,59.98318069978884,
1,-0.3,-0.225,0,20,20,20,,,,,,,,,,,,,,,None,None,None,None,None,301.97976559994277,None,301.97976559994277,None,301.97976559994277,None,301.97976559994277,None,f,0.36906020005699247,301.97976559994277,None,301.97976559994277,None,302.3903620999772,None,302.3903620999772,None,302.3903620999772,None,302.3903620999772,None,302.3903620999772,None,302.3903620999772,None,302.6759603000246,304.0938309999183,302.6759603000246,304.0938309999183,304.12594519997947,None,304.12594519997947,None,304.12594519997947,None,304.12594519997947,None,304.12594519997947,None,304.12594519997947,None,304.12594519997947,None,304.12594519997947,None,304.12594519997947,None,66,81,35,60,81,23,306.64742649998516,None,7.0,1.1527217000257224,306.64742649998516,None,306.64742649998516,None,306.64742649998516,None,306.64742649998516,None,,None,None,,None,None,None,None,None,None,None,None,None,None,None,None,None,None,None,None,None,None,-0.6,2,None,None,None,None,None,None,None,None,None,None,None,None,,None,None,None,None,None,None,None,None,None,None,None,None,None,None,None,None,None,None,None,None,307.85223169997334,None,,,,,,,,,,,,,,,,263,m,17,2023_Mar_26_1413,RL,2021.2.3,59.98318069978884,
0,0.3,0.225,0,21,21,21,,,,,,,,,,,,,,,None,None,None,None,None,309.5003287999425,None,309.5003287999425,None,309.5003287999425,None,309.5003287999425,None,f,0.6184044999536127,309.5003287999425,None,309.5003287999425,None,310.1709954999387,None,310.1709954999387,None,310.1709954999387,None,310.1709954999387,None,310.1709954999387,None,310.1709954999387,None,310.4647653999273,312.21604929992463,310.4647653999273,312.21604929992463,312.2472830999177,None,312.2472830999177,None,312.2472830999177,None,312.2472830999177,None,312.2472830999177,None,312.2472830999177,None,312.2472830999177,None,312.2472830999177,None,312.2472830999177,None,63,86,48,46,86,57,None,None,None,None,None,None,None,None,None,None,None,None,80,314.78415540000424,None,80,314.78415540000424,None,314.78415540000424,None,314.78415540000424,None,314.78415540000424,None,314.78415540000424,None,314.78415540000424,None,314.78415540000424,None,0.009067020029760897,None,314.78415540000424,None,0.2,0,None,None,None,None,None,None,None,None,None,None,None,None,,None,None,None,None,None,None,None,None,11.0,0.8963798000477254,318.75908659992274,None,318.75908659992274,None,318.75908659992274,None,318.75908659992274,None,None,None,319.6705945000285,None,,,,,,,,0.03515625,-0.3151041666666667,1,0,0,3.9297793000005186,tijiao,,263,m,17,2023_Mar_26_1413,RL,2021.2.3,59.98318069978884,
1,-0.3,-0.225,0,22,22,22,,,,,,,,,,,,,,,None,None,None,None,None,321.5767912999727,None,321.5767912999727,None,321.5767912999727,None,321.5767912999727,None,f,0.46220359997823834,321.5767912999727,None,321.5767912999727,None,322.0836029999191,None,322.0836029999191,None,322.0836029999191,None,322.0836029999191,None,322.0836029999191,None,322.0836029999191,None,322.3731451999629,None,322.3731451999629,None,323.53766709996853,None,323.53766709996853,None,323.53766709996853,None,323.53766709996853,None,323.53766709996853,None,323.53766709996853,None,323.53766709996853,None,323.53766709996853,None,323.53766709996853,None,57,77,47,48,77,30,326.0617973000044,None,7.0,1.8694668000098318,326.0617973000044,None,326.0617973000044,None,326.0617973000044,None,326.0617973000044,None,,None,None,,None,None,None,None,None,None,None,None,None,None,None,None,None,None,None,None,None,None,-0.2,3,None,None,None,None,None,None,None,None,None,None,None,None,,None,None,None,None,None,None,None,None,None,None,None,None,None,None,None,None,None,None,None,None,327.9849625999341,None,,,,,,,,,,,,,,,,263,m,17,2023_Mar_26_1413,RL,2021.2.3,59.98318069978884,
0,0.3,0.225,0,23,23,23,,,,,,,,,,,,,,,None,None,None,None,None,329.8482287999941,None,329.8482287999941,None,329.8482287999941,None,329.8482287999941,None,f,0.47068769996985793,329.8482287999941,None,329.8482287999941,None,330.3658039999427,None,330.3658039999427,None,330.3658039999427,None,330.3658039999427,None,330.3658039999427,None,330.3658039999427,None,330.6624083999777,None,330.6624083999777,None,332.3430849999422,None,332.3430849999422,None,332.3430849999422,None,332.3430849999422,None,332.3430849999422,None,332.3430849999422,None,332.3430849999422,None,332.3430849999422,None,332.3430849999422,None,48,74,55,44,74,60,None,None,None,None,None,None,None,None,None,None,None,None,,None,None,,None,None,None,None,None,None,None,None,None,None,None,None,None,None,None,None,None,None,0.6,1,334.91121749999,None,334.91121749999,None,334.91121749999,None,334.91121749999,None,334.91121749999,None,334.91121749999,None,47,334.91121749999,None,334.91121749999,None,0.012028899742290378,None,334.91121749999,None,1.911458333333333,1.5033739999635145,339.1891174999764,None,339.1891174999764,None,339.1891174999764,None,339.1891174999764,None,None,None,340.7214549999917,None,0.11197916666666667,-0.265625,1,0,0,4.248752300045453,tijiao_random_2,,,,,,,,,263,m,17,2023_Mar_26_1413,RL,2021.2.3,59.98318069978884,
1,-0.3,-0.225,0,24,24,24,,,,,,,,,,,,,,,None,None,None,None,None,342.60779789998196,None,342.60779789998196,None,342.60779789998196,None,342.60779789998196,None,f,1.1312826999928802,342.60779789998196,None,342.60779789998196,None,343.7848245999776,None,343.7848245999776,None,343.7848245999776,None,343.7848245999776,None,343.7848245999776,None,343.7848245999776,None,344.0713462999556,345.75613200000953,344.0713462999556,345.75613200000953,345.78837750002276,None,345.78837750002276,None,345.78837750002276,None,345.78837750002276,None,345.78837750002276,None,345.78837750002276,None,345.78837750002276,None,345.78837750002276,None,345.78837750002276,None,55,85,53,50,85,51,348.31008409999777,None,7.0,1.0850105000426993,348.31008409999777,None,348.31008409999777,None,348.31008409999777,None,348.31008409999777,None,,None,None,,None,None,None,None,None,None,None,None,None,None,None,None,None,None,None,None,None,None,-0.6,3,None,None,None,None,None,None,None,None,None,None,None,None,,None,None,None,None,None,None,None,None,None,None,None,None,None,None,None,None,None,None,None,None,349.44836949999444,None,,,,,,,,,,,,,,,,263,m,17,2023_Mar_26_1413,RL,2021.2.3,59.98318069978884,
0,0.3,0.225,0,25,25,25,,,,,,,,,,,,,,,None,None,None,None,None,351.21418409992475,None,351.21418409992475,None,351.21418409992475,None,351.21418409992475,None,f,0.4148919000290334,351.21418409992475,None,351.21418409992475,None,351.68098379997537,None,351.68098379997537,None,351.68098379997537,None,351.68098379997537,None,351.68098379997537,None,351.68098379997537,None,351.9768175999634,None,351.9768175999634,None,353.7252129999688,None,353.7252129999688,None,353.7252129999688,None,353.7252129999688,None,353.7252129999688,None,353.7252129999688,None,353.7252129999688,None,353.7252129999688,None,353.7252129999688,None,48,76,43,38,76,51,356.2540942999767,None,7.0,0.983350700000301,356.2540942999767,None,356.2540942999767,None,356.2540942999767,None,356.2540942999767,None,,None,None,,None,None,None,None,None,None,None,None,None,None,None,None,None,None,None,None,None,None,-0.2,2,None,None,None,None,None,None,None,None,None,None,None,None,,None,None,None,None,None,None,None,None,None,None,None,None,None,None,None,None,None,None,None,None,357.29291560000274,None,,,,,,,,,,,,,,,,263,m,17,2023_Mar_26_1413,RL,2021.2.3,59.98318069978884,
1,-0.3,-0.225,0,26,26,26,,,,,,,,,,,,,,,None,None,None,None,None,358.9520465999376,None,358.9520465999376,None,358.9520465999376,None,358.9520465999376,None,f,0.287196799996309,358.9520465999376,None,358.9520465999376,None,359.2923164999811,None,359.2923164999811,None,359.2923164999811,None,359.2923164999811,None,359.2923164999811,None,359.2923164999811,None,359.5822942999657,None,359.5822942999657,None,360.7653503000038,None,360.7653503000038,None,360.7653503000038,None,360.7653503000038,None,360.7653503000038,None,360.7653503000038,None,360.7653503000038,None,360.7653503000038,None,360.7653503000038,None,61,80,52,37,80,53,None,None,None,None,None,None,None,None,None,None,None,None,80,363.2945737999398,None,80,363.2945737999398,None,363.2945737999398,None,363.2945737999398,None,363.2945737999398,None,363.2945737999398,None,363.2945737999398,None,363.2945737999398,None,0.015932619920931756,None,363.2945737999398,None,-0.2,0,None,None,None,None,None,None,None,None,None,None,None,None,,None,None,None,None,None,None,None,None,11,1.220796399982646,366.5836173999123,None,366.5836173999123,None,366.5836173999123,None,366.5836173999123,None,None,None,367.83248420001473,None,,,,,,,,0.0390625,-0.2981770833333333,1,0,0,3.2360035999445245,tijiao,,263,m,17,2023_Mar_26_1413,RL,2021.2.3,59.98318069978884,
0,0.3,0.225,0,27,27,27,,,,,,,,,,,,,,,None,None,None,None,None,369.36006739991717,None,369.36006739991717,None,369.36006739991717,None,369.36006739991717,None,f,0.32949940010439605,369.36006739991717,None,369.36006739991717,None,369.730646800017,None,369.730646800017,None,369.730646800017,None,369.730646800017,None,369.730646800017,None,369.730646800017,None,370.0228403999936,None,370.0228403999936,None,371.9905216000043,None,371.9905216000043,None,371.9905216000043,None,371.9905216000043,None,371.9905216000043,None,371.9905216000043,None,371.9905216000043,None,371.9905216000043,None,371.9905216000043,None,66,82,39,50,82,63,374.511873899959,None,7.0,1.134628799976781,374.511873899959,None,374.511873899959,None,374.511873899959,None,374.511873899959,None,,None,None,,None,None,None,None,None,None,None,None,None,None,None,None,None,None,None,None,None,None,-0.6,2,None,None,None,None,None,None,None,None,None,None,None,None,,None,None,None,None,None,None,None,None,None,None,None,None,None,None,None,None,None,None,None,None,375.7243402999593,None,,,,,,,,,,,,,,,,263,m,17,2023_Mar_26_1413,RL,2021.2.3,59.98318069978884,
1,-0.3,-0.225,0,28,28,28,,,,,,,,,,,,,,,None,None,None,None,None,377.2981651999289,None,377.2981651999289,None,377.2981651999289,None,377.2981651999289,None,f,0.2913515999680385,377.2981651999289,None,377.2981651999289,None,377.6334980999818,None,377.6334980999818,None,377.6334980999818,None,377.6334980999818,None,377.6334980999818,None,377.6334980999818,None,377.9283327999292,378.87890449992847,377.9283327999292,378.87890449992847,378.912319199997,None,378.912319199997,None,378.912319199997,None,378.912319199997,None,378.912319199997,None,378.912319199997,None,378.912319199997,None,378.912319199997,None,378.912319199997,None,59,75,40,44,75,60,381.43797099997755,None,7.0,0.8664668999845162,381.43797099997755,None,381.43797099997755,None,381.43797099997755,None,381.43797099997755,None,,None,None,,None,None,None,None,None,None,None,None,None,None,None,None,None,None,None,None,None,None,-0.2,3,None,None,None,None,None,None,None,None,None,None,None,None,,None,None,None,None,None,None,None,None,None,None,None,None,None,None,None,None,None,None,None,None,382.35615759994835,None,,,,,,,,,,,,,,,,263,m,17,2023_Mar_26_1413,RL,2021.2.3,59.98318069978884,
0,0.3,0.225,0,29,29,29,,,,,,,,,,,,,,,None,None,None,None,None,384.00362149998546,None,384.00362149998546,None,384.00362149998546,None,384.00362149998546,None,f,0.3569287999998778,384.00362149998546,None,384.00362149998546,None,384.4053752999753,None,384.4053752999753,None,384.4053752999753,None,384.4053752999753,None,384.4053752999753,None,384.4053752999753,None,384.69969439995475,None,384.69969439995475,None,385.95047369995154,None,385.95047369995154,None,385.95047369995154,None,385.95047369995154,None,385.95047369995154,None,385.95047369995154,None,385.95047369995154,None,385.95047369995154,None,385.95047369995154,None,59,72,52,42,72,24,388.4704269999638,None,7.0,0.7833759000059217,388.4704269999638,None,388.4704269999638,None,388.4704269999638,None,388.4704269999638,None,,None,None,,None,None,None,None,None,None,None,None,None,None,None,None,None,None,None,None,None,None,0.6,2,None,None,None,None,None,None,None,None,None,None,None,None,,None,None,None,None,None,None,None,None,None,None,None,None,None,None,None,None,None,None,None,None,389.3045860999264,None,,,,,,,,,,,,,,,,263,m,17,2023_Mar_26_1413,RL,2021.2.3,59.98318069978884,
1,-0.3,-0.225,0,30,30,30,,,,,,,,,,,,,,,None,None,None,None,None,390.8750149999978,None,390.8750149999978,None,390.8750149999978,None,390.8750149999978,None,f,0.2954166999552399,390.8750149999978,None,390.8750149999978,None,391.20903109991923,None,391.20903109991923,None,391.20903109991923,None,391.20903109991923,None,391.20903109991923,None,391.20903109991923,None,391.5043638999341,None,391.5043638999341,None,393.0182675999822,None,393.0182675999822,None,393.0182675999822,None,393.0182675999822,None,393.0182675999822,None,393.0182675999822,None,393.0182675999822,None,393.0182675999822,None,393.0182675999822,None,61,70,41,44,70,65,395.54521739995107,None,6.0,1.567317400011234,395.54521739995107,None,395.54521739995107,None,395.54521739995107,None,395.54521739995107,None,,None,None,,None,None,None,None,None,None,None,None,None,None,None,None,None,None,None,None,None,None,-0.6,2,None,None,None,None,None,None,None,None,None,None,None,None,,None,None,None,None,None,None,None,None,None,None,None,None,None,None,None,None,None,None,None,None,397.1668962999247,None,,,,,,,,,,,,,,,,263,m,17,2023_Mar_26_1413,RL,2021.2.3,59.98318069978884,
0,0.3,0.225,0,31,31,31,,,,,,,,,,,,,,,None,None,None,None,None,399.0137532999506,None,399.0137532999506,None,399.0137532999506,None,399.0137532999506,None,f,0.42674499994609505,399.0137532999506,None,399.0137532999506,None,399.4829928999534,None,399.4829928999534,None,399.4829928999534,None,399.4829928999534,None,399.4829928999534,None,399.4829928999534,None,399.77683190000243,None,399.77683190000243,None,401.20816899999045,None,401.20816899999045,None,401.20816899999045,None,401.20816899999045,None,401.20816899999045,None,401.20816899999045,None,401.20816899999045,None,401.20816899999045,None,401.20816899999045,None,64,74,49,41,74,41,None,None,None,None,None,None,None,None,None,None,None,None,70,403.74571980000474,None,70,403.74571980000474,None,403.74571980000474,None,403.74571980000474,None,403.74571980000474,None,403.74571980000474,None,403.74571980000474,None,403.74571980000474,None,0.009131319937296212,None,403.74571980000474,None,0.2,0,None,None,None,None,None,None,None,None,None,None,None,None,,None,None,None,None,None,None,None,None,9.854166666666668,1.9733148999512196,409.30825080000795,None,409.30825080000795,None,409.30825080000795,None,409.30825080000795,None,None,None,411.3169533999171,None,,,,,,,,0.052083333333333336,-0.24479166666666666,1,0,0,4.997016399982385,tijiao,,263,m,17,2023_Mar_26_1413,RL,2021.2.3,59.98318069978884,
1,-0.3,-0.225,0,32,32,32,,,,,,,,,,,,,,,None,None,None,None,None,413.1235557999462,None,413.1235557999462,None,413.1235557999462,None,413.1235557999462,None,f,0.27690240007359535,413.1235557999462,None,413.1235557999462,None,413.448903099983,None,413.448903099983,None,413.448903099983,None,413.448903099983,None,413.448903099983,None,413.448903099983,None,413.7363659000257,415.1874494999647,413.7363659000257,415.1874494999647,415.2245347999269,None,415.2245347999269,None,415.2245347999269,None,415.2245347999269,None,415.2245347999269,None,415.2245347999269,None,415.2245347999269,None,415.2245347999269,None,415.2245347999269,None,62,69,41,32,69,58,417.7562116999179,None,6.0,1.034944700077176,417.7562116999179,None,417.7562116999179,None,417.7562116999179,None,417.7562116999179,None,,None,None,,None,None,None,None,None,None,None,None,None,None,None,None,None,None,None,None,None,None,0.6,2,None,None,None,None,None,None,None,None,None,None,None,None,,None,None,None,None,None,None,None,None,None,None,None,None,None,None,None,None,None,None,None,None,418.8464410000015,None,,,,,,,,,,,,,,,,263,m,17,2023_Mar_26_1413,RL,2021.2.3,59.98318069978884,
0,0.3,0.225,0,33,33,33,,,,,,,,,,,,,,,None,None,None,None,None,420.81239480001386,None,420.81239480001386,None,420.81239480001386,None,420.81239480001386,None,f,0.32814239989966154,420.81239480001386,None,420.81239480001386,None,421.1864497999195,None,421.1864497999195,None,421.1864497999195,None,421.1864497999195,None,421.1864497999195,None,421.1864497999195,None,421.4753311999375,None,421.4753311999375,None,422.4234835000243,None,422.4234835000243,None,422.4234835000243,None,422.4234835000243,None,422.4234835000243,None,422.4234835000243,None,422.4234835000243,None,422.4234835000243,None,422.4234835000243,None,59,64,41,43,64,63,424.9420227999799,None,6.0,1.8392142999218777,424.9420227999799,None,424.9420227999799,None,424.9420227999799,None,424.9420227999799,None,,None,None,,None,None,None,None,None,None,None,None,None,None,None,None,None,None,None,None,None,None,-0.2,2,None,None,None,None,None,None,None,None,None,None,None,None,,None,None,None,None,None,None,None,None,None,None,None,None,None,None,None,None,None,None,None,None,426.8330316999927,None,,,,,,,,,,,,,,,,263,m,17,2023_Mar_26_1413,RL,2021.2.3,59.98318069978884,
1,-0.3,-0.225,0,34,34,34,,,,,,,,,,,,,,,None,None,None,None,None,428.66769379994366,None,428.66769379994366,None,428.66769379994366,None,428.66769379994366,None,f,0.2829721999587491,428.66769379994366,None,428.66769379994366,None,429.0107997999294,None,429.0107997999294,None,429.0107997999294,None,429.0107997999294,None,429.0107997999294,None,429.0107997999294,None,429.2976694999961,430.8650674999226,429.2976694999961,430.8650674999226,430.8964323999826,None,430.8964323999826,None,430.8964323999826,None,430.8964323999826,None,430.8964323999826,None,430.8964323999826,None,430.8964323999826,None,430.8964323999826,None,430.8964323999826,None,57,57,36,28,57,32,433.4158152999589,None,5.0,1.0043298000236973,433.4158152999589,None,433.4158152999589,None,433.4158152999589,None,433.4158152999589,None,,None,None,,None,None,None,None,None,None,None,None,None,None,None,None,None,None,None,None,None,None,0.2,2,None,None,None,None,None,None,None,None,None,None,None,None,,None,None,None,None,None,None,None,None,None,None,None,None,None,None,None,None,None,None,None,None,434.4723016999196,None,,,,,,,,,,,,,,,,263,m,17,2023_Mar_26_1413,RL,2021.2.3,59.98318069978884,
0,0.3,0.225,0,35,35,35,,,,,,,,,,,,,,,None,None,None,None,None,436.28906079998706,None,436.28906079998706,None,436.28906079998706,None,436.28906079998706,None,f,0.41201279999222606,436.28906079998706,None,436.28906079998706,None,436.74214959994424,None,436.74214959994424,None,436.74214959994424,None,436.74214959994424,None,436.74214959994424,None,436.74214959994424,None,437.03617420000955,None,437.03617420000955,None,438.7842434999766,None,438.7842434999766,None,438.7842434999766,None,438.7842434999766,None,438.7842434999766,None,438.7842434999766,None,438.7842434999766,None,438.7842434999766,None,438.7842434999766,None,53,57,35,31,57,66,441.300800899975,None,4.0,0.7736740000545979,441.300800899975,None,441.300800899975,None,441.300800899975,None,441.300800899975,None,,None,None,,None,None,None,None,None,None,None,None,None,None,None,None,None,None,None,None,None,None,0.2,2,None,None,None,None,None,None,None,None,None,None,None,None,,None,None,None,None,None,None,None,None,None,None,None,None,None,None,None,None,None,None,None,None,442.1281110999407,None,,,,,,,,,,,,,,,,263,m,17,2023_Mar_26_1413,RL,2021.2.3,59.98318069978884,
1,-0.3,-0.225,0,36,36,36,,,,,,,,,,,,,,,None,None,None,None,None,443.82771450001746,None,443.82771450001746,None,443.82771450001746,None,443.82771450001746,None,f,1.3631209000013769,443.82771450001746,None,443.82771450001746,None,445.2299346999498,None,445.2299346999498,None,445.2299346999498,None,445.2299346999498,None,445.2299346999498,None,445.2299346999498,None,445.5251714999322,None,445.5251714999322,None,446.5899334999267,None,446.5899334999267,None,446.5899334999267,None,446.5899334999267,None,446.5899334999267,None,446.5899334999267,None,446.5899334999267,None,446.5899334999267,None,446.5899334999267,None,54,67,35,35,67,60,449.1068850000156,None,5.0,1.525103299994953,449.1068850000156,None,449.1068850000156,None,449.1068850000156,None,449.1068850000156,None,,None,None,,None,None,None,None,None,None,None,None,None,None,None,None,None,None,None,None,None,None,-0.6,2,None,None,None,None,None,None,None,None,None,None,None,None,,None,None,None,None,None,None,None,None,None,None,None,None,None,None,None,None,None,None,None,None,450.69133810000494,None,,,,,,,,,,,,,,,,263,m,17,2023_Mar_26_1413,RL,2021.2.3,59.98318069978884,
0,0.3,0.225,0,37,37,37,,,,,,,,,,,,,,,None,None,None,None,None,452.53399909997825,None,452.53399909997825,None,452.53399909997825,None,452.53399909997825,None,f,0.36683429998811334,452.53399909997825,None,452.53399909997825,None,452.95522539992817,None,452.95522539992817,None,452.95522539992817,None,452.95522539992817,None,452.95522539992817,None,452.95522539992817,None,453.23057679994963,454.14782910002396,453.23057679994963,454.14782910002396,454.1963504999876,None,454.1963504999876,None,454.1963504999876,None,454.1963504999876,None,454.1963504999876,None,454.1963504999876,None,454.1963504999876,None,454.1963504999876,None,454.1963504999876,None,62,67,41,34,67,66,456.7136780999135,None,5.0,0.6051537999883294,456.7136780999135,None,456.7136780999135,None,456.7136780999135,None,456.7136780999135,None,,None,None,,None,None,None,None,None,None,None,None,None,None,None,None,None,None,None,None,None,None,0.6,2,None,None,None,None,None,None,None,None,None,None,None,None,,None,None,None,None,None,None,None,None,None,None,None,None,None,None,None,None,None,None,None,None,457.39631919993553,None,,,,,,,,,,,,,,,,263,m,17,2023_Mar_26_1413,RL,2021.2.3,59.98318069978884,
1,-0.3,-0.225,0,38,38,38,,,,,,,,,,,,,,,None,None,None,None,None,459.35553669999354,None,459.35553669999354,None,459.35553669999354,None,459.35553669999354,None,f,0.33533109992276877,459.35553669999354,None,459.35553669999354,None,459.7391967999283,None,459.7391967999283,None,459.7391967999283,None,459.7391967999283,None,459.7391967999283,None,459.7391967999283,None,460.03547819994856,None,460.03547819994856,None,460.9820287999464,None,460.9820287999464,None,460.9820287999464,None,460.9820287999464,None,460.9820287999464,None,460.9820287999464,None,460.9820287999464,None,460.9820287999464,None,460.9820287999464,None,57,56,33,35,56,63,None,None,None,None,None,None,None,None,None,None,None,None,60,463.5197658999823,None,60,463.5197658999823,None,463.5197658999823,None,463.5197658999823,None,463.5197658999823,None,463.5197658999823,None,463.5197658999823,None,463.5197658999823,None,0.010019619949162006,None,463.5197658999823,None,0.6,0,None,None,None,None,None,None,None,None,None,None,None,None,,None,None,None,None,None,None,None,None,6.989583333333334,3.1066085000056773,468.654666599934,None,468.654666599934,None,468.654666599934,None,468.654666599934,None,None,None,471.7760161999613,None,,,,,,,,0.0026041666666666665,-0.2942708333333333,1,0,0,5.096298899967223,tijiao,,263,m,17,2023_Mar_26_1413,RL,2021.2.3,59.98318069978884,
0,0.3,0.225,0,39,39,39,,,,,,,,,,,,,,,None,None,None,None,None,473.63169539999217,None,473.63169539999217,None,473.63169539999217,None,473.63169539999217,None,f,0.5492300000041723,473.63169539999217,None,473.63169539999217,None,474.24148750002496,None,474.24148750002496,None,474.24148750002496,None,474.24148750002496,None,474.24148750002496,None,474.24148750002496,None,474.5287042999407,476.5301412999397,474.5287042999407,476.5301412999397,476.5675751999952,None,476.5675751999952,None,476.5675751999952,None,476.5675751999952,None,476.5675751999952,None,476.5675751999952,None,476.5675751999952,None,476.5675751999952,None,476.5675751999952,None,60,62,35,40,62,28,479.07845209992956,None,6.0,2.75669240008574,479.07845209992956,None,479.07845209992956,None,479.07845209992956,None,479.07845209992956,None,,None,None,,None,None,None,None,None,None,None,None,None,None,None,None,None,None,None,None,None,None,0.6,3,None,None,None,None,None,None,None,None,None,None,None,None,,None,None,None,None,None,None,None,None,None,None,None,None,None,None,None,None,None,None,None,None,481.889089699951,None,,,,,,,,,,,,,,,,263,m,17,2023_Mar_26_1413,RL,2021.2.3,59.98318069978884,
1,-0.3,-0.225,0,40,40,40,,,,,,,,,,,,,,,None,None,None,None,None,483.6888462000061,None,483.6888462000061,None,483.6888462000061,None,483.6888462000061,None,f,0.4721402000868693,483.6888462000061,None,483.6888462000061,None,484.21080559992697,None,484.21080559992697,None,484.21080559992697,None,484.21080559992697,None,484.21080559992697,None,484.21080559992697,None,484.5025789999636,485.5029674000107,484.5025789999636,485.5029674000107,485.53374169999734,None,485.53374169999734,None,485.53374169999734,None,485.53374169999734,None,485.53374169999734,None,485.53374169999734,None,485.53374169999734,None,485.53374169999734,None,485.53374169999734,None,65,63,29,38,63,66,None,None,None,None,None,None,None,None,None,None,None,None,60,488.0688583999872,None,60,488.0688583999872,None,488.0688583999872,None,488.0688583999872,None,488.0688583999872,None,488.0688583999872,None,488.0688583999872,None,488.0688583999872,None,0.01116472005378455,None,488.0688583999872,None,0.2,0,None,None,None,None,None,None,None,None,None,None,None,None,,None,None,None,None,None,None,None,None,9.033854166666668,1.2079891000175849,492.01937430002727,None,492.01937430002727,None,492.01937430002727,None,492.01937430002727,None,None,None,493.24096359999385,None,,,,,,,,0.04296875,-0.30078125,1,0,0,3.898257500026375,tijiao,,263,m,17,2023_Mar_26_1413,RL,2021.2.3,59.98318069978884,
0,0.3,0.225,0,41,41,41,,,,,,,,,,,,,,,None,None,None,None,None,494.83013539994135,None,494.83013539994135,None,494.83013539994135,None,494.83013539994135,None,i,0.6309473000001162,494.83013539994135,None,494.83013539994135,None,495.50342249998357,None,495.50342249998357,None,495.50342249998357,None,495.50342249998357,None,495.50342249998357,None,495.50342249998357,None,495.79342809994705,496.6606638999656,495.79342809994705,496.6606638999656,496.6914082999574,None,496.6914082999574,None,496.6914082999574,None,496.6914082999574,None,496.6914082999574,None,496.6914082999574,None,496.6914082999574,None,496.6914082999574,None,496.6914082999574,None,65,56,29,39,29,63,499.2092800999526,None,2.0,1.0554731000447646,499.2092800999526,None,499.2092800999526,None,499.2092800999526,None,499.2092800999526,None,,None,None,,None,None,None,None,None,None,None,None,None,None,None,None,None,None,None,None,None,None,-0.2,2,None,None,None,None,None,None,None,None,None,None,None,None,,None,None,None,None,None,None,None,None,None,None,None,None,None,None,None,None,None,None,None,None,500.3269041000167,None,,,,,,,,,,,,,,,,263,m,17,2023_Mar_26_1413,RL,2021.2.3,59.98318069978884,
1,-0.3,-0.225,0,42,42,42,,,,,,,,,,,,,,,None,None,None,None,None,501.85171600000467,None,501.85171600000467,None,501.85171600000467,None,501.85171600000467,None,f,0.3694011999759823,501.85171600000467,None,501.85171600000467,None,502.27500449994113,None,502.27500449994113,None,502.27500449994113,None,502.27500449994113,None,502.27500449994113,None,502.27500449994113,None,502.56475569994655,503.5822901999345,502.56475569994655,503.5822901999345,503.6141793000279,None,503.6141793000279,None,503.6141793000279,None,503.6141793000279,None,503.6141793000279,None,503.6141793000279,None,503.6141793000279,None,503.6141793000279,None,503.6141793000279,None,74,52,37,37,52,61,506.1371999999974,None,3.0,1.7668940000003204,506.1371999999974,None,506.1371999999974,None,506.1371999999974,None,506.1371999999974,None,,None,None,,None,None,None,None,None,None,None,None,None,None,None,None,None,None,None,None,None,None,-0.6,3,None,None,None,None,None,None,None,None,None,None,None,None,,None,None,None,None,None,None,None,None,None,None,None,None,None,None,None,None,None,None,None,None,507.9677779999329,None,,,,,,,,,,,,,,,,263,m,17,2023_Mar_26_1413,RL,2021.2.3,59.98318069978884,
0,0.3,0.225,0,43,43,43,,,,,,,,,,,,,,,None,None,None,None,None,509.59051549993455,None,509.59051549993455,None,509.59051549993455,None,509.59051549993455,None,r,0.6206211999524385,509.59051549993455,None,509.59051549993455,None,510.25998999993317,None,510.25998999993317,None,510.25998999993317,None,510.25998999993317,None,510.25998999993317,None,510.25998999993317,None,510.55382089992054,512.3884511999786,510.55382089992054,512.3884511999786,512.4220246999757,None,512.4220246999757,None,512.4220246999757,None,512.4220246999757,None,512.4220246999757,None,512.4220246999757,None,512.4220246999757,None,512.4220246999757,None,512.4220246999757,None,68,58,33,27,68,23,None,None,None,None,None,None,None,None,None,None,None,None,,None,None,,None,None,None,None,None,None,None,None,None,None,None,None,None,None,None,None,None,None,-0.6,1,514.9683710000245,None,514.9683710000245,None,514.9683710000245,None,514.9683710000245,None,514.9683710000245,None,514.9683710000245,None,65,514.9683710000245,None,514.9683710000245,None,0.013045659987255931,None,514.9683710000245,None,7.953125,1.6296686000423506,520.1522288999986,None,520.1522288999986,None,520.1522288999986,None,520.1522288999986,None,None,None,521.8099697999423,None,0.11328125,-0.33203125,1,0,0,5.150847999961115,tijiao_random_2,,,,,,,,,263,m,17,2023_Mar_26_1413,RL,2021.2.3,59.98318069978884,
1,-0.3,-0.225,0,44,44,44,,,,,,,,,,,,,,,None,None,None,None,None,523.5501089999452,None,523.5501089999452,None,523.5501089999452,None,523.5501089999452,None,r,0.27141849999316037,523.5501089999452,None,523.5501089999452,None,523.8702581999823,None,523.8702581999823,None,523.8702581999823,None,523.8702581999823,None,523.8702581999823,None,523.8702581999823,None,524.1631085999543,None,524.1631085999543,None,525.3169579999521,None,525.3169579999521,None,525.3169579999521,None,525.3169579999521,None,525.3169579999521,None,525.3169579999521,None,525.3169579999521,None,525.3169579999521,None,525.3169579999521,None,74,46,32,48,74,22,None,None,None,None,None,None,None,None,None,None,None,None,70,527.8650044000242,None,70,527.8650044000242,None,527.8650044000242,None,527.8650044000242,None,527.8650044000242,None,527.8650044000242,None,527.8650044000242,None,527.8650044000242,None,0.009564519976265728,None,527.8650044000242,None,-0.2,0,None,None,None,None,None,None,None,None,None,None,None,None,,None,None,None,None,None,None,None,None,8.278645833333334,1.164173899916932,531.7404775000177,None,531.7404775000177,None,531.7404775000177,None,531.7404775000177,None,None,None,532.9186531999148,None,,,,,,,,0.078125,-0.2643229166666667,1,0,0,3.830161799909547,tijiao,,263,m,17,2023_Mar_26_1413,RL,2021.2.3,59.98318069978884,
0,0.3,0.225,0,45,45,45,,,,,,,,,,,,,,,None,None,None,None,None,534.9081587999826,None,534.9081587999826,None,534.9081587999826,None,534.9081587999826,None,r,0.3131350999465212,534.9081587999826,None,534.9081587999826,None,535.2728648999473,None,535.2728648999473,None,535.2728648999473,None,535.2728648999473,None,535.2728648999473,None,535.2728648999473,None,535.5714015000267,None,535.5714015000267,None,536.6230114999926,None,536.6230114999926,None,536.6230114999926,None,536.6230114999926,None,536.6230114999926,None,536.6230114999926,None,536.6230114999926,None,536.6230114999926,None,536.6230114999926,None,73,60,34,43,73,53,None,None,None,None,None,None,None,None,None,None,None,None,70,539.15121609997,None,70,539.15121609997,None,539.15121609997,None,539.15121609997,None,539.15121609997,None,539.15121609997,None,539.15121609997,None,539.15121609997,None,0.015333120012655854,None,539.15121609997,None,0.2,0,None,None,None,None,None,None,None,None,None,None,None,None,,None,None,None,None,None,None,None,None,10.869791666666668,0.817930500023067,542.0986421999987,None,542.0986421999987,None,542.0986421999987,None,542.0986421999987,None,None,None,542.9437406000216,None,,,,,,,,-0.0546875,-0.328125,1,0,0,2.9013077999698,tijiao,,263,m,17,2023_Mar_26_1413,RL,2021.2.3,59.98318069978884,
1,-0.3,-0.225,0,46,46,46,,,,,,,,,,,,,,,None,None,None,None,None,544.6643095000181,None,544.6643095000181,None,544.6643095000181,None,544.6643095000181,None,r,0.2671097000129521,544.6643095000181,None,544.6643095000181,None,544.9873936999356,None,544.9873936999356,None,544.9873936999356,None,544.9873936999356,None,544.9873936999356,None,544.9873936999356,None,545.2776013999246,546.4952509999275,545.2776013999246,546.4952509999275,546.5277306999778,None,546.5277306999778,None,546.5277306999778,None,546.5277306999778,None,546.5277306999778,None,546.5277306999778,None,546.5277306999778,None,546.5277306999778,None,546.5277306999778,None,79,53,35,56,79,52,549.0428266000235,None,7.0,1.4718887000344694,549.0428266000235,None,549.0428266000235,None,549.0428266000235,None,549.0428266000235,None,,None,None,,None,None,None,None,None,None,None,None,None,None,None,None,None,None,None,None,None,None,-0.6,2,None,None,None,None,None,None,None,None,None,None,None,None,,None,None,None,None,None,None,None,None,None,None,None,None,None,None,None,None,None,None,None,None,550.5700096000219,None,,,,,,,,,,,,,,,,263,m,17,2023_Mar_26_1413,RL,2021.2.3,59.98318069978884,
0,0.3,0.225,0,47,47,47,,,,,,,,,,,,,,,None,None,None,None,None,552.286764599965,None,552.286764599965,None,552.286764599965,None,552.286764599965,None,r,0.5657156999222934,552.286764599965,None,552.286764599965,None,552.9116601999849,None,552.9116601999849,None,552.9116601999849,None,552.9116601999849,None,552.9116601999849,None,552.9116601999849,None,553.200248499983,554.5342568999622,553.200248499983,554.5342568999622,554.5645696999272,None,554.5645696999272,None,554.5645696999272,None,554.5645696999272,None,554.5645696999272,None,554.5645696999272,None,554.5645696999272,None,554.5645696999272,None,554.5645696999272,None,75,59,35,48,75,32,None,None,None,None,None,None,None,None,None,None,None,None,,None,None,,None,None,None,None,None,None,None,None,None,None,None,None,None,None,None,None,None,None,0.6,1,557.1126913999906,None,557.1126913999906,None,557.1126913999906,None,557.1126913999906,None,557.1126913999906,None,557.1126913999906,None,47,557.1126913999906,None,557.1126913999906,None,0.015140659990720451,None,557.1126913999906,None,2.966145833333333,2.7184379999525845,561.6646837999579,None,561.6646837999579,None,561.6646837999579,None,561.6646837999579,None,None,None,564.4062293999596,None,0.0026041666666666665,-0.28515625,1,0,0,4.519677500007674,tijiao_random_2,,,,,,,,,263,m,17,2023_Mar_26_1413,RL,2021.2.3,59.98318069978884,
1,-0.3,-0.225,0,48,48,48,,,,,,,,,,,,,,,None,None,None,None,None,566.3966589999618,None,566.3966589999618,None,566.3966589999618,None,566.3966589999618,None,r,0.2659517000429332,566.3966589999618,None,566.3966589999618,None,566.7181869000196,None,566.7181869000196,None,566.7181869000196,None,566.7181869000196,None,566.7181869000196,None,566.7181869000196,None,567.009657699964,568.1435648999177,567.009657699964,568.1435648999177,568.1751395999454,None,568.1751395999454,None,568.1751395999454,None,568.1751395999454,None,568.1751395999454,None,568.1751395999454,None,568.1751395999454,None,568.1751395999454,None,568.1751395999454,None,78,56,36,39,78,36,None,None,None,None,None,None,None,None,None,None,None,None,,None,None,,None,None,None,None,None,None,None,None,None,None,None,None,None,None,None,None,None,None,0.6,1,570.7236205999507,None,570.7236205999507,None,570.7236205999507,None,570.7236205999507,None,570.7236205999507,None,570.7236205999507,None,47,570.7236205999507,None,570.7236205999507,None,0.012663259985856712,None,570.7236205999507,None,2.028645833333333,1.6120876000495628,574.974825299927,None,574.974825299927,None,574.974825299927,None,574.974825299927,None,None,None,576.5989688999252,None,0.052083333333333336,-0.2513020833333333,1,0,0,4.216383099905215,tijiao_random_2,,,,,,,,,263,m,17,2023_Mar_26_1413,RL,2021.2.3,59.98318069978884,
0,0.3,0.225,0,49,49,49,,,,,,,,,,,,,,,None,None,None,None,None,578.3540896999184,None,578.3540896999184,None,578.3540896999184,None,578.3540896999184,None,r,0.8985359000507742,578.3540896999184,None,578.3540896999184,None,579.2972905000206,None,579.2972905000206,None,579.2972905000206,None,579.2972905000206,None,579.2972905000206,None,579.2972905000206,None,579.5850579999387,None,579.5850579999387,None,580.9330631999765,None,580.9330631999765,None,580.9330631999765,None,580.9330631999765,None,580.9330631999765,None,580.9330631999765,None,580.9330631999765,None,580.9330631999765,None,580.9330631999765,None,83,54,41,44,83,60,583.4542574000079,None,7.0,1.4073294999543577,583.4542574000079,None,583.4542574000079,None,583.4542574000079,None,583.4542574000079,None,,None,None,,None,None,None,None,None,None,None,None,None,None,None,None,None,None,None,None,None,None,0.2,2,None,None,None,None,None,None,None,None,None,None,None,None,,None,None,None,None,None,None,None,None,None,None,None,None,None,None,None,None,None,None,None,None,584.9241477999603,None,,,,,,,,,,,,,,,,263,m,17,2023_Mar_26_1413,RL,2021.2.3,59.98318069978884,
1,-0.3,-0.225,0,50,50,50,,,,,,,,,,,,,,,None,None,None,None,None,586.8936299999477,None,586.8936299999477,None,586.8936299999477,None,586.8936299999477,None,r,0.39906710002105683,586.8936299999477,None,586.8936299999477,None,587.3407742999261,None,587.3407742999261,None,587.3407742999261,None,587.3407742999261,None,587.3407742999261,None,587.3407742999261,None,587.6405231999233,None,587.6405231999233,None,589.5216540999245,None,589.5216540999245,None,589.5216540999245,None,589.5216540999245,None,589.5216540999245,None,589.5216540999245,None,589.5216540999245,None,589.5216540999245,None,589.5216540999245,None,72,61,44,37,72,38,None,None,None,None,None,None,None,None,None,None,None,None,70,592.0575719999615,None,70,592.0575719999615,None,592.0575719999615,None,592.0575719999615,None,592.0575719999615,None,592.0575719999615,None,592.0575719999615,None,592.0575719999615,None,0.011807420058175921,None,592.0575719999615,None,0.2,0,None,None,None,None,None,None,None,None,None,None,None,None,,None,None,None,None,None,None,None,None,11,1.4481625999324024,596.785311399959,None,596.785311399959,None,596.785311399959,None,596.785311399959,None,None,None,598.2563612000085,None,,,,,,,,0.05078125,-0.3606770833333333,1,0,0,4.248969599953853,tijiao,,263,m,17,2023_Mar_26_1413,RL,2021.2.3,59.98318069978884,
0,0.3,0.225,0,51,51,51,,,,,,,,,,,,,,,None,None,None,None,None,600.0861374000087,None,600.0861374000087,None,600.0861374000087,None,600.0861374000087,None,r,0.4267581000458449,600.0861374000087,None,600.0861374000087,None,600.5587362999795,None,600.5587362999795,None,600.5587362999795,None,600.5587362999795,None,600.5587362999795,None,600.5587362999795,None,600.8497107999865,602.0673557999544,600.8497107999865,602.0673557999544,602.0977216999745,None,602.0977216999745,None,602.0977216999745,None,602.0977216999745,None,602.0977216999745,None,602.0977216999745,None,602.0977216999745,None,602.0977216999745,None,602.0977216999745,None,85,67,39,50,85,44,None,None,None,None,None,None,None,None,None,None,None,None,75,604.6338000999531,None,75,604.6338000999531,None,604.6338000999531,None,604.6338000999531,None,604.6338000999531,None,604.6338000999531,None,604.6338000999531,None,604.6338000999531,None,0.009988420060835779,None,604.6338000999531,None,-0.2,0,None,None,None,None,None,None,None,None,None,None,None,None,,None,None,None,None,None,None,None,None,10.973958333333332,1.510678100050427,609.6008457000135,None,609.6008457000135,None,609.6008457000135,None,609.6008457000135,None,None,None,611.140910099959,None,,,,,,,,-0.014322916666666666,-0.2643229166666667,1,0,0,4.914194800076075,tijiao,,263,m,17,2023_Mar_26_1413,RL,2021.2.3,59.98318069978884,
1,-0.3,-0.225,0,52,52,52,,,,,,,,,,,,,,,None,None,None,None,None,613.0786618000129,None,613.0786618000129,None,613.0786618000129,None,613.0786618000129,None,r,0.2743756000418216,613.0786618000129,None,613.0786618000129,None,613.4029609999852,None,613.4029609999852,None,613.4029609999852,None,613.4029609999852,None,613.4029609999852,None,613.4029609999852,None,613.6919765999774,615.259882299928,613.6919765999774,615.259882299928,615.2937353999587,None,615.2937353999587,None,615.2937353999587,None,615.2937353999587,None,615.2937353999587,None,615.2937353999587,None,615.2937353999587,None,615.2937353999587,None,615.2937353999587,None,84,49,46,42,84,31,617.8149868999608,None,7.0,1.2329381000017747,617.8149868999608,None,617.8149868999608,None,617.8149868999608,None,617.8149868999608,None,,None,None,,None,None,None,None,None,None,None,None,None,None,None,None,None,None,None,None,None,None,-0.6,2,None,None,None,None,None,None,None,None,None,None,None,None,,None,None,None,None,None,None,None,None,None,None,None,None,None,None,None,None,None,None,None,None,619.1029251000145,None,,,,,,,,,,,,,,,,263,m,17,2023_Mar_26_1413,RL,2021.2.3,59.98318069978884,
0,0.3,0.225,0,53,53,53,,,,,,,,,,,,,,,None,None,None,None,None,620.6344739999622,None,620.6344739999622,None,620.6344739999622,None,620.6344739999622,None,r,1.208485799957998,620.6344739999622,None,620.6344739999622,None,621.8856286000228,None,621.8856286000228,None,621.8856286000228,None,621.8856286000228,None,621.8856286000228,None,621.8856286000228,None,622.1811370999785,None,622.1811370999785,None,623.1136100000003,None,623.1136100000003,None,623.1136100000003,None,623.1136100000003,None,623.1136100000003,None,623.1136100000003,None,623.1136100000003,None,623.1136100000003,None,623.1136100000003,None,79,57,45,38,79,29,None,None,None,None,None,None,None,None,None,None,None,None,,None,None,,None,None,None,None,None,None,None,None,None,None,None,None,None,None,None,None,None,None,0.2,1,625.6631297999993,None,625.6631297999993,None,625.6631297999993,None,625.6631297999993,None,625.6631297999993,None,625.6631297999993,None,60,625.6631297999993,None,625.6631297999993,None,0.012135059922002256,None,625.6631297999993,None,5.192708333333333,3.1806922999676317,630.1963278999319,None,630.1963278999319,None,630.1963278999319,None,630.1963278999319,None,None,None,633.404188000015,None,0.06380208333333333,-0.26953125,1,0,0,4.500567199895158,tijiao_random_2,,,,,,,,,263,m,17,2023_Mar_26_1413,RL,2021.2.3,59.98318069978884,
1,-0.3,-0.225,0,54,54,54,,,,,,,,,,,,,,,None,None,None,None,None,635.2942434999859,None,635.2942434999859,None,635.2942434999859,None,635.2942434999859,None,r,0.26893809996545315,635.2942434999859,None,635.2942434999859,None,635.6163543999428,None,635.6163543999428,None,635.6163543999428,None,635.6163543999428,None,635.6163543999428,None,635.6163543999428,None,635.9074895000085,637.9089955999516,635.9074895000085,637.9089955999516,637.9401936000213,None,637.9401936000213,None,637.9401936000213,None,637.9401936000213,None,637.9401936000213,None,637.9401936000213,None,637.9401936000213,None,637.9401936000213,None,637.9401936000213,None,78,65,42,42,78,50,640.4633848000085,None,7.0,1.0359622000250965,640.4633848000085,None,640.4633848000085,None,640.4633848000085,None,640.4633848000085,None,,None,None,,None,None,None,None,None,None,None,None,None,None,None,None,None,None,None,None,None,None,0.2,2,None,None,None,None,None,None,None,None,None,None,None,None,,None,None,None,None,None,None,None,None,None,None,None,None,None,None,None,None,None,None,None,None,641.5610964000225,None,,,,,,,,,,,,,,,,263,m,17,2023_Mar_26_1413,RL,2021.2.3,59.98318069978884,
0,0.3,0.225,0,55,55,55,,,,,,,,,,,,,,,None,None,None,None,None,643.1658065000083,None,643.1658065000083,None,643.1658065000083,None,643.1658065000083,None,r,0.4072838000720367,643.1658065000083,None,643.1658065000083,None,643.6177619999507,None,643.6177619999507,None,643.6177619999507,None,643.6177619999507,None,643.6177619999507,None,643.6177619999507,None,643.9131462000078,645.1806645999895,643.9131462000078,645.1806645999895,645.2138814999489,None,645.2138814999489,None,645.2138814999489,None,645.2138814999489,None,645.2138814999489,None,645.2138814999489,None,645.2138814999489,None,645.2138814999489,None,645.2138814999489,None,83,62,47,48,83,54,None,None,None,None,None,None,None,None,None,None,None,None,,None,None,,None,None,None,None,None,None,None,None,None,None,None,None,None,None,None,None,None,None,0.6,1,647.7609890999738,None,647.7609890999738,None,647.7609890999738,None,647.7609890999738,None,647.7609890999738,None,647.7609890999738,None,47,647.7609890999738,None,647.7609890999738,None,0.012893659994006157,None,647.7609890999738,None,1.911458333333333,1.2932340999832377,652.0448326999322,None,652.0448326999322,None,652.0448326999322,None,652.0448326999322,None,None,None,653.3522028999869,None,0.08333333333333333,-0.34765625,1,0,0,4.250701699987985,tijiao_random_2,,,,,,,,,263,m,17,2023_Mar_26_1413,RL,2021.2.3,59.98318069978884,
1,-0.3,-0.225,0,56,56,56,,,,,,,,,,,,,,,None,None,None,None,None,655.1584988000104,None,655.1584988000104,None,655.1584988000104,None,655.1584988000104,None,r,0.2548243999481201,655.1584988000104,None,655.1584988000104,None,655.4637289999519,None,655.4637289999519,None,655.4637289999519,None,655.4637289999519,None,655.4637289999519,None,655.4637289999519,None,655.7545003999257,657.3723018999444,655.7545003999257,657.3723018999444,657.403106899932,None,657.403106899932,None,657.403106899932,None,657.403106899932,None,657.403106899932,None,657.403106899932,None,657.403106899932,None,657.403106899932,None,657.403106899932,None,80,66,52,43,80,53,659.9266708999639,None,7.0,1.2330171999055892,659.9266708999639,None,659.9266708999639,None,659.9266708999639,None,659.9266708999639,None,,None,None,,None,None,None,None,None,None,None,None,None,None,None,None,None,None,None,None,None,None,-0.6,3,None,None,None,None,None,None,None,None,None,None,None,None,,None,None,None,None,None,None,None,None,None,None,None,None,None,None,None,None,None,None,None,None,661.2143901999807,None,,,,,,,,,,,,,,,,263,m,17,2023_Mar_26_1413,RL,2021.2.3,59.98318069978884,
0,0.3,0.225,0,57,57,57,,,,,,,,,,,,,,,None,None,None,None,None,663.1634114999324,None,663.1634114999324,None,663.1634114999324,None,663.1634114999324,None,r,0.29012210003565997,663.1634114999324,None,663.1634114999324,None,663.499018499977,None,663.499018499977,None,663.499018499977,None,663.499018499977,None,663.499018499977,None,663.499018499977,None,663.7933755000122,None,663.7933755000122,None,664.7726429000031,None,664.7726429000031,None,664.7726429000031,None,664.7726429000031,None,664.7726429000031,None,664.7726429000031,None,664.7726429000031,None,664.7726429000031,None,664.7726429000031,None,71,66,45,38,71,32,None,None,None,None,None,None,None,None,None,None,None,None,,None,None,,None,None,None,None,None,None,None,None,None,None,None,None,None,None,None,None,None,None,-0.2,1,667.3264805999352,None,667.3264805999352,None,667.3264805999352,None,667.3264805999352,None,667.3264805999352,None,667.3264805999352,None,40,667.3264805999352,None,667.3264805999352,None,0.011053559952415526,None,667.3264805999352,None,1.572916666666667,2.0503540999488905,672.2876206999645,None,672.2876206999645,None,672.2876206999645,None,672.2876206999645,None,None,None,674.3657422999386,None,-0.015625,-0.3138020833333333,1,0,0,4.931050700019114,tijiao_random_2,,,,,,,,,263,m,17,2023_Mar_26_1413,RL,2021.2.3,59.98318069978884,
1,-0.3,-0.225,0,58,58,58,,,,,,,,,,,,,,,None,None,None,None,None,676.3733475999907,None,676.3733475999907,None,676.3733475999907,None,676.3733475999907,None,r,0.8498081000288948,676.3733475999907,None,676.3733475999907,None,677.270609500003,None,677.270609500003,None,677.270609500003,None,677.270609500003,None,677.270609500003,None,677.270609500003,None,677.5699014000129,None,677.5699014000129,None,679.3724683999317,None,679.3724683999317,None,679.3724683999317,None,679.3724683999317,None,679.3724683999317,None,679.3724683999317,None,679.3724683999317,None,679.3724683999317,None,679.3724683999317,None,77,59,44,37,77,35,681.8868116999511,None,7.0,1.272658700007014,681.8868116999511,None,681.8868116999511,None,681.8868116999511,None,681.8868116999511,None,,None,None,,None,None,None,None,None,None,None,None,None,None,None,None,None,None,None,None,None,None,-0.6,2,None,None,None,None,None,None,None,None,None,None,None,None,,None,None,None,None,None,None,None,None,None,None,None,None,None,None,None,None,None,None,None,None,683.213884799974,None,,,,,,,,,,,,,,,,263,m,17,2023_Mar_26_1413,RL,2021.2.3,59.98318069978884,
0,0.3,0.225,0,59,59,59,,,,,,,,,,,,,,,None,None,None,None,None,685.0285417999839,None,685.0285417999839,None,685.0285417999839,None,685.0285417999839,None,r,0.40486909996252507,685.0285417999839,None,685.0285417999839,None,685.4857769999653,None,685.4857769999653,None,685.4857769999653,None,685.4857769999653,None,685.4857769999653,None,685.4857769999653,None,685.7752149999142,None,685.7752149999142,None,686.9733559999149,None,686.9733559999149,None,686.9733559999149,None,686.9733559999149,None,686.9733559999149,None,686.9733559999149,None,686.9733559999149,None,686.9733559999149,None,686.9733559999149,None,70,56,53,43,70,53,None,None,None,None,None,None,None,None,None,None,None,None,,None,None,,None,None,None,None,None,None,None,None,None,None,None,None,None,None,None,None,None,None,-0.6,1,689.5192886999575,None,689.5192886999575,None,689.5192886999575,None,689.5192886999575,None,689.5192886999575,None,689.5192886999575,None,70,689.5192886999575,None,689.5192886999575,None,0.000703220022842288,None,689.5192886999575,None,9.919270833333332,1.3341762999771163,693.0257200999185,None,693.0257200999185,None,693.0257200999185,None,693.0257200999185,None,None,None,694.3638978999807,None,-0.014322916666666666,-0.3346354166666667,1,0,0,3.4542189999483526,tijiao_random_2,,,,,,,,,263,m,17,2023_Mar_26_1413,RL,2021.2.3,59.98318069978884,
1,-0.3,-0.225,0,60,60,60,,,,,,,,,,,,,,,None,None,None,None,None,695.8859063999262,None,695.8859063999262,None,695.8859063999262,None,695.8859063999262,None,r,0.6575651000021026,695.8859063999262,None,695.8859063999262,None,696.5944347999757,None,696.5944347999757,None,696.5944347999757,None,696.5944347999757,None,696.5944347999757,None,696.5944347999757,None,696.8831993999192,698.6177446999354,696.8831993999192,698.6177446999354,698.6500218999572,None,698.6500218999572,None,698.6500218999572,None,698.6500218999572,None,698.6500218999572,None,698.6500218999572,None,698.6500218999572,None,698.6500218999572,None,698.6500218999572,None,65,55,51,41,65,57,701.1724991999799,None,6.0,1.4987135000992566,701.1724991999799,None,701.1724991999799,None,701.1724991999799,None,701.1724991999799,None,,None,None,,None,None,None,None,None,None,None,None,None,None,None,None,None,None,None,None,None,None,0.2,3,None,None,None,None,None,None,None,None,None,None,None,None,,None,None,None,None,None,None,None,None,None,None,None,None,None,None,None,None,None,None,None,None,702.7258628000272,None,,,,,,,,,,,,,,,,263,m,17,2023_Mar_26_1413,RL,2021.2.3,59.98318069978884,
0,0.3,0.225,0,61,61,61,,,,,,,,,,,,,,,None,None,None,None,None,704.4088609999744,None,704.4088609999744,None,704.4088609999744,None,704.4088609999744,None,r,0.2447124000173062,704.4088609999744,None,704.4088609999744,None,704.6948769999435,None,704.6948769999435,None,704.6948769999435,None,704.6948769999435,None,704.6948769999435,None,704.6948769999435,None,704.9887354000239,None,704.9887354000239,None,706.0086753999349,None,706.0086753999349,None,706.0086753999349,None,706.0086753999349,None,706.0086753999349,None,706.0086753999349,None,706.0086753999349,None,706.0086753999349,None,706.0086753999349,None,62,49,52,41,62,56,None,None,None,None,None,None,None,None,None,None,None,None,,None,None,,None,None,None,None,None,None,None,None,None,None,None,None,None,None,None,None,None,None,0.2,1,708.5723033000249,None,708.5723033000249,None,708.5723033000249,None,708.5723033000249,None,708.5723033000249,None,708.5723033000249,None,60,708.5723033000249,None,708.5723033000249,None,0.010557559784501791,None,708.5723033000249,None,6.924479166666666,2.9268704999703914,712.7241898999782,None,712.7241898999782,None,712.7241898999782,None,712.7241898999782,None,None,None,715.6816549999639,None,0.13020833333333334,-0.3307291666666667,1,0,0,4.114781299955212,tijiao_random_2,,,,,,,,,263,m,17,2023_Mar_26_1413,RL,2021.2.3,59.98318069978884,
1,-0.3,-0.225,0,62,62,62,,,,,,,,,,,,,,,None,None,None,None,None,717.5683921999298,None,717.5683921999298,None,717.5683921999298,None,717.5683921999298,None,j,0.9963630000129342,717.5683921999298,None,717.5683921999298,None,718.6119502999354,None,718.6119502999354,None,718.6119502999354,None,718.6119502999354,None,718.6119502999354,None,718.6119502999354,None,718.8982215999858,720.1992976999609,718.8982215999858,720.1992976999609,720.2317457000026,None,720.2317457000026,None,720.2317457000026,None,720.2317457000026,None,720.2317457000026,None,720.2317457000026,None,720.2317457000026,None,720.2317457000026,None,720.2317457000026,None,71,53,55,34,34,61,722.7480780999176,None,3.0,1.7878958999644965,722.7480780999176,None,722.7480780999176,None,722.7480780999176,None,722.7480780999176,None,,None,None,,None,None,None,None,None,None,None,None,None,None,None,None,None,None,None,None,None,None,-0.6,3,None,None,None,None,None,None,None,None,None,None,None,None,,None,None,None,None,None,None,None,None,None,None,None,None,None,None,None,None,None,None,None,None,724.6026178000029,None,,,,,,,,,,,,,,,,263,m,17,2023_Mar_26_1413,RL,2021.2.3,59.98318069978884,
0,0.3,0.225,0,63,63,63,,,,,,,,,,,,,,,None,None,None,None,None,726.3735741999699,None,726.3735741999699,None,726.3735741999699,None,726.3735741999699,None,j,0.3210624000057578,726.3735741999699,None,726.3735741999699,None,726.7454015000258,None,726.7454015000258,None,726.7454015000258,None,726.7454015000258,None,726.7454015000258,None,726.7454015000258,None,727.0373901999556,None,727.0373901999556,None,728.3357863000128,None,728.3357863000128,None,728.3357863000128,None,728.3357863000128,None,728.3357863000128,None,728.3357863000128,None,728.3357863000128,None,728.3357863000128,None,728.3357863000128,None,66,66,57,34,34,66,730.8594032999827,None,3.0,1.683833900024183,730.8594032999827,None,730.8594032999827,None,730.8594032999827,None,730.8594032999827,None,,None,None,,None,None,None,None,None,None,None,None,None,None,None,None,None,None,None,None,None,None,-0.6,2,None,None,None,None,None,None,None,None,None,None,None,None,,None,None,None,None,None,None,None,None,None,None,None,None,None,None,None,None,None,None,None,None,732.5996178999776,None,,,,,,,,,,,,,,,,263,m,17,2023_Mar_26_1413,RL,2021.2.3,59.98318069978884,
1,-0.3,-0.225,0,64,64,64,,,,,,,,,,,,,,,None,None,None,None,None,734.3294813999673,None,734.3294813999673,None,734.3294813999673,None,734.3294813999673,None,i,1.3352480999892578,734.3294813999673,None,734.3294813999673,None,735.7137017999776,None,735.7137017999776,None,735.7137017999776,None,735.7137017999776,None,735.7137017999776,None,735.7137017999776,None,736.0103308999678,None,736.0103308999678,None,736.8574449999724,None,736.8574449999724,None,736.8574449999724,None,736.8574449999724,None,736.8574449999724,None,736.8574449999724,None,736.8574449999724,None,736.8574449999724,None,736.8574449999724,None,62,66,53,36,53,62,None,None,None,None,None,None,None,None,None,None,None,None,50,739.3959874999709,None,50,739.3959874999709,None,739.3959874999709,None,739.3959874999709,None,739.3959874999709,None,739.3959874999709,None,739.3959874999709,None,739.3959874999709,None,0.009504520101472735,None,739.3959874999709,None,0.2,0,None,None,None,None,None,None,None,None,None,None,None,None,,None,None,None,None,None,None,None,None,8.161458333333334,1.0118026999989524,743.1910073999316,None,743.1910073999316,None,743.1910073999316,None,743.1910073999316,None,None,None,744.2150289999554,None,,,,,,,,0.022135416666666668,-0.23828125,1,0,0,3.2631964000174776,tijiao,,263,m,17,2023_Mar_26_1413,RL,2021.2.3,59.98318069978884,
0,0.3,0.225,0,65,65,65,,,,,,,,,,,,,,,None,None,None,None,None,745.9543676999165,None,745.9543676999165,None,745.9543676999165,None,745.9543676999165,None,f,0.6406447000335902,745.9543676999165,None,745.9543676999165,None,746.646325299982,None,746.646325299982,None,746.646325299982,None,746.646325299982,None,746.646325299982,None,746.646325299982,None,746.9345920999767,None,746.9345920999767,None,748.5810808999231,None,748.5810808999231,None,748.5810808999231,None,748.5810808999231,None,748.5810808999231,None,748.5810808999231,None,748.5810808999231,None,748.5810808999231,None,748.5810808999231,None,70,53,50,34,53,67,751.1057492999826,None,2.0,1.8166415999876335,751.1057492999826,None,751.1057492999826,None,751.1057492999826,None,751.1057492999826,None,,None,None,,None,None,None,None,None,None,None,None,None,None,None,None,None,None,None,None,None,None,-0.2,3,None,None,None,None,None,None,None,None,None,None,None,None,,None,None,None,None,None,None,None,None,None,None,None,None,None,None,None,None,None,None,None,None,752.978730999981,None,,,,,,,,,,,,,,,,263,m,17,2023_Mar_26_1413,RL,2021.2.3,59.98318069978884,
1,-0.3,-0.225,0,66,66,66,,,,,,,,,,,,,,,None,None,None,None,None,754.7441969999345,None,754.7441969999345,None,754.7441969999345,None,754.7441969999345,None,r,0.8007095999782905,754.7441969999345,None,754.7441969999345,None,755.5948510000017,None,755.5948510000017,None,755.5948510000017,None,755.5948510000017,None,755.5948510000017,None,755.5948510000017,None,755.8910179999657,756.7579646999948,755.8910179999657,756.7579646999948,756.7893165999558,None,756.7893165999558,None,756.7893165999558,None,756.7893165999558,None,756.7893165999558,None,756.7893165999558,None,756.7893165999558,None,756.7893165999558,None,756.7893165999558,None,62,61,50,34,62,65,None,None,None,None,None,None,None,None,None,None,None,None,60,759.3233607999282,None,60,759.3233607999282,None,759.3233607999282,None,759.3233607999282,None,759.3233607999282,None,759.3233607999282,None,759.3233607999282,None,759.3233607999282,None,0.010843420051969588,None,759.3233607999282,None,-0.2,0,None,None,None,None,None,None,None,None,None,None,None,None,,None,None,None,None,None,None,None,None,7.09375,1.4951967000961304,763.2365845999448,None,763.2365845999448,None,763.2365845999448,None,763.2365845999448,None,None,None,764.7463589999825,None,,,,,,,,-0.01171875,-0.2955729166666667,1,0,0,3.864980399957858,tijiao,,263,m,17,2023_Mar_26_1413,RL,2021.2.3,59.98318069978884,
0,0.3,0.225,0,67,67,67,,,,,,,,,,,,,,,None,None,None,None,None,766.3353388999822,None,766.3353388999822,None,766.3353388999822,None,766.3353388999822,None,f,1.2996776999207214,766.3353388999822,None,766.3353388999822,None,767.6969921999844,None,767.6969921999844,None,767.6969921999844,None,767.6969921999844,None,767.6969921999844,None,767.6969921999844,None,767.9823453000281,769.7171001000097,767.9823453000281,769.7171001000097,769.7504113999894,None,769.7504113999894,None,769.7504113999894,None,769.7504113999894,None,769.7504113999894,None,769.7504113999894,None,769.7504113999894,None,769.7504113999894,None,769.7504113999894,None,65,60,53,37,60,72,None,None,None,None,None,None,None,None,None,None,None,None,60,772.2857542999554,None,60,772.2857542999554,None,772.2857542999554,None,772.2857542999554,None,772.2857542999554,None,772.2857542999554,None,772.2857542999554,None,772.2857542999554,None,0.009091220097616315,None,772.2857542999554,None,0.6,0,None,None,None,None,None,None,None,None,None,None,None,None,,None,None,None,None,None,None,None,None,9.229166666666668,2.79540599999018,775.5931199999759,None,775.5931199999759,None,775.5931199999759,None,775.5931199999759,None,None,None,778.4216820999281,None,,,,,,,,0.13932291666666666,-0.2864583333333333,1,0,0,3.2617049000691622,tijiao,,263,m,17,2023_Mar_26_1413,RL,2021.2.3,59.98318069978884,
1,-0.3,-0.225,0,68,68,68,,,,,,,,,,,,,,,None,None,None,None,None,779.995124500012,None,779.995124500012,None,779.995124500012,None,779.995124500012,None,i,0.9099441000726074,779.995124500012,None,779.995124500012,None,780.9534172000131,None,780.9534172000131,None,780.9534172000131,None,780.9534172000131,None,780.9534172000131,None,780.9534172000131,None,781.2417426999891,783.1762740999693,781.2417426999891,783.1762740999693,783.2136008000234,None,783.2136008000234,None,783.2136008000234,None,783.2136008000234,None,783.2136008000234,None,783.2136008000234,None,783.2136008000234,None,783.2136008000234,None,783.2136008000234,None,75,51,54,34,54,67,None,None,None,None,None,None,None,None,None,None,None,None,50,785.7370826000115,None,50,785.7370826000115,None,785.7370826000115,None,785.7370826000115,None,785.7370826000115,None,785.7370826000115,None,785.7370826000115,None,785.7370826000115,None,0.015930320019833744,None,785.7370826000115,None,0.2,0,None,None,None,None,None,None,None,None,None,None,None,None,,None,None,None,None,None,None,None,None,8.994791666666668,2.4905142000643536,788.8195254999446,None,788.8195254999446,None,788.8195254999446,None,788.8195254999446,None,None,None,791.3314745000098,None,,,,,,,,0.1015625,-0.265625,1,0,0,3.035985399968922,tijiao,,263,m,17,2023_Mar_26_1413,RL,2021.2.3,59.98318069978884,
0,0.3,0.225,0,69,69,69,,,,,,,,,,,,,,,None,None,None,None,None,793.1490575999487,None,793.1490575999487,None,793.1490575999487,None,793.1490575999487,None,j,0.3960938999662176,793.1490575999487,None,793.1490575999487,None,793.5952317999909,None,793.5952317999909,None,793.5952317999909,None,793.5952317999909,None,793.5952317999909,None,793.5952317999909,None,793.8836842000019,795.1679246999556,793.8836842000019,795.1679246999556,795.1998453999404,None,795.1998453999404,None,795.1998453999404,None,795.1998453999404,None,795.1998453999404,None,795.1998453999404,None,795.1998453999404,None,795.1998453999404,None,795.1998453999404,None,68,50,57,34,34,45,797.7167960000224,None,1.0,1.3056068998994306,797.7167960000224,None,797.7167960000224,None,797.7167960000224,None,797.7167960000224,None,,None,None,,None,None,None,None,None,None,None,None,None,None,None,None,None,None,None,None,None,None,0.2,2,None,None,None,None,None,None,None,None,None,None,None,None,,None,None,None,None,None,None,None,None,None,None,None,None,None,None,None,None,None,None,None,None,799.0890292000258,None,,,,,,,,,,,,,,,,263,m,17,2023_Mar_26_1413,RL,2021.2.3,59.98318069978884,
1,-0.3,-0.225,0,70,70,70,,,,,,,,,,,,,,,None,None,None,None,None,801.0086671999888,None,801.0086671999888,None,801.0086671999888,None,801.0086671999888,None,r,0.31653249997179955,801.0086671999888,None,801.0086671999888,None,801.3829649999971,None,801.3829649999971,None,801.3829649999971,None,801.3829649999971,None,801.3829649999971,None,801.3829649999971,None,801.6724428000161,802.4898347000126,801.6724428000161,802.4898347000126,802.521531599923,None,802.521531599923,None,802.521531599923,None,802.521531599923,None,802.521531599923,None,802.521531599923,None,802.521531599923,None,802.521531599923,None,802.521531599923,None,64,53,59,34,64,58,None,None,None,None,None,None,None,None,None,None,None,None,,None,None,,None,None,None,None,None,None,None,None,None,None,None,None,None,None,None,None,None,None,-0.2,1,805.0713152999524,None,805.0713152999524,None,805.0713152999524,None,805.0713152999524,None,805.0713152999524,None,805.0713152999524,None,60,805.0713152999524,None,805.0713152999524,None,0.011763560003601015,None,805.0713152999524,None,5.84375,2.4315215999959037,809.4510573999723,None,809.4510573999723,None,809.4510573999723,None,809.4510573999723,None,None,None,811.9116048999131,None,-0.022135416666666668,-0.2942708333333333,1,0,0,4.348868800094351,tijiao_random_2,,,,,,,,,263,m,17,2023_Mar_26_1413,RL,2021.2.3,59.98318069978884,
0,0.3,0.225,0,71,71,71,,,,,,,,,,,,,,,None,None,None,None,None,813.6682626999682,None,813.6682626999682,None,813.6682626999682,None,813.6682626999682,None,r,0.2769845000002533,813.6682626999682,None,813.6682626999682,None,813.9927080000052,None,813.9927080000052,None,813.9927080000052,None,813.9927080000052,None,813.9927080000052,None,813.9927080000052,None,814.2814858999336,None,814.2814858999336,None,815.7626316000242,None,815.7626316000242,None,815.7626316000242,None,815.7626316000242,None,815.7626316000242,None,815.7626316000242,None,815.7626316000242,None,815.7626316000242,None,815.7626316000242,None,63,50,60,35,63,66,None,None,None,None,None,None,None,None,None,None,None,None,60,818.2962376999203,None,60,818.2962376999203,None,818.2962376999203,None,818.2962376999203,None,818.2962376999203,None,818.2962376999203,None,818.2962376999203,None,818.2962376999203,None,0.013048919849097729,None,818.2962376999203,None,0.6,0,None,None,None,None,None,None,None,None,None,None,None,None,,None,None,None,None,None,None,None,None,8.838541666666668,2.039099699934013,821.8086615999928,None,821.8086615999928,None,821.8086615999928,None,821.8086615999928,None,None,None,823.870522000012,None,,,,,,,,-0.032552083333333336,-0.3111979166666667,1,0,0,3.465936499997042,tijiao,,263,m,17,2023_Mar_26_1413,RL,2021.2.3,59.98318069978884,
1,-0.3,-0.225,0,72,72,72,,,,,,,,,,,,,,,None,None,None,None,None,825.5266926999902,None,825.5266926999902,None,825.5266926999902,None,825.5266926999902,None,r,0.2687862999737263,825.5266926999902,None,825.5266926999902,None,825.8501434000209,None,825.8501434000209,None,825.8501434000209,None,825.8501434000209,None,825.8501434000209,None,825.8501434000209,None,826.1393978999695,826.9733692000154,826.1393978999695,826.9733692000154,827.0052587999962,None,827.0052587999962,None,827.0052587999962,None,827.0052587999962,None,827.0052587999962,None,827.0052587999962,None,827.0052587999962,None,827.0052587999962,None,827.0052587999962,None,76,45,56,34,76,37,829.5257547999499,None,7.0,0.9854240999557078,829.5257547999499,None,829.5257547999499,None,829.5257547999499,None,829.5257547999499,None,,None,None,,None,None,None,None,None,None,None,None,None,None,None,None,None,None,None,None,None,None,-0.2,2,None,None,None,None,None,None,None,None,None,None,None,None,,None,None,None,None,None,None,None,None,None,None,None,None,None,None,None,None,None,None,None,None,830.5654671000084,None,,,,,,,,,,,,,,,,263,m,17,2023_Mar_26_1413,RL,2021.2.3,59.98318069978884,
0,0.3,0.225,0,73,73,73,,,,,,,,,,,,,,,None,None,None,None,None,832.2315231999382,None,832.2315231999382,None,832.2315231999382,None,832.2315231999382,None,r,0.35386859998106956,832.2315231999382,None,832.2315231999382,None,832.6324735999806,None,832.6324735999806,None,832.6324735999806,None,832.6324735999806,None,832.6324735999806,None,832.6324735999806,None,832.9275373999262,None,832.9275373999262,None,834.7758624999551,None,834.7758624999551,None,834.7758624999551,None,834.7758624999551,None,834.7758624999551,None,834.7758624999551,None,834.7758624999551,None,834.7758624999551,None,834.7758624999551,None,65,36,62,28,65,67,None,None,None,None,None,None,None,None,None,None,None,None,65,837.3064051999245,None,65,837.3064051999245,None,837.3064051999245,None,837.3064051999245,None,837.3064051999245,None,837.3064051999245,None,837.3064051999245,None,837.3064051999245,None,0.01558272005058825,None,837.3064051999245,None,0.2,0,None,None,None,None,None,None,None,None,None,None,None,None,,None,None,None,None,None,None,None,None,9.046875,1.162663400056772,841.090025399928,None,841.090025399928,None,841.090025399928,None,841.090025399928,None,None,None,842.2665377999656,None,,,,,,,,-0.07682291666666667,-0.3203125,1,0,0,3.735849699936807,tijiao,,263,m,17,2023_Mar_26_1413,RL,2021.2.3,59.98318069978884,
1,-0.3,-0.225,0,74,74,74,,,,,,,,,,,,,,,None,None,None,None,None,843.8902316999156,None,843.8902316999156,None,843.8902316999156,None,843.8902316999156,None,r,0.35530209995340556,843.8902316999156,None,843.8902316999156,None,844.2914601999801,None,844.2914601999801,None,844.2914601999801,None,844.2914601999801,None,844.2914601999801,None,844.2914601999801,None,844.5856041000225,845.870029999991,844.5856041000225,845.870029999991,845.9067854000023,None,845.9067854000023,None,845.9067854000023,None,845.9067854000023,None,845.9067854000023,None,845.9067854000023,None,845.9067854000023,None,845.9067854000023,None,845.9067854000023,None,75,37,54,32,75,62,848.4415622999659,None,7.0,1.150597900035791,848.4415622999659,None,848.4415622999659,None,848.4415622999659,None,848.4415622999659,None,,None,None,,None,None,None,None,None,None,None,None,None,None,None,None,None,None,None,None,None,None,-0.2,2,None,None,None,None,None,None,None,None,None,None,None,None,,None,None,None,None,None,None,None,None,None,None,None,None,None,None,None,None,None,None,None,None,849.6559880999848,None,,,,,,,,,,,,,,,,263,m,17,2023_Mar_26_1413,RL,2021.2.3,59.98318069978884,
0,0.3,0.225,0,75,75,75,,,,,,,,,,,,,,,851.5239182999358,None,q,851.5239182999358,None,952.6637938999338,None,952.6637938999338,None,952.6637938999338,None,952.6637938999338,None,f,0.7896528999553993,952.6637938999338,None,952.6637938999338,None,953.5049602999352,None,953.5049602999352,None,953.5049602999352,None,953.5049602999352,None,953.5049602999352,None,953.5049602999352,None,953.7949848999269,955.6962604,953.7949848999269,955.6962604,955.7294106999179,None,955.7294106999179,None,955.7294106999179,None,955.7294106999179,None,955.7294106999179,None,955.7294106999179,None,955.7294106999179,None,955.7294106999179,None,955.7294106999179,None,75,37,60,35,37,69,None,None,None,None,None,None,None,None,None,None,None,None,40,958.2575182999717,None,40,958.2575182999717,None,958.2575182999717,None,958.2575182999717,None,958.2575182999717,None,958.2575182999717,None,958.2575182999717,None,958.2575182999717,None,0.01576481992378831,None,958.2575182999717,None,0.6,0,None,None,None,None,None,None,None,None,None,None,None,None,,None,None,None,None,None,None,None,None,7.171875,1.9877393000060692,962.4324887000257,None,962.4324887000257,None,962.4324887000257,None,962.4324887000257,None,None,None,964.434737799922,None,,,,,,,,-0.00390625,-0.2721354166666667,1,0,0,4.119274999946356,tijiao,101.06239500001539,263,m,17,2023_Mar_26_1413,RL,2021.2.3,59.98318069978884,
