bandit0,black_x_pos_random,black_y_pos_random,trials.thisRepN,trials.thisTrialN,trials.thisN,trials.thisIndex,instru_img1.started,instru_resp.started,instru_resp.keys,instru_resp.rt,instru_img2.started,instru_resp2.started,instru_resp2.keys,instru_resp2.rt,fixbefore_2.started,rest_response.keys,red.started,green.started,yellow.started,blue.started,choose_bandit.started,Fixation.started,choose_bandit.keys,choose_bandit.rt,black.started,red_2.started,green_2.started,yellow_2.started,blue_2.started,fixation_2.started,docs.started,wait_playerB.started,docs.stopped,wait_playerB.stopped,black.stopped,red_2.stopped,green_2.stopped,yellow_2.stopped,blue_2.stopped,fixation_2.stopped,black_com.started,reward_sub.started,palyerb.started,reward__sub.started,compare.started,red_compare.started,green_com.started,yellow_com.started,blue_com.started,rewardyellow,rewardred,rewardblue,rewardgreen,subchoose,playerb,slider.response,slider.rt,expectself.started,expect_self_black.started,expect_self.started,expect_self_red.started,expect_self_green.started,expect_self_yellow.started,expect_self_blue.started,tijiao.started,tijiao_click.started,check.started,expectself.text,value_expect_self,tijiao_click.x,tijiao_click.y,tijiao_click.leftButton,tijiao_click.midButton,tijiao_click.rightButton,tijiao_click.time,tijiao_click.clicked_name,random_whicharm,whether_ask,expect_random_3.text,tijiao_random.x,tijiao_random.y,tijiao_random.leftButton,tijiao_random.midButton,tijiao_random.rightButton,tijiao_random.time,tijiao_random.clicked_name,slider_2.started,image_7.started,confi.started,notconfi.started,slider_2.response,slider_2.rt,intertrialfix.started,intertrialfix.stopped,image_3.started,slider.started,text.started,image_4.started,image_5.started,jiantou_random.started,expect_red.started,expect_green.started,expect_yellow.started,expect_blue.started,expect_random_2.started,expect_random_3.started,tijiao_random_2.started,tijiao_random.started,check_2.started,rest_image.started,rest_response.started,rest_response.rt,participant,Gender,Age,date,expName,psychopyVersion,frameRate,
,,,,,,,23.999820200027898,23.999820200027898,space,11.608015700010583,,,,,,,,,,,,,,,,,,,,,,,,,,,,,,,,,,,,,,,,,,,,,,,,,,,,,,,,,,,,,,,,,,,,,,,,,,,,,,,,,,,,,,,,,,,,,,,,,,,,,,,264,m,23,2023-03-26_14h12.51.489,RL,2022.2.4,60.186361066127205,
,,,,,,,,,,,35.64841649995651,35.64841649995651,s,19.481321499915794,,,,,,,,,,,,,,,,,,,,,,,,,,,,,,,,,,,,,,,,,,,,,,,,,,,,,,,,,,,,,,,,,,,,,,,,,,,,,,,,,,,,,,,,,,,,,,,,,,,264,m,23,2023-03-26_14h12.51.489,RL,2022.2.4,60.186361066127205,
1,-0.3,-0.225,0,0,0,0,,,,,,,,,55.15906490001362,None,56.18733370001428,56.18733370001428,56.18733370001428,56.18733370001428,56.18733370001428,56.18733370001428,j,0.27156019990798086,56.512280999915674,56.512280999915674,56.512280999915674,56.512280999915674,56.512280999915674,56.512280999915674,56.78291890001856,56.78291890001856,58.02936549996957,58.02936549996957,58.066698599956,58.066698599956,58.066698599956,58.066698599956,58.066698599956,58.066698599956,58.066698599956,58.066698599956,58.066698599956,58.066698599956,58.066698599956,58.066698599956,58.066698599956,58.066698599956,58.066698599956,61,45,28,46,46,49,None,None,60.59943169995677,60.59943169995677,60.59943169995677,60.59943169995677,60.59943169995677,60.59943169995677,60.59943169995677,60.59943169995677,0.005820199963636696,60.59943169995677,50,50,[-0.03148148148148148],[-0.2972222222222222],[1],[0],[0],[4.797875899937935],['tijiao'],0.6,0,,[],[],[],[],[],[],[],65.51494729996193,65.51494729996193,65.51494729996193,65.51494729996193,3.064814814814815,3.0736630000174046,68.64852139994036,70.59549909993075,,,,,,,,,,,,,,,,,,,264,m,23,2023-03-26_14h12.51.489,RL,2022.2.4,60.186361066127205,
0,0.3,0.225,0,1,1,1,,,,,,,,,,None,70.59549909993075,70.59549909993075,70.59549909993075,70.59549909993075,70.59549909993075,70.59549909993075,i,0.5695935999974608,71.20363250002265,71.20363250002265,71.20363250002265,71.20363250002265,71.20363250002265,71.20363250002265,71.49306140001863,71.49306140001863,72.905654400005,72.905654400005,72.92221669992432,72.92221669992432,72.92221669992432,72.92221669992432,72.92221669992432,72.92221669992432,72.92221669992432,72.92221669992432,72.92221669992432,72.92221669992432,72.92221669992432,72.92221669992432,72.92221669992432,72.92221669992432,72.92221669992432,77,47,26,45,26,26,None,None,75.43606279999949,75.43606279999949,75.43606279999949,75.43606279999949,75.43606279999949,75.43606279999949,75.43606279999949,75.43606279999949,0.007336100097745657,75.43606279999949,30,30,[0.06759259259259259],[-0.2851851851851852],[1],[0],[0],[3.7118478999473155],['tijiao'],-0.6,0,,[],[],[],[],[],[],[],79.16917809995357,79.16917809995357,79.16917809995357,79.16917809995357,4.046296296296296,2.8948205000488088,82.07968179997988,84.05881199997384,,,,,,,,,,,,,,,,,,,264,m,23,2023-03-26_14h12.51.489,RL,2022.2.4,60.186361066127205,
1,-0.3,-0.225,0,2,2,2,,,,,,,,,,None,84.05881199997384,84.05881199997384,84.05881199997384,84.05881199997384,84.05881199997384,84.05881199997384,r,0.42423719994258136,84.51786929997616,84.51786929997616,84.51786929997616,84.51786929997616,84.51786929997616,84.51786929997616,84.80685029993765,84.80685029993765,85.92031690001022,85.92031690001022,85.93716690002475,85.93716690002475,85.93716690002475,85.93716690002475,85.93716690002475,85.93716690002475,85.93716690002475,85.93716690002475,85.93716690002475,85.93716690002475,85.93716690002475,85.93716690002475,85.93716690002475,85.93716690002475,85.93716690002475,77,60,28,46,77,61,None,None,88.44920329994056,88.44920329994056,88.44920329994056,88.44920329994056,88.44920329994056,88.44920329994056,88.44920329994056,88.44920329994056,0.006221899995580316,88.44920329994056,60,60,[0.003703703703703704],[-0.2861111111111111],[1],[0],[0],[4.859954499988817],['tijiao'],0.6,0,,[],[],[],[],[],[],[],93.32997929991689,93.32997929991689,93.32997929991689,93.32997929991689,4.0,2.1511760000139475,95.49293349997606,97.35539209994022,,,,,,,,,,,,,,,,,,,264,m,23,2023-03-26_14h12.51.489,RL,2022.2.4,60.186361066127205,
0,0.3,0.225,0,3,3,3,,,,,,,,,,None,97.35539209994022,97.35539209994022,97.35539209994022,97.35539209994022,97.35539209994022,97.35539209994022,i,0.5660716999555007,97.95638510002755,97.95638510002755,97.95638510002755,97.95638510002755,97.95638510002755,97.95638510002755,98.25326889997814,98.25326889997814,99.51571429998148,99.51571429998148,99.51571429998148,99.51571429998148,99.51571429998148,99.51571429998148,99.51571429998148,99.51571429998148,99.51571429998148,99.51571429998148,99.51571429998148,99.51571429998148,99.51571429998148,99.51571429998148,99.51571429998148,99.51571429998148,99.51571429998148,70,63,27,55,27,62,2.0,2.50928220001515,,,,,,,,,,,,,[],[],[],[],[],[],[],0.6,2,,[],[],[],[],[],[],[],,,,,None,None,104.57158069999423,106.09860049991403,102.0256156999385,102.0256156999385,102.0256156999385,102.0256156999385,102.0256156999385,,,,,,,,,,,,,,264,m,23,2023-03-26_14h12.51.489,RL,2022.2.4,60.186361066127205,
1,-0.3,-0.225,0,4,4,4,,,,,,,,,,None,106.09860049991403,106.09860049991403,106.09860049991403,106.09860049991403,106.09860049991403,106.09860049991403,f,0.6420935000060126,106.77377909992356,106.77377909992356,106.77377909992356,106.77377909992356,106.77377909992356,106.77377909992356,107.06296339991968,107.06296339991968,108.2094497999642,108.2094497999642,108.22673260001466,108.22673260001466,108.22673260001466,108.22673260001466,108.22673260001466,108.22673260001466,108.22673260001466,108.22673260001466,108.22673260001466,108.22673260001466,108.22673260001466,108.22673260001466,108.22673260001466,108.22673260001466,108.22673260001466,77,64,26,48,64,56,None,None,,,,,,,,,,,,,[],[],[],[],[],[],[],0.2,1,30,[0.03611111111111111],[-0.27037037037037037],[1],[0],[0],[6.178132900036871],['tijiao_random_2'],116.93942720000632,116.93942720000632,116.93942720000632,116.93942720000632,4.055555555555555,2.689665999962017,119.64396090002265,121.34026219998486,,,,,,110.752232800005,110.752232800005,110.752232800005,110.752232800005,110.752232800005,110.752232800005,110.752232800005,110.752232800005,0.007326200022362173,110.752232800005,,,,264,m,23,2023-03-26_14h12.51.489,RL,2022.2.4,60.186361066127205,
0,0.3,0.225,0,5,5,5,,,,,,,,,,None,121.34026219998486,121.34026219998486,121.34026219998486,121.34026219998486,121.34026219998486,121.34026219998486,i,0.5495432000607252,121.9241686000023,121.9241686000023,121.9241686000023,121.9241686000023,121.9241686000023,121.9241686000023,122.22097000002395,122.22097000002395,123.55015949998051,123.55015949998051,123.55015949998051,123.55015949998051,123.55015949998051,123.55015949998051,123.55015949998051,123.55015949998051,123.55015949998051,123.55015949998051,123.55015949998051,123.55015949998051,123.55015949998051,123.55015949998051,123.55015949998051,123.55015949998051,123.55015949998051,82,58,30,50,30,31,6.0,2.4419639999978244,,,,,,,,,,,,,[],[],[],[],[],[],[],0.6,2,,[],[],[],[],[],[],[],,,,,None,None,128.53474399994593,130.41539300000295,126.05942559998948,126.05942559998948,126.05942559998948,126.05942559998948,126.05942559998948,,,,,,,,,,,,,,264,m,23,2023-03-26_14h12.51.489,RL,2022.2.4,60.186361066127205,
1,-0.3,-0.225,0,6,6,6,,,,,,,,,,None,130.41539300000295,130.41539300000295,130.41539300000295,130.41539300000295,130.41539300000295,130.41539300000295,r,0.676851199939847,131.11822359997313,131.11822359997313,131.11822359997313,131.11822359997313,131.11822359997313,131.11822359997313,131.41272030002438,131.41272030002438,133.174680099939,133.174680099939,133.174680099939,133.174680099939,133.174680099939,133.174680099939,133.174680099939,133.174680099939,133.174680099939,133.174680099939,133.174680099939,133.174680099939,133.174680099939,133.174680099939,133.174680099939,133.174680099939,133.174680099939,80,60,22,49,80,41,5.0,3.1412467000773177,,,,,,,,,,,,,[],[],[],[],[],[],[],-0.2,2,,[],[],[],[],[],[],[],,,,,None,None,138.8531702000182,140.80361619999167,135.6843095999211,135.6843095999211,135.6843095999211,135.6843095999211,135.6843095999211,,,,,,,,,,,,,,264,m,23,2023-03-26_14h12.51.489,RL,2022.2.4,60.186361066127205,
0,0.3,0.225,0,7,7,7,,,,,,,,,,None,140.80361619999167,140.80361619999167,140.80361619999167,140.80361619999167,140.80361619999167,140.80361619999167,i,0.6243872001068667,141.45694709999952,141.45694709999952,141.45694709999952,141.45694709999952,141.45694709999952,141.45694709999952,141.75073799991515,141.75073799991515,142.91377230000217,142.91377230000217,142.91377230000217,142.91377230000217,142.91377230000217,142.91377230000217,142.91377230000217,142.91377230000217,142.91377230000217,142.91377230000217,142.91377230000217,142.91377230000217,142.91377230000217,142.91377230000217,142.91377230000217,142.91377230000217,142.91377230000217,73,68,22,55,22,37,3.0,1.9767531999386847,,,,,,,,,,,,,[],[],[],[],[],[],[],-0.6,3,,[],[],[],[],[],[],[],,,,,None,None,147.4320105999941,149.19740589999128,145.4241094000172,145.4241094000172,145.4241094000172,145.4241094000172,145.4241094000172,,,,,,,,,,,,,,264,m,23,2023-03-26_14h12.51.489,RL,2022.2.4,60.186361066127205,
1,-0.3,-0.225,0,8,8,8,,,,,,,,,,None,149.19740589999128,149.19740589999128,149.19740589999128,149.19740589999128,149.19740589999128,149.19740589999128,r,0.47358729992993176,149.70191539998632,149.70191539998632,149.70191539998632,149.70191539998632,149.70191539998632,149.70191539998632,149.995428299997,149.995428299997,151.55733420001343,151.55733420001343,151.57391089992598,151.57391089992598,151.57391089992598,151.57391089992598,151.57391089992598,151.57391089992598,151.57391089992598,151.57391089992598,151.57391089992598,151.57391089992598,151.57391089992598,151.57391089992598,151.57391089992598,151.57391089992598,151.57391089992598,73,60,19,52,73,29,7.0,2.175748199922964,,,,,,,,,,,,,[],[],[],[],[],[],[],0.6,3,,[],[],[],[],[],[],[],,,,,None,None,156.28911459993105,157.9400331999641,154.08401629992295,154.08401629992295,154.08401629992295,154.08401629992295,154.08401629992295,,,,,,,,,,,,,,264,m,23,2023-03-26_14h12.51.489,RL,2022.2.4,60.186361066127205,
0,0.3,0.225,0,9,9,9,,,,,,,,,,None,157.9400331999641,157.9400331999641,157.9400331999641,157.9400331999641,157.9400331999641,157.9400331999641,j,0.7135663999943063,158.6776565000182,158.6776565000182,158.6776565000182,158.6776565000182,158.6776565000182,158.6776565000182,158.9710404999787,158.9710404999787,160.4989647999173,160.4989647999173,160.4989647999173,160.4989647999173,160.4989647999173,160.4989647999173,160.4989647999173,160.4989647999173,160.4989647999173,160.4989647999173,160.4989647999173,160.4989647999173,160.4989647999173,160.4989647999173,160.4989647999173,160.4989647999173,160.4989647999173,67,43,21,48,48,41,5.0,2.0431273999856785,,,,,,,,,,,,,[],[],[],[],[],[],[],0.6,2,,[],[],[],[],[],[],[],,,,,None,None,165.08083649992477,166.61661279993132,163.0094426999567,163.0094426999567,163.0094426999567,163.0094426999567,163.0094426999567,,,,,,,,,,,,,,264,m,23,2023-03-26_14h12.51.489,RL,2022.2.4,60.186361066127205,
1,-0.3,-0.225,0,10,10,10,,,,,,,,,,None,166.61661279993132,166.61661279993132,166.61661279993132,166.61661279993132,166.61661279993132,166.61661279993132,i,0.5892110000131652,167.23553189996164,167.23553189996164,167.23553189996164,167.23553189996164,167.23553189996164,167.23553189996164,167.5311342999339,167.5311342999339,169.47540769993793,169.47540769993793,169.49163009994663,169.49163009994663,169.49163009994663,169.49163009994663,169.49163009994663,169.49163009994663,169.49163009994663,169.49163009994663,169.49163009994663,169.49163009994663,169.49163009994663,169.49163009994663,169.49163009994663,169.49163009994663,169.49163009994663,77,48,15,54,15,64,1.0,2.209453699993901,,,,,,,,,,,,,[],[],[],[],[],[],[],-0.6,2,,[],[],[],[],[],[],[],,,,,None,None,174.24027379998006,175.9902239999501,172.00215610000305,172.00215610000305,172.00215610000305,172.00215610000305,172.00215610000305,,,,,,,,,,,,,,264,m,23,2023-03-26_14h12.51.489,RL,2022.2.4,60.186361066127205,
0,0.3,0.225,0,11,11,11,,,,,,,,,,None,175.9902239999501,175.9902239999501,175.9902239999501,175.9902239999501,175.9902239999501,175.9902239999501,f,0.5871280001010746,176.6101337999571,176.6101337999571,176.6101337999571,176.6101337999571,176.6101337999571,176.6101337999571,176.90549209993333,176.90549209993333,178.41710790002253,178.41710790002253,178.41710790002253,178.41710790002253,178.41710790002253,178.41710790002253,178.41710790002253,178.41710790002253,178.41710790002253,178.41710790002253,178.41710790002253,178.41710790002253,178.41710790002253,178.41710790002253,178.41710790002253,178.41710790002253,178.41710790002253,76,59,25,56,59,59,4.0,2.292205800069496,,,,,,,,,,,,,[],[],[],[],[],[],[],-0.2,3,,[],[],[],[],[],[],[],,,,,None,None,183.2486925999401,184.8667548999656,180.92744220001623,180.92744220001623,180.92744220001623,180.92744220001623,180.92744220001623,,,,,,,,,,,,,,264,m,23,2023-03-26_14h12.51.489,RL,2022.2.4,60.186361066127205,
1,-0.3,-0.225,0,12,12,12,,,,,,,,,,None,184.8667548999656,184.8667548999656,184.8667548999656,184.8667548999656,184.8667548999656,184.8667548999656,i,0.5330077999969944,185.43312299996614,185.43312299996614,185.43312299996614,185.43312299996614,185.43312299996614,185.43312299996614,185.73125830001663,185.73125830001663,187.25948030001018,187.25948030001018,187.25948030001018,187.25948030001018,187.25948030001018,187.25948030001018,187.25948030001018,187.25948030001018,187.25948030001018,187.25948030001018,187.25948030001018,187.25948030001018,187.25948030001018,187.25948030001018,187.25948030001018,187.25948030001018,187.25948030001018,77,55,18,49,18,34,1.0,2.226518200011924,,,,,,,,,,,,,[],[],[],[],[],[],[],0.6,3,,[],[],[],[],[],[],[],,,,,None,None,192.0253210000228,193.6093353999313,189.77000639995094,189.77000639995094,189.77000639995094,189.77000639995094,189.77000639995094,,,,,,,,,,,,,,264,m,23,2023-03-26_14h12.51.489,RL,2022.2.4,60.186361066127205,
0,0.3,0.225,0,13,13,13,,,,,,,,,,None,193.6093353999313,193.6093353999313,193.6093353999313,193.6093353999313,193.6093353999313,193.6093353999313,r,0.39772020000964403,194.0301710999338,194.0301710999338,194.0301710999338,194.0301710999338,194.0301710999338,194.0301710999338,194.3244436000241,194.3244436000241,195.38739439996425,195.38739439996425,195.38739439996425,195.38739439996425,195.38739439996425,195.38739439996425,195.38739439996425,195.38739439996425,195.38739439996425,195.38739439996425,195.38739439996425,195.38739439996425,195.38739439996425,195.38739439996425,195.38739439996425,195.38739439996425,195.38739439996425,72,58,16,44,72,42,None,None,197.90196759998798,197.90196759998798,197.90196759998798,197.90196759998798,197.90196759998798,197.90196759998798,197.90196759998798,197.90196759998798,0.008334500016644597,197.90196759998798,80,80,[-0.024074074074074074],[-0.29259259259259257],[1],[0],[0],[6.287252099951729],['tijiao'],-0.6,0,,[],[],[],[],[],[],[],204.21513359993696,204.21513359993696,204.21513359993696,204.21513359993696,8.99074074074074,2.2638833000091836,206.50680169998668,208.06995299994014,,,,,,,,,,,,,,,,,,,264,m,23,2023-03-26_14h12.51.489,RL,2022.2.4,60.186361066127205,
1,-0.3,-0.225,0,14,14,14,,,,,,,,,,None,208.06995299994014,208.06995299994014,208.06995299994014,208.06995299994014,208.06995299994014,208.06995299994014,r,0.3547040999401361,208.45763239997905,208.45763239997905,208.45763239997905,208.45763239997905,208.45763239997905,208.45763239997905,208.75166159996297,208.75166159996297,210.1970368999755,210.1970368999755,210.1970368999755,210.1970368999755,210.1970368999755,210.1970368999755,210.1970368999755,210.1970368999755,210.1970368999755,210.1970368999755,210.1970368999755,210.1970368999755,210.1970368999755,210.1970368999755,210.1970368999755,210.1970368999755,210.1970368999755,72,52,21,44,72,39,6.0,1.4612219999544322,,,,,,,,,,,,,[],[],[],[],[],[],[],0.6,2,,[],[],[],[],[],[],[],,,,,None,None,214.1990673999535,215.73316589999013,212.7071869999636,212.7071869999636,212.7071869999636,212.7071869999636,212.7071869999636,,,,,,,,,,,,,,264,m,23,2023-03-26_14h12.51.489,RL,2022.2.4,60.186361066127205,
0,0.3,0.225,0,15,15,15,,,,,,,,,,None,215.73316589999013,215.73316589999013,215.73316589999013,215.73316589999013,215.73316589999013,215.73316589999013,i,0.8198797999648377,216.5836299000075,216.5836299000075,216.5836299000075,216.5836299000075,216.5836299000075,216.5836299000075,216.87972989992704,216.87972989992704,218.09205949993338,218.09205949993338,218.09205949993338,218.09205949993338,218.09205949993338,218.09205949993338,218.09205949993338,218.09205949993338,218.09205949993338,218.09205949993338,218.09205949993338,218.09205949993338,218.09205949993338,218.09205949993338,218.09205949993338,218.09205949993338,218.09205949993338,66,59,28,51,28,62,None,None,,,,,,,,,,,,,[],[],[],[],[],[],[],-0.6,1,80,[-0.05],[-0.29259259259259257],[1],[0],[0],[5.499218099983409],['tijiao_random_2'],226.1252806999255,226.1252806999255,226.1252806999255,226.1252806999255,9.953703703703704,2.403986099991016,228.54689370002598,230.2590724999318,,,,,,220.61303230002522,220.61303230002522,220.61303230002522,220.61303230002522,220.61303230002522,220.61303230002522,220.61303230002522,220.61303230002522,0.006232699961401522,220.61303230002522,,,,264,m,23,2023-03-26_14h12.51.489,RL,2022.2.4,60.186361066127205,
1,-0.3,-0.225,0,16,16,16,,,,,,,,,,None,230.2590724999318,230.2590724999318,230.2590724999318,230.2590724999318,230.2590724999318,230.2590724999318,r,0.45781400008127093,230.74666309996974,230.74666309996974,230.74666309996974,230.74666309996974,230.74666309996974,230.74666309996974,231.04095439997036,231.04095439997036,232.9514238999691,232.9514238999691,232.9514238999691,232.9514238999691,232.9514238999691,232.9514238999691,232.9514238999691,232.9514238999691,232.9514238999691,232.9514238999691,232.9514238999691,232.9514238999691,232.9514238999691,232.9514238999691,232.9514238999691,232.9514238999691,232.9514238999691,63,65,29,52,63,45,6.0,2.19262600003276,,,,,,,,,,,,,[],[],[],[],[],[],[],-0.6,2,,[],[],[],[],[],[],[],,,,,None,None,237.68434849998448,239.41774249996524,235.46182019996922,235.46182019996922,235.46182019996922,235.46182019996922,235.46182019996922,,,,,,,,,,,,,,264,m,23,2023-03-26_14h12.51.489,RL,2022.2.4,60.186361066127205,
0,0.3,0.225,0,17,17,17,,,,,,,,,,None,239.41774249996524,239.41774249996524,239.41774249996524,239.41774249996524,239.41774249996524,239.41774249996524,i,0.45976230001542717,239.90415369998664,239.90415369998664,239.90415369998664,239.90415369998664,239.90415369998664,239.90415369998664,240.1993221999146,240.1993221999146,242.0937998999143,242.0937998999143,242.1096121999435,242.1096121999435,242.1096121999435,242.1096121999435,242.1096121999435,242.1096121999435,242.1096121999435,242.1096121999435,242.1096121999435,242.1096121999435,242.1096121999435,242.1096121999435,242.1096121999435,242.1096121999435,242.1096121999435,69,60,36,53,36,52,3.0,2.1272684999275953,,,,,,,,,,,,,[],[],[],[],[],[],[],0.2,2,,[],[],[],[],[],[],[],,,,,None,None,246.776561299921,248.77583830000367,244.6203370000003,244.6203370000003,244.6203370000003,244.6203370000003,244.6203370000003,,,,,,,,,,,,,,264,m,23,2023-03-26_14h12.51.489,RL,2022.2.4,60.186361066127205,
1,-0.3,-0.225,0,18,18,18,,,,,,,,,,None,248.77583830000367,248.77583830000367,248.77583830000367,248.77583830000367,248.77583830000367,248.77583830000367,f,0.9977963001001626,249.80784249992575,249.80784249992575,249.80784249992575,249.80784249992575,249.80784249992575,249.80784249992575,250.1046917999629,250.1046917999629,251.45056249992922,251.45056249992922,251.45056249992922,251.45056249992922,251.45056249992922,251.45056249992922,251.45056249992922,251.45056249992922,251.45056249992922,251.45056249992922,251.45056249992922,251.45056249992922,251.45056249992922,251.45056249992922,251.45056249992922,251.45056249992922,251.45056249992922,70,58,35,50,58,49,None,None,253.96540300000925,253.96540300000925,253.96540300000925,253.96540300000925,253.96540300000925,253.96540300000925,253.96540300000925,253.96540300000925,0.0072597999824211,253.96540300000925,80,80,[0.018518518518518517],[-0.2861111111111111],[1],[0],[0],[5.988986899959855],['tijiao'],0.6,0,,[],[],[],[],[],[],[],259.9759530000156,259.9759530000156,259.9759530000156,259.9759530000156,10.018518518518519,2.6757346999365836,262.6699798000045,264.217054800014,,,,,,,,,,,,,,,,,,,264,m,23,2023-03-26_14h12.51.489,RL,2022.2.4,60.186361066127205,
0,0.3,0.225,0,19,19,19,,,,,,,,,,None,264.217054800014,264.217054800014,264.217054800014,264.217054800014,264.217054800014,264.217054800014,f,0.49364240001887083,264.7371797999367,264.7371797999367,264.7371797999367,264.7371797999367,264.7371797999367,264.7371797999367,265.0318113999674,265.0318113999674,267.02514179993887,267.02514179993887,267.02514179993887,267.02514179993887,267.02514179993887,267.02514179993887,267.02514179993887,267.02514179993887,267.02514179993887,267.02514179993887,267.02514179993887,267.02514179993887,267.02514179993887,267.02514179993887,267.02514179993887,267.02514179993887,267.02514179993887,68,51,39,53,51,52,3.0,3.191165499971248,,,,,,,,,,,,,[],[],[],[],[],[],[],0.2,3,,[],[],[],[],[],[],[],,,,,None,None,272.75405619991943,274.42272319993936,269.5353846999351,269.5353846999351,269.5353846999351,269.5353846999351,269.5353846999351,,,,,,,,,,,,,,264,m,23,2023-03-26_14h12.51.489,RL,2022.2.4,60.186361066127205,
1,-0.3,-0.225,0,20,20,20,,,,,,,,,,None,274.42272319993936,274.42272319993936,274.42272319993936,274.42272319993936,274.42272319993936,274.42272319993936,i,0.513531900011003,274.959085599985,274.959085599985,274.959085599985,274.959085599985,274.959085599985,274.959085599985,275.2535947000142,275.2535947000142,276.61573179997504,276.61573179997504,276.61573179997504,276.61573179997504,276.61573179997504,276.61573179997504,276.61573179997504,276.61573179997504,276.61573179997504,276.61573179997504,276.61573179997504,276.61573179997504,276.61573179997504,276.61573179997504,276.61573179997504,276.61573179997504,276.61573179997504,65,52,28,43,28,34,None,None,279.12950249994174,279.12950249994174,279.12950249994174,279.12950249994174,279.12950249994174,279.12950249994174,279.12950249994174,279.12950249994174,0.007309400010854006,279.12950249994174,40,40,[0.04814814814814815],[-0.30185185185185187],[1],[0],[0],[4.111651099985465],['tijiao'],0.6,0,,[],[],[],[],[],[],[],283.2634056999814,283.2634056999814,283.2634056999814,283.2634056999814,4.925925925925926,1.8817765999119729,285.15851580002345,287.03805929992814,,,,,,,,,,,,,,,,,,,264,m,23,2023-03-26_14h12.51.489,RL,2022.2.4,60.186361066127205,
0,0.3,0.225,0,21,21,21,,,,,,,,,,None,287.03805929992814,287.03805929992814,287.03805929992814,287.03805929992814,287.03805929992814,287.03805929992814,i,0.4520834001014009,287.5251989000244,287.5251989000244,287.5251989000244,287.5251989000244,287.5251989000244,287.5251989000244,287.81935399991926,287.81935399991926,288.81602729996666,288.81602729996666,288.81602729996666,288.81602729996666,288.81602729996666,288.81602729996666,288.81602729996666,288.81602729996666,288.81602729996666,288.81602729996666,288.81602729996666,288.81602729996666,288.81602729996666,288.81602729996666,288.81602729996666,288.81602729996666,288.81602729996666,73,56,47,37,47,56,None,None,291.33121540001594,291.33121540001594,291.33121540001594,291.33121540001594,291.33121540001594,291.33121540001594,291.33121540001594,291.33121540001594,0.008089499897323549,291.33121540001594,50,50,[0.024074074074074074],[-0.3074074074074074],[1],[0],[0],[3.7096389000071213],['tijiao'],0.6,0,,[],[],[],[],[],[],[],295.0623009999981,295.0623009999981,295.0623009999981,295.0623009999981,5.0092592592592595,1.88151520001702,296.959854500019,298.9553932999261,,,,,,,,,,,,,,,,,,,264,m,23,2023-03-26_14h12.51.489,RL,2022.2.4,60.186361066127205,
1,-0.3,-0.225,0,22,22,22,,,,,,,,,,None,298.9553932999261,298.9553932999261,298.9553932999261,298.9553932999261,298.9553932999261,298.9553932999261,i,0.4340901999967173,299.4251016000053,299.4251016000053,299.4251016000053,299.4251016000053,299.4251016000053,299.4251016000053,299.7201040999498,299.7201040999498,300.6510516999988,300.6510516999988,300.6664872999536,300.6664872999536,300.6664872999536,300.6664872999536,300.6664872999536,300.6664872999536,300.6664872999536,300.6664872999536,300.6664872999536,300.6664872999536,300.6664872999536,300.6664872999536,300.6664872999536,300.6664872999536,300.6664872999536,67,57,54,35,54,60,3.0,2.009880100027658,,,,,,,,,,,,,[],[],[],[],[],[],[],0.2,2,,[],[],[],[],[],[],[],,,,,None,None,305.2176151999738,306.9834983999608,303.1770349999424,303.1770349999424,303.1770349999424,303.1770349999424,303.1770349999424,,,,,,,,,,,,,,264,m,23,2023-03-26_14h12.51.489,RL,2022.2.4,60.186361066127205,
0,0.3,0.225,0,23,23,23,,,,,,,,,,None,306.9834983999608,306.9834983999608,306.9834983999608,306.9834983999608,306.9834983999608,306.9834983999608,i,0.9796189999906346,307.9861075999215,307.9861075999215,307.9861075999215,307.9861075999215,307.9861075999215,307.9861075999215,308.2799420999363,308.2799420999363,309.7415182000259,309.7415182000259,309.7415182000259,309.7415182000259,309.7415182000259,309.7415182000259,309.7415182000259,309.7415182000259,309.7415182000259,309.7415182000259,309.7415182000259,309.7415182000259,309.7415182000259,309.7415182000259,309.7415182000259,309.7415182000259,309.7415182000259,73,56,57,40,57,21,6.0,1.378568800049834,,,,,,,,,,,,,[],[],[],[],[],[],[],0.6,3,,[],[],[],[],[],[],[],,,,,None,None,313.65935720002744,315.2776894000126,312.2521646999521,312.2521646999521,312.2521646999521,312.2521646999521,312.2521646999521,,,,,,,,,,,,,,264,m,23,2023-03-26_14h12.51.489,RL,2022.2.4,60.186361066127205,
1,-0.3,-0.225,0,24,24,24,,,,,,,,,,None,315.2776894000126,315.2776894000126,315.2776894000126,315.2776894000126,315.2776894000126,315.2776894000126,r,1.2365527999354526,316.54476630000863,316.54476630000863,316.54476630000863,316.54476630000863,316.54476630000863,316.54476630000863,316.8400891999481,316.8400891999481,318.08666719996836,318.08666719996836,318.1021818999434,318.1021818999434,318.1021818999434,318.1021818999434,318.1021818999434,318.1021818999434,318.1021818999434,318.1021818999434,318.1021818999434,318.1021818999434,318.1021818999434,318.1021818999434,318.1021818999434,318.1021818999434,318.1021818999434,76,58,52,39,76,56,6.0,1.4614925000350922,,,,,,,,,,,,,[],[],[],[],[],[],[],-0.6,3,,[],[],[],[],[],[],[],,,,,None,None,322.10162879992276,323.78769419994205,320.6122415999416,320.6122415999416,320.6122415999416,320.6122415999416,320.6122415999416,,,,,,,,,,,,,,264,m,23,2023-03-26_14h12.51.489,RL,2022.2.4,60.186361066127205,
0,0.3,0.225,0,25,25,25,,,,,,,,,,None,323.78769419994205,323.78769419994205,323.78769419994205,323.78769419994205,323.78769419994205,323.78769419994205,j,1.1749739000806585,324.9885272999527,324.9885272999527,324.9885272999527,324.9885272999527,324.9885272999527,324.9885272999527,325.283672099933,325.283672099933,326.1803650999209,326.1803650999209,326.1803650999209,326.1803650999209,326.1803650999209,326.1803650999209,326.1803650999209,326.1803650999209,326.1803650999209,326.1803650999209,326.1803650999209,326.1803650999209,326.1803650999209,326.1803650999209,326.1803650999209,326.1803650999209,326.1803650999209,65,52,46,38,38,33,5.0,1.4616702999919653,,,,,,,,,,,,,[],[],[],[],[],[],[],-0.6,2,,[],[],[],[],[],[],[],,,,,None,None,330.18176209996454,332.047520800028,328.69066999992356,328.69066999992356,328.69066999992356,328.69066999992356,328.69066999992356,,,,,,,,,,,,,,264,m,23,2023-03-26_14h12.51.489,RL,2022.2.4,60.186361066127205,
1,-0.3,-0.225,0,26,26,26,,,,,,,,,,None,332.047520800028,332.047520800028,332.047520800028,332.047520800028,332.047520800028,332.047520800028,r,0.9022929000202566,332.98375289991964,332.98375289991964,332.98375289991964,332.98375289991964,332.98375289991964,332.98375289991964,333.2785279999953,333.2785279999953,335.13988849997986,335.13988849997986,335.1560368000064,335.1560368000064,335.1560368000064,335.1560368000064,335.1560368000064,335.1560368000064,335.1560368000064,335.1560368000064,335.1560368000064,335.1560368000064,335.1560368000064,335.1560368000064,335.1560368000064,335.1560368000064,335.1560368000064,64,62,53,33,64,35,None,None,,,,,,,,,,,,,[],[],[],[],[],[],[],-0.2,1,50,[0.000925925925925926],[-0.30462962962962964],[1],[0],[0],[5.914419399923645],['tijiao_random_2'],343.6070203999989,343.6070203999989,343.6070203999989,343.6070203999989,7.962962962962963,3.057978200027719,346.6907637999393,348.3544586999342,,,,,,337.67902999999933,337.67902999999933,337.67902999999933,337.67902999999933,337.67902999999933,337.67902999999933,337.67902999999933,337.67902999999933,0.006657100049778819,337.67902999999933,,,,264,m,23,2023-03-26_14h12.51.489,RL,2022.2.4,60.186361066127205,
0,0.3,0.225,0,27,27,27,,,,,,,,,,None,348.3544586999342,348.3544586999342,348.3544586999342,348.3544586999342,348.3544586999342,348.3544586999342,f,0.3068932000314817,348.6905563999899,348.6905563999899,348.6905563999899,348.6905563999899,348.6905563999899,348.6905563999899,348.9858017999213,348.9858017999213,350.0661731000291,350.0661731000291,350.0818684999831,350.0818684999831,350.0818684999831,350.0818684999831,350.0818684999831,350.0818684999831,350.0818684999831,350.0818684999831,350.0818684999831,350.0818684999831,350.0818684999831,350.0818684999831,350.0818684999831,350.0818684999831,350.0818684999831,63,63,50,39,63,60,None,None,352.59551829996053,352.59551829996053,352.59551829996053,352.59551829996053,352.59551829996053,352.59551829996053,352.59551829996053,352.59551829996053,0.00705519993789494,352.59551829996053,60,60,[0.03333333333333333],[-0.30462962962962964],[1],[0],[0],[5.708134500076994],['tijiao'],-0.2,0,,[],[],[],[],[],[],[],358.32710400002543,358.32710400002543,358.32710400002543,358.32710400002543,8.00925925925926,1.963214199990034,360.3036079999292,361.9835428999504,,,,,,,,,,,,,,,,,,,264,m,23,2023-03-26_14h12.51.489,RL,2022.2.4,60.186361066127205,
1,-0.3,-0.225,0,28,28,28,,,,,,,,,,None,361.9835428999504,361.9835428999504,361.9835428999504,361.9835428999504,361.9835428999504,361.9835428999504,f,0.32713009999133646,362.3352173999883,362.3352173999883,362.3352173999883,362.3352173999883,362.3352173999883,362.3352173999883,362.63173239992466,362.63173239992466,363.62795090000145,363.62795090000145,363.62795090000145,363.62795090000145,363.62795090000145,363.62795090000145,363.62795090000145,363.62795090000145,363.62795090000145,363.62795090000145,363.62795090000145,363.62795090000145,363.62795090000145,363.62795090000145,363.62795090000145,363.62795090000145,363.62795090000145,61,56,60,37,56,38,6.0,1.7941899000434205,,,,,,,,,,,,,[],[],[],[],[],[],[],0.6,2,,[],[],[],[],[],[],[],,,,,None,None,367.9602906999644,369.7458422000054,366.1382434000261,366.1382434000261,366.1382434000261,366.1382434000261,366.1382434000261,,,,,,,,,,,,,,264,m,23,2023-03-26_14h12.51.489,RL,2022.2.4,60.186361066127205,
0,0.3,0.225,0,29,29,29,,,,,,,,,,None,369.7458422000054,369.7458422000054,369.7458422000054,369.7458422000054,369.7458422000054,369.7458422000054,i,0.4975259000202641,370.26438379997853,370.26438379997853,370.26438379997853,370.26438379997853,370.26438379997853,370.26438379997853,370.56033409992233,370.56033409992233,372.22149109991733,372.22149109991733,372.22149109991733,372.22149109991733,372.22149109991733,372.22149109991733,372.22149109991733,372.22149109991733,372.22149109991733,372.22149109991733,372.22149109991733,372.22149109991733,372.22149109991733,372.22149109991733,372.22149109991733,372.22149109991733,372.22149109991733,56,58,49,45,49,65,3.0,1.9098699999740347,,,,,,,,,,,,,[],[],[],[],[],[],[],-0.6,3,,[],[],[],[],[],[],[],,,,,None,None,376.6712690999266,378.63801919994876,374.73161789996084,374.73161789996084,374.73161789996084,374.73161789996084,374.73161789996084,,,,,,,,,,,,,,264,m,23,2023-03-26_14h12.51.489,RL,2022.2.4,60.186361066127205,
1,-0.3,-0.225,0,30,30,30,,,,,,,,,,None,378.63801919994876,378.63801919994876,378.63801919994876,378.63801919994876,378.63801919994876,378.63801919994876,j,0.618064200039953,379.29062119999435,379.29062119999435,379.29062119999435,379.29062119999435,379.29062119999435,379.29062119999435,379.58562219992746,379.58562219992746,380.78123590000905,380.78123590000905,380.78123590000905,380.78123590000905,380.78123590000905,380.78123590000905,380.78123590000905,380.78123590000905,380.78123590000905,380.78123590000905,380.78123590000905,380.78123590000905,380.78123590000905,380.78123590000905,380.78123590000905,380.78123590000905,380.78123590000905,55,55,52,36,36,44,3.0,1.295385399949737,,,,,,,,,,,,,[],[],[],[],[],[],[],0.2,2,,[],[],[],[],[],[],[],,,,,None,None,384.61651369999163,386.1344982999144,383.29210139997303,383.29210139997303,383.29210139997303,383.29210139997303,383.29210139997303,,,,,,,,,,,,,,264,m,23,2023-03-26_14h12.51.489,RL,2022.2.4,60.186361066127205,
0,0.3,0.225,0,31,31,31,,,,,,,,,,None,386.1344982999144,386.1344982999144,386.1344982999144,386.1344982999144,386.1344982999144,386.1344982999144,r,0.860450700041838,387.0204509999603,387.0204509999603,387.0204509999603,387.0204509999603,387.0204509999603,387.0204509999603,387.31485189998057,387.31485189998057,388.95899950002786,388.95899950002786,388.95899950002786,388.95899950002786,388.95899950002786,388.95899950002786,388.95899950002786,388.95899950002786,388.95899950002786,388.95899950002786,388.95899950002786,388.95899950002786,388.95899950002786,388.95899950002786,388.95899950002786,388.95899950002786,388.95899950002786,50,63,50,45,50,67,None,None,,,,,,,,,,,,,[],[],[],[],[],[],[],-0.2,1,70,[0.000925925925925926],[-0.30092592592592593],[1],[0],[0],[4.683204200002365],['tijiao_random_2'],396.17911249992903,396.17911249992903,396.17911249992903,396.17911249992903,7.148148148148148,2.4948938000015914,398.68176599999424,400.42872929992154,,,,,,391.48165279999375,391.48165279999375,391.48165279999375,391.48165279999375,391.48165279999375,391.48165279999375,391.48165279999375,391.48165279999375,0.006896499893628061,391.48165279999375,,,,264,m,23,2023-03-26_14h12.51.489,RL,2022.2.4,60.186361066127205,
1,-0.3,-0.225,0,32,32,32,,,,,,,,,,None,400.42872929992154,400.42872929992154,400.42872929992154,400.42872929992154,400.42872929992154,400.42872929992154,f,0.38452989992219955,400.84787289996166,400.84787289996166,400.84787289996166,400.84787289996166,400.84787289996166,400.84787289996166,401.142961799982,401.142961799982,401.9570065999869,401.9570065999869,401.9570065999869,401.9570065999869,401.9570065999869,401.9570065999869,401.9570065999869,401.9570065999869,401.9570065999869,401.9570065999869,401.9570065999869,401.9570065999869,401.9570065999869,401.9570065999869,401.9570065999869,401.9570065999869,401.9570065999869,57,58,50,48,58,60,None,None,,,,,,,,,,,,,[],[],[],[],[],[],[],-0.2,1,90,[0.0],[-0.30277777777777776],[1],[0],[0],[3.120803900063038],['tijiao_random_2'],407.6147186999442,407.6147186999442,407.6147186999442,407.6147186999442,9.101851851851851,2.159966000006534,409.78582979994826,411.48182180000003,,,,,,404.47957630001474,404.47957630001474,404.47957630001474,404.47957630001474,404.47957630001474,404.47957630001474,404.47957630001474,404.47957630001474,0.006476099952124059,404.47957630001474,,,,264,m,23,2023-03-26_14h12.51.489,RL,2022.2.4,60.186361066127205,
0,0.3,0.225,0,33,33,33,,,,,,,,,,None,411.48182180000003,411.48182180000003,411.48182180000003,411.48182180000003,411.48182180000003,411.48182180000003,f,0.4922359000192955,412.0021466999315,412.0021466999315,412.0021466999315,412.0021466999315,412.0021466999315,412.0021466999315,412.29719569999725,412.29719569999725,413.8753234000178,413.8753234000178,413.890822699992,413.890822699992,413.890822699992,413.890822699992,413.890822699992,413.890822699992,413.890822699992,413.890822699992,413.890822699992,413.890822699992,413.890822699992,413.890822699992,413.890822699992,413.890822699992,413.890822699992,60,53,51,43,53,28,6.0,1.4948007999919355,,,,,,,,,,,,,[],[],[],[],[],[],[],0.6,3,,[],[],[],[],[],[],[],,,,,None,None,417.9248251999961,419.54319240001496,416.4013411999913,416.4013411999913,416.4013411999913,416.4013411999913,416.4013411999913,,,,,,,,,,,,,,264,m,23,2023-03-26_14h12.51.489,RL,2022.2.4,60.186361066127205,
1,-0.3,-0.225,0,34,34,34,,,,,,,,,,None,419.54319240001496,419.54319240001496,419.54319240001496,419.54319240001496,419.54319240001496,419.54319240001496,f,0.8028904000530019,420.37860289996024,420.37860289996024,420.37860289996024,420.37860289996024,420.37860289996024,420.37860289996024,420.6734728999436,420.6734728999436,421.76939469994977,421.76939469994977,421.76939469994977,421.76939469994977,421.76939469994977,421.76939469994977,421.76939469994977,421.76939469994977,421.76939469994977,421.76939469994977,421.76939469994977,421.76939469994977,421.76939469994977,421.76939469994977,421.76939469994977,421.76939469994977,421.76939469994977,63,58,58,50,58,62,None,None,424.28312979999464,424.28312979999464,424.28312979999464,424.28312979999464,424.28312979999464,424.28312979999464,424.28312979999464,424.28312979999464,0.005937800044193864,424.28312979999464,90,90,[0.020370370370370372],[-0.27870370370370373],[1],[0],[0],[4.87647969997488],['tijiao'],0.2,0,,[],[],[],[],[],[],[],429.18131729995366,429.18131729995366,429.18131729995366,429.18131729995366,9.981481481481481,1.8327486000489444,431.0273103999207,432.9396588000236,,,,,,,,,,,,,,,,,,,264,m,23,2023-03-26_14h12.51.489,RL,2022.2.4,60.186361066127205,
0,0.3,0.225,0,35,35,35,,,,,,,,,,None,432.9396588000236,432.9396588000236,432.9396588000236,432.9396588000236,432.9396588000236,432.9396588000236,f,0.44513330003246665,433.41087739996146,433.41087739996146,433.41087739996146,433.41087739996146,433.41087739996146,433.41087739996146,433.7045038000215,433.7045038000215,435.0498658999568,435.0498658999568,435.0498658999568,435.0498658999568,435.0498658999568,435.0498658999568,435.0498658999568,435.0498658999568,435.0498658999568,435.0498658999568,435.0498658999568,435.0498658999568,435.0498658999568,435.0498658999568,435.0498658999568,435.0498658999568,435.0498658999568,54,48,45,40,48,26,None,None,437.5650039999746,437.5650039999746,437.5650039999746,437.5650039999746,437.5650039999746,437.5650039999746,437.5650039999746,437.5650039999746,0.007575499941594899,437.5650039999746,70,70,[0.062037037037037036],[-0.29814814814814816],[1],[0],[0],[5.606259500025772],['tijiao'],-0.2,0,,[],[],[],[],[],[],[],443.1912945000222,443.1912945000222,443.1912945000222,443.1912945000222,9.064814814814815,1.5046613999875262,444.70622439996805,446.66899209993426,,,,,,,,,,,,,,,,,,,264,m,23,2023-03-26_14h12.51.489,RL,2022.2.4,60.186361066127205,
1,-0.3,-0.225,0,36,36,36,,,,,,,,,,None,446.66899209993426,446.66899209993426,446.66899209993426,446.66899209993426,446.66899209993426,446.66899209993426,f,0.4187831999734044,447.1223950999556,447.1223950999556,447.1223950999556,447.1223950999556,447.1223950999556,447.1223950999556,447.41712519992143,447.41712519992143,449.27795899997,449.27795899997,449.27795899997,449.27795899997,449.27795899997,449.27795899997,449.27795899997,449.27795899997,449.27795899997,449.27795899997,449.27795899997,449.27795899997,449.27795899997,449.27795899997,449.27795899997,449.27795899997,449.27795899997,57,42,60,48,42,63,3.0,1.8934068999951705,,,,,,,,,,,,,[],[],[],[],[],[],[],0.6,3,,[],[],[],[],[],[],[],,,,,None,None,453.71194459998515,455.42861359997187,451.78837959992234,451.78837959992234,451.78837959992234,451.78837959992234,451.78837959992234,,,,,,,,,,,,,,264,m,23,2023-03-26_14h12.51.489,RL,2022.2.4,60.186361066127205,
0,0.3,0.225,0,37,37,37,,,,,,,,,,None,455.42861359997187,455.42861359997187,455.42861359997187,455.42861359997187,455.42861359997187,455.42861359997187,r,0.9411795999621972,456.3954422000097,456.3954422000097,456.3954422000097,456.3954422000097,456.3954422000097,456.3954422000097,456.6915090000257,456.6915090000257,457.60527870000806,457.60527870000806,457.60527870000806,457.60527870000806,457.60527870000806,457.60527870000806,457.60527870000806,457.60527870000806,457.60527870000806,457.60527870000806,457.60527870000806,457.60527870000806,457.60527870000806,457.60527870000806,457.60527870000806,457.60527870000806,457.60527870000806,59,44,48,45,59,53,None,None,460.1211483000079,460.1211483000079,460.1211483000079,460.1211483000079,460.1211483000079,460.1211483000079,460.1211483000079,460.1211483000079,0.009354099980555475,460.1211483000079,60,60,[-0.009259259259259259],[-0.3],[1],[0],[0],[3.726057399995625],['tijiao'],0.2,0,,[],[],[],[],[],[],[],463.87059579999186,463.87059579999186,463.87059579999186,463.87059579999186,7.981481481481482,2.265213800012134,466.1650543999858,467.82813909999095,,,,,,,,,,,,,,,,,,,264,m,23,2023-03-26_14h12.51.489,RL,2022.2.4,60.186361066127205,
1,-0.3,-0.225,0,38,38,38,,,,,,,,,,None,467.82813909999095,467.82813909999095,467.82813909999095,467.82813909999095,467.82813909999095,467.82813909999095,r,0.44163109990768135,468.29885979997925,468.29885979997925,468.29885979997925,468.29885979997925,468.29885979997925,468.29885979997925,468.5923754000105,468.5923754000105,469.58924619993195,469.58924619993195,469.58924619993195,469.58924619993195,469.58924619993195,469.58924619993195,469.58924619993195,469.58924619993195,469.58924619993195,469.58924619993195,469.58924619993195,469.58924619993195,469.58924619993195,469.58924619993195,469.58924619993195,469.58924619993195,469.58924619993195,43,45,51,52,43,38,5.0,1.8603370999917388,,,,,,,,,,,,,[],[],[],[],[],[],[],0.2,2,,[],[],[],[],[],[],[],,,,,None,None,473.98890410002787,475.722890199977,472.09929019992705,472.09929019992705,472.09929019992705,472.09929019992705,472.09929019992705,,,,,,,,,,,,,,264,m,23,2023-03-26_14h12.51.489,RL,2022.2.4,60.186361066127205,
0,0.3,0.225,0,39,39,39,,,,,,,,,,None,475.722890199977,475.722890199977,475.722890199977,475.722890199977,475.722890199977,475.722890199977,i,0.6964220999507234,476.44240009994246,476.44240009994246,476.44240009994246,476.44240009994246,476.44240009994246,476.44240009994246,476.7370400999207,476.7370400999207,478.6812405999517,478.6812405999517,478.6812405999517,478.6812405999517,478.6812405999517,478.6812405999517,478.6812405999517,478.6812405999517,478.6812405999517,478.6812405999517,478.6812405999517,478.6812405999517,478.6812405999517,478.6812405999517,478.6812405999517,478.6812405999517,478.6812405999517,52,56,49,46,49,44,None,None,481.19569710001815,481.19569710001815,481.19569710001815,481.19569710001815,481.19569710001815,481.19569710001815,481.19569710001815,481.19569710001815,0.007586299907416105,481.19569710001815,60,60,[0.06296296296296296],[-0.2833333333333333],[1],[0],[0],[4.061386400018819],['tijiao'],-0.6,0,,[],[],[],[],[],[],[],485.27801889996044,485.27801889996044,485.27801889996044,485.27801889996044,9.12962962962963,1.8988363000098616,487.20719589991495,488.98703019996174,,,,,,,,,,,,,,,,,,,264,m,23,2023-03-26_14h12.51.489,RL,2022.2.4,60.186361066127205,
1,-0.3,-0.225,0,40,40,40,,,,,,,,,,None,488.98703019996174,488.98703019996174,488.98703019996174,488.98703019996174,488.98703019996174,488.98703019996174,i,0.6235913999844342,489.6409908999922,489.6409908999922,489.6409908999922,489.6409908999922,489.6409908999922,489.6409908999922,489.9346686999779,489.9346686999779,491.1633796999231,491.1633796999231,491.1633796999231,491.1633796999231,491.1633796999231,491.1633796999231,491.1633796999231,491.1633796999231,491.1633796999231,491.1633796999231,491.1633796999231,491.1633796999231,491.1633796999231,491.1633796999231,491.1633796999231,491.1633796999231,491.1633796999231,54,54,50,56,50,29,6.0,1.7939193999627605,,,,,,,,,,,,,[],[],[],[],[],[],[],0.6,2,,[],[],[],[],[],[],[],,,,,None,None,495.4969084999757,497.1976045999909,493.6740173000144,493.6740173000144,493.6740173000144,493.6740173000144,493.6740173000144,,,,,,,,,,,,,,264,m,23,2023-03-26_14h12.51.489,RL,2022.2.4,60.186361066127205,
0,0.3,0.225,0,41,41,41,,,,,,,,,,None,497.1976045999909,497.1976045999909,497.1976045999909,497.1976045999909,497.1976045999909,497.1976045999909,i,1.0201377000194043,498.24890669994056,498.24890669994056,498.24890669994056,498.24890669994056,498.24890669994056,498.24890669994056,498.5442563999677,498.5442563999677,499.9066375999246,499.9066375999246,499.9066375999246,499.9066375999246,499.9066375999246,499.9066375999246,499.9066375999246,499.9066375999246,499.9066375999246,499.9066375999246,499.9066375999246,499.9066375999246,499.9066375999246,499.9066375999246,499.9066375999246,499.9066375999246,499.9066375999246,44,54,48,59,48,33,6.0,1.7776999999769032,,,,,,,,,,,,,[],[],[],[],[],[],[],-0.6,3,,[],[],[],[],[],[],[],,,,,None,None,504.2232266999781,506.1900334999664,502.4168298000004,502.4168298000004,502.4168298000004,502.4168298000004,502.4168298000004,,,,,,,,,,,,,,264,m,23,2023-03-26_14h12.51.489,RL,2022.2.4,60.186361066127205,
1,-0.3,-0.225,0,42,42,42,,,,,,,,,,None,506.1900334999664,506.1900334999664,506.1900334999664,506.1900334999664,506.1900334999664,506.1900334999664,j,0.4948770999908447,506.709766499931,506.709766499931,506.709766499931,506.709766499931,506.709766499931,506.709766499931,507.00446059997194,507.00446059997194,507.9540700999787,507.9540700999787,507.9540700999787,507.9540700999787,507.9540700999787,507.9540700999787,507.9540700999787,507.9540700999787,507.9540700999787,507.9540700999787,507.9540700999787,507.9540700999787,507.9540700999787,507.9540700999787,507.9540700999787,507.9540700999787,507.9540700999787,46,44,54,55,55,52,6.0,1.5600902000442147,,,,,,,,,,,,,[],[],[],[],[],[],[],-0.6,3,,[],[],[],[],[],[],[],,,,,None,None,512.0515859000152,513.6364397000289,510.46174329996575,510.46174329996575,510.46174329996575,510.46174329996575,510.46174329996575,,,,,,,,,,,,,,264,m,23,2023-03-26_14h12.51.489,RL,2022.2.4,60.186361066127205,
0,0.3,0.225,0,43,43,43,,,,,,,,,,None,513.6364397000289,513.6364397000289,513.6364397000289,513.6364397000289,513.6364397000289,513.6364397000289,i,1.06060880003497,514.7209731999319,514.7209731999319,514.7209731999319,514.7209731999319,514.7209731999319,514.7209731999319,515.0159497000277,515.0159497000277,516.0289257999975,516.0289257999975,516.0289257999975,516.0289257999975,516.0289257999975,516.0289257999975,516.0289257999975,516.0289257999975,516.0289257999975,516.0289257999975,516.0289257999975,516.0289257999975,516.0289257999975,516.0289257999975,516.0289257999975,516.0289257999975,516.0289257999975,50,47,54,59,54,62,None,None,518.5435097999871,518.5435097999871,518.5435097999871,518.5435097999871,518.5435097999871,518.5435097999871,518.5435097999871,518.5435097999871,0.00683889992069453,518.5435097999871,70,70,[0.053703703703703705],[-0.2935185185185185],[1],[0],[0],[3.9787752999691293],['tijiao'],0.6,0,,[],[],[],[],[],[],[],522.5425075999228,522.5425075999228,522.5425075999228,522.5425075999228,9.185185185185185,1.5640042000450194,524.1243967999471,525.6702168999473,,,,,,,,,,,,,,,,,,,264,m,23,2023-03-26_14h12.51.489,RL,2022.2.4,60.186361066127205,
1,-0.3,-0.225,0,44,44,44,,,,,,,,,,None,525.6702168999473,525.6702168999473,525.6702168999473,525.6702168999473,525.6702168999473,525.6702168999473,i,0.5218099999474362,526.2235440999502,526.2235440999502,526.2235440999502,526.2235440999502,526.2235440999502,526.2235440999502,526.517949400004,526.517949400004,528.2456437000073,528.2456437000073,528.2456437000073,528.2456437000073,528.2456437000073,528.2456437000073,528.2456437000073,528.2456437000073,528.2456437000073,528.2456437000073,528.2456437000073,528.2456437000073,528.2456437000073,528.2456437000073,528.2456437000073,528.2456437000073,528.2456437000073,47,51,47,60,47,60,2.0,2.624298100010492,,,,,,,,,,,,,[],[],[],[],[],[],[],0.6,2,,[],[],[],[],[],[],[],,,,,None,None,533.408715599915,535.0446825999534,530.7560142999282,530.7560142999282,530.7560142999282,530.7560142999282,530.7560142999282,,,,,,,,,,,,,,264,m,23,2023-03-26_14h12.51.489,RL,2022.2.4,60.186361066127205,
0,0.3,0.225,0,45,45,45,,,,,,,,,,None,535.0446825999534,535.0446825999534,535.0446825999534,535.0446825999534,535.0446825999534,535.0446825999534,r,0.44797570002265275,535.514152699965,535.514152699965,535.514152699965,535.514152699965,535.514152699965,535.514152699965,535.8092162000248,535.8092162000248,537.5705559999915,537.5705559999915,537.5705559999915,537.5705559999915,537.5705559999915,537.5705559999915,537.5705559999915,537.5705559999915,537.5705559999915,537.5705559999915,537.5705559999915,537.5705559999915,537.5705559999915,537.5705559999915,537.5705559999915,537.5705559999915,537.5705559999915,41,55,44,66,41,58,None,None,540.0859380000038,540.0859380000038,540.0859380000038,540.0859380000038,540.0859380000038,540.0859380000038,540.0859380000038,540.0859380000038,0.008849399979226291,540.0859380000038,50,50,[0.10277777777777777],[-0.2740740740740741],[1],[0],[0],[4.308183899964206],['tijiao'],0.6,0,,[],[],[],[],[],[],[],544.4177361999173,544.4177361999173,544.4177361999173,544.4177361999173,9.027777777777779,2.079101899988018,546.512179399957,548.2915753999259,,,,,,,,,,,,,,,,,,,264,m,23,2023-03-26_14h12.51.489,RL,2022.2.4,60.186361066127205,
1,-0.3,-0.225,0,46,46,46,,,,,,,,,,None,548.2915753999259,548.2915753999259,548.2915753999259,548.2915753999259,548.2915753999259,548.2915753999259,r,0.6692565999692306,548.994551599957,548.994551599957,548.994551599957,548.994551599957,548.994551599957,548.994551599957,549.2890486000106,549.2890486000106,550.9677668999648,550.9677668999648,550.9835846999194,550.9835846999194,550.9835846999194,550.9835846999194,550.9835846999194,550.9835846999194,550.9835846999194,550.9835846999194,550.9835846999194,550.9835846999194,550.9835846999194,550.9835846999194,550.9835846999194,550.9835846999194,550.9835846999194,38,57,43,57,38,58,2.0,3.290300299995579,,,,,,,,,,,,,[],[],[],[],[],[],[],0.6,2,,[],[],[],[],[],[],[],,,,,None,None,556.8130982000148,558.5803573000012,553.49388059997,553.49388059997,553.49388059997,553.49388059997,553.49388059997,,,,,,,,,,,,,,264,m,23,2023-03-26_14h12.51.489,RL,2022.2.4,60.186361066127205,
0,0.3,0.225,0,47,47,47,,,,,,,,,,None,558.5803573000012,558.5803573000012,558.5803573000012,558.5803573000012,558.5803573000012,558.5803573000012,i,0.5814786000410095,559.183427699958,559.183427699958,559.183427699958,559.183427699958,559.183427699958,559.183427699958,559.4779434999218,559.4779434999218,560.3917730000103,560.3917730000103,560.4084550000262,560.4084550000262,560.4084550000262,560.4084550000262,560.4084550000262,560.4084550000262,560.4084550000262,560.4084550000262,560.4084550000262,560.4084550000262,560.4084550000262,560.4084550000262,560.4084550000262,560.4084550000262,560.4084550000262,49,53,51,65,51,56,None,None,,,,,,,,,,,,,[],[],[],[],[],[],[],0.2,1,60,[0.08888888888888889],[-0.2722222222222222],[1],[0],[0],[4.7843733000336215],['tijiao_random_2'],567.729326599976,567.729326599976,567.729326599976,567.729326599976,3.9907407407407405,2.309034900041297,570.0477038000245,571.7611920000054,,,,,,562.929931199993,562.929931199993,562.929931199993,562.929931199993,562.929931199993,562.929931199993,562.929931199993,562.929931199993,0.007318799966014922,562.929931199993,,,,264,m,23,2023-03-26_14h12.51.489,RL,2022.2.4,60.186361066127205,
1,-0.3,-0.225,0,48,48,48,,,,,,,,,,None,571.7611920000054,571.7611920000054,571.7611920000054,571.7611920000054,571.7611920000054,571.7611920000054,i,0.4846827000146732,572.2810939999763,572.2810939999763,572.2810939999763,572.2810939999763,572.2810939999763,572.2810939999763,572.5755835999735,572.5755835999735,573.7877862999449,573.7877862999449,573.7877862999449,573.7877862999449,573.7877862999449,573.7877862999449,573.7877862999449,573.7877862999449,573.7877862999449,573.7877862999449,573.7877862999449,573.7877862999449,573.7877862999449,573.7877862999449,573.7877862999449,573.7877862999449,573.7877862999449,48,61,52,54,52,27,None,None,576.3017339999788,576.3017339999788,576.3017339999788,576.3017339999788,576.3017339999788,576.3017339999788,576.3017339999788,576.3017339999788,0.006687099928967655,576.3017339999788,90,90,[-0.014814814814814815],[-0.2851851851851852],[1],[0],[0],[5.758247500052676],['tijiao'],-0.6,0,,[],[],[],[],[],[],[],582.0795704999473,582.0795704999473,582.0795704999473,582.0795704999473,9.962962962962964,1.5830972000258043,583.6946871000109,585.3241571999388,,,,,,,,,,,,,,,,,,,264,m,23,2023-03-26_14h12.51.489,RL,2022.2.4,60.186361066127205,
0,0.3,0.225,0,49,49,49,,,,,,,,,,None,585.3241571999388,585.3241571999388,585.3241571999388,585.3241571999388,585.3241571999388,585.3241571999388,i,1.0557819999521598,586.4089285000227,586.4089285000227,586.4089285000227,586.4089285000227,586.4089285000227,586.4089285000227,586.7036659999285,586.7036659999285,587.8494565000292,587.8494565000292,587.8494565000292,587.8494565000292,587.8494565000292,587.8494565000292,587.8494565000292,587.8494565000292,587.8494565000292,587.8494565000292,587.8494565000292,587.8494565000292,587.8494565000292,587.8494565000292,587.8494565000292,587.8494565000292,587.8494565000292,48,55,44,44,44,50,None,None,590.3650204000296,590.3650204000296,590.3650204000296,590.3650204000296,590.3650204000296,590.3650204000296,590.3650204000296,590.3650204000296,0.008290400030091405,590.3650204000296,90,90,[0.03425925925925926],[-0.28425925925925927],[1],[0],[0],[3.943844099994749],['tijiao'],0.2,0,,[],[],[],[],[],[],[],594.3313056000043,594.3313056000043,594.3313056000043,594.3313056000043,9.953703703703704,2.5796824999852106,596.9245059000095,598.6379176999908,,,,,,,,,,,,,,,,,,,264,m,23,2023-03-26_14h12.51.489,RL,2022.2.4,60.186361066127205,
1,-0.3,-0.225,0,50,50,50,,,,,,,,,,None,598.6379176999908,598.6379176999908,598.6379176999908,598.6379176999908,598.6379176999908,598.6379176999908,f,0.3254511000122875,598.9918661999982,598.9918661999982,598.9918661999982,598.9918661999982,598.9918661999982,598.9918661999982,599.2860846000258,599.2860846000258,600.6479792000027,600.6479792000027,600.6479792000027,600.6479792000027,600.6479792000027,600.6479792000027,600.6479792000027,600.6479792000027,600.6479792000027,600.6479792000027,600.6479792000027,600.6479792000027,600.6479792000027,600.6479792000027,600.6479792000027,600.6479792000027,600.6479792000027,49,60,50,62,60,58,6.0,1.3784945000661537,,,,,,,,,,,,,[],[],[],[],[],[],[],0.2,2,,[],[],[],[],[],[],[],,,,,None,None,604.5650700000115,606.4830022000242,603.1586652999977,603.1586652999977,603.1586652999977,603.1586652999977,603.1586652999977,,,,,,,,,,,,,,264,m,23,2023-03-26_14h12.51.489,RL,2022.2.4,60.186361066127205,
0,0.3,0.225,0,51,51,51,,,,,,,,,,None,606.4830022000242,606.4830022000242,606.4830022000242,606.4830022000242,606.4830022000242,606.4830022000242,r,0.3479413000168279,606.8530403999612,606.8530403999612,606.8530403999612,606.8530403999612,606.8530403999612,606.8530403999612,607.1483923000051,607.1483923000051,608.5597536999267,608.5597536999267,608.5597536999267,608.5597536999267,608.5597536999267,608.5597536999267,608.5597536999267,608.5597536999267,608.5597536999267,608.5597536999267,608.5597536999267,608.5597536999267,608.5597536999267,608.5597536999267,608.5597536999267,608.5597536999267,608.5597536999267,46,51,61,57,46,39,6.0,2.027765000006184,,,,,,,,,,,,,[],[],[],[],[],[],[],0.2,2,,[],[],[],[],[],[],[],,,,,None,None,613.125543699949,614.9264362999238,611.0705766999163,611.0705766999163,611.0705766999163,611.0705766999163,611.0705766999163,,,,,,,,,,,,,,264,m,23,2023-03-26_14h12.51.489,RL,2022.2.4,60.186361066127205,
1,-0.3,-0.225,0,52,52,52,,,,,,,,,,None,614.9264362999238,614.9264362999238,614.9264362999238,614.9264362999238,614.9264362999238,614.9264362999238,i,0.4327244000742212,615.3963122999994,615.3963122999994,615.3963122999994,615.3963122999994,615.3963122999994,615.3963122999994,615.6910336000146,615.6910336000146,616.604776400025,616.604776400025,616.604776400025,616.604776400025,616.604776400025,616.604776400025,616.604776400025,616.604776400025,616.604776400025,616.604776400025,616.604776400025,616.604776400025,616.604776400025,616.604776400025,616.604776400025,616.604776400025,616.604776400025,43,62,65,54,65,48,None,None,619.1188868000172,619.1188868000172,619.1188868000172,619.1188868000172,619.1188868000172,619.1188868000172,619.1188868000172,619.1188868000172,0.007103299954906106,619.1188868000172,99,99,[0.075],[-0.3055555555555556],[1],[0],[0],[3.8777322999667376],['tijiao'],0.2,0,,[],[],[],[],[],[],[],623.0165498999413,623.0165498999413,623.0165498999413,623.0165498999413,10.0,1.8003395999548957,624.8316631999332,626.4602606999688,,,,,,,,,,,,,,,,,,,264,m,23,2023-03-26_14h12.51.489,RL,2022.2.4,60.186361066127205,
0,0.3,0.225,0,53,53,53,,,,,,,,,,None,626.4602606999688,626.4602606999688,626.4602606999688,626.4602606999688,626.4602606999688,626.4602606999688,j,0.39266580005642027,626.8828902000096,626.8828902000096,626.8828902000096,626.8828902000096,626.8828902000096,626.8828902000096,627.1767460999545,627.1767460999545,629.0206383999903,629.0206383999903,629.0206383999903,629.0206383999903,629.0206383999903,629.0206383999903,629.0206383999903,629.0206383999903,629.0206383999903,629.0206383999903,629.0206383999903,629.0206383999903,629.0206383999903,629.0206383999903,629.0206383999903,629.0206383999903,629.0206383999903,53,53,66,53,53,56,None,None,,,,,,,,,,,,,[],[],[],[],[],[],[],-0.2,1,40,[-0.012037037037037037],[-0.29907407407407405],[1],[0],[0],[3.886457599932328],['tijiao_random_2'],635.4418758000247,635.4418758000247,635.4418758000247,635.4418758000247,8.13888888888889,1.8444820999866351,637.2977866999572,639.0773840999464,,,,,,631.5432892999379,631.5432892999379,631.5432892999379,631.5432892999379,631.5432892999379,631.5432892999379,631.5432892999379,631.5432892999379,0.00609979999717325,631.5432892999379,,,,264,m,23,2023-03-26_14h12.51.489,RL,2022.2.4,60.186361066127205,
1,-0.3,-0.225,0,54,54,54,,,,,,,,,,None,639.0773840999464,639.0773840999464,639.0773840999464,639.0773840999464,639.0773840999464,639.0773840999464,f,0.44411389995366335,639.5476432000287,639.5476432000287,639.5476432000287,639.5476432000287,639.5476432000287,639.5476432000287,639.841869099997,639.841869099997,641.4530589999631,641.4530589999631,641.4530589999631,641.4530589999631,641.4530589999631,641.4530589999631,641.4530589999631,641.4530589999631,641.4530589999631,641.4530589999631,641.4530589999631,641.4530589999631,641.4530589999631,641.4530589999631,641.4530589999631,641.4530589999631,641.4530589999631,48,61,55,55,61,36,None,None,643.9671420999803,643.9671420999803,643.9671420999803,643.9671420999803,643.9671420999803,643.9671420999803,643.9671420999803,643.9671420999803,0.007351199979893863,643.9671420999803,99,99,[-0.023148148148148147],[-0.29814814814814816],[1],[0],[0],[3.1473489000927657],['tijiao'],0.2,0,,[],[],[],[],[],[],[],647.1366144999629,647.1366144999629,647.1366144999629,647.1366144999629,9.907407407407407,1.5025926999514922,648.6498997999588,650.1799261999549,,,,,,,,,,,,,,,,,,,264,m,23,2023-03-26_14h12.51.489,RL,2022.2.4,60.186361066127205,
0,0.3,0.225,0,55,55,55,,,,,,,,,,None,650.1799261999549,650.1799261999549,650.1799261999549,650.1799261999549,650.1799261999549,650.1799261999549,i,0.46645509998779744,650.6826052999822,650.6826052999822,650.6826052999822,650.6826052999822,650.6826052999822,650.6826052999822,650.9782976999413,650.9782976999413,651.9247580999509,651.9247580999509,651.9247580999509,651.9247580999509,651.9247580999509,651.9247580999509,651.9247580999509,651.9247580999509,651.9247580999509,651.9247580999509,651.9247580999509,651.9247580999509,651.9247580999509,651.9247580999509,651.9247580999509,651.9247580999509,651.9247580999509,57,56,52,47,52,57,None,None,654.4393048000056,654.4393048000056,654.4393048000056,654.4393048000056,654.4393048000056,654.4393048000056,654.4393048000056,654.4393048000056,0.0071128999115899205,654.4393048000056,69,69,[0.06666666666666667],[-0.275],[1],[0],[0],[4.310901599936187],['tijiao'],-0.2,0,,[],[],[],[],[],[],[],658.7705482000019,658.7705482000019,658.7705482000019,658.7705482000019,9.944444444444443,1.6631042999215424,660.4516492999392,662.4303582999855,,,,,,,,,,,,,,,,,,,264,m,23,2023-03-26_14h12.51.489,RL,2022.2.4,60.186361066127205,
1,-0.3,-0.225,0,56,56,56,,,,,,,,,,None,662.4303582999855,662.4303582999855,662.4303582999855,662.4303582999855,662.4303582999855,662.4303582999855,j,0.28072749997954816,662.7346581999445,662.7346581999445,662.7346581999445,662.7346581999445,662.7346581999445,662.7346581999445,663.028612999944,663.028612999944,664.5405120999785,664.5405120999785,664.5405120999785,664.5405120999785,664.5405120999785,664.5405120999785,664.5405120999785,664.5405120999785,664.5405120999785,664.5405120999785,664.5405120999785,664.5405120999785,664.5405120999785,664.5405120999785,664.5405120999785,664.5405120999785,664.5405120999785,53,58,57,49,49,43,None,None,667.0553426999832,667.0553426999832,667.0553426999832,667.0553426999832,667.0553426999832,667.0553426999832,667.0553426999832,667.0553426999832,0.007685100077651441,667.0553426999832,50,50,[0.05648148148148148],[-0.2601851851851852],[1],[0],[0],[3.811797000002116],['tijiao'],-0.2,0,,[],[],[],[],[],[],[],670.8889267999912,670.8889267999912,670.8889267999912,670.8889267999912,10.027777777777779,1.731153899920173,672.634684599936,674.380691899918,,,,,,,,,,,,,,,,,,,264,m,23,2023-03-26_14h12.51.489,RL,2022.2.4,60.186361066127205,
0,0.3,0.225,0,57,57,57,,,,,,,,,,None,674.380691899918,674.380691899918,674.380691899918,674.380691899918,674.380691899918,674.380691899918,j,0.438165899948217,674.850762099959,674.850762099959,674.850762099959,674.850762099959,674.850762099959,674.850762099959,675.1455904999748,675.1455904999748,676.8079542999621,676.8079542999621,676.8233145999257,676.8233145999257,676.8233145999257,676.8233145999257,676.8233145999257,676.8233145999257,676.8233145999257,676.8233145999257,676.8233145999257,676.8233145999257,676.8233145999257,676.8233145999257,676.8233145999257,676.8233145999257,676.8233145999257,58,56,49,52,52,34,None,None,679.3385559999151,679.3385559999151,679.3385559999151,679.3385559999151,679.3385559999151,679.3385559999151,679.3385559999151,679.3385559999151,0.008124500047415495,679.3385559999151,60,60,[-0.02962962962962963],[-0.2722222222222222],[1],[0],[0],[5.041571800014935],['tijiao'],0.2,0,,[],[],[],[],[],[],[],684.4017376999836,684.4017376999836,684.4017376999836,684.4017376999836,9.851851851851851,2.542803900083527,686.9625661999453,688.7247440000065,,,,,,,,,,,,,,,,,,,264,m,23,2023-03-26_14h12.51.489,RL,2022.2.4,60.186361066127205,
1,-0.3,-0.225,0,58,58,58,,,,,,,,,,None,688.7247440000065,688.7247440000065,688.7247440000065,688.7247440000065,688.7247440000065,688.7247440000065,j,0.3916385000338778,689.1460033999756,689.1460033999756,689.1460033999756,689.1460033999756,689.1460033999756,689.1460033999756,689.4400048999814,689.4400048999814,690.9857022999786,690.9857022999786,691.0012823999859,691.0012823999859,691.0012823999859,691.0012823999859,691.0012823999859,691.0012823999859,691.0012823999859,691.0012823999859,691.0012823999859,691.0012823999859,691.0012823999859,691.0012823999859,691.0012823999859,691.0012823999859,691.0012823999859,66,50,54,51,51,49,5.0,2.557767300051637,,,,,,,,,,,,,[],[],[],[],[],[],[],-0.2,2,,[],[],[],[],[],[],[],,,,,None,None,696.0996384000173,698.0664429999888,693.5122060999274,693.5122060999274,693.5122060999274,693.5122060999274,693.5122060999274,,,,,,,,,,,,,,264,m,23,2023-03-26_14h12.51.489,RL,2022.2.4,60.186361066127205,
0,0.3,0.225,0,59,59,59,,,,,,,,,,None,698.0664429999888,698.0664429999888,698.0664429999888,698.0664429999888,698.0664429999888,698.0664429999888,i,0.5158526999875903,698.6193880999926,698.6193880999926,698.6193880999926,698.6193880999926,698.6193880999926,698.6193880999926,698.9141712000128,698.9141712000128,700.9243683000095,700.9243683000095,700.9243683000095,700.9243683000095,700.9243683000095,700.9243683000095,700.9243683000095,700.9243683000095,700.9243683000095,700.9243683000095,700.9243683000095,700.9243683000095,700.9243683000095,700.9243683000095,700.9243683000095,700.9243683000095,700.9243683000095,64,59,55,53,55,49,5.0,2.6740992999402806,,,,,,,,,,,,,[],[],[],[],[],[],[],-0.2,3,,[],[],[],[],[],[],[],,,,,None,None,706.136686099926,707.8065677999984,703.4345747999614,703.4345747999614,703.4345747999614,703.4345747999614,703.4345747999614,,,,,,,,,,,,,,264,m,23,2023-03-26_14h12.51.489,RL,2022.2.4,60.186361066127205,
1,-0.3,-0.225,0,60,60,60,,,,,,,,,,None,707.8065677999984,707.8065677999984,707.8065677999984,707.8065677999984,707.8065677999984,707.8065677999984,j,0.3776342999190092,708.2098824999994,708.2098824999994,708.2098824999994,708.2098824999994,708.2098824999994,708.2098824999994,708.5045248999959,708.5045248999959,709.7345734999981,709.7345734999981,709.7501514999894,709.7501514999894,709.7501514999894,709.7501514999894,709.7501514999894,709.7501514999894,709.7501514999894,709.7501514999894,709.7501514999894,709.7501514999894,709.7501514999894,709.7501514999894,709.7501514999894,709.7501514999894,709.7501514999894,57,60,52,60,60,45,6.0,2.1928959999931976,,,,,,,,,,,,,[],[],[],[],[],[],[],-0.2,2,,[],[],[],[],[],[],[],,,,,None,None,714.4821486999281,716.1669540000148,712.2607190000126,712.2607190000126,712.2607190000126,712.2607190000126,712.2607190000126,,,,,,,,,,,,,,264,m,23,2023-03-26_14h12.51.489,RL,2022.2.4,60.186361066127205,
0,0.3,0.225,0,61,61,61,,,,,,,,,,None,716.1669540000148,716.1669540000148,716.1669540000148,716.1669540000148,716.1669540000148,716.1669540000148,r,0.4249444999732077,716.6206559999846,716.6206559999846,716.6206559999846,716.6206559999846,716.6206559999846,716.6206559999846,716.9151600999758,716.9151600999758,718.5429259999655,718.5429259999655,718.5429259999655,718.5429259999655,718.5429259999655,718.5429259999655,718.5429259999655,718.5429259999655,718.5429259999655,718.5429259999655,718.5429259999655,718.5429259999655,718.5429259999655,718.5429259999655,718.5429259999655,718.5429259999655,718.5429259999655,64,53,47,62,64,52,6.0,1.1782606999622658,,,,,,,,,,,,,[],[],[],[],[],[],[],0.2,3,,[],[],[],[],[],[],[],,,,,None,None,722.2623808999779,723.8461075000232,721.0535979999695,721.0535979999695,721.0535979999695,721.0535979999695,721.0535979999695,,,,,,,,,,,,,,264,m,23,2023-03-26_14h12.51.489,RL,2022.2.4,60.186361066127205,
1,-0.3,-0.225,0,62,62,62,,,,,,,,,,None,723.8461075000232,723.8461075000232,723.8461075000232,723.8461075000232,723.8461075000232,723.8461075000232,j,0.5935961999930441,724.4659596999409,724.4659596999409,724.4659596999409,724.4659596999409,724.4659596999409,724.4659596999409,724.7603525000159,724.7603525000159,725.9227648000233,725.9227648000233,725.9227648000233,725.9227648000233,725.9227648000233,725.9227648000233,725.9227648000233,725.9227648000233,725.9227648000233,725.9227648000233,725.9227648000233,725.9227648000233,725.9227648000233,725.9227648000233,725.9227648000233,725.9227648000233,725.9227648000233,63,64,43,55,55,44,6.0,1.145896999980323,,,,,,,,,,,,,[],[],[],[],[],[],[],0.2,3,,[],[],[],[],[],[],[],,,,,None,None,729.607271399931,731.2756506999722,728.432541099959,728.432541099959,728.432541099959,728.432541099959,728.432541099959,,,,,,,,,,,,,,264,m,23,2023-03-26_14h12.51.489,RL,2022.2.4,60.186361066127205,
0,0.3,0.225,0,63,63,63,,,,,,,,,,None,731.2756506999722,731.2756506999722,731.2756506999722,731.2756506999722,731.2756506999722,731.2756506999722,i,0.5666265999898314,731.878226700006,731.878226700006,731.878226700006,731.878226700006,731.878226700006,731.878226700006,732.1734039000003,732.1734039000003,733.1036599000217,733.1036599000217,733.1036599000217,733.1036599000217,733.1036599000217,733.1036599000217,733.1036599000217,733.1036599000217,733.1036599000217,733.1036599000217,733.1036599000217,733.1036599000217,733.1036599000217,733.1036599000217,733.1036599000217,733.1036599000217,733.1036599000217,64,53,55,56,55,46,None,None,,,,,,,,,,,,,[],[],[],[],[],[],[],0.6,1,60,[0.007407407407407408],[-0.2916666666666667],[1],[0],[0],[4.299033600022085],['tijiao_random_2'],739.9409549999982,739.9409549999982,739.9409549999982,739.9409549999982,8.814814814814815,2.1068781999638304,742.0620084999828,743.7579516000114,,,,,,735.6283518000273,735.6283518000273,735.6283518000273,735.6283518000273,735.6283518000273,735.6283518000273,735.6283518000273,735.6283518000273,0.006836400018073618,735.6283518000273,,,,264,m,23,2023-03-26_14h12.51.489,RL,2022.2.4,60.186361066127205,
1,-0.3,-0.225,0,64,64,64,,,,,,,,,,None,743.7579516000114,743.7579516000114,743.7579516000114,743.7579516000114,743.7579516000114,743.7579516000114,j,0.3428637000033632,744.1296394999372,744.1296394999372,744.1296394999372,744.1296394999372,744.1296394999372,744.1296394999372,744.4232644999865,744.4232644999865,746.4168916000053,746.4168916000053,746.4168916000053,746.4168916000053,746.4168916000053,746.4168916000053,746.4168916000053,746.4168916000053,746.4168916000053,746.4168916000053,746.4168916000053,746.4168916000053,746.4168916000053,746.4168916000053,746.4168916000053,746.4168916000053,746.4168916000053,67,59,50,54,54,38,6.0,1.4294010000303388,,,,,,,,,,,,,[],[],[],[],[],[],[],0.2,3,,[],[],[],[],[],[],[],,,,,None,None,750.3870396999409,752.1023923999164,748.9272250999929,748.9272250999929,748.9272250999929,748.9272250999929,748.9272250999929,,,,,,,,,,,,,,264,m,23,2023-03-26_14h12.51.489,RL,2022.2.4,60.186361066127205,
0,0.3,0.225,0,65,65,65,,,,,,,,,,None,752.1023923999164,752.1023923999164,752.1023923999164,752.1023923999164,752.1023923999164,752.1023923999164,r,0.41100089997053146,752.5383005000185,752.5383005000185,752.5383005000185,752.5383005000185,752.5383005000185,752.5383005000185,752.833584100008,752.833584100008,754.428246299969,754.428246299969,754.428246299969,754.428246299969,754.428246299969,754.428246299969,754.428246299969,754.428246299969,754.428246299969,754.428246299969,754.428246299969,754.428246299969,754.428246299969,754.428246299969,754.428246299969,754.428246299969,754.428246299969,66,51,51,43,66,49,6.0,0.980113000026904,,,,,,,,,,,,,[],[],[],[],[],[],[],0.2,2,,[],[],[],[],[],[],[],,,,,None,None,757.9460823999252,759.6649822000181,756.9390509999357,756.9390509999357,756.9390509999357,756.9390509999357,756.9390509999357,,,,,,,,,,,,,,264,m,23,2023-03-26_14h12.51.489,RL,2022.2.4,60.186361066127205,
1,-0.3,-0.225,0,66,66,66,,,,,,,,,,None,759.6649822000181,759.6649822000181,759.6649822000181,759.6649822000181,759.6649822000181,759.6649822000181,f,0.7818273000884801,760.4828726999694,760.4828726999694,760.4828726999694,760.4828726999694,760.4828726999694,760.4828726999694,760.7786770999664,760.7786770999664,761.9423509999178,761.9423509999178,761.9578564999392,761.9578564999392,761.9578564999392,761.9578564999392,761.9578564999392,761.9578564999392,761.9578564999392,761.9578564999392,761.9578564999392,761.9578564999392,761.9578564999392,761.9578564999392,761.9578564999392,761.9578564999392,761.9578564999392,62,60,50,46,60,45,6.0,1.3777936999686062,,,,,,,,,,,,,[],[],[],[],[],[],[],-0.2,3,,[],[],[],[],[],[],[],,,,,None,None,765.8754173999187,767.5435752000194,764.4685406999197,764.4685406999197,764.4685406999197,764.4685406999197,764.4685406999197,,,,,,,,,,,,,,264,m,23,2023-03-26_14h12.51.489,RL,2022.2.4,60.186361066127205,
0,0.3,0.225,0,67,67,67,,,,,,,,,,None,767.5435752000194,767.5435752000194,767.5435752000194,767.5435752000194,767.5435752000194,767.5435752000194,i,0.613688200013712,768.1806766999653,768.1806766999653,768.1806766999653,768.1806766999653,768.1806766999653,768.1806766999653,768.4743186000269,768.4743186000269,770.0691296999576,770.0691296999576,770.0691296999576,770.0691296999576,770.0691296999576,770.0691296999576,770.0691296999576,770.0691296999576,770.0691296999576,770.0691296999576,770.0691296999576,770.0691296999576,770.0691296999576,770.0691296999576,770.0691296999576,770.0691296999576,770.0691296999576,72,51,53,54,53,46,7.0,1.7948971000732854,,,,,,,,,,,,,[],[],[],[],[],[],[],-0.2,3,,[],[],[],[],[],[],[],,,,,None,None,774.4031875999644,776.3191715999274,772.5792349999538,772.5792349999538,772.5792349999538,772.5792349999538,772.5792349999538,,,,,,,,,,,,,,264,m,23,2023-03-26_14h12.51.489,RL,2022.2.4,60.186361066127205,
1,-0.3,-0.225,0,68,68,68,,,,,,,,,,None,776.3191715999274,776.3191715999274,776.3191715999274,776.3191715999274,776.3191715999274,776.3191715999274,i,0.5324447000166401,776.8878921000287,776.8878921000287,776.8878921000287,776.8878921000287,776.8878921000287,776.8878921000287,777.1838416999672,777.1838416999672,778.2467078999616,778.2467078999616,778.2467078999616,778.2467078999616,778.2467078999616,778.2467078999616,778.2467078999616,778.2467078999616,778.2467078999616,778.2467078999616,778.2467078999616,778.2467078999616,778.2467078999616,778.2467078999616,778.2467078999616,778.2467078999616,778.2467078999616,55,56,63,52,63,39,7.0,1.611454900004901,,,,,,,,,,,,,[],[],[],[],[],[],[],-0.2,2,,[],[],[],[],[],[],[],,,,,None,None,782.3947081000078,783.9485056999838,780.757170900004,780.757170900004,780.757170900004,780.757170900004,780.757170900004,,,,,,,,,,,,,,264,m,23,2023-03-26_14h12.51.489,RL,2022.2.4,60.186361066127205,
0,0.3,0.225,0,69,69,69,,,,,,,,,,None,783.9485056999838,783.9485056999838,783.9485056999838,783.9485056999838,783.9485056999838,783.9485056999838,i,0.7013272000476718,784.6850018999539,784.6850018999539,784.6850018999539,784.6850018999539,784.6850018999539,784.6850018999539,784.9792128999252,784.9792128999252,785.9421609999845,785.9421609999845,785.9421609999845,785.9421609999845,785.9421609999845,785.9421609999845,785.9421609999845,785.9421609999845,785.9421609999845,785.9421609999845,785.9421609999845,785.9421609999845,785.9421609999845,785.9421609999845,785.9421609999845,785.9421609999845,785.9421609999845,63,63,60,58,60,44,None,None,,,,,,,,,,,,,[],[],[],[],[],[],[],0.2,1,60,[0.11481481481481481],[-0.2851851851851852],[1],[0],[0],[4.268990200012922],['tijiao_random_2'],792.7488976999884,792.7488976999884,792.7488976999884,792.7488976999884,10.194444444444445,2.2545521000865847,795.0170985999284,796.7136306000175,,,,,,788.465896599926,788.465896599926,788.465896599926,788.465896599926,788.465896599926,788.465896599926,788.465896599926,788.465896599926,0.006807600031606853,788.465896599926,,,,264,m,23,2023-03-26_14h12.51.489,RL,2022.2.4,60.186361066127205,
1,-0.3,-0.225,0,70,70,70,,,,,,,,,,None,796.7136306000175,796.7136306000175,796.7136306000175,796.7136306000175,796.7136306000175,796.7136306000175,i,0.3757222999120131,797.116397399921,797.116397399921,797.116397399921,797.116397399921,797.116397399921,797.116397399921,797.4118971999269,797.4118971999269,799.3392360999715,799.3392360999715,799.3392360999715,799.3392360999715,799.3392360999715,799.3392360999715,799.3392360999715,799.3392360999715,799.3392360999715,799.3392360999715,799.3392360999715,799.3392360999715,799.3392360999715,799.3392360999715,799.3392360999715,799.3392360999715,799.3392360999715,57,59,53,55,53,36,7.0,2.1268027999904007,,,,,,,,,,,,,[],[],[],[],[],[],[],0.2,2,,[],[],[],[],[],[],[],,,,,None,None,804.0047939999495,805.8391439999687,801.8485136999516,801.8485136999516,801.8485136999516,801.8485136999516,801.8485136999516,,,,,,,,,,,,,,264,m,23,2023-03-26_14h12.51.489,RL,2022.2.4,60.186361066127205,
0,0.3,0.225,0,71,71,71,,,,,,,,,,None,805.8391439999687,805.8391439999687,805.8391439999687,805.8391439999687,805.8391439999687,805.8391439999687,j,0.636055100010708,806.5082329999423,806.5082329999423,806.5082329999423,806.5082329999423,806.5082329999423,806.5082329999423,806.8029906000011,806.8029906000011,808.5634332000045,808.5634332000045,808.5801361999474,808.5801361999474,808.5801361999474,808.5801361999474,808.5801361999474,808.5801361999474,808.5801361999474,808.5801361999474,808.5801361999474,808.5801361999474,808.5801361999474,808.5801361999474,808.5801361999474,808.5801361999474,808.5801361999474,60,63,54,42,42,48,None,None,,,,,,,,,,,,,[],[],[],[],[],[],[],-0.6,1,30,[-0.07685185185185185],[-0.2916666666666667],[1],[0],[0],[3.917434800066985],['tijiao_random_2'],815.0386460999725,815.0386460999725,815.0386460999725,815.0386460999725,9.055555555555555,1.77727620000951,816.8418451999314,818.7371920000296,,,,,,811.1033320999704,811.1033320999704,811.1033320999704,811.1033320999704,811.1033320999704,811.1033320999704,811.1033320999704,811.1033320999704,0.006686300039291382,811.1033320999704,,,,264,m,23,2023-03-26_14h12.51.489,RL,2022.2.4,60.186361066127205,
1,-0.3,-0.225,0,72,72,72,,,,,,,,,,None,818.7371920000296,818.7371920000296,818.7371920000296,818.7371920000296,818.7371920000296,818.7371920000296,r,0.4079107000725344,819.1751127999742,819.1751127999742,819.1751127999742,819.1751127999742,819.1751127999742,819.1751127999742,819.4684544999618,819.4684544999618,821.3797773999395,821.3797773999395,821.3956049999688,821.3956049999688,821.3956049999688,821.3956049999688,821.3956049999688,821.3956049999688,821.3956049999688,821.3956049999688,821.3956049999688,821.3956049999688,821.3956049999688,821.3956049999688,821.3956049999688,821.3956049999688,821.3956049999688,60,52,60,48,60,61,None,None,,,,,,,,,,,,,[],[],[],[],[],[],[],-0.2,1,40,[0.012962962962962963],[-0.3138888888888889],[1],[0],[0],[3.5349580999463797],['tijiao_random_2'],827.4686762000201,827.4686762000201,827.4686762000201,827.4686762000201,9.092592592592592,1.7570009999908507,829.2405819999985,831.1531988999341,,,,,,823.9196491999319,823.9196491999319,823.9196491999319,823.9196491999319,823.9196491999319,823.9196491999319,823.9196491999319,823.9196491999319,0.006780200055800378,823.9196491999319,,,,264,m,23,2023-03-26_14h12.51.489,RL,2022.2.4,60.186361066127205,
0,0.3,0.225,0,73,73,73,,,,,,,,,,None,831.1531988999341,831.1531988999341,831.1531988999341,831.1531988999341,831.1531988999341,831.1531988999341,f,0.4650266000535339,831.6395025999518,831.6395025999518,831.6395025999518,831.6395025999518,831.6395025999518,831.6395025999518,831.9342720999848,831.9342720999848,833.7287296999712,833.7287296999712,833.7287296999712,833.7287296999712,833.7287296999712,833.7287296999712,833.7287296999712,833.7287296999712,833.7287296999712,833.7287296999712,833.7287296999712,833.7287296999712,833.7287296999712,833.7287296999712,833.7287296999712,833.7287296999712,833.7287296999712,58,51,58,34,51,51,4.0,1.9271123999496922,,,,,,,,,,,,,[],[],[],[],[],[],[],-0.2,2,,[],[],[],[],[],[],[],,,,,None,None,838.1943559999345,839.9623105999781,836.2391267999774,836.2391267999774,836.2391267999774,836.2391267999774,836.2391267999774,,,,,,,,,,,,,,264,m,23,2023-03-26_14h12.51.489,RL,2022.2.4,60.186361066127205,
1,-0.3,-0.225,0,74,74,74,,,,,,,,,,None,839.9623105999781,839.9623105999781,839.9623105999781,839.9623105999781,839.9623105999781,839.9623105999781,i,0.8027504999190569,840.7991519999923,840.7991519999923,840.7991519999923,840.7991519999923,840.7991519999923,840.7991519999923,841.0927914999193,841.0927914999193,842.2051352999406,842.2051352999406,842.2051352999406,842.2051352999406,842.2051352999406,842.2051352999406,842.2051352999406,842.2051352999406,842.2051352999406,842.2051352999406,842.2051352999406,842.2051352999406,842.2051352999406,842.2051352999406,842.2051352999406,842.2051352999406,842.2051352999406,51,45,66,41,66,10,None,None,,,,,,,,,,,,,[],[],[],[],[],[],[],0.6,1,70,[0.03148148148148148],[-0.2833333333333333],[1],[0],[0],[4.997409000061452],['tijiao_random_2'],849.7430297000101,849.7430297000101,849.7430297000101,849.7430297000101,10.092592592592592,1.8265787999844179,851.5792591000209,853.3093237000285,,,,,,844.7308030999266,844.7308030999266,844.7308030999266,844.7308030999266,844.7308030999266,844.7308030999266,844.7308030999266,844.7308030999266,0.007976800086908042,844.7308030999266,,,,264,m,23,2023-03-26_14h12.51.489,RL,2022.2.4,60.186361066127205,
0,0.3,0.225,0,75,75,75,,,,,,,,,,q,929.4197420999408,929.4197420999408,929.4197420999408,929.4197420999408,929.4197420999408,929.4197420999408,j,0.6766956000356004,930.1215132999932,930.1215132999932,930.1215132999932,930.1215132999932,930.1215132999932,930.1215132999932,930.4157601000043,930.4157601000043,931.5284803999821,931.5284803999821,931.5284803999821,931.5284803999821,931.5284803999821,931.5284803999821,931.5284803999821,931.5284803999821,931.5284803999821,931.5284803999821,931.5284803999821,931.5284803999821,931.5284803999821,931.5284803999821,931.5284803999821,931.5284803999821,931.5284803999821,64,45,66,44,44,38,6.0,1.76097129995469,,,,,,,,,,,,,[],[],[],[],[],[],[],-0.2,2,,[],[],[],[],[],[],[],,,,,None,None,935.8282411999535,937.7458254999947,934.0388588999631,934.0388588999631,934.0388588999631,934.0388588999631,934.0388588999631,,,,,,,,,,,853.3093237000285,853.3093237000285,76.08713400003035,264,m,23,2023-03-26_14h12.51.489,RL,2022.2.4,60.186361066127205,
1,-0.3,-0.225,0,76,76,76,,,,,,,,,,None,937.7458254999947,937.7458254999947,937.7458254999947,937.7458254999947,937.7458254999947,937.7458254999947,f,0.33862960000988096,938.115806399961,938.115806399961,938.115806399961,938.115806399961,938.115806399961,938.115806399961,938.4104593999218,938.4104593999218,939.7558991999831,939.7558991999831,939.7558991999831,939.7558991999831,939.7558991999831,939.7558991999831,939.7558991999831,939.7558991999831,939.7558991999831,939.7558991999831,939.7558991999831,939.7558991999831,939.7558991999831,939.7558991999831,939.7558991999831,939.7558991999831,939.7558991999831,66,53,62,41,53,60,3.0,1.5614496000343934,,,,,,,,,,,,,[],[],[],[],[],[],[],0.2,3,,[],[],[],[],[],[],[],,,,,None,None,943.8533664999995,945.6905209999532,942.2661833999446,942.2661833999446,942.2661833999446,942.2661833999446,942.2661833999446,,,,,,,,,,,,,,264,m,23,2023-03-26_14h12.51.489,RL,2022.2.4,60.186361066127205,
0,0.3,0.225,0,77,77,77,,,,,,,,,,None,945.6905209999532,945.6905209999532,945.6905209999532,945.6905209999532,945.6905209999532,945.6905209999532,i,0.5412048000143841,946.2606323999353,946.2606323999353,946.2606323999353,946.2606323999353,946.2606323999353,946.2606323999353,946.5548808999592,946.5548808999592,947.9340535999509,947.9340535999509,947.9340535999509,947.9340535999509,947.9340535999509,947.9340535999509,947.9340535999509,947.9340535999509,947.9340535999509,947.9340535999509,947.9340535999509,947.9340535999509,947.9340535999509,947.9340535999509,947.9340535999509,947.9340535999509,947.9340535999509,56,45,54,47,54,60,None,None,950.4494048999622,950.4494048999622,950.4494048999622,950.4494048999622,950.4494048999622,950.4494048999622,950.4494048999622,950.4494048999622,0.008721099933609366,950.4494048999622,70,70,[-0.009259259259259259],[-0.29259259259259257],[1],[0],[0],[3.8595868999836966],['tijiao'],0.6,0,,[],[],[],[],[],[],[],954.3294676999794,954.3294676999794,954.3294676999794,954.3294676999794,9.925925925925926,2.545208099996671,956.8926458000205,958.5555070999544,,,,,,,,,,,,,,,,,,,264,m,23,2023-03-26_14h12.51.489,RL,2022.2.4,60.186361066127205,
1,-0.3,-0.225,0,78,78,78,,,,,,,,,,None,958.5555070999544,958.5555070999544,958.5555070999544,958.5555070999544,958.5555070999544,958.5555070999544,i,0.4240663000382483,959.0084261000156,959.0084261000156,959.0084261000156,959.0084261000156,959.0084261000156,959.0084261000156,959.3035972999642,959.3035972999642,961.1652189999586,961.1652189999586,961.1805700999685,961.1805700999685,961.1805700999685,961.1805700999685,961.1805700999685,961.1805700999685,961.1805700999685,961.1805700999685,961.1805700999685,961.1805700999685,961.1805700999685,961.1805700999685,961.1805700999685,961.1805700999685,961.1805700999685,58,42,58,44,58,39,6.0,1.3954906000290066,,,,,,,,,,,,,[],[],[],[],[],[],[],0.6,2,,[],[],[],[],[],[],[],,,,,None,None,965.1159633999923,967.0149853000185,963.6911612999393,963.6911612999393,963.6911612999393,963.6911612999393,963.6911612999393,,,,,,,,,,,,,,264,m,23,2023-03-26_14h12.51.489,RL,2022.2.4,60.186361066127205,
0,0.3,0.225,0,79,79,79,,,,,,,,,,None,967.0149853000185,967.0149853000185,967.0149853000185,967.0149853000185,967.0149853000185,967.0149853000185,f,0.6512195999966934,967.7019293999765,967.7019293999765,967.7019293999765,967.7019293999765,967.7019293999765,967.7019293999765,967.9965174000245,967.9965174000245,969.7744589999784,969.7744589999784,969.7744589999784,969.7744589999784,969.7744589999784,969.7744589999784,969.7744589999784,969.7744589999784,969.7744589999784,969.7744589999784,969.7744589999784,969.7744589999784,969.7744589999784,969.7744589999784,969.7744589999784,969.7744589999784,969.7744589999784,62,48,58,56,48,45,5.0,1.7937471000477672,,,,,,,,,,,,,[],[],[],[],[],[],[],0.2,2,,[],[],[],[],[],[],[],,,,,None,None,974.1071862999815,976.0910826999461,972.2846752000041,972.2846752000041,972.2846752000041,972.2846752000041,972.2846752000041,,,,,,,,,,,,,,264,m,23,2023-03-26_14h12.51.489,RL,2022.2.4,60.186361066127205,
1,-0.3,-0.225,0,80,80,80,,,,,,,,,,None,976.0910826999461,976.0910826999461,976.0910826999461,976.0910826999461,976.0910826999461,976.0910826999461,j,0.422914499999024,976.5440097999526,976.5440097999526,976.5440097999526,976.5440097999526,976.5440097999526,976.5440097999526,976.8388664999511,976.8388664999511,977.7688350999961,977.7688350999961,977.7688350999961,977.7688350999961,977.7688350999961,977.7688350999961,977.7688350999961,977.7688350999961,977.7688350999961,977.7688350999961,977.7688350999961,977.7688350999961,977.7688350999961,977.7688350999961,977.7688350999961,977.7688350999961,977.7688350999961,60,36,58,49,49,41,5.0,1.3630318000214174,,,,,,,,,,,,,[],[],[],[],[],[],[],-0.6,2,,[],[],[],[],[],[],[],,,,,None,None,981.6704770999495,983.5376489999471,980.2797184999799,980.2797184999799,980.2797184999799,980.2797184999799,980.2797184999799,,,,,,,,,,,,,,264,m,23,2023-03-26_14h12.51.489,RL,2022.2.4,60.186361066127205,
0,0.3,0.225,0,81,81,81,,,,,,,,,,None,983.5376489999471,983.5376489999471,983.5376489999471,983.5376489999471,983.5376489999471,983.5376489999471,i,0.374458400066942,983.9410099999513,983.9410099999513,983.9410099999513,983.9410099999513,983.9410099999513,983.9410099999513,984.2355992000084,984.2355992000084,985.2318276999285,985.2318276999285,985.2318276999285,985.2318276999285,985.2318276999285,985.2318276999285,985.2318276999285,985.2318276999285,985.2318276999285,985.2318276999285,985.2318276999285,985.2318276999285,985.2318276999285,985.2318276999285,985.2318276999285,985.2318276999285,985.2318276999285,60,42,55,48,55,37,None,None,,,,,,,,,,,,,[],[],[],[],[],[],[],-0.6,1,30,[0.14629629629629629],[-0.28425925925925927],[1],[0],[0],[3.753724499954842],['tijiao_random_2'],991.5211248999694,991.5211248999694,991.5211248999694,991.5211248999694,8.925925925925926,2.2892155000008643,993.824655000004,995.7541608000174,,,,,,987.755046300008,987.755046300008,987.755046300008,987.755046300008,987.755046300008,987.755046300008,987.755046300008,987.755046300008,0.007136999978683889,987.755046300008,,,,264,m,23,2023-03-26_14h12.51.489,RL,2022.2.4,60.186361066127205,
1,-0.3,-0.225,0,82,82,82,,,,,,,,,,None,995.7541608000174,995.7541608000174,995.7541608000174,995.7541608000174,995.7541608000174,995.7541608000174,r,0.3970586000941694,996.174547099974,996.174547099974,996.174547099974,996.174547099974,996.174547099974,996.174547099974,996.4689758999739,996.4689758999739,997.5982096999651,997.5982096999651,997.5982096999651,997.5982096999651,997.5982096999651,997.5982096999651,997.5982096999651,997.5982096999651,997.5982096999651,997.5982096999651,997.5982096999651,997.5982096999651,997.5982096999651,997.5982096999651,997.5982096999651,997.5982096999651,997.5982096999651,67,47,57,46,67,59,None,None,,,,,,,,,,,,,[],[],[],[],[],[],[],0.6,1,70,[-0.014814814814814815],[-0.2861111111111111],[1],[0],[0],[4.152385900029913],['tijiao_random_2'],1004.2879239999456,1004.2879239999456,1004.2879239999456,1004.2879239999456,9.037037037037036,2.192054699989967,1006.4901879000245,1008.4694088000106,,,,,,1000.1204732999904,1000.1204732999904,1000.1204732999904,1000.1204732999904,1000.1204732999904,1000.1204732999904,1000.1204732999904,1000.1204732999904,0.008027100004255772,1000.1204732999904,,,,264,m,23,2023-03-26_14h12.51.489,RL,2022.2.4,60.186361066127205,
0,0.3,0.225,0,83,83,83,,,,,,,,,,None,1008.4694088000106,1008.4694088000106,1008.4694088000106,1008.4694088000106,1008.4694088000106,1008.4694088000106,j,1.2201196000678465,1009.7195777000161,1009.7195777000161,1009.7195777000161,1009.7195777000161,1009.7195777000161,1009.7195777000161,1010.0147007999476,1010.0147007999476,1011.2280537999468,1011.2280537999468,1011.244555799989,1011.244555799989,1011.244555799989,1011.244555799989,1011.244555799989,1011.244555799989,1011.244555799989,1011.244555799989,1011.244555799989,1011.244555799989,1011.244555799989,1011.244555799989,1011.244555799989,1011.244555799989,1011.244555799989,65,39,51,50,50,55,None,None,,,,,,,,,,,,,[],[],[],[],[],[],[],-0.6,1,40,[0.02962962962962963],[-0.2953703703703704],[1],[0],[0],[4.018848799983971],['tijiao_random_2'],1017.8010348000098,1017.8010348000098,1017.8010348000098,1017.8010348000098,9.037037037037036,1.8565495000220835,1019.6707823999459,1021.433582299971,,,,,,1013.7671908999328,1013.7671908999328,1013.7671908999328,1013.7671908999328,1013.7671908999328,1013.7671908999328,1013.7671908999328,1013.7671908999328,0.007207499933429062,1013.7671908999328,,,,264,m,23,2023-03-26_14h12.51.489,RL,2022.2.4,60.186361066127205,
1,-0.3,-0.225,0,84,84,84,,,,,,,,,,None,1021.433582299971,1021.433582299971,1021.433582299971,1021.433582299971,1021.433582299971,1021.433582299971,r,0.2545165999326855,1021.720776299946,1021.720776299946,1021.720776299946,1021.720776299946,1021.720776299946,1021.720776299946,1022.0154702999862,1022.0154702999862,1023.8430741999764,1023.8430741999764,1023.8430741999764,1023.8430741999764,1023.8430741999764,1023.8430741999764,1023.8430741999764,1023.8430741999764,1023.8430741999764,1023.8430741999764,1023.8430741999764,1023.8430741999764,1023.8430741999764,1023.8430741999764,1023.8430741999764,1023.8430741999764,1023.8430741999764,67,45,62,58,67,53,6.0,1.396096199983731,,,,,,,,,,,,,[],[],[],[],[],[],[],-0.6,2,,[],[],[],[],[],[],[],,,,,None,None,1027.7778497999534,1029.4120831999462,1026.3537975000218,1026.3537975000218,1026.3537975000218,1026.3537975000218,1026.3537975000218,,,,,,,,,,,,,,264,m,23,2023-03-26_14h12.51.489,RL,2022.2.4,60.186361066127205,
0,0.3,0.225,0,85,85,85,,,,,,,,,,None,1029.4120831999462,1029.4120831999462,1029.4120831999462,1029.4120831999462,1029.4120831999462,1029.4120831999462,i,0.5450315000489354,1029.9802432999713,1029.9802432999713,1029.9802432999713,1029.9802432999713,1029.9802432999713,1029.9802432999713,1030.276528700022,1030.276528700022,1031.2728780999314,1031.2728780999314,1031.2728780999314,1031.2728780999314,1031.2728780999314,1031.2728780999314,1031.2728780999314,1031.2728780999314,1031.2728780999314,1031.2728780999314,1031.2728780999314,1031.2728780999314,1031.2728780999314,1031.2728780999314,1031.2728780999314,1031.2728780999314,1031.2728780999314,60,43,51,52,51,42,None,None,,,,,,,,,,,,,[],[],[],[],[],[],[],-0.6,1,50,[0.05740740740740741],[-0.2962962962962963],[1],[0],[0],[3.5531807999359444],['tijiao_random_2'],1037.362389100017,1037.362389100017,1037.362389100017,1037.362389100017,8.916666666666668,2.0880233000498265,1039.4668208999792,1041.312996899942,,,,,,1033.7951814000262,1033.7951814000262,1033.7951814000262,1033.7951814000262,1033.7951814000262,1033.7951814000262,1033.7951814000262,1033.7951814000262,0.00661829998716712,1033.7951814000262,,,,264,m,23,2023-03-26_14h12.51.489,RL,2022.2.4,60.186361066127205,
1,-0.3,-0.225,0,86,86,86,,,,,,,,,,None,1041.312996899942,1041.312996899942,1041.312996899942,1041.312996899942,1041.312996899942,1041.312996899942,r,0.35738970001693815,1041.6995153999887,1041.6995153999887,1041.6995153999887,1041.6995153999887,1041.6995153999887,1041.6995153999887,1041.9946794999996,1041.9946794999996,1043.0243711000076,1043.0243711000076,1043.0243711000076,1043.0243711000076,1043.0243711000076,1043.0243711000076,1043.0243711000076,1043.0243711000076,1043.0243711000076,1043.0243711000076,1043.0243711000076,1043.0243711000076,1043.0243711000076,1043.0243711000076,1043.0243711000076,1043.0243711000076,1043.0243711000076,61,47,54,45,61,35,None,None,,,,,,,,,,,,,[],[],[],[],[],[],[],-0.2,1,60,[0.037037037037037035],[-0.3111111111111111],[1],[0],[0],[3.833433899912052],['tijiao_random_2'],1049.3936591999372,1049.3936591999372,1049.3936591999372,1049.3936591999372,10.064814814814815,1.8978638000553474,1051.300800499972,1052.8482831999427,,,,,,1045.548311599996,1045.548311599996,1045.548311599996,1045.548311599996,1045.548311599996,1045.548311599996,1045.548311599996,1045.548311599996,0.007543399930000305,1045.548311599996,,,,264,m,23,2023-03-26_14h12.51.489,RL,2022.2.4,60.186361066127205,
0,0.3,0.225,0,87,87,87,,,,,,,,,,None,1052.8482831999427,1052.8482831999427,1052.8482831999427,1052.8482831999427,1052.8482831999427,1052.8482831999427,j,0.35316280007828027,1053.2352128999773,1053.2352128999773,1053.2352128999773,1053.2352128999773,1053.2352128999773,1053.2352128999773,1053.5296023000265,1053.5296023000265,1055.5238441999536,1055.5238441999536,1055.5238441999536,1055.5238441999536,1055.5238441999536,1055.5238441999536,1055.5238441999536,1055.5238441999536,1055.5238441999536,1055.5238441999536,1055.5238441999536,1055.5238441999536,1055.5238441999536,1055.5238441999536,1055.5238441999536,1055.5238441999536,1055.5238441999536,71,39,58,44,44,40,None,None,,,,,,,,,,,,,[],[],[],[],[],[],[],-0.6,1,40,[0.044444444444444446],[-0.33055555555555555],[1],[0],[0],[2.9704626000020653],['tijiao_random_2'],1061.0317106000148,1061.0317106000148,1061.0317106000148,1061.0317106000148,8.916666666666668,1.7302139999810606,1062.770155099919,1064.4499702999601,,,,,,1058.0476012999425,1058.0476012999425,1058.0476012999425,1058.0476012999425,1058.0476012999425,1058.0476012999425,1058.0476012999425,1058.0476012999425,0.00791019992902875,1058.0476012999425,,,,264,m,23,2023-03-26_14h12.51.489,RL,2022.2.4,60.186361066127205,
1,-0.3,-0.225,0,88,88,88,,,,,,,,,,None,1064.4499702999601,1064.4499702999601,1064.4499702999601,1064.4499702999601,1064.4499702999601,1064.4499702999601,f,0.4192429999820888,1064.9032790999627,1064.9032790999627,1064.9032790999627,1064.9032790999627,1064.9032790999627,1064.9032790999627,1065.197924099979,1065.197924099979,1066.061460900004,1066.061460900004,1066.061460900004,1066.061460900004,1066.061460900004,1066.061460900004,1066.061460900004,1066.061460900004,1066.061460900004,1066.061460900004,1066.061460900004,1066.061460900004,1066.061460900004,1066.061460900004,1066.061460900004,1066.061460900004,1066.061460900004,53,33,56,44,33,45,3.0,1.3952564999926835,,,,,,,,,,,,,[],[],[],[],[],[],[],0.2,3,,[],[],[],[],[],[],[],,,,,None,None,1069.9951235000044,1071.6470867999597,1068.57171249995,1068.57171249995,1068.57171249995,1068.57171249995,1068.57171249995,,,,,,,,,,,,,,264,m,23,2023-03-26_14h12.51.489,RL,2022.2.4,60.186361066127205,
0,0.3,0.225,0,89,89,89,,,,,,,,,,None,1071.6470867999597,1071.6470867999597,1071.6470867999597,1071.6470867999597,1071.6470867999597,1071.6470867999597,r,0.850340300006792,1072.5315444000298,1072.5315444000298,1072.5315444000298,1072.5315444000298,1072.5315444000298,1072.5315444000298,1072.8257655999623,1072.8257655999623,1073.9558602999896,1073.9558602999896,1073.9558602999896,1073.9558602999896,1073.9558602999896,1073.9558602999896,1073.9558602999896,1073.9558602999896,1073.9558602999896,1073.9558602999896,1073.9558602999896,1073.9558602999896,1073.9558602999896,1073.9558602999896,1073.9558602999896,1073.9558602999896,1073.9558602999896,56,35,56,38,56,43,None,None,,,,,,,,,,,,,[],[],[],[],[],[],[],-0.6,1,50,[0.04814814814814815],[-0.30185185185185187],[1],[0],[0],[2.8222697000019252],['tijiao_random_2'],1079.3173833999317,1079.3173833999317,1079.3173833999317,1079.3173833999317,10.055555555555555,1.9028940999414772,1081.2371080999728,1082.9156893999316,,,,,,1076.4802077999339,1076.4802077999339,1076.4802077999339,1076.4802077999339,1076.4802077999339,1076.4802077999339,1076.4802077999339,1076.4802077999339,0.0069407999981194735,1076.4802077999339,,,,264,m,23,2023-03-26_14h12.51.489,RL,2022.2.4,60.186361066127205,
1,-0.3,-0.225,0,90,90,90,,,,,,,,,,None,1082.9156893999316,1082.9156893999316,1082.9156893999316,1082.9156893999316,1082.9156893999316,1082.9156893999316,r,0.3374545000260696,1083.2866868999554,1083.2866868999554,1083.2866868999554,1083.2866868999554,1083.2866868999554,1083.2866868999554,1083.5812788999174,1083.5812788999174,1085.1931323999306,1085.1931323999306,1085.2091589999618,1085.2091589999618,1085.2091589999618,1085.2091589999618,1085.2091589999618,1085.2091589999618,1085.2091589999618,1085.2091589999618,1085.2091589999618,1085.2091589999618,1085.2091589999618,1085.2091589999618,1085.2091589999618,1085.2091589999618,1085.2091589999618,61,41,56,44,61,41,None,None,,,,,,,,,,,,,[],[],[],[],[],[],[],0.2,1,70,[-0.017592592592592594],[-0.30092592592592593],[1],[0],[0],[3.021443499950692],['tijiao_random_2'],1090.7665828999598,1090.7665828999598,1090.7665828999598,1090.7665828999598,9.537037037037036,1.5924556999234483,1092.389635499916,1094.3510799999349,,,,,,1087.7311695999233,1087.7311695999233,1087.7311695999233,1087.7311695999233,1087.7311695999233,1087.7311695999233,1087.7311695999233,1087.7311695999233,0.006289400043897331,1087.7311695999233,,,,264,m,23,2023-03-26_14h12.51.489,RL,2022.2.4,60.186361066127205,
0,0.3,0.225,0,91,91,91,,,,,,,,,,None,1094.3510799999349,1094.3510799999349,1094.3510799999349,1094.3510799999349,1094.3510799999349,1094.3510799999349,i,0.3519243999617174,1094.7383979000151,1094.7383979000151,1094.7383979000151,1094.7383979000151,1094.7383979000151,1094.7383979000151,1095.0331235999474,1095.0331235999474,1096.5774986000033,1096.5774986000033,1096.5774986000033,1096.5774986000033,1096.5774986000033,1096.5774986000033,1096.5774986000033,1096.5774986000033,1096.5774986000033,1096.5774986000033,1096.5774986000033,1096.5774986000033,1096.5774986000033,1096.5774986000033,1096.5774986000033,1096.5774986000033,1096.5774986000033,62,39,40,37,40,68,2.0,1.7941977001028135,,,,,,,,,,,,,[],[],[],[],[],[],[],0.2,3,,[],[],[],[],[],[],[],,,,,None,None,1100.9123640999896,1102.445951599977,1099.0886009000242,1099.0886009000242,1099.0886009000242,1099.0886009000242,1099.0886009000242,,,,,,,,,,,,,,264,m,23,2023-03-26_14h12.51.489,RL,2022.2.4,60.186361066127205,
